"trial_type","trial_index","time_elapsed","internal_node_id","subject_id","task","startTime","totalTime","view_history","rt","event","trial","time","trialtype","success","stimulus","key_press","nowOffer","thenOffer","thenLeft","nowAmt","thenAmt","thenWeeks","chosen"
"pavlovia","0","2","0.0-0.0","63e5be4daa8fac2e51d4fe91","bdp_td","Tue Mar 28 2023 20:23:38 GMT-0400 (Eastern Daylight Time)","408216","","","","","","","","","","","","","","","",""
"instructions","1","4492","0.0-1.0","63e5be4daa8fac2e51d4fe91","bdp_td","Tue Mar 28 2023 20:23:38 GMT-0400 (Eastern Daylight Time)","408216","[{""page_index"":0,""viewing_time"":4489}]","4489","","","","","","","","","","","","","",""
"","","","","63e5be4daa8fac2e51d4fe91","bdp_td","Tue Mar 28 2023 20:23:38 GMT-0400 (Eastern Daylight Time)","408216","","","fullscreenenter","2","6421","fullscreenenter","","","","","","","","","",""
"fullscreen","2","7412","0.0-2.0","63e5be4daa8fac2e51d4fe91","bdp_td","Tue Mar 28 2023 20:23:38 GMT-0400 (Eastern Daylight Time)","408216","","","","","","","true","","","","","","","","",""
"instructions","3","331586","0.0-4.0","63e5be4daa8fac2e51d4fe91","bdp_td","Tue Mar 28 2023 20:23:38 GMT-0400 (Eastern Daylight Time)","408216","[{""page_index"":0,""viewing_time"":306031},{""page_index"":1,""viewing_time"":13729},{""page_index"":2,""viewing_time"":4414}]","324174","","","","","","","","","","","","","",""
"html-keyboard-response","4","332090","0.0-5.0-1.0","63e5be4daa8fac2e51d4fe91","bdp_td","Tue Mar 28 2023 20:23:38 GMT-0400 (Eastern Daylight Time)","408216","","null","","","","FIX","","<div class='trialBorder'><div class='vertical-center'><img style='vertical-align:center; align:center' src=img/fixation3.jpg></div></div>","null","","","","","","",""
"html-keyboard-response","5","335765","0.0-5.0-2.0","63e5be4daa8fac2e51d4fe91","bdp_td","Tue Mar 28 2023 20:23:38 GMT-0400 (Eastern Daylight Time)","408216","","3672","","","","offer","","<div class='trialBorder'><div class='vertical-center'><img style='vertical-align:center; align:center' src=img/fixation3.jpg></div><div class='cl'><div class='vertical-center'>$25<br>in<br>3 weeks</div></div><div class='cr'><div class='vertical-center'>$14<br><br>now</div></div><div class='respDivL'><div class='vertical-center'>(E)</div></div><div class='respDivR'><div class='vertical-center'>(I)</div></div></div>","E","$14<br><br>now","$25<br>in<br>3 weeks","1","14","25","3","THEN"
"html-keyboard-response","6","336018","0.0-5.0-3.0","63e5be4daa8fac2e51d4fe91","bdp_td","Tue Mar 28 2023 20:23:38 GMT-0400 (Eastern Daylight Time)","408216","","null","","","","offerFB","","<div class='trialBorder'><div class='vertical-center'><img style='vertical-align:center; align:center' src=img/fixation3.jpg></div><div class='cl'><div class='vertical-center'><font style='color:orange'>$25<br>in<br>3 weeks</font></div></div><div class='cr'><div class='vertical-center'>$14<br><br>now</div></div><div class='respDivL'><div class='vertical-center'><font style='color:orange'>(E)</font></div></div><div class='respDivR'><div class='vertical-center'>(I)</div></div></div>","null","$14<br><br>now","$25<br>in<br>3 weeks","1","14","25","3",""
"html-keyboard-response","7","336520","0.0-5.0-1.1","63e5be4daa8fac2e51d4fe91","bdp_td","Tue Mar 28 2023 20:23:38 GMT-0400 (Eastern Daylight Time)","408216","","null","","","","FIX","","<div class='trialBorder'><div class='vertical-center'><img style='vertical-align:center; align:center' src=img/fixation3.jpg></div></div>","null","","","","","","",""
"html-keyboard-response","8","337960","0.0-5.0-2.1","63e5be4daa8fac2e51d4fe91","bdp_td","Tue Mar 28 2023 20:23:38 GMT-0400 (Eastern Daylight Time)","408216","","1438","","","","offer","","<div class='trialBorder'><div class='vertical-center'><img style='vertical-align:center; align:center' src=img/fixation3.jpg></div><div class='cl'><div class='vertical-center'>$60<br>in<br>3 weeks</div></div><div class='cr'><div class='vertical-center'>$25<br><br>now</div></div><div class='respDivL'><div class='vertical-center'>(E)</div></div><div class='respDivR'><div class='vertical-center'>(I)</div></div></div>","E","$25<br><br>now","$60<br>in<br>3 weeks","1","25","60","3","THEN"
"html-keyboard-response","9","338211","0.0-5.0-3.1","63e5be4daa8fac2e51d4fe91","bdp_td","Tue Mar 28 2023 20:23:38 GMT-0400 (Eastern Daylight Time)","408216","","null","","","","offerFB","","<div class='trialBorder'><div class='vertical-center'><img style='vertical-align:center; align:center' src=img/fixation3.jpg></div><div class='cl'><div class='vertical-center'><font style='color:orange'>$60<br>in<br>3 weeks</font></div></div><div class='cr'><div class='vertical-center'>$25<br><br>now</div></div><div class='respDivL'><div class='vertical-center'><font style='color:orange'>(E)</font></div></div><div class='respDivR'><div class='vertical-center'>(I)</div></div></div>","null","$25<br><br>now","$60<br>in<br>3 weeks","1","25","60","3",""
"html-keyboard-response","10","338713","0.0-5.0-1.2","63e5be4daa8fac2e51d4fe91","bdp_td","Tue Mar 28 2023 20:23:38 GMT-0400 (Eastern Daylight Time)","408216","","null","","","","FIX","","<div class='trialBorder'><div class='vertical-center'><img style='vertical-align:center; align:center' src=img/fixation3.jpg></div></div>","null","","","","","","",""
"html-keyboard-response","11","340460","0.0-5.0-2.2","63e5be4daa8fac2e51d4fe91","bdp_td","Tue Mar 28 2023 20:23:38 GMT-0400 (Eastern Daylight Time)","408216","","1746","","","","offer","","<div class='trialBorder'><div class='vertical-center'><img style='vertical-align:center; align:center' src=img/fixation3.jpg></div><div class='cl'><div class='vertical-center'>$20<br><br>now</div></div><div class='cr'><div class='vertical-center'>$55<br>in<br>1 week</div></div><div class='respDivL'><div class='vertical-center'>(E)</div></div><div class='respDivR'><div class='vertical-center'>(I)</div></div></div>","I","$20<br><br>now","$55<br>in<br>1 week","0","20","55","1","THEN"
"html-keyboard-response","12","340712","0.0-5.0-3.2","63e5be4daa8fac2e51d4fe91","bdp_td","Tue Mar 28 2023 20:23:38 GMT-0400 (Eastern Daylight Time)","408216","","null","","","","offerFB","","<div class='trialBorder'><div class='vertical-center'><img style='vertical-align:center; align:center' src=img/fixation3.jpg></div><div class='cl'><div class='vertical-center'>$20<br><br>now</div></div><div class='cr'><div class='vertical-center'><font style='color:orange'>$55<br>in<br>1 week</font></div></div><div class='respDivL'><div class='vertical-center'>(E)</div></div><div class='respDivR'><div class='vertical-center'><font style='color:orange'>(I)</font></div></div></div>","null","$20<br><br>now","$55<br>in<br>1 week","0","20","55","1",""
"html-keyboard-response","13","341215","0.0-5.0-1.3","63e5be4daa8fac2e51d4fe91","bdp_td","Tue Mar 28 2023 20:23:38 GMT-0400 (Eastern Daylight Time)","408216","","null","","","","FIX","","<div class='trialBorder'><div class='vertical-center'><img style='vertical-align:center; align:center' src=img/fixation3.jpg></div></div>","null","","","","","","",""
"html-keyboard-response","14","343163","0.0-5.0-2.3","63e5be4daa8fac2e51d4fe91","bdp_td","Tue Mar 28 2023 20:23:38 GMT-0400 (Eastern Daylight Time)","408216","","1947","","","","offer","","<div class='trialBorder'><div class='vertical-center'><img style='vertical-align:center; align:center' src=img/fixation3.jpg></div><div class='cl'><div class='vertical-center'>$78<br><br>now</div></div><div class='cr'><div class='vertical-center'>$80<br>in<br>12 weeks</div></div><div class='respDivL'><div class='vertical-center'>(E)</div></div><div class='respDivR'><div class='vertical-center'>(I)</div></div></div>","E","$78<br><br>now","$80<br>in<br>12 weeks","0","78","80","12","NOW"
"html-keyboard-response","15","343415","0.0-5.0-3.3","63e5be4daa8fac2e51d4fe91","bdp_td","Tue Mar 28 2023 20:23:38 GMT-0400 (Eastern Daylight Time)","408216","","null","","","","offerFB","","<div class='trialBorder'><div class='vertical-center'><img style='vertical-align:center; align:center' src=img/fixation3.jpg></div><div class='cl'><div class='vertical-center'><font style='color:orange'>$78<br><br>now</font></div></div><div class='cr'><div class='vertical-center'>$80<br>in<br>12 weeks</div></div><div class='respDivL'><div class='vertical-center'><font style='color:orange'>(E)</font></div></div><div class='respDivR'><div class='vertical-center'>(I)</div></div></div>","null","$78<br><br>now","$80<br>in<br>12 weeks","0","78","80","12",""
"html-keyboard-response","16","343918","0.0-5.0-1.4","63e5be4daa8fac2e51d4fe91","bdp_td","Tue Mar 28 2023 20:23:38 GMT-0400 (Eastern Daylight Time)","408216","","null","","","","FIX","","<div class='trialBorder'><div class='vertical-center'><img style='vertical-align:center; align:center' src=img/fixation3.jpg></div></div>","null","","","","","","",""
"html-keyboard-response","17","345384","0.0-5.0-2.4","63e5be4daa8fac2e51d4fe91","bdp_td","Tue Mar 28 2023 20:23:38 GMT-0400 (Eastern Daylight Time)","408216","","1465","","","","offer","","<div class='trialBorder'><div class='vertical-center'><img style='vertical-align:center; align:center' src=img/fixation3.jpg></div><div class='cl'><div class='vertical-center'>$47<br><br>now</div></div><div class='cr'><div class='vertical-center'>$50<br>in<br>12 weeks</div></div><div class='respDivL'><div class='vertical-center'>(E)</div></div><div class='respDivR'><div class='vertical-center'>(I)</div></div></div>","E","$47<br><br>now","$50<br>in<br>12 weeks","0","47","50","12","NOW"
"html-keyboard-response","18","345636","0.0-5.0-3.4","63e5be4daa8fac2e51d4fe91","bdp_td","Tue Mar 28 2023 20:23:38 GMT-0400 (Eastern Daylight Time)","408216","","null","","","","offerFB","","<div class='trialBorder'><div class='vertical-center'><img style='vertical-align:center; align:center' src=img/fixation3.jpg></div><div class='cl'><div class='vertical-center'><font style='color:orange'>$47<br><br>now</font></div></div><div class='cr'><div class='vertical-center'>$50<br>in<br>12 weeks</div></div><div class='respDivL'><div class='vertical-center'><font style='color:orange'>(E)</font></div></div><div class='respDivR'><div class='vertical-center'>(I)</div></div></div>","null","$47<br><br>now","$50<br>in<br>12 weeks","0","47","50","12",""
"html-keyboard-response","19","346138","0.0-5.0-1.5","63e5be4daa8fac2e51d4fe91","bdp_td","Tue Mar 28 2023 20:23:38 GMT-0400 (Eastern Daylight Time)","408216","","null","","","","FIX","","<div class='trialBorder'><div class='vertical-center'><img style='vertical-align:center; align:center' src=img/fixation3.jpg></div></div>","null","","","","","","",""
"html-keyboard-response","20","349790","0.0-5.0-2.5","63e5be4daa8fac2e51d4fe91","bdp_td","Tue Mar 28 2023 20:23:38 GMT-0400 (Eastern Daylight Time)","408216","","3651","","","","offer","","<div class='trialBorder'><div class='vertical-center'><img style='vertical-align:center; align:center' src=img/fixation3.jpg></div><div class='cl'><div class='vertical-center'>$24<br><br>now</div></div><div class='cr'><div class='vertical-center'>$35<br>in<br>3 weeks</div></div><div class='respDivL'><div class='vertical-center'>(E)</div></div><div class='respDivR'><div class='vertical-center'>(I)</div></div></div>","I","$24<br><br>now","$35<br>in<br>3 weeks","0","24","35","3","THEN"
"html-keyboard-response","21","350041","0.0-5.0-3.5","63e5be4daa8fac2e51d4fe91","bdp_td","Tue Mar 28 2023 20:23:38 GMT-0400 (Eastern Daylight Time)","408216","","null","","","","offerFB","","<div class='trialBorder'><div class='vertical-center'><img style='vertical-align:center; align:center' src=img/fixation3.jpg></div><div class='cl'><div class='vertical-center'>$24<br><br>now</div></div><div class='cr'><div class='vertical-center'><font style='color:orange'>$35<br>in<br>3 weeks</font></div></div><div class='respDivL'><div class='vertical-center'>(E)</div></div><div class='respDivR'><div class='vertical-center'><font style='color:orange'>(I)</font></div></div></div>","null","$24<br><br>now","$35<br>in<br>3 weeks","0","24","35","3",""
"html-keyboard-response","22","350543","0.0-5.0-1.6","63e5be4daa8fac2e51d4fe91","bdp_td","Tue Mar 28 2023 20:23:38 GMT-0400 (Eastern Daylight Time)","408216","","null","","","","FIX","","<div class='trialBorder'><div class='vertical-center'><img style='vertical-align:center; align:center' src=img/fixation3.jpg></div></div>","null","","","","","","",""
"html-keyboard-response","23","352072","0.0-5.0-2.6","63e5be4daa8fac2e51d4fe91","bdp_td","Tue Mar 28 2023 20:23:38 GMT-0400 (Eastern Daylight Time)","408216","","1528","","","","offer","","<div class='trialBorder'><div class='vertical-center'><img style='vertical-align:center; align:center' src=img/fixation3.jpg></div><div class='cl'><div class='vertical-center'>$54<br><br>now</div></div><div class='cr'><div class='vertical-center'>$60<br>in<br>12 weeks</div></div><div class='respDivL'><div class='vertical-center'>(E)</div></div><div class='respDivR'><div class='vertical-center'>(I)</div></div></div>","E","$54<br><br>now","$60<br>in<br>12 weeks","0","54","60","12","NOW"
"html-keyboard-response","24","352325","0.0-5.0-3.6","63e5be4daa8fac2e51d4fe91","bdp_td","Tue Mar 28 2023 20:23:38 GMT-0400 (Eastern Daylight Time)","408216","","null","","","","offerFB","","<div class='trialBorder'><div class='vertical-center'><img style='vertical-align:center; align:center' src=img/fixation3.jpg></div><div class='cl'><div class='vertical-center'><font style='color:orange'>$54<br><br>now</font></div></div><div class='cr'><div class='vertical-center'>$60<br>in<br>12 weeks</div></div><div class='respDivL'><div class='vertical-center'><font style='color:orange'>(E)</font></div></div><div class='respDivR'><div class='vertical-center'>(I)</div></div></div>","null","$54<br><br>now","$60<br>in<br>12 weeks","0","54","60","12",""
"html-keyboard-response","25","352826","0.0-5.0-1.7","63e5be4daa8fac2e51d4fe91","bdp_td","Tue Mar 28 2023 20:23:38 GMT-0400 (Eastern Daylight Time)","408216","","null","","","","FIX","","<div class='trialBorder'><div class='vertical-center'><img style='vertical-align:center; align:center' src=img/fixation3.jpg></div></div>","null","","","","","","",""
"html-keyboard-response","26","355847","0.0-5.0-2.7","63e5be4daa8fac2e51d4fe91","bdp_td","Tue Mar 28 2023 20:23:38 GMT-0400 (Eastern Daylight Time)","408216","","3019","","","","offer","","<div class='trialBorder'><div class='vertical-center'><img style='vertical-align:center; align:center' src=img/fixation3.jpg></div><div class='cl'><div class='vertical-center'>$25<br>in<br>12 weeks</div></div><div class='cr'><div class='vertical-center'>$22<br><br>now</div></div><div class='respDivL'><div class='vertical-center'>(E)</div></div><div class='respDivR'><div class='vertical-center'>(I)</div></div></div>","I","$22<br><br>now","$25<br>in<br>12 weeks","1","22","25","12","NOW"
"html-keyboard-response","27","356100","0.0-5.0-3.7","63e5be4daa8fac2e51d4fe91","bdp_td","Tue Mar 28 2023 20:23:38 GMT-0400 (Eastern Daylight Time)","408216","","null","","","","offerFB","","<div class='trialBorder'><div class='vertical-center'><img style='vertical-align:center; align:center' src=img/fixation3.jpg></div><div class='cl'><div class='vertical-center'>$25<br>in<br>12 weeks</div></div><div class='cr'><div class='vertical-center'><font style='color:orange'>$22<br><br>now</font></div></div><div class='respDivL'><div class='vertical-center'>(E)</div></div><div class='respDivR'><div class='vertical-center'><font style='color:orange'>(I)</font></div></div></div>","null","$22<br><br>now","$25<br>in<br>12 weeks","1","22","25","12",""
"html-keyboard-response","28","356602","0.0-5.0-1.8","63e5be4daa8fac2e51d4fe91","bdp_td","Tue Mar 28 2023 20:23:38 GMT-0400 (Eastern Daylight Time)","408216","","null","","","","FIX","","<div class='trialBorder'><div class='vertical-center'><img style='vertical-align:center; align:center' src=img/fixation3.jpg></div></div>","null","","","","","","",""
"html-keyboard-response","29","359318","0.0-5.0-2.8","63e5be4daa8fac2e51d4fe91","bdp_td","Tue Mar 28 2023 20:23:38 GMT-0400 (Eastern Daylight Time)","408216","","2715","","","","offer","","<div class='trialBorder'><div class='vertical-center'><img style='vertical-align:center; align:center' src=img/fixation3.jpg></div><div class='cl'><div class='vertical-center'>$33<br><br>now</div></div><div class='cr'><div class='vertical-center'>$80<br>in<br>2 weeks</div></div><div class='respDivL'><div class='vertical-center'>(E)</div></div><div class='respDivR'><div class='vertical-center'>(I)</div></div></div>","I","$33<br><br>now","$80<br>in<br>2 weeks","0","33","80","2","THEN"
"html-keyboard-response","30","359570","0.0-5.0-3.8","63e5be4daa8fac2e51d4fe91","bdp_td","Tue Mar 28 2023 20:23:38 GMT-0400 (Eastern Daylight Time)","408216","","null","","","","offerFB","","<div class='trialBorder'><div class='vertical-center'><img style='vertical-align:center; align:center' src=img/fixation3.jpg></div><div class='cl'><div class='vertical-center'>$33<br><br>now</div></div><div class='cr'><div class='vertical-center'><font style='color:orange'>$80<br>in<br>2 weeks</font></div></div><div class='respDivL'><div class='vertical-center'>(E)</div></div><div class='respDivR'><div class='vertical-center'><font style='color:orange'>(I)</font></div></div></div>","null","$33<br><br>now","$80<br>in<br>2 weeks","0","33","80","2",""
"html-keyboard-response","31","360072","0.0-5.0-1.9","63e5be4daa8fac2e51d4fe91","bdp_td","Tue Mar 28 2023 20:23:38 GMT-0400 (Eastern Daylight Time)","408216","","null","","","","FIX","","<div class='trialBorder'><div class='vertical-center'><img style='vertical-align:center; align:center' src=img/fixation3.jpg></div></div>","null","","","","","","",""
"html-keyboard-response","32","362159","0.0-5.0-2.9","63e5be4daa8fac2e51d4fe91","bdp_td","Tue Mar 28 2023 20:23:38 GMT-0400 (Eastern Daylight Time)","408216","","2086","","","","offer","","<div class='trialBorder'><div class='vertical-center'><img style='vertical-align:center; align:center' src=img/fixation3.jpg></div><div class='cl'><div class='vertical-center'>$60<br>in<br>6 weeks</div></div><div class='cr'><div class='vertical-center'>$49<br><br>now</div></div><div class='respDivL'><div class='vertical-center'>(E)</div></div><div class='respDivR'><div class='vertical-center'>(I)</div></div></div>","I","$49<br><br>now","$60<br>in<br>6 weeks","1","49","60","6","NOW"
"html-keyboard-response","33","362411","0.0-5.0-3.9","63e5be4daa8fac2e51d4fe91","bdp_td","Tue Mar 28 2023 20:23:38 GMT-0400 (Eastern Daylight Time)","408216","","null","","","","offerFB","","<div class='trialBorder'><div class='vertical-center'><img style='vertical-align:center; align:center' src=img/fixation3.jpg></div><div class='cl'><div class='vertical-center'>$60<br>in<br>6 weeks</div></div><div class='cr'><div class='vertical-center'><font style='color:orange'>$49<br><br>now</font></div></div><div class='respDivL'><div class='vertical-center'>(E)</div></div><div class='respDivR'><div class='vertical-center'><font style='color:orange'>(I)</font></div></div></div>","null","$49<br><br>now","$60<br>in<br>6 weeks","1","49","60","6",""
"html-keyboard-response","34","362913","0.0-5.0-1.10","63e5be4daa8fac2e51d4fe91","bdp_td","Tue Mar 28 2023 20:23:38 GMT-0400 (Eastern Daylight Time)","408216","","null","","","","FIX","","<div class='trialBorder'><div class='vertical-center'><img style='vertical-align:center; align:center' src=img/fixation3.jpg></div></div>","null","","","","","","",""
"html-keyboard-response","35","365381","0.0-5.0-2.10","63e5be4daa8fac2e51d4fe91","bdp_td","Tue Mar 28 2023 20:23:38 GMT-0400 (Eastern Daylight Time)","408216","","2467","","","","offer","","<div class='trialBorder'><div class='vertical-center'><img style='vertical-align:center; align:center' src=img/fixation3.jpg></div><div class='cl'><div class='vertical-center'>$35<br>in<br>2 weeks</div></div><div class='cr'><div class='vertical-center'>$15<br><br>now</div></div><div class='respDivL'><div class='vertical-center'>(E)</div></div><div class='respDivR'><div class='vertical-center'>(I)</div></div></div>","E","$15<br><br>now","$35<br>in<br>2 weeks","1","15","35","2","THEN"
"html-keyboard-response","36","365634","0.0-5.0-3.10","63e5be4daa8fac2e51d4fe91","bdp_td","Tue Mar 28 2023 20:23:38 GMT-0400 (Eastern Daylight Time)","408216","","null","","","","offerFB","","<div class='trialBorder'><div class='vertical-center'><img style='vertical-align:center; align:center' src=img/fixation3.jpg></div><div class='cl'><div class='vertical-center'><font style='color:orange'>$35<br>in<br>2 weeks</font></div></div><div class='cr'><div class='vertical-center'>$15<br><br>now</div></div><div class='respDivL'><div class='vertical-center'><font style='color:orange'>(E)</font></div></div><div class='respDivR'><div class='vertical-center'>(I)</div></div></div>","null","$15<br><br>now","$35<br>in<br>2 weeks","1","15","35","2",""
"html-keyboard-response","37","366136","0.0-5.0-1.11","63e5be4daa8fac2e51d4fe91","bdp_td","Tue Mar 28 2023 20:23:38 GMT-0400 (Eastern Daylight Time)","408216","","null","","","","FIX","","<div class='trialBorder'><div class='vertical-center'><img style='vertical-align:center; align:center' src=img/fixation3.jpg></div></div>","null","","","","","","",""
"html-keyboard-response","38","367902","0.0-5.0-2.11","63e5be4daa8fac2e51d4fe91","bdp_td","Tue Mar 28 2023 20:23:38 GMT-0400 (Eastern Daylight Time)","408216","","1764","","","","offer","","<div class='trialBorder'><div class='vertical-center'><img style='vertical-align:center; align:center' src=img/fixation3.jpg></div><div class='cl'><div class='vertical-center'>$80<br><br>now</div></div><div class='cr'><div class='vertical-center'>$85<br>in<br>12 weeks</div></div><div class='respDivL'><div class='vertical-center'>(E)</div></div><div class='respDivR'><div class='vertical-center'>(I)</div></div></div>","E","$80<br><br>now","$85<br>in<br>12 weeks","0","80","85","12","NOW"
"html-keyboard-response","39","368155","0.0-5.0-3.11","63e5be4daa8fac2e51d4fe91","bdp_td","Tue Mar 28 2023 20:23:38 GMT-0400 (Eastern Daylight Time)","408216","","null","","","","offerFB","","<div class='trialBorder'><div class='vertical-center'><img style='vertical-align:center; align:center' src=img/fixation3.jpg></div><div class='cl'><div class='vertical-center'><font style='color:orange'>$80<br><br>now</font></div></div><div class='cr'><div class='vertical-center'>$85<br>in<br>12 weeks</div></div><div class='respDivL'><div class='vertical-center'><font style='color:orange'>(E)</font></div></div><div class='respDivR'><div class='vertical-center'>(I)</div></div></div>","null","$80<br><br>now","$85<br>in<br>12 weeks","0","80","85","12",""
"html-keyboard-response","40","368657","0.0-5.0-1.12","63e5be4daa8fac2e51d4fe91","bdp_td","Tue Mar 28 2023 20:23:38 GMT-0400 (Eastern Daylight Time)","408216","","null","","","","FIX","","<div class='trialBorder'><div class='vertical-center'><img style='vertical-align:center; align:center' src=img/fixation3.jpg></div></div>","null","","","","","","",""
"html-keyboard-response","41","369903","0.0-5.0-2.12","63e5be4daa8fac2e51d4fe91","bdp_td","Tue Mar 28 2023 20:23:38 GMT-0400 (Eastern Daylight Time)","408216","","1245","","","","offer","","<div class='trialBorder'><div class='vertical-center'><img style='vertical-align:center; align:center' src=img/fixation3.jpg></div><div class='cl'><div class='vertical-center'>$54<br><br>now</div></div><div class='cr'><div class='vertical-center'>$55<br>in<br>12 weeks</div></div><div class='respDivL'><div class='vertical-center'>(E)</div></div><div class='respDivR'><div class='vertical-center'>(I)</div></div></div>","E","$54<br><br>now","$55<br>in<br>12 weeks","0","54","55","12","NOW"
"html-keyboard-response","42","370159","0.0-5.0-3.12","63e5be4daa8fac2e51d4fe91","bdp_td","Tue Mar 28 2023 20:23:38 GMT-0400 (Eastern Daylight Time)","408216","","null","","","","offerFB","","<div class='trialBorder'><div class='vertical-center'><img style='vertical-align:center; align:center' src=img/fixation3.jpg></div><div class='cl'><div class='vertical-center'><font style='color:orange'>$54<br><br>now</font></div></div><div class='cr'><div class='vertical-center'>$55<br>in<br>12 weeks</div></div><div class='respDivL'><div class='vertical-center'><font style='color:orange'>(E)</font></div></div><div class='respDivR'><div class='vertical-center'>(I)</div></div></div>","null","$54<br><br>now","$55<br>in<br>12 weeks","0","54","55","12",""
"html-keyboard-response","43","370660","0.0-5.0-1.13","63e5be4daa8fac2e51d4fe91","bdp_td","Tue Mar 28 2023 20:23:38 GMT-0400 (Eastern Daylight Time)","408216","","null","","","","FIX","","<div class='trialBorder'><div class='vertical-center'><img style='vertical-align:center; align:center' src=img/fixation3.jpg></div></div>","null","","","","","","",""
"html-keyboard-response","44","372007","0.0-5.0-2.13","63e5be4daa8fac2e51d4fe91","bdp_td","Tue Mar 28 2023 20:23:38 GMT-0400 (Eastern Daylight Time)","408216","","1346","","","","offer","","<div class='trialBorder'><div class='vertical-center'><img style='vertical-align:center; align:center' src=img/fixation3.jpg></div><div class='cl'><div class='vertical-center'>$28<br><br>now</div></div><div class='cr'><div class='vertical-center'>$30<br>in<br>12 weeks</div></div><div class='respDivL'><div class='vertical-center'>(E)</div></div><div class='respDivR'><div class='vertical-center'>(I)</div></div></div>","E","$28<br><br>now","$30<br>in<br>12 weeks","0","28","30","12","NOW"
"html-keyboard-response","45","372259","0.0-5.0-3.13","63e5be4daa8fac2e51d4fe91","bdp_td","Tue Mar 28 2023 20:23:38 GMT-0400 (Eastern Daylight Time)","408216","","null","","","","offerFB","","<div class='trialBorder'><div class='vertical-center'><img style='vertical-align:center; align:center' src=img/fixation3.jpg></div><div class='cl'><div class='vertical-center'><font style='color:orange'>$28<br><br>now</font></div></div><div class='cr'><div class='vertical-center'>$30<br>in<br>12 weeks</div></div><div class='respDivL'><div class='vertical-center'><font style='color:orange'>(E)</font></div></div><div class='respDivR'><div class='vertical-center'>(I)</div></div></div>","null","$28<br><br>now","$30<br>in<br>12 weeks","0","28","30","12",""
"html-keyboard-response","46","372762","0.0-5.0-1.14","63e5be4daa8fac2e51d4fe91","bdp_td","Tue Mar 28 2023 20:23:38 GMT-0400 (Eastern Daylight Time)","408216","","null","","","","FIX","","<div class='trialBorder'><div class='vertical-center'><img style='vertical-align:center; align:center' src=img/fixation3.jpg></div></div>","null","","","","","","",""
"html-keyboard-response","47","374746","0.0-5.0-2.14","63e5be4daa8fac2e51d4fe91","bdp_td","Tue Mar 28 2023 20:23:38 GMT-0400 (Eastern Daylight Time)","408216","","1983","","","","offer","","<div class='trialBorder'><div class='vertical-center'><img style='vertical-align:center; align:center' src=img/fixation3.jpg></div><div class='cl'><div class='vertical-center'>$80<br>in<br>3 weeks</div></div><div class='cr'><div class='vertical-center'>$54<br><br>now</div></div><div class='respDivL'><div class='vertical-center'>(E)</div></div><div class='respDivR'><div class='vertical-center'>(I)</div></div></div>","E","$54<br><br>now","$80<br>in<br>3 weeks","1","54","80","3","THEN"
"html-keyboard-response","48","374999","0.0-5.0-3.14","63e5be4daa8fac2e51d4fe91","bdp_td","Tue Mar 28 2023 20:23:38 GMT-0400 (Eastern Daylight Time)","408216","","null","","","","offerFB","","<div class='trialBorder'><div class='vertical-center'><img style='vertical-align:center; align:center' src=img/fixation3.jpg></div><div class='cl'><div class='vertical-center'><font style='color:orange'>$80<br>in<br>3 weeks</font></div></div><div class='cr'><div class='vertical-center'>$54<br><br>now</div></div><div class='respDivL'><div class='vertical-center'><font style='color:orange'>(E)</font></div></div><div class='respDivR'><div class='vertical-center'>(I)</div></div></div>","null","$54<br><br>now","$80<br>in<br>3 weeks","1","54","80","3",""
"html-keyboard-response","49","375500","0.0-5.0-1.15","63e5be4daa8fac2e51d4fe91","bdp_td","Tue Mar 28 2023 20:23:38 GMT-0400 (Eastern Daylight Time)","408216","","null","","","","FIX","","<div class='trialBorder'><div class='vertical-center'><img style='vertical-align:center; align:center' src=img/fixation3.jpg></div></div>","null","","","","","","",""
"html-keyboard-response","50","377127","0.0-5.0-2.15","63e5be4daa8fac2e51d4fe91","bdp_td","Tue Mar 28 2023 20:23:38 GMT-0400 (Eastern Daylight Time)","408216","","1626","","","","offer","","<div class='trialBorder'><div class='vertical-center'><img style='vertical-align:center; align:center' src=img/fixation3.jpg></div><div class='cl'><div class='vertical-center'>$55<br><br>now</div></div><div class='cr'><div class='vertical-center'>$75<br>in<br>6 weeks</div></div><div class='respDivL'><div class='vertical-center'>(E)</div></div><div class='respDivR'><div class='vertical-center'>(I)</div></div></div>","E","$55<br><br>now","$75<br>in<br>6 weeks","0","55","75","6","NOW"
"html-keyboard-response","51","377379","0.0-5.0-3.15","63e5be4daa8fac2e51d4fe91","bdp_td","Tue Mar 28 2023 20:23:38 GMT-0400 (Eastern Daylight Time)","408216","","null","","","","offerFB","","<div class='trialBorder'><div class='vertical-center'><img style='vertical-align:center; align:center' src=img/fixation3.jpg></div><div class='cl'><div class='vertical-center'><font style='color:orange'>$55<br><br>now</font></div></div><div class='cr'><div class='vertical-center'>$75<br>in<br>6 weeks</div></div><div class='respDivL'><div class='vertical-center'><font style='color:orange'>(E)</font></div></div><div class='respDivR'><div class='vertical-center'>(I)</div></div></div>","null","$55<br><br>now","$75<br>in<br>6 weeks","0","55","75","6",""
"html-keyboard-response","52","377881","0.0-5.0-1.16","63e5be4daa8fac2e51d4fe91","bdp_td","Tue Mar 28 2023 20:23:38 GMT-0400 (Eastern Daylight Time)","408216","","null","","","","FIX","","<div class='trialBorder'><div class='vertical-center'><img style='vertical-align:center; align:center' src=img/fixation3.jpg></div></div>","null","","","","","","",""
"html-keyboard-response","53","379968","0.0-5.0-2.16","63e5be4daa8fac2e51d4fe91","bdp_td","Tue Mar 28 2023 20:23:38 GMT-0400 (Eastern Daylight Time)","408216","","2085","","","","offer","","<div class='trialBorder'><div class='vertical-center'><img style='vertical-align:center; align:center' src=img/fixation3.jpg></div><div class='cl'><div class='vertical-center'>$30<br>in<br>2 weeks</div></div><div class='cr'><div class='vertical-center'>$11<br><br>now</div></div><div class='respDivL'><div class='vertical-center'>(E)</div></div><div class='respDivR'><div class='vertical-center'>(I)</div></div></div>","E","$11<br><br>now","$30<br>in<br>2 weeks","1","11","30","2","THEN"
"html-keyboard-response","54","380220","0.0-5.0-3.16","63e5be4daa8fac2e51d4fe91","bdp_td","Tue Mar 28 2023 20:23:38 GMT-0400 (Eastern Daylight Time)","408216","","null","","","","offerFB","","<div class='trialBorder'><div class='vertical-center'><img style='vertical-align:center; align:center' src=img/fixation3.jpg></div><div class='cl'><div class='vertical-center'><font style='color:orange'>$30<br>in<br>2 weeks</font></div></div><div class='cr'><div class='vertical-center'>$11<br><br>now</div></div><div class='respDivL'><div class='vertical-center'><font style='color:orange'>(E)</font></div></div><div class='respDivR'><div class='vertical-center'>(I)</div></div></div>","null","$11<br><br>now","$30<br>in<br>2 weeks","1","11","30","2",""
"html-keyboard-response","55","380721","0.0-5.0-1.17","63e5be4daa8fac2e51d4fe91","bdp_td","Tue Mar 28 2023 20:23:38 GMT-0400 (Eastern Daylight Time)","408216","","null","","","","FIX","","<div class='trialBorder'><div class='vertical-center'><img style='vertical-align:center; align:center' src=img/fixation3.jpg></div></div>","null","","","","","","",""
"html-keyboard-response","56","382562","0.0-5.0-2.17","63e5be4daa8fac2e51d4fe91","bdp_td","Tue Mar 28 2023 20:23:38 GMT-0400 (Eastern Daylight Time)","408216","","1839","","","","offer","","<div class='trialBorder'><div class='vertical-center'><img style='vertical-align:center; align:center' src=img/fixation3.jpg></div><div class='cl'><div class='vertical-center'>$75<br>in<br>3 weeks</div></div><div class='cr'><div class='vertical-center'>$41<br><br>now</div></div><div class='respDivL'><div class='vertical-center'>(E)</div></div><div class='respDivR'><div class='vertical-center'>(I)</div></div></div>","E","$41<br><br>now","$75<br>in<br>3 weeks","1","41","75","3","THEN"
"html-keyboard-response","57","382814","0.0-5.0-3.17","63e5be4daa8fac2e51d4fe91","bdp_td","Tue Mar 28 2023 20:23:38 GMT-0400 (Eastern Daylight Time)","408216","","null","","","","offerFB","","<div class='trialBorder'><div class='vertical-center'><img style='vertical-align:center; align:center' src=img/fixation3.jpg></div><div class='cl'><div class='vertical-center'><font style='color:orange'>$75<br>in<br>3 weeks</font></div></div><div class='cr'><div class='vertical-center'>$41<br><br>now</div></div><div class='respDivL'><div class='vertical-center'><font style='color:orange'>(E)</font></div></div><div class='respDivR'><div class='vertical-center'>(I)</div></div></div>","null","$41<br><br>now","$75<br>in<br>3 weeks","1","41","75","3",""
"html-keyboard-response","58","383316","0.0-5.0-1.18","63e5be4daa8fac2e51d4fe91","bdp_td","Tue Mar 28 2023 20:23:38 GMT-0400 (Eastern Daylight Time)","408216","","null","","","","FIX","","<div class='trialBorder'><div class='vertical-center'><img style='vertical-align:center; align:center' src=img/fixation3.jpg></div></div>","null","","","","","","",""
"html-keyboard-response","59","384775","0.0-5.0-2.18","63e5be4daa8fac2e51d4fe91","bdp_td","Tue Mar 28 2023 20:23:38 GMT-0400 (Eastern Daylight Time)","408216","","1458","","","","offer","","<div class='trialBorder'><div class='vertical-center'><img style='vertical-align:center; align:center' src=img/fixation3.jpg></div><div class='cl'><div class='vertical-center'>$85<br>in<br>1 week</div></div><div class='cr'><div class='vertical-center'>$31<br><br>now</div></div><div class='respDivL'><div class='vertical-center'>(E)</div></div><div class='respDivR'><div class='vertical-center'>(I)</div></div></div>","E","$31<br><br>now","$85<br>in<br>1 week","1","31","85","1","THEN"
"html-keyboard-response","60","385027","0.0-5.0-3.18","63e5be4daa8fac2e51d4fe91","bdp_td","Tue Mar 28 2023 20:23:38 GMT-0400 (Eastern Daylight Time)","408216","","null","","","","offerFB","","<div class='trialBorder'><div class='vertical-center'><img style='vertical-align:center; align:center' src=img/fixation3.jpg></div><div class='cl'><div class='vertical-center'><font style='color:orange'>$85<br>in<br>1 week</font></div></div><div class='cr'><div class='vertical-center'>$31<br><br>now</div></div><div class='respDivL'><div class='vertical-center'><font style='color:orange'>(E)</font></div></div><div class='respDivR'><div class='vertical-center'>(I)</div></div></div>","null","$31<br><br>now","$85<br>in<br>1 week","1","31","85","1",""
"html-keyboard-response","61","385529","0.0-5.0-1.19","63e5be4daa8fac2e51d4fe91","bdp_td","Tue Mar 28 2023 20:23:38 GMT-0400 (Eastern Daylight Time)","408216","","null","","","","FIX","","<div class='trialBorder'><div class='vertical-center'><img style='vertical-align:center; align:center' src=img/fixation3.jpg></div></div>","null","","","","","","",""
"html-keyboard-response","62","387048","0.0-5.0-2.19","63e5be4daa8fac2e51d4fe91","bdp_td","Tue Mar 28 2023 20:23:38 GMT-0400 (Eastern Daylight Time)","408216","","1518","","","","offer","","<div class='trialBorder'><div class='vertical-center'><img style='vertical-align:center; align:center' src=img/fixation3.jpg></div><div class='cl'><div class='vertical-center'>$25<br><br>now</div></div><div class='cr'><div class='vertical-center'>$30<br>in<br>6 weeks</div></div><div class='respDivL'><div class='vertical-center'>(E)</div></div><div class='respDivR'><div class='vertical-center'>(I)</div></div></div>","E","$25<br><br>now","$30<br>in<br>6 weeks","0","25","30","6","NOW"
"html-keyboard-response","63","387300","0.0-5.0-3.19","63e5be4daa8fac2e51d4fe91","bdp_td","Tue Mar 28 2023 20:23:38 GMT-0400 (Eastern Daylight Time)","408216","","null","","","","offerFB","","<div class='trialBorder'><div class='vertical-center'><img style='vertical-align:center; align:center' src=img/fixation3.jpg></div><div class='cl'><div class='vertical-center'><font style='color:orange'>$25<br><br>now</font></div></div><div class='cr'><div class='vertical-center'>$30<br>in<br>6 weeks</div></div><div class='respDivL'><div class='vertical-center'><font style='color:orange'>(E)</font></div></div><div class='respDivR'><div class='vertical-center'>(I)</div></div></div>","null","$25<br><br>now","$30<br>in<br>6 weeks","0","25","30","6",""
"html-keyboard-response","64","387802","0.0-5.0-1.20","63e5be4daa8fac2e51d4fe91","bdp_td","Tue Mar 28 2023 20:23:38 GMT-0400 (Eastern Daylight Time)","408216","","null","","","","FIX","","<div class='trialBorder'><div class='vertical-center'><img style='vertical-align:center; align:center' src=img/fixation3.jpg></div></div>","null","","","","","","",""
"html-keyboard-response","65","391246","0.0-5.0-2.20","63e5be4daa8fac2e51d4fe91","bdp_td","Tue Mar 28 2023 20:23:38 GMT-0400 (Eastern Daylight Time)","408216","","3442","","","","offer","","<div class='trialBorder'><div class='vertical-center'><img style='vertical-align:center; align:center' src=img/fixation3.jpg></div><div class='cl'><div class='vertical-center'>$50<br>in<br>6 weeks</div></div><div class='cr'><div class='vertical-center'>$34<br><br>now</div></div><div class='respDivL'><div class='vertical-center'>(E)</div></div><div class='respDivR'><div class='vertical-center'>(I)</div></div></div>","I","$34<br><br>now","$50<br>in<br>6 weeks","1","34","50","6","NOW"
"html-keyboard-response","66","391497","0.0-5.0-3.20","63e5be4daa8fac2e51d4fe91","bdp_td","Tue Mar 28 2023 20:23:38 GMT-0400 (Eastern Daylight Time)","408216","","null","","","","offerFB","","<div class='trialBorder'><div class='vertical-center'><img style='vertical-align:center; align:center' src=img/fixation3.jpg></div><div class='cl'><div class='vertical-center'>$50<br>in<br>6 weeks</div></div><div class='cr'><div class='vertical-center'><font style='color:orange'>$34<br><br>now</font></div></div><div class='respDivL'><div class='vertical-center'>(E)</div></div><div class='respDivR'><div class='vertical-center'><font style='color:orange'>(I)</font></div></div></div>","null","$34<br><br>now","$50<br>in<br>6 weeks","1","34","50","6",""
"html-keyboard-response","67","391999","0.0-5.0-1.21","63e5be4daa8fac2e51d4fe91","bdp_td","Tue Mar 28 2023 20:23:38 GMT-0400 (Eastern Daylight Time)","408216","","null","","","","FIX","","<div class='trialBorder'><div class='vertical-center'><img style='vertical-align:center; align:center' src=img/fixation3.jpg></div></div>","null","","","","","","",""
"html-keyboard-response","68","393496","0.0-5.0-2.21","63e5be4daa8fac2e51d4fe91","bdp_td","Tue Mar 28 2023 20:23:38 GMT-0400 (Eastern Daylight Time)","408216","","1495","","","","offer","","<div class='trialBorder'><div class='vertical-center'><img style='vertical-align:center; align:center' src=img/fixation3.jpg></div><div class='cl'><div class='vertical-center'>$85<br>in<br>6 weeks</div></div><div class='cr'><div class='vertical-center'>$69<br><br>now</div></div><div class='respDivL'><div class='vertical-center'>(E)</div></div><div class='respDivR'><div class='vertical-center'>(I)</div></div></div>","I","$69<br><br>now","$85<br>in<br>6 weeks","1","69","85","6","NOW"
"html-keyboard-response","69","393749","0.0-5.0-3.21","63e5be4daa8fac2e51d4fe91","bdp_td","Tue Mar 28 2023 20:23:38 GMT-0400 (Eastern Daylight Time)","408216","","null","","","","offerFB","","<div class='trialBorder'><div class='vertical-center'><img style='vertical-align:center; align:center' src=img/fixation3.jpg></div><div class='cl'><div class='vertical-center'>$85<br>in<br>6 weeks</div></div><div class='cr'><div class='vertical-center'><font style='color:orange'>$69<br><br>now</font></div></div><div class='respDivL'><div class='vertical-center'>(E)</div></div><div class='respDivR'><div class='vertical-center'><font style='color:orange'>(I)</font></div></div></div>","null","$69<br><br>now","$85<br>in<br>6 weeks","1","69","85","6",""
"html-keyboard-response","70","394251","0.0-5.0-1.22","63e5be4daa8fac2e51d4fe91","bdp_td","Tue Mar 28 2023 20:23:38 GMT-0400 (Eastern Daylight Time)","408216","","null","","","","FIX","","<div class='trialBorder'><div class='vertical-center'><img style='vertical-align:center; align:center' src=img/fixation3.jpg></div></div>","null","","","","","","",""
"html-keyboard-response","71","396255","0.0-5.0-2.22","63e5be4daa8fac2e51d4fe91","bdp_td","Tue Mar 28 2023 20:23:38 GMT-0400 (Eastern Daylight Time)","408216","","2003","","","","offer","","<div class='trialBorder'><div class='vertical-center'><img style='vertical-align:center; align:center' src=img/fixation3.jpg></div><div class='cl'><div class='vertical-center'>$27<br><br>now</div></div><div class='cr'><div class='vertical-center'>$50<br>in<br>3 weeks</div></div><div class='respDivL'><div class='vertical-center'>(E)</div></div><div class='respDivR'><div class='vertical-center'>(I)</div></div></div>","I","$27<br><br>now","$50<br>in<br>3 weeks","0","27","50","3","THEN"
"html-keyboard-response","72","396508","0.0-5.0-3.22","63e5be4daa8fac2e51d4fe91","bdp_td","Tue Mar 28 2023 20:23:38 GMT-0400 (Eastern Daylight Time)","408216","","null","","","","offerFB","","<div class='trialBorder'><div class='vertical-center'><img style='vertical-align:center; align:center' src=img/fixation3.jpg></div><div class='cl'><div class='vertical-center'>$27<br><br>now</div></div><div class='cr'><div class='vertical-center'><font style='color:orange'>$50<br>in<br>3 weeks</font></div></div><div class='respDivL'><div class='vertical-center'>(E)</div></div><div class='respDivR'><div class='vertical-center'><font style='color:orange'>(I)</font></div></div></div>","null","$27<br><br>now","$50<br>in<br>3 weeks","0","27","50","3",""
"html-keyboard-response","73","397009","0.0-5.0-1.23","63e5be4daa8fac2e51d4fe91","bdp_td","Tue Mar 28 2023 20:23:38 GMT-0400 (Eastern Daylight Time)","408216","","null","","","","FIX","","<div class='trialBorder'><div class='vertical-center'><img style='vertical-align:center; align:center' src=img/fixation3.jpg></div></div>","null","","","","","","",""
"html-keyboard-response","74","398943","0.0-5.0-2.23","63e5be4daa8fac2e51d4fe91","bdp_td","Tue Mar 28 2023 20:23:38 GMT-0400 (Eastern Daylight Time)","408216","","1931","","","","offer","","<div class='trialBorder'><div class='vertical-center'><img style='vertical-align:center; align:center' src=img/fixation3.jpg></div><div class='cl'><div class='vertical-center'>$35<br>in<br>12 weeks</div></div><div class='cr'><div class='vertical-center'>$34<br><br>now</div></div><div class='respDivL'><div class='vertical-center'>(E)</div></div><div class='respDivR'><div class='vertical-center'>(I)</div></div></div>","I","$34<br><br>now","$35<br>in<br>12 weeks","1","34","35","12","NOW"
"html-keyboard-response","75","399194","0.0-5.0-3.23","63e5be4daa8fac2e51d4fe91","bdp_td","Tue Mar 28 2023 20:23:38 GMT-0400 (Eastern Daylight Time)","408216","","null","","","","offerFB","","<div class='trialBorder'><div class='vertical-center'><img style='vertical-align:center; align:center' src=img/fixation3.jpg></div><div class='cl'><div class='vertical-center'>$35<br>in<br>12 weeks</div></div><div class='cr'><div class='vertical-center'><font style='color:orange'>$34<br><br>now</font></div></div><div class='respDivL'><div class='vertical-center'>(E)</div></div><div class='respDivR'><div class='vertical-center'><font style='color:orange'>(I)</font></div></div></div>","null","$34<br><br>now","$35<br>in<br>12 weeks","1","34","35","12",""
"html-keyboard-response","76","399696","0.0-5.0-1.24","63e5be4daa8fac2e51d4fe91","bdp_td","Tue Mar 28 2023 20:23:38 GMT-0400 (Eastern Daylight Time)","408216","","null","","","","FIX","","<div class='trialBorder'><div class='vertical-center'><img style='vertical-align:center; align:center' src=img/fixation3.jpg></div></div>","null","","","","","","",""
"html-keyboard-response","77","401909","0.0-5.0-2.24","63e5be4daa8fac2e51d4fe91","bdp_td","Tue Mar 28 2023 20:23:38 GMT-0400 (Eastern Daylight Time)","408216","","2212","","","","offer","","<div class='trialBorder'><div class='vertical-center'><img style='vertical-align:center; align:center' src=img/fixation3.jpg></div><div class='cl'><div class='vertical-center'>$67<br><br>now</div></div><div class='cr'><div class='vertical-center'>$75<br>in<br>12 weeks</div></div><div class='respDivL'><div class='vertical-center'>(E)</div></div><div class='respDivR'><div class='vertical-center'>(I)</div></div></div>","E","$67<br><br>now","$75<br>in<br>12 weeks","0","67","75","12","NOW"
"html-keyboard-response","78","402162","0.0-5.0-3.24","63e5be4daa8fac2e51d4fe91","bdp_td","Tue Mar 28 2023 20:23:38 GMT-0400 (Eastern Daylight Time)","408216","","null","","","","offerFB","","<div class='trialBorder'><div class='vertical-center'><img style='vertical-align:center; align:center' src=img/fixation3.jpg></div><div class='cl'><div class='vertical-center'><font style='color:orange'>$67<br><br>now</font></div></div><div class='cr'><div class='vertical-center'>$75<br>in<br>12 weeks</div></div><div class='respDivL'><div class='vertical-center'><font style='color:orange'>(E)</font></div></div><div class='respDivR'><div class='vertical-center'>(I)</div></div></div>","null","$67<br><br>now","$75<br>in<br>12 weeks","0","67","75","12",""
"html-keyboard-response","79","402664","0.0-5.0-1.25","63e5be4daa8fac2e51d4fe91","bdp_td","Tue Mar 28 2023 20:23:38 GMT-0400 (Eastern Daylight Time)","408216","","null","","","","FIX","","<div class='trialBorder'><div class='vertical-center'><img style='vertical-align:center; align:center' src=img/fixation3.jpg></div></div>","null","","","","","","",""
"html-keyboard-response","80","404273","0.0-5.0-2.25","63e5be4daa8fac2e51d4fe91","bdp_td","Tue Mar 28 2023 20:23:38 GMT-0400 (Eastern Daylight Time)","408216","","1608","","","","offer","","<div class='trialBorder'><div class='vertical-center'><img style='vertical-align:center; align:center' src=img/fixation3.jpg></div><div class='cl'><div class='vertical-center'>$40<br><br>now</div></div><div class='cr'><div class='vertical-center'>$55<br>in<br>6 weeks</div></div><div class='respDivL'><div class='vertical-center'>(E)</div></div><div class='respDivR'><div class='vertical-center'>(I)</div></div></div>","E","$40<br><br>now","$55<br>in<br>6 weeks","0","40","55","6","NOW"
"html-keyboard-response","81","404526","0.0-5.0-3.25","63e5be4daa8fac2e51d4fe91","bdp_td","Tue Mar 28 2023 20:23:38 GMT-0400 (Eastern Daylight Time)","408216","","null","","","","offerFB","","<div class='trialBorder'><div class='vertical-center'><img style='vertical-align:center; align:center' src=img/fixation3.jpg></div><div class='cl'><div class='vertical-center'><font style='color:orange'>$40<br><br>now</font></div></div><div class='cr'><div class='vertical-center'>$55<br>in<br>6 weeks</div></div><div class='respDivL'><div class='vertical-center'><font style='color:orange'>(E)</font></div></div><div class='respDivR'><div class='vertical-center'>(I)</div></div></div>","null","$40<br><br>now","$55<br>in<br>6 weeks","0","40","55","6",""
"html-keyboard-response","82","405028","0.0-5.0-1.26","63e5be4daa8fac2e51d4fe91","bdp_td","Tue Mar 28 2023 20:23:38 GMT-0400 (Eastern Daylight Time)","408216","","null","","","","FIX","","<div class='trialBorder'><div class='vertical-center'><img style='vertical-align:center; align:center' src=img/fixation3.jpg></div></div>","null","","","","","","",""
"html-keyboard-response","83","406963","0.0-5.0-2.26","63e5be4daa8fac2e51d4fe91","bdp_td","Tue Mar 28 2023 20:23:38 GMT-0400 (Eastern Daylight Time)","408216","","1934","","","","offer","","<div class='trialBorder'><div class='vertical-center'><img style='vertical-align:center; align:center' src=img/fixation3.jpg></div><div class='cl'><div class='vertical-center'>$25<br>in<br>6 weeks</div></div><div class='cr'><div class='vertical-center'>$19<br><br>now</div></div><div class='respDivL'><div class='vertical-center'>(E)</div></div><div class='respDivR'><div class='vertical-center'>(I)</div></div></div>","I","$19<br><br>now","$25<br>in<br>6 weeks","1","19","25","6","NOW"
"html-keyboard-response","84","407215","0.0-5.0-3.26","63e5be4daa8fac2e51d4fe91","bdp_td","Tue Mar 28 2023 20:23:38 GMT-0400 (Eastern Daylight Time)","408216","","null","","","","offerFB","","<div class='trialBorder'><div class='vertical-center'><img style='vertical-align:center; align:center' src=img/fixation3.jpg></div><div class='cl'><div class='vertical-center'>$25<br>in<br>6 weeks</div></div><div class='cr'><div class='vertical-center'><font style='color:orange'>$19<br><br>now</font></div></div><div class='respDivL'><div class='vertical-center'>(E)</div></div><div class='respDivR'><div class='vertical-center'><font style='color:orange'>(I)</font></div></div></div>","null","$19<br><br>now","$25<br>in<br>6 weeks","1","19","25","6",""
"","","","","63e5be4daa8fac2e51d4fe91","bdp_td","Tue Mar 28 2023 20:23:38 GMT-0400 (Eastern Daylight Time)","408216","","","fullscreenexit","85","407233","fullscreenexit","","","","","","","","","",""
"fullscreen","85","408216","0.0-6.0","63e5be4daa8fac2e51d4fe91","bdp_td","Tue Mar 28 2023 20:23:38 GMT-0400 (Eastern Daylight Time)","408216","","","","","","","true","","","","","","","","",""
"html-keyboard-response","86","408717","0.0-7.0","","","","","","null","","","","","","","null","","","","","","",""
