"trial_type","trial_index","time_elapsed","internal_node_id","subject_id","task","startTime","totalTime","view_history","rt","event","trial","time","trialtype","success","stimulus","key_press","nowOffer","thenOffer","thenLeft","nowAmt","thenAmt","thenWeeks","chosen"
"pavlovia","0","5","0.0-0.0","6400df3b4bd1fb13b52727fe","bdp_td","Sat Mar 25 2023 20:50:52 GMT-0400 (Eastern Daylight Time)","373803","","","","","","","","","","","","","","","",""
"instructions","1","143182","0.0-1.0","6400df3b4bd1fb13b52727fe","bdp_td","Sat Mar 25 2023 20:50:52 GMT-0400 (Eastern Daylight Time)","373803","[{""page_index"":0,""viewing_time"":143176}]","143176","","","","","","","","","","","","","",""
"","","","","6400df3b4bd1fb13b52727fe","bdp_td","Sat Mar 25 2023 20:50:52 GMT-0400 (Eastern Daylight Time)","373803","","","fullscreenenter","2","207082","fullscreenenter","","","","","","","","","",""
"fullscreen","2","208064","0.0-2.0","6400df3b4bd1fb13b52727fe","bdp_td","Sat Mar 25 2023 20:50:52 GMT-0400 (Eastern Daylight Time)","373803","","","","","","","true","","","","","","","","",""
"instructions","3","253400","0.0-4.0","6400df3b4bd1fb13b52727fe","bdp_td","Sat Mar 25 2023 20:50:52 GMT-0400 (Eastern Daylight Time)","373803","[{""page_index"":0,""viewing_time"":36643},{""page_index"":1,""viewing_time"":5872},{""page_index"":2,""viewing_time"":2819}]","45334","","","","","","","","","","","","","",""
"html-keyboard-response","4","253910","0.0-5.0-1.0","6400df3b4bd1fb13b52727fe","bdp_td","Sat Mar 25 2023 20:50:52 GMT-0400 (Eastern Daylight Time)","373803","","null","","","","FIX","","<div class='trialBorder'><div class='vertical-center'><img style='vertical-align:center; align:center' src=img/fixation3.jpg></div></div>","null","","","","","","",""
"html-keyboard-response","5","267776","0.0-5.0-2.0","6400df3b4bd1fb13b52727fe","bdp_td","Sat Mar 25 2023 20:50:52 GMT-0400 (Eastern Daylight Time)","373803","","13864","","","","offer","","<div class='trialBorder'><div class='vertical-center'><img style='vertical-align:center; align:center' src=img/fixation3.jpg></div><div class='cl'><div class='vertical-center'>$24<br><br>now</div></div><div class='cr'><div class='vertical-center'>$35<br>in<br>3 weeks</div></div><div class='respDivL'><div class='vertical-center'>(E)</div></div><div class='respDivR'><div class='vertical-center'>(I)</div></div></div>","I","$24<br><br>now","$35<br>in<br>3 weeks","0","24","35","3","THEN"
"html-keyboard-response","6","268033","0.0-5.0-3.0","6400df3b4bd1fb13b52727fe","bdp_td","Sat Mar 25 2023 20:50:52 GMT-0400 (Eastern Daylight Time)","373803","","null","","","","offerFB","","<div class='trialBorder'><div class='vertical-center'><img style='vertical-align:center; align:center' src=img/fixation3.jpg></div><div class='cl'><div class='vertical-center'>$24<br><br>now</div></div><div class='cr'><div class='vertical-center'><font style='color:orange'>$35<br>in<br>3 weeks</font></div></div><div class='respDivL'><div class='vertical-center'>(E)</div></div><div class='respDivR'><div class='vertical-center'><font style='color:orange'>(I)</font></div></div></div>","null","$24<br><br>now","$35<br>in<br>3 weeks","0","24","35","3",""
"html-keyboard-response","7","268538","0.0-5.0-1.1","6400df3b4bd1fb13b52727fe","bdp_td","Sat Mar 25 2023 20:50:52 GMT-0400 (Eastern Daylight Time)","373803","","null","","","","FIX","","<div class='trialBorder'><div class='vertical-center'><img style='vertical-align:center; align:center' src=img/fixation3.jpg></div></div>","null","","","","","","",""
"html-keyboard-response","8","273384","0.0-5.0-2.1","6400df3b4bd1fb13b52727fe","bdp_td","Sat Mar 25 2023 20:50:52 GMT-0400 (Eastern Daylight Time)","373803","","4845","","","","offer","","<div class='trialBorder'><div class='vertical-center'><img style='vertical-align:center; align:center' src=img/fixation3.jpg></div><div class='cl'><div class='vertical-center'>$80<br>in<br>12 weeks</div></div><div class='cr'><div class='vertical-center'>$78<br><br>now</div></div><div class='respDivL'><div class='vertical-center'>(E)</div></div><div class='respDivR'><div class='vertical-center'>(I)</div></div></div>","E","$78<br><br>now","$80<br>in<br>12 weeks","1","78","80","12","THEN"
"html-keyboard-response","9","273639","0.0-5.0-3.1","6400df3b4bd1fb13b52727fe","bdp_td","Sat Mar 25 2023 20:50:52 GMT-0400 (Eastern Daylight Time)","373803","","null","","","","offerFB","","<div class='trialBorder'><div class='vertical-center'><img style='vertical-align:center; align:center' src=img/fixation3.jpg></div><div class='cl'><div class='vertical-center'><font style='color:orange'>$80<br>in<br>12 weeks</font></div></div><div class='cr'><div class='vertical-center'>$78<br><br>now</div></div><div class='respDivL'><div class='vertical-center'><font style='color:orange'>(E)</font></div></div><div class='respDivR'><div class='vertical-center'>(I)</div></div></div>","null","$78<br><br>now","$80<br>in<br>12 weeks","1","78","80","12",""
"html-keyboard-response","10","274147","0.0-5.0-1.2","6400df3b4bd1fb13b52727fe","bdp_td","Sat Mar 25 2023 20:50:52 GMT-0400 (Eastern Daylight Time)","373803","","null","","","","FIX","","<div class='trialBorder'><div class='vertical-center'><img style='vertical-align:center; align:center' src=img/fixation3.jpg></div></div>","null","","","","","","",""
"html-keyboard-response","11","275905","0.0-5.0-2.2","6400df3b4bd1fb13b52727fe","bdp_td","Sat Mar 25 2023 20:50:52 GMT-0400 (Eastern Daylight Time)","373803","","1757","","","","offer","","<div class='trialBorder'><div class='vertical-center'><img style='vertical-align:center; align:center' src=img/fixation3.jpg></div><div class='cl'><div class='vertical-center'>$35<br>in<br>2 weeks</div></div><div class='cr'><div class='vertical-center'>$15<br><br>now</div></div><div class='respDivL'><div class='vertical-center'>(E)</div></div><div class='respDivR'><div class='vertical-center'>(I)</div></div></div>","E","$15<br><br>now","$35<br>in<br>2 weeks","1","15","35","2","THEN"
"html-keyboard-response","12","276165","0.0-5.0-3.2","6400df3b4bd1fb13b52727fe","bdp_td","Sat Mar 25 2023 20:50:52 GMT-0400 (Eastern Daylight Time)","373803","","null","","","","offerFB","","<div class='trialBorder'><div class='vertical-center'><img style='vertical-align:center; align:center' src=img/fixation3.jpg></div><div class='cl'><div class='vertical-center'><font style='color:orange'>$35<br>in<br>2 weeks</font></div></div><div class='cr'><div class='vertical-center'>$15<br><br>now</div></div><div class='respDivL'><div class='vertical-center'><font style='color:orange'>(E)</font></div></div><div class='respDivR'><div class='vertical-center'>(I)</div></div></div>","null","$15<br><br>now","$35<br>in<br>2 weeks","1","15","35","2",""
"html-keyboard-response","13","276673","0.0-5.0-1.3","6400df3b4bd1fb13b52727fe","bdp_td","Sat Mar 25 2023 20:50:52 GMT-0400 (Eastern Daylight Time)","373803","","null","","","","FIX","","<div class='trialBorder'><div class='vertical-center'><img style='vertical-align:center; align:center' src=img/fixation3.jpg></div></div>","null","","","","","","",""
"html-keyboard-response","14","277857","0.0-5.0-2.3","6400df3b4bd1fb13b52727fe","bdp_td","Sat Mar 25 2023 20:50:52 GMT-0400 (Eastern Daylight Time)","373803","","1183","","","","offer","","<div class='trialBorder'><div class='vertical-center'><img style='vertical-align:center; align:center' src=img/fixation3.jpg></div><div class='cl'><div class='vertical-center'>$80<br>in<br>2 weeks</div></div><div class='cr'><div class='vertical-center'>$33<br><br>now</div></div><div class='respDivL'><div class='vertical-center'>(E)</div></div><div class='respDivR'><div class='vertical-center'>(I)</div></div></div>","E","$33<br><br>now","$80<br>in<br>2 weeks","1","33","80","2","THEN"
"html-keyboard-response","15","278121","0.0-5.0-3.3","6400df3b4bd1fb13b52727fe","bdp_td","Sat Mar 25 2023 20:50:52 GMT-0400 (Eastern Daylight Time)","373803","","null","","","","offerFB","","<div class='trialBorder'><div class='vertical-center'><img style='vertical-align:center; align:center' src=img/fixation3.jpg></div><div class='cl'><div class='vertical-center'><font style='color:orange'>$80<br>in<br>2 weeks</font></div></div><div class='cr'><div class='vertical-center'>$33<br><br>now</div></div><div class='respDivL'><div class='vertical-center'><font style='color:orange'>(E)</font></div></div><div class='respDivR'><div class='vertical-center'>(I)</div></div></div>","null","$33<br><br>now","$80<br>in<br>2 weeks","1","33","80","2",""
"html-keyboard-response","16","278630","0.0-5.0-1.4","6400df3b4bd1fb13b52727fe","bdp_td","Sat Mar 25 2023 20:50:52 GMT-0400 (Eastern Daylight Time)","373803","","null","","","","FIX","","<div class='trialBorder'><div class='vertical-center'><img style='vertical-align:center; align:center' src=img/fixation3.jpg></div></div>","null","","","","","","",""
"html-keyboard-response","17","279599","0.0-5.0-2.4","6400df3b4bd1fb13b52727fe","bdp_td","Sat Mar 25 2023 20:50:52 GMT-0400 (Eastern Daylight Time)","373803","","968","","","","offer","","<div class='trialBorder'><div class='vertical-center'><img style='vertical-align:center; align:center' src=img/fixation3.jpg></div><div class='cl'><div class='vertical-center'>$80<br>in<br>3 weeks</div></div><div class='cr'><div class='vertical-center'>$54<br><br>now</div></div><div class='respDivL'><div class='vertical-center'>(E)</div></div><div class='respDivR'><div class='vertical-center'>(I)</div></div></div>","E","$54<br><br>now","$80<br>in<br>3 weeks","1","54","80","3","THEN"
"html-keyboard-response","18","279853","0.0-5.0-3.4","6400df3b4bd1fb13b52727fe","bdp_td","Sat Mar 25 2023 20:50:52 GMT-0400 (Eastern Daylight Time)","373803","","null","","","","offerFB","","<div class='trialBorder'><div class='vertical-center'><img style='vertical-align:center; align:center' src=img/fixation3.jpg></div><div class='cl'><div class='vertical-center'><font style='color:orange'>$80<br>in<br>3 weeks</font></div></div><div class='cr'><div class='vertical-center'>$54<br><br>now</div></div><div class='respDivL'><div class='vertical-center'><font style='color:orange'>(E)</font></div></div><div class='respDivR'><div class='vertical-center'>(I)</div></div></div>","null","$54<br><br>now","$80<br>in<br>3 weeks","1","54","80","3",""
"html-keyboard-response","19","280364","0.0-5.0-1.5","6400df3b4bd1fb13b52727fe","bdp_td","Sat Mar 25 2023 20:50:52 GMT-0400 (Eastern Daylight Time)","373803","","null","","","","FIX","","<div class='trialBorder'><div class='vertical-center'><img style='vertical-align:center; align:center' src=img/fixation3.jpg></div></div>","null","","","","","","",""
"html-keyboard-response","20","281842","0.0-5.0-2.5","6400df3b4bd1fb13b52727fe","bdp_td","Sat Mar 25 2023 20:50:52 GMT-0400 (Eastern Daylight Time)","373803","","1478","","","","offer","","<div class='trialBorder'><div class='vertical-center'><img style='vertical-align:center; align:center' src=img/fixation3.jpg></div><div class='cl'><div class='vertical-center'>$54<br><br>now</div></div><div class='cr'><div class='vertical-center'>$60<br>in<br>12 weeks</div></div><div class='respDivL'><div class='vertical-center'>(E)</div></div><div class='respDivR'><div class='vertical-center'>(I)</div></div></div>","I","$54<br><br>now","$60<br>in<br>12 weeks","0","54","60","12","THEN"
"html-keyboard-response","21","282097","0.0-5.0-3.5","6400df3b4bd1fb13b52727fe","bdp_td","Sat Mar 25 2023 20:50:52 GMT-0400 (Eastern Daylight Time)","373803","","null","","","","offerFB","","<div class='trialBorder'><div class='vertical-center'><img style='vertical-align:center; align:center' src=img/fixation3.jpg></div><div class='cl'><div class='vertical-center'>$54<br><br>now</div></div><div class='cr'><div class='vertical-center'><font style='color:orange'>$60<br>in<br>12 weeks</font></div></div><div class='respDivL'><div class='vertical-center'>(E)</div></div><div class='respDivR'><div class='vertical-center'><font style='color:orange'>(I)</font></div></div></div>","null","$54<br><br>now","$60<br>in<br>12 weeks","0","54","60","12",""
"html-keyboard-response","22","282606","0.0-5.0-1.6","6400df3b4bd1fb13b52727fe","bdp_td","Sat Mar 25 2023 20:50:52 GMT-0400 (Eastern Daylight Time)","373803","","null","","","","FIX","","<div class='trialBorder'><div class='vertical-center'><img style='vertical-align:center; align:center' src=img/fixation3.jpg></div></div>","null","","","","","","",""
"html-keyboard-response","23","283569","0.0-5.0-2.6","6400df3b4bd1fb13b52727fe","bdp_td","Sat Mar 25 2023 20:50:52 GMT-0400 (Eastern Daylight Time)","373803","","962","","","","offer","","<div class='trialBorder'><div class='vertical-center'><img style='vertical-align:center; align:center' src=img/fixation3.jpg></div><div class='cl'><div class='vertical-center'>$30<br>in<br>6 weeks</div></div><div class='cr'><div class='vertical-center'>$25<br><br>now</div></div><div class='respDivL'><div class='vertical-center'>(E)</div></div><div class='respDivR'><div class='vertical-center'>(I)</div></div></div>","E","$25<br><br>now","$30<br>in<br>6 weeks","1","25","30","6","THEN"
"html-keyboard-response","24","283829","0.0-5.0-3.6","6400df3b4bd1fb13b52727fe","bdp_td","Sat Mar 25 2023 20:50:52 GMT-0400 (Eastern Daylight Time)","373803","","null","","","","offerFB","","<div class='trialBorder'><div class='vertical-center'><img style='vertical-align:center; align:center' src=img/fixation3.jpg></div><div class='cl'><div class='vertical-center'><font style='color:orange'>$30<br>in<br>6 weeks</font></div></div><div class='cr'><div class='vertical-center'>$25<br><br>now</div></div><div class='respDivL'><div class='vertical-center'><font style='color:orange'>(E)</font></div></div><div class='respDivR'><div class='vertical-center'>(I)</div></div></div>","null","$25<br><br>now","$30<br>in<br>6 weeks","1","25","30","6",""
"html-keyboard-response","25","284332","0.0-5.0-1.7","6400df3b4bd1fb13b52727fe","bdp_td","Sat Mar 25 2023 20:50:52 GMT-0400 (Eastern Daylight Time)","373803","","null","","","","FIX","","<div class='trialBorder'><div class='vertical-center'><img style='vertical-align:center; align:center' src=img/fixation3.jpg></div></div>","null","","","","","","",""
"html-keyboard-response","26","285322","0.0-5.0-2.7","6400df3b4bd1fb13b52727fe","bdp_td","Sat Mar 25 2023 20:50:52 GMT-0400 (Eastern Daylight Time)","373803","","989","","","","offer","","<div class='trialBorder'><div class='vertical-center'><img style='vertical-align:center; align:center' src=img/fixation3.jpg></div><div class='cl'><div class='vertical-center'>$55<br>in<br>6 weeks</div></div><div class='cr'><div class='vertical-center'>$40<br><br>now</div></div><div class='respDivL'><div class='vertical-center'>(E)</div></div><div class='respDivR'><div class='vertical-center'>(I)</div></div></div>","E","$40<br><br>now","$55<br>in<br>6 weeks","1","40","55","6","THEN"
"html-keyboard-response","27","285574","0.0-5.0-3.7","6400df3b4bd1fb13b52727fe","bdp_td","Sat Mar 25 2023 20:50:52 GMT-0400 (Eastern Daylight Time)","373803","","null","","","","offerFB","","<div class='trialBorder'><div class='vertical-center'><img style='vertical-align:center; align:center' src=img/fixation3.jpg></div><div class='cl'><div class='vertical-center'><font style='color:orange'>$55<br>in<br>6 weeks</font></div></div><div class='cr'><div class='vertical-center'>$40<br><br>now</div></div><div class='respDivL'><div class='vertical-center'><font style='color:orange'>(E)</font></div></div><div class='respDivR'><div class='vertical-center'>(I)</div></div></div>","null","$40<br><br>now","$55<br>in<br>6 weeks","1","40","55","6",""
"html-keyboard-response","28","286086","0.0-5.0-1.8","6400df3b4bd1fb13b52727fe","bdp_td","Sat Mar 25 2023 20:50:52 GMT-0400 (Eastern Daylight Time)","373803","","null","","","","FIX","","<div class='trialBorder'><div class='vertical-center'><img style='vertical-align:center; align:center' src=img/fixation3.jpg></div></div>","null","","","","","","",""
"html-keyboard-response","29","287578","0.0-5.0-2.8","6400df3b4bd1fb13b52727fe","bdp_td","Sat Mar 25 2023 20:50:52 GMT-0400 (Eastern Daylight Time)","373803","","1491","","","","offer","","<div class='trialBorder'><div class='vertical-center'><img style='vertical-align:center; align:center' src=img/fixation3.jpg></div><div class='cl'><div class='vertical-center'>$28<br><br>now</div></div><div class='cr'><div class='vertical-center'>$30<br>in<br>12 weeks</div></div><div class='respDivL'><div class='vertical-center'>(E)</div></div><div class='respDivR'><div class='vertical-center'>(I)</div></div></div>","I","$28<br><br>now","$30<br>in<br>12 weeks","0","28","30","12","THEN"
"html-keyboard-response","30","287831","0.0-5.0-3.8","6400df3b4bd1fb13b52727fe","bdp_td","Sat Mar 25 2023 20:50:52 GMT-0400 (Eastern Daylight Time)","373803","","null","","","","offerFB","","<div class='trialBorder'><div class='vertical-center'><img style='vertical-align:center; align:center' src=img/fixation3.jpg></div><div class='cl'><div class='vertical-center'>$28<br><br>now</div></div><div class='cr'><div class='vertical-center'><font style='color:orange'>$30<br>in<br>12 weeks</font></div></div><div class='respDivL'><div class='vertical-center'>(E)</div></div><div class='respDivR'><div class='vertical-center'><font style='color:orange'>(I)</font></div></div></div>","null","$28<br><br>now","$30<br>in<br>12 weeks","0","28","30","12",""
"html-keyboard-response","31","288348","0.0-5.0-1.9","6400df3b4bd1fb13b52727fe","bdp_td","Sat Mar 25 2023 20:50:52 GMT-0400 (Eastern Daylight Time)","373803","","null","","","","FIX","","<div class='trialBorder'><div class='vertical-center'><img style='vertical-align:center; align:center' src=img/fixation3.jpg></div></div>","null","","","","","","",""
"html-keyboard-response","32","289687","0.0-5.0-2.9","6400df3b4bd1fb13b52727fe","bdp_td","Sat Mar 25 2023 20:50:52 GMT-0400 (Eastern Daylight Time)","373803","","1337","","","","offer","","<div class='trialBorder'><div class='vertical-center'><img style='vertical-align:center; align:center' src=img/fixation3.jpg></div><div class='cl'><div class='vertical-center'>$30<br>in<br>2 weeks</div></div><div class='cr'><div class='vertical-center'>$11<br><br>now</div></div><div class='respDivL'><div class='vertical-center'>(E)</div></div><div class='respDivR'><div class='vertical-center'>(I)</div></div></div>","E","$11<br><br>now","$30<br>in<br>2 weeks","1","11","30","2","THEN"
"html-keyboard-response","33","289945","0.0-5.0-3.9","6400df3b4bd1fb13b52727fe","bdp_td","Sat Mar 25 2023 20:50:52 GMT-0400 (Eastern Daylight Time)","373803","","null","","","","offerFB","","<div class='trialBorder'><div class='vertical-center'><img style='vertical-align:center; align:center' src=img/fixation3.jpg></div><div class='cl'><div class='vertical-center'><font style='color:orange'>$30<br>in<br>2 weeks</font></div></div><div class='cr'><div class='vertical-center'>$11<br><br>now</div></div><div class='respDivL'><div class='vertical-center'><font style='color:orange'>(E)</font></div></div><div class='respDivR'><div class='vertical-center'>(I)</div></div></div>","null","$11<br><br>now","$30<br>in<br>2 weeks","1","11","30","2",""
"html-keyboard-response","34","290455","0.0-5.0-1.10","6400df3b4bd1fb13b52727fe","bdp_td","Sat Mar 25 2023 20:50:52 GMT-0400 (Eastern Daylight Time)","373803","","null","","","","FIX","","<div class='trialBorder'><div class='vertical-center'><img style='vertical-align:center; align:center' src=img/fixation3.jpg></div></div>","null","","","","","","",""
"html-keyboard-response","35","291826","0.0-5.0-2.10","6400df3b4bd1fb13b52727fe","bdp_td","Sat Mar 25 2023 20:50:52 GMT-0400 (Eastern Daylight Time)","373803","","1369","","","","offer","","<div class='trialBorder'><div class='vertical-center'><img style='vertical-align:center; align:center' src=img/fixation3.jpg></div><div class='cl'><div class='vertical-center'>$27<br><br>now</div></div><div class='cr'><div class='vertical-center'>$50<br>in<br>3 weeks</div></div><div class='respDivL'><div class='vertical-center'>(E)</div></div><div class='respDivR'><div class='vertical-center'>(I)</div></div></div>","I","$27<br><br>now","$50<br>in<br>3 weeks","0","27","50","3","THEN"
"html-keyboard-response","36","292083","0.0-5.0-3.10","6400df3b4bd1fb13b52727fe","bdp_td","Sat Mar 25 2023 20:50:52 GMT-0400 (Eastern Daylight Time)","373803","","null","","","","offerFB","","<div class='trialBorder'><div class='vertical-center'><img style='vertical-align:center; align:center' src=img/fixation3.jpg></div><div class='cl'><div class='vertical-center'>$27<br><br>now</div></div><div class='cr'><div class='vertical-center'><font style='color:orange'>$50<br>in<br>3 weeks</font></div></div><div class='respDivL'><div class='vertical-center'>(E)</div></div><div class='respDivR'><div class='vertical-center'><font style='color:orange'>(I)</font></div></div></div>","null","$27<br><br>now","$50<br>in<br>3 weeks","0","27","50","3",""
"html-keyboard-response","37","292586","0.0-5.0-1.11","6400df3b4bd1fb13b52727fe","bdp_td","Sat Mar 25 2023 20:50:52 GMT-0400 (Eastern Daylight Time)","373803","","null","","","","FIX","","<div class='trialBorder'><div class='vertical-center'><img style='vertical-align:center; align:center' src=img/fixation3.jpg></div></div>","null","","","","","","",""
"html-keyboard-response","38","293754","0.0-5.0-2.11","6400df3b4bd1fb13b52727fe","bdp_td","Sat Mar 25 2023 20:50:52 GMT-0400 (Eastern Daylight Time)","373803","","1166","","","","offer","","<div class='trialBorder'><div class='vertical-center'><img style='vertical-align:center; align:center' src=img/fixation3.jpg></div><div class='cl'><div class='vertical-center'>$20<br><br>now</div></div><div class='cr'><div class='vertical-center'>$55<br>in<br>1 week</div></div><div class='respDivL'><div class='vertical-center'>(E)</div></div><div class='respDivR'><div class='vertical-center'>(I)</div></div></div>","I","$20<br><br>now","$55<br>in<br>1 week","0","20","55","1","THEN"
"html-keyboard-response","39","294015","0.0-5.0-3.11","6400df3b4bd1fb13b52727fe","bdp_td","Sat Mar 25 2023 20:50:52 GMT-0400 (Eastern Daylight Time)","373803","","null","","","","offerFB","","<div class='trialBorder'><div class='vertical-center'><img style='vertical-align:center; align:center' src=img/fixation3.jpg></div><div class='cl'><div class='vertical-center'>$20<br><br>now</div></div><div class='cr'><div class='vertical-center'><font style='color:orange'>$55<br>in<br>1 week</font></div></div><div class='respDivL'><div class='vertical-center'>(E)</div></div><div class='respDivR'><div class='vertical-center'><font style='color:orange'>(I)</font></div></div></div>","null","$20<br><br>now","$55<br>in<br>1 week","0","20","55","1",""
"html-keyboard-response","40","294526","0.0-5.0-1.12","6400df3b4bd1fb13b52727fe","bdp_td","Sat Mar 25 2023 20:50:52 GMT-0400 (Eastern Daylight Time)","373803","","null","","","","FIX","","<div class='trialBorder'><div class='vertical-center'><img style='vertical-align:center; align:center' src=img/fixation3.jpg></div></div>","null","","","","","","",""
"html-keyboard-response","41","304216","0.0-5.0-2.12","6400df3b4bd1fb13b52727fe","bdp_td","Sat Mar 25 2023 20:50:52 GMT-0400 (Eastern Daylight Time)","373803","","9689","","","","offer","","<div class='trialBorder'><div class='vertical-center'><img style='vertical-align:center; align:center' src=img/fixation3.jpg></div><div class='cl'><div class='vertical-center'>$75<br>in<br>3 weeks</div></div><div class='cr'><div class='vertical-center'>$41<br><br>now</div></div><div class='respDivL'><div class='vertical-center'>(E)</div></div><div class='respDivR'><div class='vertical-center'>(I)</div></div></div>","E","$41<br><br>now","$75<br>in<br>3 weeks","1","41","75","3","THEN"
"html-keyboard-response","42","304472","0.0-5.0-3.12","6400df3b4bd1fb13b52727fe","bdp_td","Sat Mar 25 2023 20:50:52 GMT-0400 (Eastern Daylight Time)","373803","","null","","","","offerFB","","<div class='trialBorder'><div class='vertical-center'><img style='vertical-align:center; align:center' src=img/fixation3.jpg></div><div class='cl'><div class='vertical-center'><font style='color:orange'>$75<br>in<br>3 weeks</font></div></div><div class='cr'><div class='vertical-center'>$41<br><br>now</div></div><div class='respDivL'><div class='vertical-center'><font style='color:orange'>(E)</font></div></div><div class='respDivR'><div class='vertical-center'>(I)</div></div></div>","null","$41<br><br>now","$75<br>in<br>3 weeks","1","41","75","3",""
"html-keyboard-response","43","304991","0.0-5.0-1.13","6400df3b4bd1fb13b52727fe","bdp_td","Sat Mar 25 2023 20:50:52 GMT-0400 (Eastern Daylight Time)","373803","","null","","","","FIX","","<div class='trialBorder'><div class='vertical-center'><img style='vertical-align:center; align:center' src=img/fixation3.jpg></div></div>","null","","","","","","",""
"html-keyboard-response","44","306417","0.0-5.0-2.13","6400df3b4bd1fb13b52727fe","bdp_td","Sat Mar 25 2023 20:50:52 GMT-0400 (Eastern Daylight Time)","373803","","1425","","","","offer","","<div class='trialBorder'><div class='vertical-center'><img style='vertical-align:center; align:center' src=img/fixation3.jpg></div><div class='cl'><div class='vertical-center'>$14<br><br>now</div></div><div class='cr'><div class='vertical-center'>$25<br>in<br>3 weeks</div></div><div class='respDivL'><div class='vertical-center'>(E)</div></div><div class='respDivR'><div class='vertical-center'>(I)</div></div></div>","I","$14<br><br>now","$25<br>in<br>3 weeks","0","14","25","3","THEN"
"html-keyboard-response","45","306671","0.0-5.0-3.13","6400df3b4bd1fb13b52727fe","bdp_td","Sat Mar 25 2023 20:50:52 GMT-0400 (Eastern Daylight Time)","373803","","null","","","","offerFB","","<div class='trialBorder'><div class='vertical-center'><img style='vertical-align:center; align:center' src=img/fixation3.jpg></div><div class='cl'><div class='vertical-center'>$14<br><br>now</div></div><div class='cr'><div class='vertical-center'><font style='color:orange'>$25<br>in<br>3 weeks</font></div></div><div class='respDivL'><div class='vertical-center'>(E)</div></div><div class='respDivR'><div class='vertical-center'><font style='color:orange'>(I)</font></div></div></div>","null","$14<br><br>now","$25<br>in<br>3 weeks","0","14","25","3",""
"html-keyboard-response","46","307176","0.0-5.0-1.14","6400df3b4bd1fb13b52727fe","bdp_td","Sat Mar 25 2023 20:50:52 GMT-0400 (Eastern Daylight Time)","373803","","null","","","","FIX","","<div class='trialBorder'><div class='vertical-center'><img style='vertical-align:center; align:center' src=img/fixation3.jpg></div></div>","null","","","","","","",""
"html-keyboard-response","47","308213","0.0-5.0-2.14","6400df3b4bd1fb13b52727fe","bdp_td","Sat Mar 25 2023 20:50:52 GMT-0400 (Eastern Daylight Time)","373803","","1036","","","","offer","","<div class='trialBorder'><div class='vertical-center'><img style='vertical-align:center; align:center' src=img/fixation3.jpg></div><div class='cl'><div class='vertical-center'>$25<br><br>now</div></div><div class='cr'><div class='vertical-center'>$60<br>in<br>3 weeks</div></div><div class='respDivL'><div class='vertical-center'>(E)</div></div><div class='respDivR'><div class='vertical-center'>(I)</div></div></div>","I","$25<br><br>now","$60<br>in<br>3 weeks","0","25","60","3","THEN"
"html-keyboard-response","48","308470","0.0-5.0-3.14","6400df3b4bd1fb13b52727fe","bdp_td","Sat Mar 25 2023 20:50:52 GMT-0400 (Eastern Daylight Time)","373803","","null","","","","offerFB","","<div class='trialBorder'><div class='vertical-center'><img style='vertical-align:center; align:center' src=img/fixation3.jpg></div><div class='cl'><div class='vertical-center'>$25<br><br>now</div></div><div class='cr'><div class='vertical-center'><font style='color:orange'>$60<br>in<br>3 weeks</font></div></div><div class='respDivL'><div class='vertical-center'>(E)</div></div><div class='respDivR'><div class='vertical-center'><font style='color:orange'>(I)</font></div></div></div>","null","$25<br><br>now","$60<br>in<br>3 weeks","0","25","60","3",""
"html-keyboard-response","49","308981","0.0-5.0-1.15","6400df3b4bd1fb13b52727fe","bdp_td","Sat Mar 25 2023 20:50:52 GMT-0400 (Eastern Daylight Time)","373803","","null","","","","FIX","","<div class='trialBorder'><div class='vertical-center'><img style='vertical-align:center; align:center' src=img/fixation3.jpg></div></div>","null","","","","","","",""
"html-keyboard-response","50","311049","0.0-5.0-2.15","6400df3b4bd1fb13b52727fe","bdp_td","Sat Mar 25 2023 20:50:52 GMT-0400 (Eastern Daylight Time)","373803","","2067","","","","offer","","<div class='trialBorder'><div class='vertical-center'><img style='vertical-align:center; align:center' src=img/fixation3.jpg></div><div class='cl'><div class='vertical-center'>$67<br><br>now</div></div><div class='cr'><div class='vertical-center'>$75<br>in<br>12 weeks</div></div><div class='respDivL'><div class='vertical-center'>(E)</div></div><div class='respDivR'><div class='vertical-center'>(I)</div></div></div>","I","$67<br><br>now","$75<br>in<br>12 weeks","0","67","75","12","THEN"
"html-keyboard-response","51","311318","0.0-5.0-3.15","6400df3b4bd1fb13b52727fe","bdp_td","Sat Mar 25 2023 20:50:52 GMT-0400 (Eastern Daylight Time)","373803","","null","","","","offerFB","","<div class='trialBorder'><div class='vertical-center'><img style='vertical-align:center; align:center' src=img/fixation3.jpg></div><div class='cl'><div class='vertical-center'>$67<br><br>now</div></div><div class='cr'><div class='vertical-center'><font style='color:orange'>$75<br>in<br>12 weeks</font></div></div><div class='respDivL'><div class='vertical-center'>(E)</div></div><div class='respDivR'><div class='vertical-center'><font style='color:orange'>(I)</font></div></div></div>","null","$67<br><br>now","$75<br>in<br>12 weeks","0","67","75","12",""
"html-keyboard-response","52","311819","0.0-5.0-1.16","6400df3b4bd1fb13b52727fe","bdp_td","Sat Mar 25 2023 20:50:52 GMT-0400 (Eastern Daylight Time)","373803","","null","","","","FIX","","<div class='trialBorder'><div class='vertical-center'><img style='vertical-align:center; align:center' src=img/fixation3.jpg></div></div>","null","","","","","","",""
"html-keyboard-response","53","314952","0.0-5.0-2.16","6400df3b4bd1fb13b52727fe","bdp_td","Sat Mar 25 2023 20:50:52 GMT-0400 (Eastern Daylight Time)","373803","","3131","","","","offer","","<div class='trialBorder'><div class='vertical-center'><img style='vertical-align:center; align:center' src=img/fixation3.jpg></div><div class='cl'><div class='vertical-center'>$54<br><br>now</div></div><div class='cr'><div class='vertical-center'>$55<br>in<br>12 weeks</div></div><div class='respDivL'><div class='vertical-center'>(E)</div></div><div class='respDivR'><div class='vertical-center'>(I)</div></div></div>","E","$54<br><br>now","$55<br>in<br>12 weeks","0","54","55","12","NOW"
"html-keyboard-response","54","315209","0.0-5.0-3.16","6400df3b4bd1fb13b52727fe","bdp_td","Sat Mar 25 2023 20:50:52 GMT-0400 (Eastern Daylight Time)","373803","","null","","","","offerFB","","<div class='trialBorder'><div class='vertical-center'><img style='vertical-align:center; align:center' src=img/fixation3.jpg></div><div class='cl'><div class='vertical-center'><font style='color:orange'>$54<br><br>now</font></div></div><div class='cr'><div class='vertical-center'>$55<br>in<br>12 weeks</div></div><div class='respDivL'><div class='vertical-center'><font style='color:orange'>(E)</font></div></div><div class='respDivR'><div class='vertical-center'>(I)</div></div></div>","null","$54<br><br>now","$55<br>in<br>12 weeks","0","54","55","12",""
"html-keyboard-response","55","315725","0.0-5.0-1.17","6400df3b4bd1fb13b52727fe","bdp_td","Sat Mar 25 2023 20:50:52 GMT-0400 (Eastern Daylight Time)","373803","","null","","","","FIX","","<div class='trialBorder'><div class='vertical-center'><img style='vertical-align:center; align:center' src=img/fixation3.jpg></div></div>","null","","","","","","",""
"html-keyboard-response","56","319398","0.0-5.0-2.17","6400df3b4bd1fb13b52727fe","bdp_td","Sat Mar 25 2023 20:50:52 GMT-0400 (Eastern Daylight Time)","373803","","3671","","","","offer","","<div class='trialBorder'><div class='vertical-center'><img style='vertical-align:center; align:center' src=img/fixation3.jpg></div><div class='cl'><div class='vertical-center'>$35<br>in<br>12 weeks</div></div><div class='cr'><div class='vertical-center'>$34<br><br>now</div></div><div class='respDivL'><div class='vertical-center'>(E)</div></div><div class='respDivR'><div class='vertical-center'>(I)</div></div></div>","I","$34<br><br>now","$35<br>in<br>12 weeks","1","34","35","12","NOW"
"html-keyboard-response","57","319659","0.0-5.0-3.17","6400df3b4bd1fb13b52727fe","bdp_td","Sat Mar 25 2023 20:50:52 GMT-0400 (Eastern Daylight Time)","373803","","null","","","","offerFB","","<div class='trialBorder'><div class='vertical-center'><img style='vertical-align:center; align:center' src=img/fixation3.jpg></div><div class='cl'><div class='vertical-center'>$35<br>in<br>12 weeks</div></div><div class='cr'><div class='vertical-center'><font style='color:orange'>$34<br><br>now</font></div></div><div class='respDivL'><div class='vertical-center'>(E)</div></div><div class='respDivR'><div class='vertical-center'><font style='color:orange'>(I)</font></div></div></div>","null","$34<br><br>now","$35<br>in<br>12 weeks","1","34","35","12",""
"html-keyboard-response","58","320171","0.0-5.0-1.18","6400df3b4bd1fb13b52727fe","bdp_td","Sat Mar 25 2023 20:50:52 GMT-0400 (Eastern Daylight Time)","373803","","null","","","","FIX","","<div class='trialBorder'><div class='vertical-center'><img style='vertical-align:center; align:center' src=img/fixation3.jpg></div></div>","null","","","","","","",""
"html-keyboard-response","59","322582","0.0-5.0-2.18","6400df3b4bd1fb13b52727fe","bdp_td","Sat Mar 25 2023 20:50:52 GMT-0400 (Eastern Daylight Time)","373803","","2409","","","","offer","","<div class='trialBorder'><div class='vertical-center'><img style='vertical-align:center; align:center' src=img/fixation3.jpg></div><div class='cl'><div class='vertical-center'>$25<br>in<br>12 weeks</div></div><div class='cr'><div class='vertical-center'>$22<br><br>now</div></div><div class='respDivL'><div class='vertical-center'>(E)</div></div><div class='respDivR'><div class='vertical-center'>(I)</div></div></div>","I","$22<br><br>now","$25<br>in<br>12 weeks","1","22","25","12","NOW"
"html-keyboard-response","60","322839","0.0-5.0-3.18","6400df3b4bd1fb13b52727fe","bdp_td","Sat Mar 25 2023 20:50:52 GMT-0400 (Eastern Daylight Time)","373803","","null","","","","offerFB","","<div class='trialBorder'><div class='vertical-center'><img style='vertical-align:center; align:center' src=img/fixation3.jpg></div><div class='cl'><div class='vertical-center'>$25<br>in<br>12 weeks</div></div><div class='cr'><div class='vertical-center'><font style='color:orange'>$22<br><br>now</font></div></div><div class='respDivL'><div class='vertical-center'>(E)</div></div><div class='respDivR'><div class='vertical-center'><font style='color:orange'>(I)</font></div></div></div>","null","$22<br><br>now","$25<br>in<br>12 weeks","1","22","25","12",""
"html-keyboard-response","61","323353","0.0-5.0-1.19","6400df3b4bd1fb13b52727fe","bdp_td","Sat Mar 25 2023 20:50:52 GMT-0400 (Eastern Daylight Time)","373803","","null","","","","FIX","","<div class='trialBorder'><div class='vertical-center'><img style='vertical-align:center; align:center' src=img/fixation3.jpg></div></div>","null","","","","","","",""
"html-keyboard-response","62","338094","0.0-5.0-2.19","6400df3b4bd1fb13b52727fe","bdp_td","Sat Mar 25 2023 20:50:52 GMT-0400 (Eastern Daylight Time)","373803","","14739","","","","offer","","<div class='trialBorder'><div class='vertical-center'><img style='vertical-align:center; align:center' src=img/fixation3.jpg></div><div class='cl'><div class='vertical-center'>$60<br>in<br>6 weeks</div></div><div class='cr'><div class='vertical-center'>$49<br><br>now</div></div><div class='respDivL'><div class='vertical-center'>(E)</div></div><div class='respDivR'><div class='vertical-center'>(I)</div></div></div>","E","$49<br><br>now","$60<br>in<br>6 weeks","1","49","60","6","THEN"
"html-keyboard-response","63","338352","0.0-5.0-3.19","6400df3b4bd1fb13b52727fe","bdp_td","Sat Mar 25 2023 20:50:52 GMT-0400 (Eastern Daylight Time)","373803","","null","","","","offerFB","","<div class='trialBorder'><div class='vertical-center'><img style='vertical-align:center; align:center' src=img/fixation3.jpg></div><div class='cl'><div class='vertical-center'><font style='color:orange'>$60<br>in<br>6 weeks</font></div></div><div class='cr'><div class='vertical-center'>$49<br><br>now</div></div><div class='respDivL'><div class='vertical-center'><font style='color:orange'>(E)</font></div></div><div class='respDivR'><div class='vertical-center'>(I)</div></div></div>","null","$49<br><br>now","$60<br>in<br>6 weeks","1","49","60","6",""
"html-keyboard-response","64","338854","0.0-5.0-1.20","6400df3b4bd1fb13b52727fe","bdp_td","Sat Mar 25 2023 20:50:52 GMT-0400 (Eastern Daylight Time)","373803","","null","","","","FIX","","<div class='trialBorder'><div class='vertical-center'><img style='vertical-align:center; align:center' src=img/fixation3.jpg></div></div>","null","","","","","","",""
"html-keyboard-response","65","342182","0.0-5.0-2.20","6400df3b4bd1fb13b52727fe","bdp_td","Sat Mar 25 2023 20:50:52 GMT-0400 (Eastern Daylight Time)","373803","","3326","","","","offer","","<div class='trialBorder'><div class='vertical-center'><img style='vertical-align:center; align:center' src=img/fixation3.jpg></div><div class='cl'><div class='vertical-center'>$69<br><br>now</div></div><div class='cr'><div class='vertical-center'>$85<br>in<br>6 weeks</div></div><div class='respDivL'><div class='vertical-center'>(E)</div></div><div class='respDivR'><div class='vertical-center'>(I)</div></div></div>","I","$69<br><br>now","$85<br>in<br>6 weeks","0","69","85","6","THEN"
"html-keyboard-response","66","342450","0.0-5.0-3.20","6400df3b4bd1fb13b52727fe","bdp_td","Sat Mar 25 2023 20:50:52 GMT-0400 (Eastern Daylight Time)","373803","","null","","","","offerFB","","<div class='trialBorder'><div class='vertical-center'><img style='vertical-align:center; align:center' src=img/fixation3.jpg></div><div class='cl'><div class='vertical-center'>$69<br><br>now</div></div><div class='cr'><div class='vertical-center'><font style='color:orange'>$85<br>in<br>6 weeks</font></div></div><div class='respDivL'><div class='vertical-center'>(E)</div></div><div class='respDivR'><div class='vertical-center'><font style='color:orange'>(I)</font></div></div></div>","null","$69<br><br>now","$85<br>in<br>6 weeks","0","69","85","6",""
"html-keyboard-response","67","342959","0.0-5.0-1.21","6400df3b4bd1fb13b52727fe","bdp_td","Sat Mar 25 2023 20:50:52 GMT-0400 (Eastern Daylight Time)","373803","","null","","","","FIX","","<div class='trialBorder'><div class='vertical-center'><img style='vertical-align:center; align:center' src=img/fixation3.jpg></div></div>","null","","","","","","",""
"html-keyboard-response","68","346116","0.0-5.0-2.21","6400df3b4bd1fb13b52727fe","bdp_td","Sat Mar 25 2023 20:50:52 GMT-0400 (Eastern Daylight Time)","373803","","3154","","","","offer","","<div class='trialBorder'><div class='vertical-center'><img style='vertical-align:center; align:center' src=img/fixation3.jpg></div><div class='cl'><div class='vertical-center'>$50<br>in<br>6 weeks</div></div><div class='cr'><div class='vertical-center'>$34<br><br>now</div></div><div class='respDivL'><div class='vertical-center'>(E)</div></div><div class='respDivR'><div class='vertical-center'>(I)</div></div></div>","E","$34<br><br>now","$50<br>in<br>6 weeks","1","34","50","6","THEN"
"html-keyboard-response","69","346368","0.0-5.0-3.21","6400df3b4bd1fb13b52727fe","bdp_td","Sat Mar 25 2023 20:50:52 GMT-0400 (Eastern Daylight Time)","373803","","null","","","","offerFB","","<div class='trialBorder'><div class='vertical-center'><img style='vertical-align:center; align:center' src=img/fixation3.jpg></div><div class='cl'><div class='vertical-center'><font style='color:orange'>$50<br>in<br>6 weeks</font></div></div><div class='cr'><div class='vertical-center'>$34<br><br>now</div></div><div class='respDivL'><div class='vertical-center'><font style='color:orange'>(E)</font></div></div><div class='respDivR'><div class='vertical-center'>(I)</div></div></div>","null","$34<br><br>now","$50<br>in<br>6 weeks","1","34","50","6",""
"html-keyboard-response","70","346871","0.0-5.0-1.22","6400df3b4bd1fb13b52727fe","bdp_td","Sat Mar 25 2023 20:50:52 GMT-0400 (Eastern Daylight Time)","373803","","null","","","","FIX","","<div class='trialBorder'><div class='vertical-center'><img style='vertical-align:center; align:center' src=img/fixation3.jpg></div></div>","null","","","","","","",""
"html-keyboard-response","71","356058","0.0-5.0-2.22","6400df3b4bd1fb13b52727fe","bdp_td","Sat Mar 25 2023 20:50:52 GMT-0400 (Eastern Daylight Time)","373803","","9184","","","","offer","","<div class='trialBorder'><div class='vertical-center'><img style='vertical-align:center; align:center' src=img/fixation3.jpg></div><div class='cl'><div class='vertical-center'>$80<br><br>now</div></div><div class='cr'><div class='vertical-center'>$85<br>in<br>12 weeks</div></div><div class='respDivL'><div class='vertical-center'>(E)</div></div><div class='respDivR'><div class='vertical-center'>(I)</div></div></div>","E","$80<br><br>now","$85<br>in<br>12 weeks","0","80","85","12","NOW"
"html-keyboard-response","72","356317","0.0-5.0-3.22","6400df3b4bd1fb13b52727fe","bdp_td","Sat Mar 25 2023 20:50:52 GMT-0400 (Eastern Daylight Time)","373803","","null","","","","offerFB","","<div class='trialBorder'><div class='vertical-center'><img style='vertical-align:center; align:center' src=img/fixation3.jpg></div><div class='cl'><div class='vertical-center'><font style='color:orange'>$80<br><br>now</font></div></div><div class='cr'><div class='vertical-center'>$85<br>in<br>12 weeks</div></div><div class='respDivL'><div class='vertical-center'><font style='color:orange'>(E)</font></div></div><div class='respDivR'><div class='vertical-center'>(I)</div></div></div>","null","$80<br><br>now","$85<br>in<br>12 weeks","0","80","85","12",""
"html-keyboard-response","73","356827","0.0-5.0-1.23","6400df3b4bd1fb13b52727fe","bdp_td","Sat Mar 25 2023 20:50:52 GMT-0400 (Eastern Daylight Time)","373803","","null","","","","FIX","","<div class='trialBorder'><div class='vertical-center'><img style='vertical-align:center; align:center' src=img/fixation3.jpg></div></div>","null","","","","","","",""
"html-keyboard-response","74","358419","0.0-5.0-2.23","6400df3b4bd1fb13b52727fe","bdp_td","Sat Mar 25 2023 20:50:52 GMT-0400 (Eastern Daylight Time)","373803","","1591","","","","offer","","<div class='trialBorder'><div class='vertical-center'><img style='vertical-align:center; align:center' src=img/fixation3.jpg></div><div class='cl'><div class='vertical-center'>$75<br>in<br>6 weeks</div></div><div class='cr'><div class='vertical-center'>$55<br><br>now</div></div><div class='respDivL'><div class='vertical-center'>(E)</div></div><div class='respDivR'><div class='vertical-center'>(I)</div></div></div>","E","$55<br><br>now","$75<br>in<br>6 weeks","1","55","75","6","THEN"
"html-keyboard-response","75","358681","0.0-5.0-3.23","6400df3b4bd1fb13b52727fe","bdp_td","Sat Mar 25 2023 20:50:52 GMT-0400 (Eastern Daylight Time)","373803","","null","","","","offerFB","","<div class='trialBorder'><div class='vertical-center'><img style='vertical-align:center; align:center' src=img/fixation3.jpg></div><div class='cl'><div class='vertical-center'><font style='color:orange'>$75<br>in<br>6 weeks</font></div></div><div class='cr'><div class='vertical-center'>$55<br><br>now</div></div><div class='respDivL'><div class='vertical-center'><font style='color:orange'>(E)</font></div></div><div class='respDivR'><div class='vertical-center'>(I)</div></div></div>","null","$55<br><br>now","$75<br>in<br>6 weeks","1","55","75","6",""
"html-keyboard-response","76","359185","0.0-5.0-1.24","6400df3b4bd1fb13b52727fe","bdp_td","Sat Mar 25 2023 20:50:52 GMT-0400 (Eastern Daylight Time)","373803","","null","","","","FIX","","<div class='trialBorder'><div class='vertical-center'><img style='vertical-align:center; align:center' src=img/fixation3.jpg></div></div>","null","","","","","","",""
"html-keyboard-response","77","364414","0.0-5.0-2.24","6400df3b4bd1fb13b52727fe","bdp_td","Sat Mar 25 2023 20:50:52 GMT-0400 (Eastern Daylight Time)","373803","","5227","","","","offer","","<div class='trialBorder'><div class='vertical-center'><img style='vertical-align:center; align:center' src=img/fixation3.jpg></div><div class='cl'><div class='vertical-center'>$25<br>in<br>6 weeks</div></div><div class='cr'><div class='vertical-center'>$19<br><br>now</div></div><div class='respDivL'><div class='vertical-center'>(E)</div></div><div class='respDivR'><div class='vertical-center'>(I)</div></div></div>","E","$19<br><br>now","$25<br>in<br>6 weeks","1","19","25","6","THEN"
"html-keyboard-response","78","364670","0.0-5.0-3.24","6400df3b4bd1fb13b52727fe","bdp_td","Sat Mar 25 2023 20:50:52 GMT-0400 (Eastern Daylight Time)","373803","","null","","","","offerFB","","<div class='trialBorder'><div class='vertical-center'><img style='vertical-align:center; align:center' src=img/fixation3.jpg></div><div class='cl'><div class='vertical-center'><font style='color:orange'>$25<br>in<br>6 weeks</font></div></div><div class='cr'><div class='vertical-center'>$19<br><br>now</div></div><div class='respDivL'><div class='vertical-center'><font style='color:orange'>(E)</font></div></div><div class='respDivR'><div class='vertical-center'>(I)</div></div></div>","null","$19<br><br>now","$25<br>in<br>6 weeks","1","19","25","6",""
"html-keyboard-response","79","365180","0.0-5.0-1.25","6400df3b4bd1fb13b52727fe","bdp_td","Sat Mar 25 2023 20:50:52 GMT-0400 (Eastern Daylight Time)","373803","","null","","","","FIX","","<div class='trialBorder'><div class='vertical-center'><img style='vertical-align:center; align:center' src=img/fixation3.jpg></div></div>","null","","","","","","",""
"html-keyboard-response","80","367481","0.0-5.0-2.25","6400df3b4bd1fb13b52727fe","bdp_td","Sat Mar 25 2023 20:50:52 GMT-0400 (Eastern Daylight Time)","373803","","2299","","","","offer","","<div class='trialBorder'><div class='vertical-center'><img style='vertical-align:center; align:center' src=img/fixation3.jpg></div><div class='cl'><div class='vertical-center'>$47<br><br>now</div></div><div class='cr'><div class='vertical-center'>$50<br>in<br>12 weeks</div></div><div class='respDivL'><div class='vertical-center'>(E)</div></div><div class='respDivR'><div class='vertical-center'>(I)</div></div></div>","E","$47<br><br>now","$50<br>in<br>12 weeks","0","47","50","12","NOW"
"html-keyboard-response","81","367738","0.0-5.0-3.25","6400df3b4bd1fb13b52727fe","bdp_td","Sat Mar 25 2023 20:50:52 GMT-0400 (Eastern Daylight Time)","373803","","null","","","","offerFB","","<div class='trialBorder'><div class='vertical-center'><img style='vertical-align:center; align:center' src=img/fixation3.jpg></div><div class='cl'><div class='vertical-center'><font style='color:orange'>$47<br><br>now</font></div></div><div class='cr'><div class='vertical-center'>$50<br>in<br>12 weeks</div></div><div class='respDivL'><div class='vertical-center'><font style='color:orange'>(E)</font></div></div><div class='respDivR'><div class='vertical-center'>(I)</div></div></div>","null","$47<br><br>now","$50<br>in<br>12 weeks","0","47","50","12",""
"html-keyboard-response","82","368256","0.0-5.0-1.26","6400df3b4bd1fb13b52727fe","bdp_td","Sat Mar 25 2023 20:50:52 GMT-0400 (Eastern Daylight Time)","373803","","null","","","","FIX","","<div class='trialBorder'><div class='vertical-center'><img style='vertical-align:center; align:center' src=img/fixation3.jpg></div></div>","null","","","","","","",""
"html-keyboard-response","83","372541","0.0-5.0-2.26","6400df3b4bd1fb13b52727fe","bdp_td","Sat Mar 25 2023 20:50:52 GMT-0400 (Eastern Daylight Time)","373803","","4284","","","","offer","","<div class='trialBorder'><div class='vertical-center'><img style='vertical-align:center; align:center' src=img/fixation3.jpg></div><div class='cl'><div class='vertical-center'>$31<br><br>now</div></div><div class='cr'><div class='vertical-center'>$85<br>in<br>1 week</div></div><div class='respDivL'><div class='vertical-center'>(E)</div></div><div class='respDivR'><div class='vertical-center'>(I)</div></div></div>","I","$31<br><br>now","$85<br>in<br>1 week","0","31","85","1","THEN"
"html-keyboard-response","84","372800","0.0-5.0-3.26","6400df3b4bd1fb13b52727fe","bdp_td","Sat Mar 25 2023 20:50:52 GMT-0400 (Eastern Daylight Time)","373803","","null","","","","offerFB","","<div class='trialBorder'><div class='vertical-center'><img style='vertical-align:center; align:center' src=img/fixation3.jpg></div><div class='cl'><div class='vertical-center'>$31<br><br>now</div></div><div class='cr'><div class='vertical-center'><font style='color:orange'>$85<br>in<br>1 week</font></div></div><div class='respDivL'><div class='vertical-center'>(E)</div></div><div class='respDivR'><div class='vertical-center'><font style='color:orange'>(I)</font></div></div></div>","null","$31<br><br>now","$85<br>in<br>1 week","0","31","85","1",""
"","","","","6400df3b4bd1fb13b52727fe","bdp_td","Sat Mar 25 2023 20:50:52 GMT-0400 (Eastern Daylight Time)","373803","","","fullscreenexit","85","372818","fullscreenexit","","","","","","","","","",""
"fullscreen","85","373802","0.0-6.0","6400df3b4bd1fb13b52727fe","bdp_td","Sat Mar 25 2023 20:50:52 GMT-0400 (Eastern Daylight Time)","373803","","","","","","","true","","","","","","","","",""
"html-keyboard-response","86","374309","0.0-7.0","","","","","","null","","","","","","","null","","","","","","",""
