"event","trial","time","trialtype","subject_id","task","startTime","totalTime","trial_type","trial_index","time_elapsed","internal_node_id","view_history","rt","success","stimulus","key_press","nowOffer","thenOffer","thenLeft","nowAmt","thenAmt","thenWeeks","chosen"
"focus","0","0","focusevent","6400f1783058946c2b4780cd","bdp_td","Wed Mar 29 2023 10:21:20 GMT-0500 (Central Daylight Time)","151160","","","","","","","","","","","","","","","",""
"","","","","6400f1783058946c2b4780cd","bdp_td","Wed Mar 29 2023 10:21:20 GMT-0500 (Central Daylight Time)","151160","pavlovia","0","4","0.0-0.0","","","","","","","","","","","",""
"","","","","6400f1783058946c2b4780cd","bdp_td","Wed Mar 29 2023 10:21:20 GMT-0500 (Central Daylight Time)","151160","instructions","1","3050","0.0-1.0","[{""page_index"":0,""viewing_time"":3045}]","3045","","","","","","","","","",""
"fullscreenexit","2","4779","fullscreenexit","6400f1783058946c2b4780cd","bdp_td","Wed Mar 29 2023 10:21:20 GMT-0500 (Central Daylight Time)","151160","","","","","","","","","","","","","","","",""
"","","","","6400f1783058946c2b4780cd","bdp_td","Wed Mar 29 2023 10:21:20 GMT-0500 (Central Daylight Time)","151160","fullscreen","2","5533","0.0-2.0","","","true","","","","","","","","",""
"","","","fullscreenfail","6400f1783058946c2b4780cd","bdp_td","Wed Mar 29 2023 10:21:20 GMT-0500 (Central Daylight Time)","151160","image-keyboard-response","3","7188","0.0-3.0-0.0","","1653","","","32","","","","","","",""
"","","","","6400f1783058946c2b4780cd","bdp_td","Wed Mar 29 2023 10:21:20 GMT-0500 (Central Daylight Time)","151160","instructions","4","44336","0.0-4.0","[{""page_index"":0,""viewing_time"":8847},{""page_index"":1,""viewing_time"":19200},{""page_index"":2,""viewing_time"":8850}]","36897","","","","","","","","","",""
"","","","FIX","6400f1783058946c2b4780cd","bdp_td","Wed Mar 29 2023 10:21:20 GMT-0500 (Central Daylight Time)","151160","html-keyboard-response","5","44840","0.0-5.0-1.0","","null","","<div class='trialBorder'><div class='vertical-center'><img style='vertical-align:center; align:center' src=img/fixation3.jpg></div></div>","null","","","","","","",""
"","","","offer","6400f1783058946c2b4780cd","bdp_td","Wed Mar 29 2023 10:21:20 GMT-0500 (Central Daylight Time)","151160","html-keyboard-response","6","47374","0.0-5.0-2.0","","2533","","<div class='trialBorder'><div class='vertical-center'><img style='vertical-align:center; align:center' src=img/fixation3.jpg></div><div class='cl'><div class='vertical-center'>$25<br>in<br>12 weeks</div></div><div class='cr'><div class='vertical-center'>$22<br><br>now</div></div><div class='respDivL'><div class='vertical-center'>(E)</div></div><div class='respDivR'><div class='vertical-center'>(I)</div></div></div>","I","$22<br><br>now","$25<br>in<br>12 weeks","1","22","25","12","NOW"
"","","","offerFB","6400f1783058946c2b4780cd","bdp_td","Wed Mar 29 2023 10:21:20 GMT-0500 (Central Daylight Time)","151160","html-keyboard-response","7","47640","0.0-5.0-3.0","","null","","<div class='trialBorder'><div class='vertical-center'><img style='vertical-align:center; align:center' src=img/fixation3.jpg></div><div class='cl'><div class='vertical-center'>$25<br>in<br>12 weeks</div></div><div class='cr'><div class='vertical-center'><font style='color:orange'>$22<br><br>now</font></div></div><div class='respDivL'><div class='vertical-center'>(E)</div></div><div class='respDivR'><div class='vertical-center'><font style='color:orange'>(I)</font></div></div></div>","null","$22<br><br>now","$25<br>in<br>12 weeks","1","22","25","12",""
"","","","FIX","6400f1783058946c2b4780cd","bdp_td","Wed Mar 29 2023 10:21:20 GMT-0500 (Central Daylight Time)","151160","html-keyboard-response","8","48160","0.0-5.0-1.1","","null","","<div class='trialBorder'><div class='vertical-center'><img style='vertical-align:center; align:center' src=img/fixation3.jpg></div></div>","null","","","","","","",""
"","","","offer","6400f1783058946c2b4780cd","bdp_td","Wed Mar 29 2023 10:21:20 GMT-0500 (Central Daylight Time)","151160","html-keyboard-response","9","50512","0.0-5.0-2.1","","2352","","<div class='trialBorder'><div class='vertical-center'><img style='vertical-align:center; align:center' src=img/fixation3.jpg></div><div class='cl'><div class='vertical-center'>$40<br><br>now</div></div><div class='cr'><div class='vertical-center'>$55<br>in<br>6 weeks</div></div><div class='respDivL'><div class='vertical-center'>(E)</div></div><div class='respDivR'><div class='vertical-center'>(I)</div></div></div>","I","$40<br><br>now","$55<br>in<br>6 weeks","0","40","55","6","THEN"
"","","","offerFB","6400f1783058946c2b4780cd","bdp_td","Wed Mar 29 2023 10:21:20 GMT-0500 (Central Daylight Time)","151160","html-keyboard-response","10","50780","0.0-5.0-3.1","","null","","<div class='trialBorder'><div class='vertical-center'><img style='vertical-align:center; align:center' src=img/fixation3.jpg></div><div class='cl'><div class='vertical-center'>$40<br><br>now</div></div><div class='cr'><div class='vertical-center'><font style='color:orange'>$55<br>in<br>6 weeks</font></div></div><div class='respDivL'><div class='vertical-center'>(E)</div></div><div class='respDivR'><div class='vertical-center'><font style='color:orange'>(I)</font></div></div></div>","null","$40<br><br>now","$55<br>in<br>6 weeks","0","40","55","6",""
"","","","FIX","6400f1783058946c2b4780cd","bdp_td","Wed Mar 29 2023 10:21:20 GMT-0500 (Central Daylight Time)","151160","html-keyboard-response","11","51300","0.0-5.0-1.2","","null","","<div class='trialBorder'><div class='vertical-center'><img style='vertical-align:center; align:center' src=img/fixation3.jpg></div></div>","null","","","","","","",""
"","","","offer","6400f1783058946c2b4780cd","bdp_td","Wed Mar 29 2023 10:21:20 GMT-0500 (Central Daylight Time)","151160","html-keyboard-response","12","53899","0.0-5.0-2.2","","2599","","<div class='trialBorder'><div class='vertical-center'><img style='vertical-align:center; align:center' src=img/fixation3.jpg></div><div class='cl'><div class='vertical-center'>$85<br>in<br>6 weeks</div></div><div class='cr'><div class='vertical-center'>$69<br><br>now</div></div><div class='respDivL'><div class='vertical-center'>(E)</div></div><div class='respDivR'><div class='vertical-center'>(I)</div></div></div>","E","$69<br><br>now","$85<br>in<br>6 weeks","1","69","85","6","THEN"
"","","","offerFB","6400f1783058946c2b4780cd","bdp_td","Wed Mar 29 2023 10:21:20 GMT-0500 (Central Daylight Time)","151160","html-keyboard-response","13","54160","0.0-5.0-3.2","","null","","<div class='trialBorder'><div class='vertical-center'><img style='vertical-align:center; align:center' src=img/fixation3.jpg></div><div class='cl'><div class='vertical-center'><font style='color:orange'>$85<br>in<br>6 weeks</font></div></div><div class='cr'><div class='vertical-center'>$69<br><br>now</div></div><div class='respDivL'><div class='vertical-center'><font style='color:orange'>(E)</font></div></div><div class='respDivR'><div class='vertical-center'>(I)</div></div></div>","null","$69<br><br>now","$85<br>in<br>6 weeks","1","69","85","6",""
"","","","FIX","6400f1783058946c2b4780cd","bdp_td","Wed Mar 29 2023 10:21:20 GMT-0500 (Central Daylight Time)","151160","html-keyboard-response","14","54679","0.0-5.0-1.3","","null","","<div class='trialBorder'><div class='vertical-center'><img style='vertical-align:center; align:center' src=img/fixation3.jpg></div></div>","null","","","","","","",""
"","","","offer","6400f1783058946c2b4780cd","bdp_td","Wed Mar 29 2023 10:21:20 GMT-0500 (Central Daylight Time)","151160","html-keyboard-response","15","56686","0.0-5.0-2.3","","2006","","<div class='trialBorder'><div class='vertical-center'><img style='vertical-align:center; align:center' src=img/fixation3.jpg></div><div class='cl'><div class='vertical-center'>$15<br><br>now</div></div><div class='cr'><div class='vertical-center'>$35<br>in<br>2 weeks</div></div><div class='respDivL'><div class='vertical-center'>(E)</div></div><div class='respDivR'><div class='vertical-center'>(I)</div></div></div>","I","$15<br><br>now","$35<br>in<br>2 weeks","0","15","35","2","THEN"
"","","","offerFB","6400f1783058946c2b4780cd","bdp_td","Wed Mar 29 2023 10:21:20 GMT-0500 (Central Daylight Time)","151160","html-keyboard-response","16","56949","0.0-5.0-3.3","","null","","<div class='trialBorder'><div class='vertical-center'><img style='vertical-align:center; align:center' src=img/fixation3.jpg></div><div class='cl'><div class='vertical-center'>$15<br><br>now</div></div><div class='cr'><div class='vertical-center'><font style='color:orange'>$35<br>in<br>2 weeks</font></div></div><div class='respDivL'><div class='vertical-center'>(E)</div></div><div class='respDivR'><div class='vertical-center'><font style='color:orange'>(I)</font></div></div></div>","null","$15<br><br>now","$35<br>in<br>2 weeks","0","15","35","2",""
"","","","FIX","6400f1783058946c2b4780cd","bdp_td","Wed Mar 29 2023 10:21:20 GMT-0500 (Central Daylight Time)","151160","html-keyboard-response","17","57460","0.0-5.0-1.4","","null","","<div class='trialBorder'><div class='vertical-center'><img style='vertical-align:center; align:center' src=img/fixation3.jpg></div></div>","null","","","","","","",""
"","","","offer","6400f1783058946c2b4780cd","bdp_td","Wed Mar 29 2023 10:21:20 GMT-0500 (Central Daylight Time)","151160","html-keyboard-response","18","60061","0.0-5.0-2.4","","2601","","<div class='trialBorder'><div class='vertical-center'><img style='vertical-align:center; align:center' src=img/fixation3.jpg></div><div class='cl'><div class='vertical-center'>$60<br>in<br>3 weeks</div></div><div class='cr'><div class='vertical-center'>$25<br><br>now</div></div><div class='respDivL'><div class='vertical-center'>(E)</div></div><div class='respDivR'><div class='vertical-center'>(I)</div></div></div>","E","$25<br><br>now","$60<br>in<br>3 weeks","1","25","60","3","THEN"
"","","","offerFB","6400f1783058946c2b4780cd","bdp_td","Wed Mar 29 2023 10:21:20 GMT-0500 (Central Daylight Time)","151160","html-keyboard-response","19","60330","0.0-5.0-3.4","","null","","<div class='trialBorder'><div class='vertical-center'><img style='vertical-align:center; align:center' src=img/fixation3.jpg></div><div class='cl'><div class='vertical-center'><font style='color:orange'>$60<br>in<br>3 weeks</font></div></div><div class='cr'><div class='vertical-center'>$25<br><br>now</div></div><div class='respDivL'><div class='vertical-center'><font style='color:orange'>(E)</font></div></div><div class='respDivR'><div class='vertical-center'>(I)</div></div></div>","null","$25<br><br>now","$60<br>in<br>3 weeks","1","25","60","3",""
"","","","FIX","6400f1783058946c2b4780cd","bdp_td","Wed Mar 29 2023 10:21:20 GMT-0500 (Central Daylight Time)","151160","html-keyboard-response","20","60839","0.0-5.0-1.5","","null","","<div class='trialBorder'><div class='vertical-center'><img style='vertical-align:center; align:center' src=img/fixation3.jpg></div></div>","null","","","","","","",""
"","","","offer","6400f1783058946c2b4780cd","bdp_td","Wed Mar 29 2023 10:21:20 GMT-0500 (Central Daylight Time)","151160","html-keyboard-response","21","64912","0.0-5.0-2.5","","4072","","<div class='trialBorder'><div class='vertical-center'><img style='vertical-align:center; align:center' src=img/fixation3.jpg></div><div class='cl'><div class='vertical-center'>$54<br><br>now</div></div><div class='cr'><div class='vertical-center'>$80<br>in<br>3 weeks</div></div><div class='respDivL'><div class='vertical-center'>(E)</div></div><div class='respDivR'><div class='vertical-center'>(I)</div></div></div>","I","$54<br><br>now","$80<br>in<br>3 weeks","0","54","80","3","THEN"
"","","","offerFB","6400f1783058946c2b4780cd","bdp_td","Wed Mar 29 2023 10:21:20 GMT-0500 (Central Daylight Time)","151160","html-keyboard-response","22","65179","0.0-5.0-3.5","","null","","<div class='trialBorder'><div class='vertical-center'><img style='vertical-align:center; align:center' src=img/fixation3.jpg></div><div class='cl'><div class='vertical-center'>$54<br><br>now</div></div><div class='cr'><div class='vertical-center'><font style='color:orange'>$80<br>in<br>3 weeks</font></div></div><div class='respDivL'><div class='vertical-center'>(E)</div></div><div class='respDivR'><div class='vertical-center'><font style='color:orange'>(I)</font></div></div></div>","null","$54<br><br>now","$80<br>in<br>3 weeks","0","54","80","3",""
"","","","FIX","6400f1783058946c2b4780cd","bdp_td","Wed Mar 29 2023 10:21:20 GMT-0500 (Central Daylight Time)","151160","html-keyboard-response","23","65699","0.0-5.0-1.6","","null","","<div class='trialBorder'><div class='vertical-center'><img style='vertical-align:center; align:center' src=img/fixation3.jpg></div></div>","null","","","","","","",""
"","","","offer","6400f1783058946c2b4780cd","bdp_td","Wed Mar 29 2023 10:21:20 GMT-0500 (Central Daylight Time)","151160","html-keyboard-response","24","68036","0.0-5.0-2.6","","2336","","<div class='trialBorder'><div class='vertical-center'><img style='vertical-align:center; align:center' src=img/fixation3.jpg></div><div class='cl'><div class='vertical-center'>$27<br><br>now</div></div><div class='cr'><div class='vertical-center'>$50<br>in<br>3 weeks</div></div><div class='respDivL'><div class='vertical-center'>(E)</div></div><div class='respDivR'><div class='vertical-center'>(I)</div></div></div>","I","$27<br><br>now","$50<br>in<br>3 weeks","0","27","50","3","THEN"
"","","","offerFB","6400f1783058946c2b4780cd","bdp_td","Wed Mar 29 2023 10:21:20 GMT-0500 (Central Daylight Time)","151160","html-keyboard-response","25","68300","0.0-5.0-3.6","","null","","<div class='trialBorder'><div class='vertical-center'><img style='vertical-align:center; align:center' src=img/fixation3.jpg></div><div class='cl'><div class='vertical-center'>$27<br><br>now</div></div><div class='cr'><div class='vertical-center'><font style='color:orange'>$50<br>in<br>3 weeks</font></div></div><div class='respDivL'><div class='vertical-center'>(E)</div></div><div class='respDivR'><div class='vertical-center'><font style='color:orange'>(I)</font></div></div></div>","null","$27<br><br>now","$50<br>in<br>3 weeks","0","27","50","3",""
"","","","FIX","6400f1783058946c2b4780cd","bdp_td","Wed Mar 29 2023 10:21:20 GMT-0500 (Central Daylight Time)","151160","html-keyboard-response","26","68815","0.0-5.0-1.7","","null","","<div class='trialBorder'><div class='vertical-center'><img style='vertical-align:center; align:center' src=img/fixation3.jpg></div></div>","null","","","","","","",""
"","","","offer","6400f1783058946c2b4780cd","bdp_td","Wed Mar 29 2023 10:21:20 GMT-0500 (Central Daylight Time)","151160","html-keyboard-response","27","71198","0.0-5.0-2.7","","2382","","<div class='trialBorder'><div class='vertical-center'><img style='vertical-align:center; align:center' src=img/fixation3.jpg></div><div class='cl'><div class='vertical-center'>$67<br><br>now</div></div><div class='cr'><div class='vertical-center'>$75<br>in<br>12 weeks</div></div><div class='respDivL'><div class='vertical-center'>(E)</div></div><div class='respDivR'><div class='vertical-center'>(I)</div></div></div>","E","$67<br><br>now","$75<br>in<br>12 weeks","0","67","75","12","NOW"
"","","","offerFB","6400f1783058946c2b4780cd","bdp_td","Wed Mar 29 2023 10:21:20 GMT-0500 (Central Daylight Time)","151160","html-keyboard-response","28","71459","0.0-5.0-3.7","","null","","<div class='trialBorder'><div class='vertical-center'><img style='vertical-align:center; align:center' src=img/fixation3.jpg></div><div class='cl'><div class='vertical-center'><font style='color:orange'>$67<br><br>now</font></div></div><div class='cr'><div class='vertical-center'>$75<br>in<br>12 weeks</div></div><div class='respDivL'><div class='vertical-center'><font style='color:orange'>(E)</font></div></div><div class='respDivR'><div class='vertical-center'>(I)</div></div></div>","null","$67<br><br>now","$75<br>in<br>12 weeks","0","67","75","12",""
"","","","FIX","6400f1783058946c2b4780cd","bdp_td","Wed Mar 29 2023 10:21:20 GMT-0500 (Central Daylight Time)","151160","html-keyboard-response","29","71970","0.0-5.0-1.8","","null","","<div class='trialBorder'><div class='vertical-center'><img style='vertical-align:center; align:center' src=img/fixation3.jpg></div></div>","null","","","","","","",""
"","","","offer","6400f1783058946c2b4780cd","bdp_td","Wed Mar 29 2023 10:21:20 GMT-0500 (Central Daylight Time)","151160","html-keyboard-response","30","74323","0.0-5.0-2.8","","2353","","<div class='trialBorder'><div class='vertical-center'><img style='vertical-align:center; align:center' src=img/fixation3.jpg></div><div class='cl'><div class='vertical-center'>$80<br>in<br>2 weeks</div></div><div class='cr'><div class='vertical-center'>$33<br><br>now</div></div><div class='respDivL'><div class='vertical-center'>(E)</div></div><div class='respDivR'><div class='vertical-center'>(I)</div></div></div>","E","$33<br><br>now","$80<br>in<br>2 weeks","1","33","80","2","THEN"
"","","","offerFB","6400f1783058946c2b4780cd","bdp_td","Wed Mar 29 2023 10:21:20 GMT-0500 (Central Daylight Time)","151160","html-keyboard-response","31","74590","0.0-5.0-3.8","","null","","<div class='trialBorder'><div class='vertical-center'><img style='vertical-align:center; align:center' src=img/fixation3.jpg></div><div class='cl'><div class='vertical-center'><font style='color:orange'>$80<br>in<br>2 weeks</font></div></div><div class='cr'><div class='vertical-center'>$33<br><br>now</div></div><div class='respDivL'><div class='vertical-center'><font style='color:orange'>(E)</font></div></div><div class='respDivR'><div class='vertical-center'>(I)</div></div></div>","null","$33<br><br>now","$80<br>in<br>2 weeks","1","33","80","2",""
"","","","FIX","6400f1783058946c2b4780cd","bdp_td","Wed Mar 29 2023 10:21:20 GMT-0500 (Central Daylight Time)","151160","html-keyboard-response","32","75109","0.0-5.0-1.9","","null","","<div class='trialBorder'><div class='vertical-center'><img style='vertical-align:center; align:center' src=img/fixation3.jpg></div></div>","null","","","","","","",""
"","","","offer","6400f1783058946c2b4780cd","bdp_td","Wed Mar 29 2023 10:21:20 GMT-0500 (Central Daylight Time)","151160","html-keyboard-response","33","80161","0.0-5.0-2.9","","5052","","<div class='trialBorder'><div class='vertical-center'><img style='vertical-align:center; align:center' src=img/fixation3.jpg></div><div class='cl'><div class='vertical-center'>$75<br>in<br>6 weeks</div></div><div class='cr'><div class='vertical-center'>$55<br><br>now</div></div><div class='respDivL'><div class='vertical-center'>(E)</div></div><div class='respDivR'><div class='vertical-center'>(I)</div></div></div>","E","$55<br><br>now","$75<br>in<br>6 weeks","1","55","75","6","THEN"
"","","","offerFB","6400f1783058946c2b4780cd","bdp_td","Wed Mar 29 2023 10:21:20 GMT-0500 (Central Daylight Time)","151160","html-keyboard-response","34","80420","0.0-5.0-3.9","","null","","<div class='trialBorder'><div class='vertical-center'><img style='vertical-align:center; align:center' src=img/fixation3.jpg></div><div class='cl'><div class='vertical-center'><font style='color:orange'>$75<br>in<br>6 weeks</font></div></div><div class='cr'><div class='vertical-center'>$55<br><br>now</div></div><div class='respDivL'><div class='vertical-center'><font style='color:orange'>(E)</font></div></div><div class='respDivR'><div class='vertical-center'>(I)</div></div></div>","null","$55<br><br>now","$75<br>in<br>6 weeks","1","55","75","6",""
"","","","FIX","6400f1783058946c2b4780cd","bdp_td","Wed Mar 29 2023 10:21:20 GMT-0500 (Central Daylight Time)","151160","html-keyboard-response","35","80939","0.0-5.0-1.10","","null","","<div class='trialBorder'><div class='vertical-center'><img style='vertical-align:center; align:center' src=img/fixation3.jpg></div></div>","null","","","","","","",""
"","","","offer","6400f1783058946c2b4780cd","bdp_td","Wed Mar 29 2023 10:21:20 GMT-0500 (Central Daylight Time)","151160","html-keyboard-response","36","83310","0.0-5.0-2.10","","2370","","<div class='trialBorder'><div class='vertical-center'><img style='vertical-align:center; align:center' src=img/fixation3.jpg></div><div class='cl'><div class='vertical-center'>$80<br><br>now</div></div><div class='cr'><div class='vertical-center'>$85<br>in<br>12 weeks</div></div><div class='respDivL'><div class='vertical-center'>(E)</div></div><div class='respDivR'><div class='vertical-center'>(I)</div></div></div>","E","$80<br><br>now","$85<br>in<br>12 weeks","0","80","85","12","NOW"
"","","","offerFB","6400f1783058946c2b4780cd","bdp_td","Wed Mar 29 2023 10:21:20 GMT-0500 (Central Daylight Time)","151160","html-keyboard-response","37","83580","0.0-5.0-3.10","","null","","<div class='trialBorder'><div class='vertical-center'><img style='vertical-align:center; align:center' src=img/fixation3.jpg></div><div class='cl'><div class='vertical-center'><font style='color:orange'>$80<br><br>now</font></div></div><div class='cr'><div class='vertical-center'>$85<br>in<br>12 weeks</div></div><div class='respDivL'><div class='vertical-center'><font style='color:orange'>(E)</font></div></div><div class='respDivR'><div class='vertical-center'>(I)</div></div></div>","null","$80<br><br>now","$85<br>in<br>12 weeks","0","80","85","12",""
"","","","FIX","6400f1783058946c2b4780cd","bdp_td","Wed Mar 29 2023 10:21:20 GMT-0500 (Central Daylight Time)","151160","html-keyboard-response","38","84100","0.0-5.0-1.11","","null","","<div class='trialBorder'><div class='vertical-center'><img style='vertical-align:center; align:center' src=img/fixation3.jpg></div></div>","null","","","","","","",""
"","","","offer","6400f1783058946c2b4780cd","bdp_td","Wed Mar 29 2023 10:21:20 GMT-0500 (Central Daylight Time)","151160","html-keyboard-response","39","89824","0.0-5.0-2.11","","5723","","<div class='trialBorder'><div class='vertical-center'><img style='vertical-align:center; align:center' src=img/fixation3.jpg></div><div class='cl'><div class='vertical-center'>$85<br>in<br>1 week</div></div><div class='cr'><div class='vertical-center'>$31<br><br>now</div></div><div class='respDivL'><div class='vertical-center'>(E)</div></div><div class='respDivR'><div class='vertical-center'>(I)</div></div></div>","E","$31<br><br>now","$85<br>in<br>1 week","1","31","85","1","THEN"
"","","","offerFB","6400f1783058946c2b4780cd","bdp_td","Wed Mar 29 2023 10:21:20 GMT-0500 (Central Daylight Time)","151160","html-keyboard-response","40","90089","0.0-5.0-3.11","","null","","<div class='trialBorder'><div class='vertical-center'><img style='vertical-align:center; align:center' src=img/fixation3.jpg></div><div class='cl'><div class='vertical-center'><font style='color:orange'>$85<br>in<br>1 week</font></div></div><div class='cr'><div class='vertical-center'>$31<br><br>now</div></div><div class='respDivL'><div class='vertical-center'><font style='color:orange'>(E)</font></div></div><div class='respDivR'><div class='vertical-center'>(I)</div></div></div>","null","$31<br><br>now","$85<br>in<br>1 week","1","31","85","1",""
"","","","FIX","6400f1783058946c2b4780cd","bdp_td","Wed Mar 29 2023 10:21:20 GMT-0500 (Central Daylight Time)","151160","html-keyboard-response","41","90600","0.0-5.0-1.12","","null","","<div class='trialBorder'><div class='vertical-center'><img style='vertical-align:center; align:center' src=img/fixation3.jpg></div></div>","null","","","","","","",""
"","","","offer","6400f1783058946c2b4780cd","bdp_td","Wed Mar 29 2023 10:21:20 GMT-0500 (Central Daylight Time)","151160","html-keyboard-response","42","93224","0.0-5.0-2.12","","2624","","<div class='trialBorder'><div class='vertical-center'><img style='vertical-align:center; align:center' src=img/fixation3.jpg></div><div class='cl'><div class='vertical-center'>$11<br><br>now</div></div><div class='cr'><div class='vertical-center'>$30<br>in<br>2 weeks</div></div><div class='respDivL'><div class='vertical-center'>(E)</div></div><div class='respDivR'><div class='vertical-center'>(I)</div></div></div>","I","$11<br><br>now","$30<br>in<br>2 weeks","0","11","30","2","THEN"
"","","","offerFB","6400f1783058946c2b4780cd","bdp_td","Wed Mar 29 2023 10:21:20 GMT-0500 (Central Daylight Time)","151160","html-keyboard-response","43","93490","0.0-5.0-3.12","","null","","<div class='trialBorder'><div class='vertical-center'><img style='vertical-align:center; align:center' src=img/fixation3.jpg></div><div class='cl'><div class='vertical-center'>$11<br><br>now</div></div><div class='cr'><div class='vertical-center'><font style='color:orange'>$30<br>in<br>2 weeks</font></div></div><div class='respDivL'><div class='vertical-center'>(E)</div></div><div class='respDivR'><div class='vertical-center'><font style='color:orange'>(I)</font></div></div></div>","null","$11<br><br>now","$30<br>in<br>2 weeks","0","11","30","2",""
"","","","FIX","6400f1783058946c2b4780cd","bdp_td","Wed Mar 29 2023 10:21:20 GMT-0500 (Central Daylight Time)","151160","html-keyboard-response","44","93999","0.0-5.0-1.13","","null","","<div class='trialBorder'><div class='vertical-center'><img style='vertical-align:center; align:center' src=img/fixation3.jpg></div></div>","null","","","","","","",""
"","","","offer","6400f1783058946c2b4780cd","bdp_td","Wed Mar 29 2023 10:21:20 GMT-0500 (Central Daylight Time)","151160","html-keyboard-response","45","97936","0.0-5.0-2.13","","3937","","<div class='trialBorder'><div class='vertical-center'><img style='vertical-align:center; align:center' src=img/fixation3.jpg></div><div class='cl'><div class='vertical-center'>$25<br>in<br>3 weeks</div></div><div class='cr'><div class='vertical-center'>$14<br><br>now</div></div><div class='respDivL'><div class='vertical-center'>(E)</div></div><div class='respDivR'><div class='vertical-center'>(I)</div></div></div>","I","$14<br><br>now","$25<br>in<br>3 weeks","1","14","25","3","NOW"
"","","","offerFB","6400f1783058946c2b4780cd","bdp_td","Wed Mar 29 2023 10:21:20 GMT-0500 (Central Daylight Time)","151160","html-keyboard-response","46","98190","0.0-5.0-3.13","","null","","<div class='trialBorder'><div class='vertical-center'><img style='vertical-align:center; align:center' src=img/fixation3.jpg></div><div class='cl'><div class='vertical-center'>$25<br>in<br>3 weeks</div></div><div class='cr'><div class='vertical-center'><font style='color:orange'>$14<br><br>now</font></div></div><div class='respDivL'><div class='vertical-center'>(E)</div></div><div class='respDivR'><div class='vertical-center'><font style='color:orange'>(I)</font></div></div></div>","null","$14<br><br>now","$25<br>in<br>3 weeks","1","14","25","3",""
"","","","FIX","6400f1783058946c2b4780cd","bdp_td","Wed Mar 29 2023 10:21:20 GMT-0500 (Central Daylight Time)","151160","html-keyboard-response","47","98709","0.0-5.0-1.14","","null","","<div class='trialBorder'><div class='vertical-center'><img style='vertical-align:center; align:center' src=img/fixation3.jpg></div></div>","null","","","","","","",""
"","","","offer","6400f1783058946c2b4780cd","bdp_td","Wed Mar 29 2023 10:21:20 GMT-0500 (Central Daylight Time)","151160","html-keyboard-response","48","101673","0.0-5.0-2.14","","2964","","<div class='trialBorder'><div class='vertical-center'><img style='vertical-align:center; align:center' src=img/fixation3.jpg></div><div class='cl'><div class='vertical-center'>$54<br><br>now</div></div><div class='cr'><div class='vertical-center'>$55<br>in<br>12 weeks</div></div><div class='respDivL'><div class='vertical-center'>(E)</div></div><div class='respDivR'><div class='vertical-center'>(I)</div></div></div>","E","$54<br><br>now","$55<br>in<br>12 weeks","0","54","55","12","NOW"
"","","","offerFB","6400f1783058946c2b4780cd","bdp_td","Wed Mar 29 2023 10:21:20 GMT-0500 (Central Daylight Time)","151160","html-keyboard-response","49","101940","0.0-5.0-3.14","","null","","<div class='trialBorder'><div class='vertical-center'><img style='vertical-align:center; align:center' src=img/fixation3.jpg></div><div class='cl'><div class='vertical-center'><font style='color:orange'>$54<br><br>now</font></div></div><div class='cr'><div class='vertical-center'>$55<br>in<br>12 weeks</div></div><div class='respDivL'><div class='vertical-center'><font style='color:orange'>(E)</font></div></div><div class='respDivR'><div class='vertical-center'>(I)</div></div></div>","null","$54<br><br>now","$55<br>in<br>12 weeks","0","54","55","12",""
"","","","FIX","6400f1783058946c2b4780cd","bdp_td","Wed Mar 29 2023 10:21:20 GMT-0500 (Central Daylight Time)","151160","html-keyboard-response","50","102445","0.0-5.0-1.15","","null","","<div class='trialBorder'><div class='vertical-center'><img style='vertical-align:center; align:center' src=img/fixation3.jpg></div></div>","null","","","","","","",""
"","","","offer","6400f1783058946c2b4780cd","bdp_td","Wed Mar 29 2023 10:21:20 GMT-0500 (Central Daylight Time)","151160","html-keyboard-response","51","108461","0.0-5.0-2.15","","6016","","<div class='trialBorder'><div class='vertical-center'><img style='vertical-align:center; align:center' src=img/fixation3.jpg></div><div class='cl'><div class='vertical-center'>$34<br><br>now</div></div><div class='cr'><div class='vertical-center'>$50<br>in<br>6 weeks</div></div><div class='respDivL'><div class='vertical-center'>(E)</div></div><div class='respDivR'><div class='vertical-center'>(I)</div></div></div>","E","$34<br><br>now","$50<br>in<br>6 weeks","0","34","50","6","NOW"
"","","","offerFB","6400f1783058946c2b4780cd","bdp_td","Wed Mar 29 2023 10:21:20 GMT-0500 (Central Daylight Time)","151160","html-keyboard-response","52","108729","0.0-5.0-3.15","","null","","<div class='trialBorder'><div class='vertical-center'><img style='vertical-align:center; align:center' src=img/fixation3.jpg></div><div class='cl'><div class='vertical-center'><font style='color:orange'>$34<br><br>now</font></div></div><div class='cr'><div class='vertical-center'>$50<br>in<br>6 weeks</div></div><div class='respDivL'><div class='vertical-center'><font style='color:orange'>(E)</font></div></div><div class='respDivR'><div class='vertical-center'>(I)</div></div></div>","null","$34<br><br>now","$50<br>in<br>6 weeks","0","34","50","6",""
"","","","FIX","6400f1783058946c2b4780cd","bdp_td","Wed Mar 29 2023 10:21:20 GMT-0500 (Central Daylight Time)","151160","html-keyboard-response","53","109230","0.0-5.0-1.16","","null","","<div class='trialBorder'><div class='vertical-center'><img style='vertical-align:center; align:center' src=img/fixation3.jpg></div></div>","null","","","","","","",""
"","","","offer","6400f1783058946c2b4780cd","bdp_td","Wed Mar 29 2023 10:21:20 GMT-0500 (Central Daylight Time)","151160","html-keyboard-response","54","111861","0.0-5.0-2.16","","2631","","<div class='trialBorder'><div class='vertical-center'><img style='vertical-align:center; align:center' src=img/fixation3.jpg></div><div class='cl'><div class='vertical-center'>$25<br>in<br>6 weeks</div></div><div class='cr'><div class='vertical-center'>$19<br><br>now</div></div><div class='respDivL'><div class='vertical-center'>(E)</div></div><div class='respDivR'><div class='vertical-center'>(I)</div></div></div>","I","$19<br><br>now","$25<br>in<br>6 weeks","1","19","25","6","NOW"
"","","","offerFB","6400f1783058946c2b4780cd","bdp_td","Wed Mar 29 2023 10:21:20 GMT-0500 (Central Daylight Time)","151160","html-keyboard-response","55","112127","0.0-5.0-3.16","","null","","<div class='trialBorder'><div class='vertical-center'><img style='vertical-align:center; align:center' src=img/fixation3.jpg></div><div class='cl'><div class='vertical-center'>$25<br>in<br>6 weeks</div></div><div class='cr'><div class='vertical-center'><font style='color:orange'>$19<br><br>now</font></div></div><div class='respDivL'><div class='vertical-center'>(E)</div></div><div class='respDivR'><div class='vertical-center'><font style='color:orange'>(I)</font></div></div></div>","null","$19<br><br>now","$25<br>in<br>6 weeks","1","19","25","6",""
"","","","FIX","6400f1783058946c2b4780cd","bdp_td","Wed Mar 29 2023 10:21:20 GMT-0500 (Central Daylight Time)","151160","html-keyboard-response","56","112629","0.0-5.0-1.17","","null","","<div class='trialBorder'><div class='vertical-center'><img style='vertical-align:center; align:center' src=img/fixation3.jpg></div></div>","null","","","","","","",""
"","","","offer","6400f1783058946c2b4780cd","bdp_td","Wed Mar 29 2023 10:21:20 GMT-0500 (Central Daylight Time)","151160","html-keyboard-response","57","119060","0.0-5.0-2.17","","6429","","<div class='trialBorder'><div class='vertical-center'><img style='vertical-align:center; align:center' src=img/fixation3.jpg></div><div class='cl'><div class='vertical-center'>$34<br><br>now</div></div><div class='cr'><div class='vertical-center'>$35<br>in<br>12 weeks</div></div><div class='respDivL'><div class='vertical-center'>(E)</div></div><div class='respDivR'><div class='vertical-center'>(I)</div></div></div>","E","$34<br><br>now","$35<br>in<br>12 weeks","0","34","35","12","NOW"
"","","","offerFB","6400f1783058946c2b4780cd","bdp_td","Wed Mar 29 2023 10:21:20 GMT-0500 (Central Daylight Time)","151160","html-keyboard-response","58","119320","0.0-5.0-3.17","","null","","<div class='trialBorder'><div class='vertical-center'><img style='vertical-align:center; align:center' src=img/fixation3.jpg></div><div class='cl'><div class='vertical-center'><font style='color:orange'>$34<br><br>now</font></div></div><div class='cr'><div class='vertical-center'>$35<br>in<br>12 weeks</div></div><div class='respDivL'><div class='vertical-center'><font style='color:orange'>(E)</font></div></div><div class='respDivR'><div class='vertical-center'>(I)</div></div></div>","null","$34<br><br>now","$35<br>in<br>12 weeks","0","34","35","12",""
"","","","FIX","6400f1783058946c2b4780cd","bdp_td","Wed Mar 29 2023 10:21:20 GMT-0500 (Central Daylight Time)","151160","html-keyboard-response","59","119835","0.0-5.0-1.18","","null","","<div class='trialBorder'><div class='vertical-center'><img style='vertical-align:center; align:center' src=img/fixation3.jpg></div></div>","null","","","","","","",""
"","","","offer","6400f1783058946c2b4780cd","bdp_td","Wed Mar 29 2023 10:21:20 GMT-0500 (Central Daylight Time)","151160","html-keyboard-response","60","122223","0.0-5.0-2.18","","2387","","<div class='trialBorder'><div class='vertical-center'><img style='vertical-align:center; align:center' src=img/fixation3.jpg></div><div class='cl'><div class='vertical-center'>$30<br>in<br>12 weeks</div></div><div class='cr'><div class='vertical-center'>$28<br><br>now</div></div><div class='respDivL'><div class='vertical-center'>(E)</div></div><div class='respDivR'><div class='vertical-center'>(I)</div></div></div>","I","$28<br><br>now","$30<br>in<br>12 weeks","1","28","30","12","NOW"
"","","","offerFB","6400f1783058946c2b4780cd","bdp_td","Wed Mar 29 2023 10:21:20 GMT-0500 (Central Daylight Time)","151160","html-keyboard-response","61","122489","0.0-5.0-3.18","","null","","<div class='trialBorder'><div class='vertical-center'><img style='vertical-align:center; align:center' src=img/fixation3.jpg></div><div class='cl'><div class='vertical-center'>$30<br>in<br>12 weeks</div></div><div class='cr'><div class='vertical-center'><font style='color:orange'>$28<br><br>now</font></div></div><div class='respDivL'><div class='vertical-center'>(E)</div></div><div class='respDivR'><div class='vertical-center'><font style='color:orange'>(I)</font></div></div></div>","null","$28<br><br>now","$30<br>in<br>12 weeks","1","28","30","12",""
"","","","FIX","6400f1783058946c2b4780cd","bdp_td","Wed Mar 29 2023 10:21:20 GMT-0500 (Central Daylight Time)","151160","html-keyboard-response","62","123010","0.0-5.0-1.19","","null","","<div class='trialBorder'><div class='vertical-center'><img style='vertical-align:center; align:center' src=img/fixation3.jpg></div></div>","null","","","","","","",""
"","","","offer","6400f1783058946c2b4780cd","bdp_td","Wed Mar 29 2023 10:21:20 GMT-0500 (Central Daylight Time)","151160","html-keyboard-response","63","125574","0.0-5.0-2.19","","2563","","<div class='trialBorder'><div class='vertical-center'><img style='vertical-align:center; align:center' src=img/fixation3.jpg></div><div class='cl'><div class='vertical-center'>$60<br>in<br>6 weeks</div></div><div class='cr'><div class='vertical-center'>$49<br><br>now</div></div><div class='respDivL'><div class='vertical-center'>(E)</div></div><div class='respDivR'><div class='vertical-center'>(I)</div></div></div>","I","$49<br><br>now","$60<br>in<br>6 weeks","1","49","60","6","NOW"
"","","","offerFB","6400f1783058946c2b4780cd","bdp_td","Wed Mar 29 2023 10:21:20 GMT-0500 (Central Daylight Time)","151160","html-keyboard-response","64","125830","0.0-5.0-3.19","","null","","<div class='trialBorder'><div class='vertical-center'><img style='vertical-align:center; align:center' src=img/fixation3.jpg></div><div class='cl'><div class='vertical-center'>$60<br>in<br>6 weeks</div></div><div class='cr'><div class='vertical-center'><font style='color:orange'>$49<br><br>now</font></div></div><div class='respDivL'><div class='vertical-center'>(E)</div></div><div class='respDivR'><div class='vertical-center'><font style='color:orange'>(I)</font></div></div></div>","null","$49<br><br>now","$60<br>in<br>6 weeks","1","49","60","6",""
"","","","FIX","6400f1783058946c2b4780cd","bdp_td","Wed Mar 29 2023 10:21:20 GMT-0500 (Central Daylight Time)","151160","html-keyboard-response","65","126349","0.0-5.0-1.20","","null","","<div class='trialBorder'><div class='vertical-center'><img style='vertical-align:center; align:center' src=img/fixation3.jpg></div></div>","null","","","","","","",""
"","","","offer","6400f1783058946c2b4780cd","bdp_td","Wed Mar 29 2023 10:21:20 GMT-0500 (Central Daylight Time)","151160","html-keyboard-response","66","129648","0.0-5.0-2.20","","3297","","<div class='trialBorder'><div class='vertical-center'><img style='vertical-align:center; align:center' src=img/fixation3.jpg></div><div class='cl'><div class='vertical-center'>$24<br><br>now</div></div><div class='cr'><div class='vertical-center'>$35<br>in<br>3 weeks</div></div><div class='respDivL'><div class='vertical-center'>(E)</div></div><div class='respDivR'><div class='vertical-center'>(I)</div></div></div>","I","$24<br><br>now","$35<br>in<br>3 weeks","0","24","35","3","THEN"
"","","","offerFB","6400f1783058946c2b4780cd","bdp_td","Wed Mar 29 2023 10:21:20 GMT-0500 (Central Daylight Time)","151160","html-keyboard-response","67","129900","0.0-5.0-3.20","","null","","<div class='trialBorder'><div class='vertical-center'><img style='vertical-align:center; align:center' src=img/fixation3.jpg></div><div class='cl'><div class='vertical-center'>$24<br><br>now</div></div><div class='cr'><div class='vertical-center'><font style='color:orange'>$35<br>in<br>3 weeks</font></div></div><div class='respDivL'><div class='vertical-center'>(E)</div></div><div class='respDivR'><div class='vertical-center'><font style='color:orange'>(I)</font></div></div></div>","null","$24<br><br>now","$35<br>in<br>3 weeks","0","24","35","3",""
"","","","FIX","6400f1783058946c2b4780cd","bdp_td","Wed Mar 29 2023 10:21:20 GMT-0500 (Central Daylight Time)","151160","html-keyboard-response","68","130420","0.0-5.0-1.21","","null","","<div class='trialBorder'><div class='vertical-center'><img style='vertical-align:center; align:center' src=img/fixation3.jpg></div></div>","null","","","","","","",""
"","","","offer","6400f1783058946c2b4780cd","bdp_td","Wed Mar 29 2023 10:21:20 GMT-0500 (Central Daylight Time)","151160","html-keyboard-response","69","132798","0.0-5.0-2.21","","2378","","<div class='trialBorder'><div class='vertical-center'><img style='vertical-align:center; align:center' src=img/fixation3.jpg></div><div class='cl'><div class='vertical-center'>$25<br><br>now</div></div><div class='cr'><div class='vertical-center'>$30<br>in<br>6 weeks</div></div><div class='respDivL'><div class='vertical-center'>(E)</div></div><div class='respDivR'><div class='vertical-center'>(I)</div></div></div>","E","$25<br><br>now","$30<br>in<br>6 weeks","0","25","30","6","NOW"
"","","","offerFB","6400f1783058946c2b4780cd","bdp_td","Wed Mar 29 2023 10:21:20 GMT-0500 (Central Daylight Time)","151160","html-keyboard-response","70","133060","0.0-5.0-3.21","","null","","<div class='trialBorder'><div class='vertical-center'><img style='vertical-align:center; align:center' src=img/fixation3.jpg></div><div class='cl'><div class='vertical-center'><font style='color:orange'>$25<br><br>now</font></div></div><div class='cr'><div class='vertical-center'>$30<br>in<br>6 weeks</div></div><div class='respDivL'><div class='vertical-center'><font style='color:orange'>(E)</font></div></div><div class='respDivR'><div class='vertical-center'>(I)</div></div></div>","null","$25<br><br>now","$30<br>in<br>6 weeks","0","25","30","6",""
"","","","FIX","6400f1783058946c2b4780cd","bdp_td","Wed Mar 29 2023 10:21:20 GMT-0500 (Central Daylight Time)","151160","html-keyboard-response","71","133579","0.0-5.0-1.22","","null","","<div class='trialBorder'><div class='vertical-center'><img style='vertical-align:center; align:center' src=img/fixation3.jpg></div></div>","null","","","","","","",""
"","","","offer","6400f1783058946c2b4780cd","bdp_td","Wed Mar 29 2023 10:21:20 GMT-0500 (Central Daylight Time)","151160","html-keyboard-response","72","135825","0.0-5.0-2.22","","2244","","<div class='trialBorder'><div class='vertical-center'><img style='vertical-align:center; align:center' src=img/fixation3.jpg></div><div class='cl'><div class='vertical-center'>$60<br>in<br>12 weeks</div></div><div class='cr'><div class='vertical-center'>$54<br><br>now</div></div><div class='respDivL'><div class='vertical-center'>(E)</div></div><div class='respDivR'><div class='vertical-center'>(I)</div></div></div>","I","$54<br><br>now","$60<br>in<br>12 weeks","1","54","60","12","NOW"
"","","","offerFB","6400f1783058946c2b4780cd","bdp_td","Wed Mar 29 2023 10:21:20 GMT-0500 (Central Daylight Time)","151160","html-keyboard-response","73","136079","0.0-5.0-3.22","","null","","<div class='trialBorder'><div class='vertical-center'><img style='vertical-align:center; align:center' src=img/fixation3.jpg></div><div class='cl'><div class='vertical-center'>$60<br>in<br>12 weeks</div></div><div class='cr'><div class='vertical-center'><font style='color:orange'>$54<br><br>now</font></div></div><div class='respDivL'><div class='vertical-center'>(E)</div></div><div class='respDivR'><div class='vertical-center'><font style='color:orange'>(I)</font></div></div></div>","null","$54<br><br>now","$60<br>in<br>12 weeks","1","54","60","12",""
"","","","FIX","6400f1783058946c2b4780cd","bdp_td","Wed Mar 29 2023 10:21:20 GMT-0500 (Central Daylight Time)","151160","html-keyboard-response","74","136600","0.0-5.0-1.23","","null","","<div class='trialBorder'><div class='vertical-center'><img style='vertical-align:center; align:center' src=img/fixation3.jpg></div></div>","null","","","","","","",""
"","","","offer","6400f1783058946c2b4780cd","bdp_td","Wed Mar 29 2023 10:21:20 GMT-0500 (Central Daylight Time)","151160","html-keyboard-response","75","143060","0.0-5.0-2.23","","6460","","<div class='trialBorder'><div class='vertical-center'><img style='vertical-align:center; align:center' src=img/fixation3.jpg></div><div class='cl'><div class='vertical-center'>$75<br>in<br>3 weeks</div></div><div class='cr'><div class='vertical-center'>$41<br><br>now</div></div><div class='respDivL'><div class='vertical-center'>(E)</div></div><div class='respDivR'><div class='vertical-center'>(I)</div></div></div>","E","$41<br><br>now","$75<br>in<br>3 weeks","1","41","75","3","THEN"
"","","","offerFB","6400f1783058946c2b4780cd","bdp_td","Wed Mar 29 2023 10:21:20 GMT-0500 (Central Daylight Time)","151160","html-keyboard-response","76","143329","0.0-5.0-3.23","","null","","<div class='trialBorder'><div class='vertical-center'><img style='vertical-align:center; align:center' src=img/fixation3.jpg></div><div class='cl'><div class='vertical-center'><font style='color:orange'>$75<br>in<br>3 weeks</font></div></div><div class='cr'><div class='vertical-center'>$41<br><br>now</div></div><div class='respDivL'><div class='vertical-center'><font style='color:orange'>(E)</font></div></div><div class='respDivR'><div class='vertical-center'>(I)</div></div></div>","null","$41<br><br>now","$75<br>in<br>3 weeks","1","41","75","3",""
"","","","FIX","6400f1783058946c2b4780cd","bdp_td","Wed Mar 29 2023 10:21:20 GMT-0500 (Central Daylight Time)","151160","html-keyboard-response","77","143840","0.0-5.0-1.24","","null","","<div class='trialBorder'><div class='vertical-center'><img style='vertical-align:center; align:center' src=img/fixation3.jpg></div></div>","null","","","","","","",""
"","","","offer","6400f1783058946c2b4780cd","bdp_td","Wed Mar 29 2023 10:21:20 GMT-0500 (Central Daylight Time)","151160","html-keyboard-response","78","145585","0.0-5.0-2.24","","1745","","<div class='trialBorder'><div class='vertical-center'><img style='vertical-align:center; align:center' src=img/fixation3.jpg></div><div class='cl'><div class='vertical-center'>$47<br><br>now</div></div><div class='cr'><div class='vertical-center'>$50<br>in<br>12 weeks</div></div><div class='respDivL'><div class='vertical-center'>(E)</div></div><div class='respDivR'><div class='vertical-center'>(I)</div></div></div>","E","$47<br><br>now","$50<br>in<br>12 weeks","0","47","50","12","NOW"
"","","","offerFB","6400f1783058946c2b4780cd","bdp_td","Wed Mar 29 2023 10:21:20 GMT-0500 (Central Daylight Time)","151160","html-keyboard-response","79","145850","0.0-5.0-3.24","","null","","<div class='trialBorder'><div class='vertical-center'><img style='vertical-align:center; align:center' src=img/fixation3.jpg></div><div class='cl'><div class='vertical-center'><font style='color:orange'>$47<br><br>now</font></div></div><div class='cr'><div class='vertical-center'>$50<br>in<br>12 weeks</div></div><div class='respDivL'><div class='vertical-center'><font style='color:orange'>(E)</font></div></div><div class='respDivR'><div class='vertical-center'>(I)</div></div></div>","null","$47<br><br>now","$50<br>in<br>12 weeks","0","47","50","12",""
"","","","FIX","6400f1783058946c2b4780cd","bdp_td","Wed Mar 29 2023 10:21:20 GMT-0500 (Central Daylight Time)","151160","html-keyboard-response","80","146360","0.0-5.0-1.25","","null","","<div class='trialBorder'><div class='vertical-center'><img style='vertical-align:center; align:center' src=img/fixation3.jpg></div></div>","null","","","","","","",""
"","","","offer","6400f1783058946c2b4780cd","bdp_td","Wed Mar 29 2023 10:21:20 GMT-0500 (Central Daylight Time)","151160","html-keyboard-response","81","147649","0.0-5.0-2.25","","1289","","<div class='trialBorder'><div class='vertical-center'><img style='vertical-align:center; align:center' src=img/fixation3.jpg></div><div class='cl'><div class='vertical-center'>$20<br><br>now</div></div><div class='cr'><div class='vertical-center'>$55<br>in<br>1 week</div></div><div class='respDivL'><div class='vertical-center'>(E)</div></div><div class='respDivR'><div class='vertical-center'>(I)</div></div></div>","I","$20<br><br>now","$55<br>in<br>1 week","0","20","55","1","THEN"
"","","","offerFB","6400f1783058946c2b4780cd","bdp_td","Wed Mar 29 2023 10:21:20 GMT-0500 (Central Daylight Time)","151160","html-keyboard-response","82","147900","0.0-5.0-3.25","","null","","<div class='trialBorder'><div class='vertical-center'><img style='vertical-align:center; align:center' src=img/fixation3.jpg></div><div class='cl'><div class='vertical-center'>$20<br><br>now</div></div><div class='cr'><div class='vertical-center'><font style='color:orange'>$55<br>in<br>1 week</font></div></div><div class='respDivL'><div class='vertical-center'>(E)</div></div><div class='respDivR'><div class='vertical-center'><font style='color:orange'>(I)</font></div></div></div>","null","$20<br><br>now","$55<br>in<br>1 week","0","20","55","1",""
"","","","FIX","6400f1783058946c2b4780cd","bdp_td","Wed Mar 29 2023 10:21:20 GMT-0500 (Central Daylight Time)","151160","html-keyboard-response","83","148419","0.0-5.0-1.26","","null","","<div class='trialBorder'><div class='vertical-center'><img style='vertical-align:center; align:center' src=img/fixation3.jpg></div></div>","null","","","","","","",""
"","","","offer","6400f1783058946c2b4780cd","bdp_td","Wed Mar 29 2023 10:21:20 GMT-0500 (Central Daylight Time)","151160","html-keyboard-response","84","149886","0.0-5.0-2.26","","1466","","<div class='trialBorder'><div class='vertical-center'><img style='vertical-align:center; align:center' src=img/fixation3.jpg></div><div class='cl'><div class='vertical-center'>$80<br>in<br>12 weeks</div></div><div class='cr'><div class='vertical-center'>$78<br><br>now</div></div><div class='respDivL'><div class='vertical-center'>(E)</div></div><div class='respDivR'><div class='vertical-center'>(I)</div></div></div>","I","$78<br><br>now","$80<br>in<br>12 weeks","1","78","80","12","NOW"
"","","","offerFB","6400f1783058946c2b4780cd","bdp_td","Wed Mar 29 2023 10:21:20 GMT-0500 (Central Daylight Time)","151160","html-keyboard-response","85","150150","0.0-5.0-3.26","","null","","<div class='trialBorder'><div class='vertical-center'><img style='vertical-align:center; align:center' src=img/fixation3.jpg></div><div class='cl'><div class='vertical-center'>$80<br>in<br>12 weeks</div></div><div class='cr'><div class='vertical-center'><font style='color:orange'>$78<br><br>now</font></div></div><div class='respDivL'><div class='vertical-center'>(E)</div></div><div class='respDivR'><div class='vertical-center'><font style='color:orange'>(I)</font></div></div></div>","null","$78<br><br>now","$80<br>in<br>12 weeks","1","78","80","12",""
"fullscreenexit","86","150422","fullscreenexit","6400f1783058946c2b4780cd","bdp_td","Wed Mar 29 2023 10:21:20 GMT-0500 (Central Daylight Time)","151160","","","","","","","","","","","","","","","",""
"","","","","6400f1783058946c2b4780cd","bdp_td","Wed Mar 29 2023 10:21:20 GMT-0500 (Central Daylight Time)","151160","fullscreen","86","151160","0.0-6.0","","","true","","","","","","","","",""
"","","","","","","","","html-keyboard-response","87","151680","0.0-7.0","","null","","","null","","","","","","",""
