"trial_type","trial_index","time_elapsed","internal_node_id","subject_id","task","startTime","totalTime","view_history","rt","event","trial","time","trialtype","success","stimulus","key_press","nowOffer","thenOffer","thenLeft","nowAmt","thenAmt","thenWeeks","chosen"
"pavlovia","0","18","0.0-0.0","64141beda1cef49212be9b6c","bdp_td","Mon Apr 10 2023 06:51:23 GMT+0800 (China Standard Time)","140269","","","","","","","","","","","","","","","",""
"instructions","1","4141","0.0-1.0","64141beda1cef49212be9b6c","bdp_td","Mon Apr 10 2023 06:51:23 GMT+0800 (China Standard Time)","140269","[{""page_index"":0,""viewing_time"":4122}]","4122","","","","","","","","","","","","","",""
"","","","","64141beda1cef49212be9b6c","bdp_td","Mon Apr 10 2023 06:51:23 GMT+0800 (China Standard Time)","140269","","","fullscreenenter","2","5670","fullscreenenter","","","","","","","","","",""
"fullscreen","2","6546","0.0-2.0","64141beda1cef49212be9b6c","bdp_td","Mon Apr 10 2023 06:51:23 GMT+0800 (China Standard Time)","140269","","","","","","","true","","","","","","","","",""
"instructions","3","93076","0.0-4.0","64141beda1cef49212be9b6c","bdp_td","Mon Apr 10 2023 06:51:23 GMT+0800 (China Standard Time)","140269","[{""page_index"":0,""viewing_time"":73109},{""page_index"":1,""viewing_time"":8582},{""page_index"":2,""viewing_time"":4834}]","86526","","","","","","","","","","","","","",""
"html-keyboard-response","4","93593","0.0-5.0-1.0","64141beda1cef49212be9b6c","bdp_td","Mon Apr 10 2023 06:51:23 GMT+0800 (China Standard Time)","140269","","null","","","","FIX","","<div class='trialBorder'><div class='vertical-center'><img style='vertical-align:center; align:center' src=img/fixation3.jpg></div></div>","null","","","","","","",""
"html-keyboard-response","5","95332","0.0-5.0-2.0","64141beda1cef49212be9b6c","bdp_td","Mon Apr 10 2023 06:51:23 GMT+0800 (China Standard Time)","140269","","1728","","","","offer","","<div class='trialBorder'><div class='vertical-center'><img style='vertical-align:center; align:center' src=img/fixation3.jpg></div><div class='cl'><div class='vertical-center'>$50<br>in<br>6 weeks</div></div><div class='cr'><div class='vertical-center'>$34<br><br>now</div></div><div class='respDivL'><div class='vertical-center'>(E)</div></div><div class='respDivR'><div class='vertical-center'>(I)</div></div></div>","E","$34<br><br>now","$50<br>in<br>6 weeks","1","34","50","6","THEN"
"html-keyboard-response","6","95652","0.0-5.0-3.0","64141beda1cef49212be9b6c","bdp_td","Mon Apr 10 2023 06:51:23 GMT+0800 (China Standard Time)","140269","","null","","","","offerFB","","<div class='trialBorder'><div class='vertical-center'><img style='vertical-align:center; align:center' src=img/fixation3.jpg></div><div class='cl'><div class='vertical-center'><font style='color:orange'>$50<br>in<br>6 weeks</font></div></div><div class='cr'><div class='vertical-center'>$34<br><br>now</div></div><div class='respDivL'><div class='vertical-center'><font style='color:orange'>(E)</font></div></div><div class='respDivR'><div class='vertical-center'>(I)</div></div></div>","null","$34<br><br>now","$50<br>in<br>6 weeks","1","34","50","6",""
"html-keyboard-response","7","96162","0.0-5.0-1.1","64141beda1cef49212be9b6c","bdp_td","Mon Apr 10 2023 06:51:23 GMT+0800 (China Standard Time)","140269","","null","","","","FIX","","<div class='trialBorder'><div class='vertical-center'><img style='vertical-align:center; align:center' src=img/fixation3.jpg></div></div>","null","","","","","","",""
"html-keyboard-response","8","96860","0.0-5.0-2.1","64141beda1cef49212be9b6c","bdp_td","Mon Apr 10 2023 06:51:23 GMT+0800 (China Standard Time)","140269","","690","","","","offer","","<div class='trialBorder'><div class='vertical-center'><img style='vertical-align:center; align:center' src=img/fixation3.jpg></div><div class='cl'><div class='vertical-center'>$50<br>in<br>12 weeks</div></div><div class='cr'><div class='vertical-center'>$47<br><br>now</div></div><div class='respDivL'><div class='vertical-center'>(E)</div></div><div class='respDivR'><div class='vertical-center'>(I)</div></div></div>","E","$47<br><br>now","$50<br>in<br>12 weeks","1","47","50","12","THEN"
"html-keyboard-response","9","97118","0.0-5.0-3.1","64141beda1cef49212be9b6c","bdp_td","Mon Apr 10 2023 06:51:23 GMT+0800 (China Standard Time)","140269","","null","","","","offerFB","","<div class='trialBorder'><div class='vertical-center'><img style='vertical-align:center; align:center' src=img/fixation3.jpg></div><div class='cl'><div class='vertical-center'><font style='color:orange'>$50<br>in<br>12 weeks</font></div></div><div class='cr'><div class='vertical-center'>$47<br><br>now</div></div><div class='respDivL'><div class='vertical-center'><font style='color:orange'>(E)</font></div></div><div class='respDivR'><div class='vertical-center'>(I)</div></div></div>","null","$47<br><br>now","$50<br>in<br>12 weeks","1","47","50","12",""
"html-keyboard-response","10","97626","0.0-5.0-1.2","64141beda1cef49212be9b6c","bdp_td","Mon Apr 10 2023 06:51:23 GMT+0800 (China Standard Time)","140269","","null","","","","FIX","","<div class='trialBorder'><div class='vertical-center'><img style='vertical-align:center; align:center' src=img/fixation3.jpg></div></div>","null","","","","","","",""
"html-keyboard-response","11","98650","0.0-5.0-2.2","64141beda1cef49212be9b6c","bdp_td","Mon Apr 10 2023 06:51:23 GMT+0800 (China Standard Time)","140269","","1017","","","","offer","","<div class='trialBorder'><div class='vertical-center'><img style='vertical-align:center; align:center' src=img/fixation3.jpg></div><div class='cl'><div class='vertical-center'>$78<br><br>now</div></div><div class='cr'><div class='vertical-center'>$80<br>in<br>12 weeks</div></div><div class='respDivL'><div class='vertical-center'>(E)</div></div><div class='respDivR'><div class='vertical-center'>(I)</div></div></div>","E","$78<br><br>now","$80<br>in<br>12 weeks","0","78","80","12","NOW"
"html-keyboard-response","12","98910","0.0-5.0-3.2","64141beda1cef49212be9b6c","bdp_td","Mon Apr 10 2023 06:51:23 GMT+0800 (China Standard Time)","140269","","null","","","","offerFB","","<div class='trialBorder'><div class='vertical-center'><img style='vertical-align:center; align:center' src=img/fixation3.jpg></div><div class='cl'><div class='vertical-center'><font style='color:orange'>$78<br><br>now</font></div></div><div class='cr'><div class='vertical-center'>$80<br>in<br>12 weeks</div></div><div class='respDivL'><div class='vertical-center'><font style='color:orange'>(E)</font></div></div><div class='respDivR'><div class='vertical-center'>(I)</div></div></div>","null","$78<br><br>now","$80<br>in<br>12 weeks","0","78","80","12",""
"html-keyboard-response","13","99416","0.0-5.0-1.3","64141beda1cef49212be9b6c","bdp_td","Mon Apr 10 2023 06:51:23 GMT+0800 (China Standard Time)","140269","","null","","","","FIX","","<div class='trialBorder'><div class='vertical-center'><img style='vertical-align:center; align:center' src=img/fixation3.jpg></div></div>","null","","","","","","",""
"html-keyboard-response","14","100392","0.0-5.0-2.3","64141beda1cef49212be9b6c","bdp_td","Mon Apr 10 2023 06:51:23 GMT+0800 (China Standard Time)","140269","","965","","","","offer","","<div class='trialBorder'><div class='vertical-center'><img style='vertical-align:center; align:center' src=img/fixation3.jpg></div><div class='cl'><div class='vertical-center'>$55<br>in<br>6 weeks</div></div><div class='cr'><div class='vertical-center'>$40<br><br>now</div></div><div class='respDivL'><div class='vertical-center'>(E)</div></div><div class='respDivR'><div class='vertical-center'>(I)</div></div></div>","I","$40<br><br>now","$55<br>in<br>6 weeks","1","40","55","6","NOW"
"html-keyboard-response","15","100656","0.0-5.0-3.3","64141beda1cef49212be9b6c","bdp_td","Mon Apr 10 2023 06:51:23 GMT+0800 (China Standard Time)","140269","","null","","","","offerFB","","<div class='trialBorder'><div class='vertical-center'><img style='vertical-align:center; align:center' src=img/fixation3.jpg></div><div class='cl'><div class='vertical-center'>$55<br>in<br>6 weeks</div></div><div class='cr'><div class='vertical-center'><font style='color:orange'>$40<br><br>now</font></div></div><div class='respDivL'><div class='vertical-center'>(E)</div></div><div class='respDivR'><div class='vertical-center'><font style='color:orange'>(I)</font></div></div></div>","null","$40<br><br>now","$55<br>in<br>6 weeks","1","40","55","6",""
"html-keyboard-response","16","101162","0.0-5.0-1.4","64141beda1cef49212be9b6c","bdp_td","Mon Apr 10 2023 06:51:23 GMT+0800 (China Standard Time)","140269","","null","","","","FIX","","<div class='trialBorder'><div class='vertical-center'><img style='vertical-align:center; align:center' src=img/fixation3.jpg></div></div>","null","","","","","","",""
"html-keyboard-response","17","102027","0.0-5.0-2.4","64141beda1cef49212be9b6c","bdp_td","Mon Apr 10 2023 06:51:23 GMT+0800 (China Standard Time)","140269","","859","","","","offer","","<div class='trialBorder'><div class='vertical-center'><img style='vertical-align:center; align:center' src=img/fixation3.jpg></div><div class='cl'><div class='vertical-center'>$75<br>in<br>6 weeks</div></div><div class='cr'><div class='vertical-center'>$55<br><br>now</div></div><div class='respDivL'><div class='vertical-center'>(E)</div></div><div class='respDivR'><div class='vertical-center'>(I)</div></div></div>","E","$55<br><br>now","$75<br>in<br>6 weeks","1","55","75","6","THEN"
"html-keyboard-response","18","102283","0.0-5.0-3.4","64141beda1cef49212be9b6c","bdp_td","Mon Apr 10 2023 06:51:23 GMT+0800 (China Standard Time)","140269","","null","","","","offerFB","","<div class='trialBorder'><div class='vertical-center'><img style='vertical-align:center; align:center' src=img/fixation3.jpg></div><div class='cl'><div class='vertical-center'><font style='color:orange'>$75<br>in<br>6 weeks</font></div></div><div class='cr'><div class='vertical-center'>$55<br><br>now</div></div><div class='respDivL'><div class='vertical-center'><font style='color:orange'>(E)</font></div></div><div class='respDivR'><div class='vertical-center'>(I)</div></div></div>","null","$55<br><br>now","$75<br>in<br>6 weeks","1","55","75","6",""
"html-keyboard-response","19","102790","0.0-5.0-1.5","64141beda1cef49212be9b6c","bdp_td","Mon Apr 10 2023 06:51:23 GMT+0800 (China Standard Time)","140269","","null","","","","FIX","","<div class='trialBorder'><div class='vertical-center'><img style='vertical-align:center; align:center' src=img/fixation3.jpg></div></div>","null","","","","","","",""
"html-keyboard-response","20","103575","0.0-5.0-2.5","64141beda1cef49212be9b6c","bdp_td","Mon Apr 10 2023 06:51:23 GMT+0800 (China Standard Time)","140269","","777","","","","offer","","<div class='trialBorder'><div class='vertical-center'><img style='vertical-align:center; align:center' src=img/fixation3.jpg></div><div class='cl'><div class='vertical-center'>$55<br>in<br>12 weeks</div></div><div class='cr'><div class='vertical-center'>$54<br><br>now</div></div><div class='respDivL'><div class='vertical-center'>(E)</div></div><div class='respDivR'><div class='vertical-center'>(I)</div></div></div>","E","$54<br><br>now","$55<br>in<br>12 weeks","1","54","55","12","THEN"
"html-keyboard-response","21","103834","0.0-5.0-3.5","64141beda1cef49212be9b6c","bdp_td","Mon Apr 10 2023 06:51:23 GMT+0800 (China Standard Time)","140269","","null","","","","offerFB","","<div class='trialBorder'><div class='vertical-center'><img style='vertical-align:center; align:center' src=img/fixation3.jpg></div><div class='cl'><div class='vertical-center'><font style='color:orange'>$55<br>in<br>12 weeks</font></div></div><div class='cr'><div class='vertical-center'>$54<br><br>now</div></div><div class='respDivL'><div class='vertical-center'><font style='color:orange'>(E)</font></div></div><div class='respDivR'><div class='vertical-center'>(I)</div></div></div>","null","$54<br><br>now","$55<br>in<br>12 weeks","1","54","55","12",""
"html-keyboard-response","22","104343","0.0-5.0-1.6","64141beda1cef49212be9b6c","bdp_td","Mon Apr 10 2023 06:51:23 GMT+0800 (China Standard Time)","140269","","null","","","","FIX","","<div class='trialBorder'><div class='vertical-center'><img style='vertical-align:center; align:center' src=img/fixation3.jpg></div></div>","null","","","","","","",""
"html-keyboard-response","23","105073","0.0-5.0-2.6","64141beda1cef49212be9b6c","bdp_td","Mon Apr 10 2023 06:51:23 GMT+0800 (China Standard Time)","140269","","721","","","","offer","","<div class='trialBorder'><div class='vertical-center'><img style='vertical-align:center; align:center' src=img/fixation3.jpg></div><div class='cl'><div class='vertical-center'>$25<br>in<br>6 weeks</div></div><div class='cr'><div class='vertical-center'>$19<br><br>now</div></div><div class='respDivL'><div class='vertical-center'>(E)</div></div><div class='respDivR'><div class='vertical-center'>(I)</div></div></div>","I","$19<br><br>now","$25<br>in<br>6 weeks","1","19","25","6","NOW"
"html-keyboard-response","24","105333","0.0-5.0-3.6","64141beda1cef49212be9b6c","bdp_td","Mon Apr 10 2023 06:51:23 GMT+0800 (China Standard Time)","140269","","null","","","","offerFB","","<div class='trialBorder'><div class='vertical-center'><img style='vertical-align:center; align:center' src=img/fixation3.jpg></div><div class='cl'><div class='vertical-center'>$25<br>in<br>6 weeks</div></div><div class='cr'><div class='vertical-center'><font style='color:orange'>$19<br><br>now</font></div></div><div class='respDivL'><div class='vertical-center'>(E)</div></div><div class='respDivR'><div class='vertical-center'><font style='color:orange'>(I)</font></div></div></div>","null","$19<br><br>now","$25<br>in<br>6 weeks","1","19","25","6",""
"html-keyboard-response","25","105845","0.0-5.0-1.7","64141beda1cef49212be9b6c","bdp_td","Mon Apr 10 2023 06:51:23 GMT+0800 (China Standard Time)","140269","","null","","","","FIX","","<div class='trialBorder'><div class='vertical-center'><img style='vertical-align:center; align:center' src=img/fixation3.jpg></div></div>","null","","","","","","",""
"html-keyboard-response","26","106523","0.0-5.0-2.7","64141beda1cef49212be9b6c","bdp_td","Mon Apr 10 2023 06:51:23 GMT+0800 (China Standard Time)","140269","","672","","","","offer","","<div class='trialBorder'><div class='vertical-center'><img style='vertical-align:center; align:center' src=img/fixation3.jpg></div><div class='cl'><div class='vertical-center'>$14<br><br>now</div></div><div class='cr'><div class='vertical-center'>$25<br>in<br>3 weeks</div></div><div class='respDivL'><div class='vertical-center'>(E)</div></div><div class='respDivR'><div class='vertical-center'>(I)</div></div></div>","I","$14<br><br>now","$25<br>in<br>3 weeks","0","14","25","3","THEN"
"html-keyboard-response","27","106779","0.0-5.0-3.7","64141beda1cef49212be9b6c","bdp_td","Mon Apr 10 2023 06:51:23 GMT+0800 (China Standard Time)","140269","","null","","","","offerFB","","<div class='trialBorder'><div class='vertical-center'><img style='vertical-align:center; align:center' src=img/fixation3.jpg></div><div class='cl'><div class='vertical-center'>$14<br><br>now</div></div><div class='cr'><div class='vertical-center'><font style='color:orange'>$25<br>in<br>3 weeks</font></div></div><div class='respDivL'><div class='vertical-center'>(E)</div></div><div class='respDivR'><div class='vertical-center'><font style='color:orange'>(I)</font></div></div></div>","null","$14<br><br>now","$25<br>in<br>3 weeks","0","14","25","3",""
"html-keyboard-response","28","107285","0.0-5.0-1.8","64141beda1cef49212be9b6c","bdp_td","Mon Apr 10 2023 06:51:23 GMT+0800 (China Standard Time)","140269","","null","","","","FIX","","<div class='trialBorder'><div class='vertical-center'><img style='vertical-align:center; align:center' src=img/fixation3.jpg></div></div>","null","","","","","","",""
"html-keyboard-response","29","107974","0.0-5.0-2.8","64141beda1cef49212be9b6c","bdp_td","Mon Apr 10 2023 06:51:23 GMT+0800 (China Standard Time)","140269","","679","","","","offer","","<div class='trialBorder'><div class='vertical-center'><img style='vertical-align:center; align:center' src=img/fixation3.jpg></div><div class='cl'><div class='vertical-center'>$54<br><br>now</div></div><div class='cr'><div class='vertical-center'>$80<br>in<br>3 weeks</div></div><div class='respDivL'><div class='vertical-center'>(E)</div></div><div class='respDivR'><div class='vertical-center'>(I)</div></div></div>","I","$54<br><br>now","$80<br>in<br>3 weeks","0","54","80","3","THEN"
"html-keyboard-response","30","108232","0.0-5.0-3.8","64141beda1cef49212be9b6c","bdp_td","Mon Apr 10 2023 06:51:23 GMT+0800 (China Standard Time)","140269","","null","","","","offerFB","","<div class='trialBorder'><div class='vertical-center'><img style='vertical-align:center; align:center' src=img/fixation3.jpg></div><div class='cl'><div class='vertical-center'>$54<br><br>now</div></div><div class='cr'><div class='vertical-center'><font style='color:orange'>$80<br>in<br>3 weeks</font></div></div><div class='respDivL'><div class='vertical-center'>(E)</div></div><div class='respDivR'><div class='vertical-center'><font style='color:orange'>(I)</font></div></div></div>","null","$54<br><br>now","$80<br>in<br>3 weeks","0","54","80","3",""
"html-keyboard-response","31","108738","0.0-5.0-1.9","64141beda1cef49212be9b6c","bdp_td","Mon Apr 10 2023 06:51:23 GMT+0800 (China Standard Time)","140269","","null","","","","FIX","","<div class='trialBorder'><div class='vertical-center'><img style='vertical-align:center; align:center' src=img/fixation3.jpg></div></div>","null","","","","","","",""
"html-keyboard-response","32","109939","0.0-5.0-2.9","64141beda1cef49212be9b6c","bdp_td","Mon Apr 10 2023 06:51:23 GMT+0800 (China Standard Time)","140269","","1197","","","","offer","","<div class='trialBorder'><div class='vertical-center'><img style='vertical-align:center; align:center' src=img/fixation3.jpg></div><div class='cl'><div class='vertical-center'>$34<br><br>now</div></div><div class='cr'><div class='vertical-center'>$35<br>in<br>12 weeks</div></div><div class='respDivL'><div class='vertical-center'>(E)</div></div><div class='respDivR'><div class='vertical-center'>(I)</div></div></div>","I","$34<br><br>now","$35<br>in<br>12 weeks","0","34","35","12","THEN"
"html-keyboard-response","33","110194","0.0-5.0-3.9","64141beda1cef49212be9b6c","bdp_td","Mon Apr 10 2023 06:51:23 GMT+0800 (China Standard Time)","140269","","null","","","","offerFB","","<div class='trialBorder'><div class='vertical-center'><img style='vertical-align:center; align:center' src=img/fixation3.jpg></div><div class='cl'><div class='vertical-center'>$34<br><br>now</div></div><div class='cr'><div class='vertical-center'><font style='color:orange'>$35<br>in<br>12 weeks</font></div></div><div class='respDivL'><div class='vertical-center'>(E)</div></div><div class='respDivR'><div class='vertical-center'><font style='color:orange'>(I)</font></div></div></div>","null","$34<br><br>now","$35<br>in<br>12 weeks","0","34","35","12",""
"html-keyboard-response","34","110701","0.0-5.0-1.10","64141beda1cef49212be9b6c","bdp_td","Mon Apr 10 2023 06:51:23 GMT+0800 (China Standard Time)","140269","","null","","","","FIX","","<div class='trialBorder'><div class='vertical-center'><img style='vertical-align:center; align:center' src=img/fixation3.jpg></div></div>","null","","","","","","",""
"html-keyboard-response","35","111395","0.0-5.0-2.10","64141beda1cef49212be9b6c","bdp_td","Mon Apr 10 2023 06:51:23 GMT+0800 (China Standard Time)","140269","","685","","","","offer","","<div class='trialBorder'><div class='vertical-center'><img style='vertical-align:center; align:center' src=img/fixation3.jpg></div><div class='cl'><div class='vertical-center'>$50<br>in<br>3 weeks</div></div><div class='cr'><div class='vertical-center'>$27<br><br>now</div></div><div class='respDivL'><div class='vertical-center'>(E)</div></div><div class='respDivR'><div class='vertical-center'>(I)</div></div></div>","E","$27<br><br>now","$50<br>in<br>3 weeks","1","27","50","3","THEN"
"html-keyboard-response","36","111650","0.0-5.0-3.10","64141beda1cef49212be9b6c","bdp_td","Mon Apr 10 2023 06:51:23 GMT+0800 (China Standard Time)","140269","","null","","","","offerFB","","<div class='trialBorder'><div class='vertical-center'><img style='vertical-align:center; align:center' src=img/fixation3.jpg></div><div class='cl'><div class='vertical-center'><font style='color:orange'>$50<br>in<br>3 weeks</font></div></div><div class='cr'><div class='vertical-center'>$27<br><br>now</div></div><div class='respDivL'><div class='vertical-center'><font style='color:orange'>(E)</font></div></div><div class='respDivR'><div class='vertical-center'>(I)</div></div></div>","null","$27<br><br>now","$50<br>in<br>3 weeks","1","27","50","3",""
"html-keyboard-response","37","112158","0.0-5.0-1.11","64141beda1cef49212be9b6c","bdp_td","Mon Apr 10 2023 06:51:23 GMT+0800 (China Standard Time)","140269","","null","","","","FIX","","<div class='trialBorder'><div class='vertical-center'><img style='vertical-align:center; align:center' src=img/fixation3.jpg></div></div>","null","","","","","","",""
"html-keyboard-response","38","113482","0.0-5.0-2.11","64141beda1cef49212be9b6c","bdp_td","Mon Apr 10 2023 06:51:23 GMT+0800 (China Standard Time)","140269","","1317","","","","offer","","<div class='trialBorder'><div class='vertical-center'><img style='vertical-align:center; align:center' src=img/fixation3.jpg></div><div class='cl'><div class='vertical-center'>$25<br><br>now</div></div><div class='cr'><div class='vertical-center'>$30<br>in<br>6 weeks</div></div><div class='respDivL'><div class='vertical-center'>(E)</div></div><div class='respDivR'><div class='vertical-center'>(I)</div></div></div>","I","$25<br><br>now","$30<br>in<br>6 weeks","0","25","30","6","THEN"
"html-keyboard-response","39","113749","0.0-5.0-3.11","64141beda1cef49212be9b6c","bdp_td","Mon Apr 10 2023 06:51:23 GMT+0800 (China Standard Time)","140269","","null","","","","offerFB","","<div class='trialBorder'><div class='vertical-center'><img style='vertical-align:center; align:center' src=img/fixation3.jpg></div><div class='cl'><div class='vertical-center'>$25<br><br>now</div></div><div class='cr'><div class='vertical-center'><font style='color:orange'>$30<br>in<br>6 weeks</font></div></div><div class='respDivL'><div class='vertical-center'>(E)</div></div><div class='respDivR'><div class='vertical-center'><font style='color:orange'>(I)</font></div></div></div>","null","$25<br><br>now","$30<br>in<br>6 weeks","0","25","30","6",""
"html-keyboard-response","40","114253","0.0-5.0-1.12","64141beda1cef49212be9b6c","bdp_td","Mon Apr 10 2023 06:51:23 GMT+0800 (China Standard Time)","140269","","null","","","","FIX","","<div class='trialBorder'><div class='vertical-center'><img style='vertical-align:center; align:center' src=img/fixation3.jpg></div></div>","null","","","","","","",""
"html-keyboard-response","41","114901","0.0-5.0-2.12","64141beda1cef49212be9b6c","bdp_td","Mon Apr 10 2023 06:51:23 GMT+0800 (China Standard Time)","140269","","641","","","","offer","","<div class='trialBorder'><div class='vertical-center'><img style='vertical-align:center; align:center' src=img/fixation3.jpg></div><div class='cl'><div class='vertical-center'>$31<br><br>now</div></div><div class='cr'><div class='vertical-center'>$85<br>in<br>1 week</div></div><div class='respDivL'><div class='vertical-center'>(E)</div></div><div class='respDivR'><div class='vertical-center'>(I)</div></div></div>","I","$31<br><br>now","$85<br>in<br>1 week","0","31","85","1","THEN"
"html-keyboard-response","42","115162","0.0-5.0-3.12","64141beda1cef49212be9b6c","bdp_td","Mon Apr 10 2023 06:51:23 GMT+0800 (China Standard Time)","140269","","null","","","","offerFB","","<div class='trialBorder'><div class='vertical-center'><img style='vertical-align:center; align:center' src=img/fixation3.jpg></div><div class='cl'><div class='vertical-center'>$31<br><br>now</div></div><div class='cr'><div class='vertical-center'><font style='color:orange'>$85<br>in<br>1 week</font></div></div><div class='respDivL'><div class='vertical-center'>(E)</div></div><div class='respDivR'><div class='vertical-center'><font style='color:orange'>(I)</font></div></div></div>","null","$31<br><br>now","$85<br>in<br>1 week","0","31","85","1",""
"html-keyboard-response","43","115670","0.0-5.0-1.13","64141beda1cef49212be9b6c","bdp_td","Mon Apr 10 2023 06:51:23 GMT+0800 (China Standard Time)","140269","","null","","","","FIX","","<div class='trialBorder'><div class='vertical-center'><img style='vertical-align:center; align:center' src=img/fixation3.jpg></div></div>","null","","","","","","",""
"html-keyboard-response","44","116637","0.0-5.0-2.13","64141beda1cef49212be9b6c","bdp_td","Mon Apr 10 2023 06:51:23 GMT+0800 (China Standard Time)","140269","","962","","","","offer","","<div class='trialBorder'><div class='vertical-center'><img style='vertical-align:center; align:center' src=img/fixation3.jpg></div><div class='cl'><div class='vertical-center'>$24<br><br>now</div></div><div class='cr'><div class='vertical-center'>$35<br>in<br>3 weeks</div></div><div class='respDivL'><div class='vertical-center'>(E)</div></div><div class='respDivR'><div class='vertical-center'>(I)</div></div></div>","E","$24<br><br>now","$35<br>in<br>3 weeks","0","24","35","3","NOW"
"html-keyboard-response","45","116901","0.0-5.0-3.13","64141beda1cef49212be9b6c","bdp_td","Mon Apr 10 2023 06:51:23 GMT+0800 (China Standard Time)","140269","","null","","","","offerFB","","<div class='trialBorder'><div class='vertical-center'><img style='vertical-align:center; align:center' src=img/fixation3.jpg></div><div class='cl'><div class='vertical-center'><font style='color:orange'>$24<br><br>now</font></div></div><div class='cr'><div class='vertical-center'>$35<br>in<br>3 weeks</div></div><div class='respDivL'><div class='vertical-center'><font style='color:orange'>(E)</font></div></div><div class='respDivR'><div class='vertical-center'>(I)</div></div></div>","null","$24<br><br>now","$35<br>in<br>3 weeks","0","24","35","3",""
"html-keyboard-response","46","117406","0.0-5.0-1.14","64141beda1cef49212be9b6c","bdp_td","Mon Apr 10 2023 06:51:23 GMT+0800 (China Standard Time)","140269","","null","","","","FIX","","<div class='trialBorder'><div class='vertical-center'><img style='vertical-align:center; align:center' src=img/fixation3.jpg></div></div>","null","","","","","","",""
"html-keyboard-response","47","118057","0.0-5.0-2.14","64141beda1cef49212be9b6c","bdp_td","Mon Apr 10 2023 06:51:23 GMT+0800 (China Standard Time)","140269","","646","","","","offer","","<div class='trialBorder'><div class='vertical-center'><img style='vertical-align:center; align:center' src=img/fixation3.jpg></div><div class='cl'><div class='vertical-center'>$60<br>in<br>3 weeks</div></div><div class='cr'><div class='vertical-center'>$25<br><br>now</div></div><div class='respDivL'><div class='vertical-center'>(E)</div></div><div class='respDivR'><div class='vertical-center'>(I)</div></div></div>","E","$25<br><br>now","$60<br>in<br>3 weeks","1","25","60","3","THEN"
"html-keyboard-response","48","118317","0.0-5.0-3.14","64141beda1cef49212be9b6c","bdp_td","Mon Apr 10 2023 06:51:23 GMT+0800 (China Standard Time)","140269","","null","","","","offerFB","","<div class='trialBorder'><div class='vertical-center'><img style='vertical-align:center; align:center' src=img/fixation3.jpg></div><div class='cl'><div class='vertical-center'><font style='color:orange'>$60<br>in<br>3 weeks</font></div></div><div class='cr'><div class='vertical-center'>$25<br><br>now</div></div><div class='respDivL'><div class='vertical-center'><font style='color:orange'>(E)</font></div></div><div class='respDivR'><div class='vertical-center'>(I)</div></div></div>","null","$25<br><br>now","$60<br>in<br>3 weeks","1","25","60","3",""
"html-keyboard-response","49","118823","0.0-5.0-1.15","64141beda1cef49212be9b6c","bdp_td","Mon Apr 10 2023 06:51:23 GMT+0800 (China Standard Time)","140269","","null","","","","FIX","","<div class='trialBorder'><div class='vertical-center'><img style='vertical-align:center; align:center' src=img/fixation3.jpg></div></div>","null","","","","","","",""
"html-keyboard-response","50","119290","0.0-5.0-2.15","64141beda1cef49212be9b6c","bdp_td","Mon Apr 10 2023 06:51:23 GMT+0800 (China Standard Time)","140269","","462","","","","offer","","<div class='trialBorder'><div class='vertical-center'><img style='vertical-align:center; align:center' src=img/fixation3.jpg></div><div class='cl'><div class='vertical-center'>$25<br>in<br>12 weeks</div></div><div class='cr'><div class='vertical-center'>$22<br><br>now</div></div><div class='respDivL'><div class='vertical-center'>(E)</div></div><div class='respDivR'><div class='vertical-center'>(I)</div></div></div>","I","$22<br><br>now","$25<br>in<br>12 weeks","1","22","25","12","NOW"
"html-keyboard-response","51","119550","0.0-5.0-3.15","64141beda1cef49212be9b6c","bdp_td","Mon Apr 10 2023 06:51:23 GMT+0800 (China Standard Time)","140269","","null","","","","offerFB","","<div class='trialBorder'><div class='vertical-center'><img style='vertical-align:center; align:center' src=img/fixation3.jpg></div><div class='cl'><div class='vertical-center'>$25<br>in<br>12 weeks</div></div><div class='cr'><div class='vertical-center'><font style='color:orange'>$22<br><br>now</font></div></div><div class='respDivL'><div class='vertical-center'>(E)</div></div><div class='respDivR'><div class='vertical-center'><font style='color:orange'>(I)</font></div></div></div>","null","$22<br><br>now","$25<br>in<br>12 weeks","1","22","25","12",""
"html-keyboard-response","52","120057","0.0-5.0-1.16","64141beda1cef49212be9b6c","bdp_td","Mon Apr 10 2023 06:51:23 GMT+0800 (China Standard Time)","140269","","null","","","","FIX","","<div class='trialBorder'><div class='vertical-center'><img style='vertical-align:center; align:center' src=img/fixation3.jpg></div></div>","null","","","","","","",""
"html-keyboard-response","53","120617","0.0-5.0-2.16","64141beda1cef49212be9b6c","bdp_td","Mon Apr 10 2023 06:51:23 GMT+0800 (China Standard Time)","140269","","555","","","","offer","","<div class='trialBorder'><div class='vertical-center'><img style='vertical-align:center; align:center' src=img/fixation3.jpg></div><div class='cl'><div class='vertical-center'>$20<br><br>now</div></div><div class='cr'><div class='vertical-center'>$55<br>in<br>1 week</div></div><div class='respDivL'><div class='vertical-center'>(E)</div></div><div class='respDivR'><div class='vertical-center'>(I)</div></div></div>","I","$20<br><br>now","$55<br>in<br>1 week","0","20","55","1","THEN"
"html-keyboard-response","54","120878","0.0-5.0-3.16","64141beda1cef49212be9b6c","bdp_td","Mon Apr 10 2023 06:51:23 GMT+0800 (China Standard Time)","140269","","null","","","","offerFB","","<div class='trialBorder'><div class='vertical-center'><img style='vertical-align:center; align:center' src=img/fixation3.jpg></div><div class='cl'><div class='vertical-center'>$20<br><br>now</div></div><div class='cr'><div class='vertical-center'><font style='color:orange'>$55<br>in<br>1 week</font></div></div><div class='respDivL'><div class='vertical-center'>(E)</div></div><div class='respDivR'><div class='vertical-center'><font style='color:orange'>(I)</font></div></div></div>","null","$20<br><br>now","$55<br>in<br>1 week","0","20","55","1",""
"html-keyboard-response","55","121384","0.0-5.0-1.17","64141beda1cef49212be9b6c","bdp_td","Mon Apr 10 2023 06:51:23 GMT+0800 (China Standard Time)","140269","","null","","","","FIX","","<div class='trialBorder'><div class='vertical-center'><img style='vertical-align:center; align:center' src=img/fixation3.jpg></div></div>","null","","","","","","",""
"html-keyboard-response","56","122195","0.0-5.0-2.17","64141beda1cef49212be9b6c","bdp_td","Mon Apr 10 2023 06:51:23 GMT+0800 (China Standard Time)","140269","","796","","","","offer","","<div class='trialBorder'><div class='vertical-center'><img style='vertical-align:center; align:center' src=img/fixation3.jpg></div><div class='cl'><div class='vertical-center'>$41<br><br>now</div></div><div class='cr'><div class='vertical-center'>$75<br>in<br>3 weeks</div></div><div class='respDivL'><div class='vertical-center'>(E)</div></div><div class='respDivR'><div class='vertical-center'>(I)</div></div></div>","I","$41<br><br>now","$75<br>in<br>3 weeks","0","41","75","3","THEN"
"html-keyboard-response","57","122454","0.0-5.0-3.17","64141beda1cef49212be9b6c","bdp_td","Mon Apr 10 2023 06:51:23 GMT+0800 (China Standard Time)","140269","","null","","","","offerFB","","<div class='trialBorder'><div class='vertical-center'><img style='vertical-align:center; align:center' src=img/fixation3.jpg></div><div class='cl'><div class='vertical-center'>$41<br><br>now</div></div><div class='cr'><div class='vertical-center'><font style='color:orange'>$75<br>in<br>3 weeks</font></div></div><div class='respDivL'><div class='vertical-center'>(E)</div></div><div class='respDivR'><div class='vertical-center'><font style='color:orange'>(I)</font></div></div></div>","null","$41<br><br>now","$75<br>in<br>3 weeks","0","41","75","3",""
"html-keyboard-response","58","122963","0.0-5.0-1.18","64141beda1cef49212be9b6c","bdp_td","Mon Apr 10 2023 06:51:23 GMT+0800 (China Standard Time)","140269","","null","","","","FIX","","<div class='trialBorder'><div class='vertical-center'><img style='vertical-align:center; align:center' src=img/fixation3.jpg></div></div>","null","","","","","","",""
"html-keyboard-response","59","123949","0.0-5.0-2.18","64141beda1cef49212be9b6c","bdp_td","Mon Apr 10 2023 06:51:23 GMT+0800 (China Standard Time)","140269","","981","","","","offer","","<div class='trialBorder'><div class='vertical-center'><img style='vertical-align:center; align:center' src=img/fixation3.jpg></div><div class='cl'><div class='vertical-center'>$28<br><br>now</div></div><div class='cr'><div class='vertical-center'>$30<br>in<br>12 weeks</div></div><div class='respDivL'><div class='vertical-center'>(E)</div></div><div class='respDivR'><div class='vertical-center'>(I)</div></div></div>","I","$28<br><br>now","$30<br>in<br>12 weeks","0","28","30","12","THEN"
"html-keyboard-response","60","124202","0.0-5.0-3.18","64141beda1cef49212be9b6c","bdp_td","Mon Apr 10 2023 06:51:23 GMT+0800 (China Standard Time)","140269","","null","","","","offerFB","","<div class='trialBorder'><div class='vertical-center'><img style='vertical-align:center; align:center' src=img/fixation3.jpg></div><div class='cl'><div class='vertical-center'>$28<br><br>now</div></div><div class='cr'><div class='vertical-center'><font style='color:orange'>$30<br>in<br>12 weeks</font></div></div><div class='respDivL'><div class='vertical-center'>(E)</div></div><div class='respDivR'><div class='vertical-center'><font style='color:orange'>(I)</font></div></div></div>","null","$28<br><br>now","$30<br>in<br>12 weeks","0","28","30","12",""
"html-keyboard-response","61","124708","0.0-5.0-1.19","64141beda1cef49212be9b6c","bdp_td","Mon Apr 10 2023 06:51:23 GMT+0800 (China Standard Time)","140269","","null","","","","FIX","","<div class='trialBorder'><div class='vertical-center'><img style='vertical-align:center; align:center' src=img/fixation3.jpg></div></div>","null","","","","","","",""
"html-keyboard-response","62","125287","0.0-5.0-2.19","64141beda1cef49212be9b6c","bdp_td","Mon Apr 10 2023 06:51:23 GMT+0800 (China Standard Time)","140269","","572","","","","offer","","<div class='trialBorder'><div class='vertical-center'><img style='vertical-align:center; align:center' src=img/fixation3.jpg></div><div class='cl'><div class='vertical-center'>$60<br>in<br>12 weeks</div></div><div class='cr'><div class='vertical-center'>$54<br><br>now</div></div><div class='respDivL'><div class='vertical-center'>(E)</div></div><div class='respDivR'><div class='vertical-center'>(I)</div></div></div>","I","$54<br><br>now","$60<br>in<br>12 weeks","1","54","60","12","NOW"
"html-keyboard-response","63","125548","0.0-5.0-3.19","64141beda1cef49212be9b6c","bdp_td","Mon Apr 10 2023 06:51:23 GMT+0800 (China Standard Time)","140269","","null","","","","offerFB","","<div class='trialBorder'><div class='vertical-center'><img style='vertical-align:center; align:center' src=img/fixation3.jpg></div><div class='cl'><div class='vertical-center'>$60<br>in<br>12 weeks</div></div><div class='cr'><div class='vertical-center'><font style='color:orange'>$54<br><br>now</font></div></div><div class='respDivL'><div class='vertical-center'>(E)</div></div><div class='respDivR'><div class='vertical-center'><font style='color:orange'>(I)</font></div></div></div>","null","$54<br><br>now","$60<br>in<br>12 weeks","1","54","60","12",""
"html-keyboard-response","64","126052","0.0-5.0-1.20","64141beda1cef49212be9b6c","bdp_td","Mon Apr 10 2023 06:51:23 GMT+0800 (China Standard Time)","140269","","null","","","","FIX","","<div class='trialBorder'><div class='vertical-center'><img style='vertical-align:center; align:center' src=img/fixation3.jpg></div></div>","null","","","","","","",""
"html-keyboard-response","65","126881","0.0-5.0-2.20","64141beda1cef49212be9b6c","bdp_td","Mon Apr 10 2023 06:51:23 GMT+0800 (China Standard Time)","140269","","820","","","","offer","","<div class='trialBorder'><div class='vertical-center'><img style='vertical-align:center; align:center' src=img/fixation3.jpg></div><div class='cl'><div class='vertical-center'>$80<br>in<br>2 weeks</div></div><div class='cr'><div class='vertical-center'>$33<br><br>now</div></div><div class='respDivL'><div class='vertical-center'>(E)</div></div><div class='respDivR'><div class='vertical-center'>(I)</div></div></div>","E","$33<br><br>now","$80<br>in<br>2 weeks","1","33","80","2","THEN"
"html-keyboard-response","66","127137","0.0-5.0-3.20","64141beda1cef49212be9b6c","bdp_td","Mon Apr 10 2023 06:51:23 GMT+0800 (China Standard Time)","140269","","null","","","","offerFB","","<div class='trialBorder'><div class='vertical-center'><img style='vertical-align:center; align:center' src=img/fixation3.jpg></div><div class='cl'><div class='vertical-center'><font style='color:orange'>$80<br>in<br>2 weeks</font></div></div><div class='cr'><div class='vertical-center'>$33<br><br>now</div></div><div class='respDivL'><div class='vertical-center'><font style='color:orange'>(E)</font></div></div><div class='respDivR'><div class='vertical-center'>(I)</div></div></div>","null","$33<br><br>now","$80<br>in<br>2 weeks","1","33","80","2",""
"html-keyboard-response","67","127645","0.0-5.0-1.21","64141beda1cef49212be9b6c","bdp_td","Mon Apr 10 2023 06:51:23 GMT+0800 (China Standard Time)","140269","","null","","","","FIX","","<div class='trialBorder'><div class='vertical-center'><img style='vertical-align:center; align:center' src=img/fixation3.jpg></div></div>","null","","","","","","",""
"html-keyboard-response","68","128216","0.0-5.0-2.21","64141beda1cef49212be9b6c","bdp_td","Mon Apr 10 2023 06:51:23 GMT+0800 (China Standard Time)","140269","","565","","","","offer","","<div class='trialBorder'><div class='vertical-center'><img style='vertical-align:center; align:center' src=img/fixation3.jpg></div><div class='cl'><div class='vertical-center'>$69<br><br>now</div></div><div class='cr'><div class='vertical-center'>$85<br>in<br>6 weeks</div></div><div class='respDivL'><div class='vertical-center'>(E)</div></div><div class='respDivR'><div class='vertical-center'>(I)</div></div></div>","I","$69<br><br>now","$85<br>in<br>6 weeks","0","69","85","6","THEN"
"html-keyboard-response","69","128476","0.0-5.0-3.21","64141beda1cef49212be9b6c","bdp_td","Mon Apr 10 2023 06:51:23 GMT+0800 (China Standard Time)","140269","","null","","","","offerFB","","<div class='trialBorder'><div class='vertical-center'><img style='vertical-align:center; align:center' src=img/fixation3.jpg></div><div class='cl'><div class='vertical-center'>$69<br><br>now</div></div><div class='cr'><div class='vertical-center'><font style='color:orange'>$85<br>in<br>6 weeks</font></div></div><div class='respDivL'><div class='vertical-center'>(E)</div></div><div class='respDivR'><div class='vertical-center'><font style='color:orange'>(I)</font></div></div></div>","null","$69<br><br>now","$85<br>in<br>6 weeks","0","69","85","6",""
"html-keyboard-response","70","128982","0.0-5.0-1.22","64141beda1cef49212be9b6c","bdp_td","Mon Apr 10 2023 06:51:23 GMT+0800 (China Standard Time)","140269","","null","","","","FIX","","<div class='trialBorder'><div class='vertical-center'><img style='vertical-align:center; align:center' src=img/fixation3.jpg></div></div>","null","","","","","","",""
"html-keyboard-response","71","130243","0.0-5.0-2.22","64141beda1cef49212be9b6c","bdp_td","Mon Apr 10 2023 06:51:23 GMT+0800 (China Standard Time)","140269","","1255","","","","offer","","<div class='trialBorder'><div class='vertical-center'><img style='vertical-align:center; align:center' src=img/fixation3.jpg></div><div class='cl'><div class='vertical-center'>$30<br>in<br>2 weeks</div></div><div class='cr'><div class='vertical-center'>$11<br><br>now</div></div><div class='respDivL'><div class='vertical-center'>(E)</div></div><div class='respDivR'><div class='vertical-center'>(I)</div></div></div>","E","$11<br><br>now","$30<br>in<br>2 weeks","1","11","30","2","THEN"
"html-keyboard-response","72","130497","0.0-5.0-3.22","64141beda1cef49212be9b6c","bdp_td","Mon Apr 10 2023 06:51:23 GMT+0800 (China Standard Time)","140269","","null","","","","offerFB","","<div class='trialBorder'><div class='vertical-center'><img style='vertical-align:center; align:center' src=img/fixation3.jpg></div><div class='cl'><div class='vertical-center'><font style='color:orange'>$30<br>in<br>2 weeks</font></div></div><div class='cr'><div class='vertical-center'>$11<br><br>now</div></div><div class='respDivL'><div class='vertical-center'><font style='color:orange'>(E)</font></div></div><div class='respDivR'><div class='vertical-center'>(I)</div></div></div>","null","$11<br><br>now","$30<br>in<br>2 weeks","1","11","30","2",""
"html-keyboard-response","73","131000","0.0-5.0-1.23","64141beda1cef49212be9b6c","bdp_td","Mon Apr 10 2023 06:51:23 GMT+0800 (China Standard Time)","140269","","null","","","","FIX","","<div class='trialBorder'><div class='vertical-center'><img style='vertical-align:center; align:center' src=img/fixation3.jpg></div></div>","null","","","","","","",""
"html-keyboard-response","74","133469","0.0-5.0-2.23","64141beda1cef49212be9b6c","bdp_td","Mon Apr 10 2023 06:51:23 GMT+0800 (China Standard Time)","140269","","2465","","","","offer","","<div class='trialBorder'><div class='vertical-center'><img style='vertical-align:center; align:center' src=img/fixation3.jpg></div><div class='cl'><div class='vertical-center'>$85<br>in<br>12 weeks</div></div><div class='cr'><div class='vertical-center'>$80<br><br>now</div></div><div class='respDivL'><div class='vertical-center'>(E)</div></div><div class='respDivR'><div class='vertical-center'>(I)</div></div></div>","E","$80<br><br>now","$85<br>in<br>12 weeks","1","80","85","12","THEN"
"html-keyboard-response","75","133730","0.0-5.0-3.23","64141beda1cef49212be9b6c","bdp_td","Mon Apr 10 2023 06:51:23 GMT+0800 (China Standard Time)","140269","","null","","","","offerFB","","<div class='trialBorder'><div class='vertical-center'><img style='vertical-align:center; align:center' src=img/fixation3.jpg></div><div class='cl'><div class='vertical-center'><font style='color:orange'>$85<br>in<br>12 weeks</font></div></div><div class='cr'><div class='vertical-center'>$80<br><br>now</div></div><div class='respDivL'><div class='vertical-center'><font style='color:orange'>(E)</font></div></div><div class='respDivR'><div class='vertical-center'>(I)</div></div></div>","null","$80<br><br>now","$85<br>in<br>12 weeks","1","80","85","12",""
"html-keyboard-response","76","134234","0.0-5.0-1.24","64141beda1cef49212be9b6c","bdp_td","Mon Apr 10 2023 06:51:23 GMT+0800 (China Standard Time)","140269","","null","","","","FIX","","<div class='trialBorder'><div class='vertical-center'><img style='vertical-align:center; align:center' src=img/fixation3.jpg></div></div>","null","","","","","","",""
"html-keyboard-response","77","135353","0.0-5.0-2.24","64141beda1cef49212be9b6c","bdp_td","Mon Apr 10 2023 06:51:23 GMT+0800 (China Standard Time)","140269","","1112","","","","offer","","<div class='trialBorder'><div class='vertical-center'><img style='vertical-align:center; align:center' src=img/fixation3.jpg></div><div class='cl'><div class='vertical-center'>$49<br><br>now</div></div><div class='cr'><div class='vertical-center'>$60<br>in<br>6 weeks</div></div><div class='respDivL'><div class='vertical-center'>(E)</div></div><div class='respDivR'><div class='vertical-center'>(I)</div></div></div>","I","$49<br><br>now","$60<br>in<br>6 weeks","0","49","60","6","THEN"
"html-keyboard-response","78","135616","0.0-5.0-3.24","64141beda1cef49212be9b6c","bdp_td","Mon Apr 10 2023 06:51:23 GMT+0800 (China Standard Time)","140269","","null","","","","offerFB","","<div class='trialBorder'><div class='vertical-center'><img style='vertical-align:center; align:center' src=img/fixation3.jpg></div><div class='cl'><div class='vertical-center'>$49<br><br>now</div></div><div class='cr'><div class='vertical-center'><font style='color:orange'>$60<br>in<br>6 weeks</font></div></div><div class='respDivL'><div class='vertical-center'>(E)</div></div><div class='respDivR'><div class='vertical-center'><font style='color:orange'>(I)</font></div></div></div>","null","$49<br><br>now","$60<br>in<br>6 weeks","0","49","60","6",""
"html-keyboard-response","79","136124","0.0-5.0-1.25","64141beda1cef49212be9b6c","bdp_td","Mon Apr 10 2023 06:51:23 GMT+0800 (China Standard Time)","140269","","null","","","","FIX","","<div class='trialBorder'><div class='vertical-center'><img style='vertical-align:center; align:center' src=img/fixation3.jpg></div></div>","null","","","","","","",""
"html-keyboard-response","80","136904","0.0-5.0-2.25","64141beda1cef49212be9b6c","bdp_td","Mon Apr 10 2023 06:51:23 GMT+0800 (China Standard Time)","140269","","775","","","","offer","","<div class='trialBorder'><div class='vertical-center'><img style='vertical-align:center; align:center' src=img/fixation3.jpg></div><div class='cl'><div class='vertical-center'>$35<br>in<br>2 weeks</div></div><div class='cr'><div class='vertical-center'>$15<br><br>now</div></div><div class='respDivL'><div class='vertical-center'>(E)</div></div><div class='respDivR'><div class='vertical-center'>(I)</div></div></div>","E","$15<br><br>now","$35<br>in<br>2 weeks","1","15","35","2","THEN"
"html-keyboard-response","81","137162","0.0-5.0-3.25","64141beda1cef49212be9b6c","bdp_td","Mon Apr 10 2023 06:51:23 GMT+0800 (China Standard Time)","140269","","null","","","","offerFB","","<div class='trialBorder'><div class='vertical-center'><img style='vertical-align:center; align:center' src=img/fixation3.jpg></div><div class='cl'><div class='vertical-center'><font style='color:orange'>$35<br>in<br>2 weeks</font></div></div><div class='cr'><div class='vertical-center'>$15<br><br>now</div></div><div class='respDivL'><div class='vertical-center'><font style='color:orange'>(E)</font></div></div><div class='respDivR'><div class='vertical-center'>(I)</div></div></div>","null","$15<br><br>now","$35<br>in<br>2 weeks","1","15","35","2",""
"html-keyboard-response","82","137668","0.0-5.0-1.26","64141beda1cef49212be9b6c","bdp_td","Mon Apr 10 2023 06:51:23 GMT+0800 (China Standard Time)","140269","","null","","","","FIX","","<div class='trialBorder'><div class='vertical-center'><img style='vertical-align:center; align:center' src=img/fixation3.jpg></div></div>","null","","","","","","",""
"html-keyboard-response","83","139008","0.0-5.0-2.26","64141beda1cef49212be9b6c","bdp_td","Mon Apr 10 2023 06:51:23 GMT+0800 (China Standard Time)","140269","","1329","","","","offer","","<div class='trialBorder'><div class='vertical-center'><img style='vertical-align:center; align:center' src=img/fixation3.jpg></div><div class='cl'><div class='vertical-center'>$67<br><br>now</div></div><div class='cr'><div class='vertical-center'>$75<br>in<br>12 weeks</div></div><div class='respDivL'><div class='vertical-center'>(E)</div></div><div class='respDivR'><div class='vertical-center'>(I)</div></div></div>","I","$67<br><br>now","$75<br>in<br>12 weeks","0","67","75","12","THEN"
"html-keyboard-response","84","139264","0.0-5.0-3.26","64141beda1cef49212be9b6c","bdp_td","Mon Apr 10 2023 06:51:23 GMT+0800 (China Standard Time)","140269","","null","","","","offerFB","","<div class='trialBorder'><div class='vertical-center'><img style='vertical-align:center; align:center' src=img/fixation3.jpg></div><div class='cl'><div class='vertical-center'>$67<br><br>now</div></div><div class='cr'><div class='vertical-center'><font style='color:orange'>$75<br>in<br>12 weeks</font></div></div><div class='respDivL'><div class='vertical-center'>(E)</div></div><div class='respDivR'><div class='vertical-center'><font style='color:orange'>(I)</font></div></div></div>","null","$67<br><br>now","$75<br>in<br>12 weeks","0","67","75","12",""
"","","","","64141beda1cef49212be9b6c","bdp_td","Mon Apr 10 2023 06:51:23 GMT+0800 (China Standard Time)","140269","","","fullscreenexit","85","139392","fullscreenexit","","","","","","","","","",""
"fullscreen","85","140268","0.0-6.0","64141beda1cef49212be9b6c","bdp_td","Mon Apr 10 2023 06:51:23 GMT+0800 (China Standard Time)","140269","","","","","","","true","","","","","","","","",""
"html-keyboard-response","86","140773","0.0-7.0","","","","","","null","","","","","","","null","","","","","","",""
