"trial_type","trial_index","time_elapsed","internal_node_id","subject_id","task","startTime","totalTime","view_history","rt","event","trial","time","trialtype","success","stimulus","key_press","nowOffer","thenOffer","thenLeft","nowAmt","thenAmt","thenWeeks","chosen"
"pavlovia","0","2","0.0-0.0","63e55908254a436361a6787b","bdp_td","Tue Mar 28 2023 13:48:59 GMT-0700 (Pacific Daylight Time)","94044","","","","","","","","","","","","","","","",""
"instructions","1","1808","0.0-1.0","63e55908254a436361a6787b","bdp_td","Tue Mar 28 2023 13:48:59 GMT-0700 (Pacific Daylight Time)","94044","[{""page_index"":0,""viewing_time"":1806}]","1806","","","","","","","","","","","","","",""
"","","","","63e55908254a436361a6787b","bdp_td","Tue Mar 28 2023 13:48:59 GMT-0700 (Pacific Daylight Time)","94044","","","fullscreenenter","2","4223","fullscreenenter","","","","","","","","","",""
"fullscreen","2","5213","0.0-2.0","63e55908254a436361a6787b","bdp_td","Tue Mar 28 2023 13:48:59 GMT-0700 (Pacific Daylight Time)","94044","","","","","","","true","","","","","","","","",""
"instructions","3","24941","0.0-4.0","63e55908254a436361a6787b","bdp_td","Tue Mar 28 2023 13:48:59 GMT-0700 (Pacific Daylight Time)","94044","[{""page_index"":0,""viewing_time"":14478},{""page_index"":1,""viewing_time"":3579},{""page_index"":2,""viewing_time"":1670}]","19727","","","","","","","","","","","","","",""
"html-keyboard-response","4","25443","0.0-5.0-1.0","63e55908254a436361a6787b","bdp_td","Tue Mar 28 2023 13:48:59 GMT-0700 (Pacific Daylight Time)","94044","","null","","","","FIX","","<div class='trialBorder'><div class='vertical-center'><img style='vertical-align:center; align:center' src=img/fixation3.jpg></div></div>","null","","","","","","",""
"html-keyboard-response","5","28557","0.0-5.0-2.0","63e55908254a436361a6787b","bdp_td","Tue Mar 28 2023 13:48:59 GMT-0700 (Pacific Daylight Time)","94044","","3112","","","","offer","","<div class='trialBorder'><div class='vertical-center'><img style='vertical-align:center; align:center' src=img/fixation3.jpg></div><div class='cl'><div class='vertical-center'>$60<br>in<br>6 weeks</div></div><div class='cr'><div class='vertical-center'>$49<br><br>now</div></div><div class='respDivL'><div class='vertical-center'>(E)</div></div><div class='respDivR'><div class='vertical-center'>(I)</div></div></div>","E","$49<br><br>now","$60<br>in<br>6 weeks","1","49","60","6","THEN"
"html-keyboard-response","6","28808","0.0-5.0-3.0","63e55908254a436361a6787b","bdp_td","Tue Mar 28 2023 13:48:59 GMT-0700 (Pacific Daylight Time)","94044","","null","","","","offerFB","","<div class='trialBorder'><div class='vertical-center'><img style='vertical-align:center; align:center' src=img/fixation3.jpg></div><div class='cl'><div class='vertical-center'><font style='color:orange'>$60<br>in<br>6 weeks</font></div></div><div class='cr'><div class='vertical-center'>$49<br><br>now</div></div><div class='respDivL'><div class='vertical-center'><font style='color:orange'>(E)</font></div></div><div class='respDivR'><div class='vertical-center'>(I)</div></div></div>","null","$49<br><br>now","$60<br>in<br>6 weeks","1","49","60","6",""
"html-keyboard-response","7","29309","0.0-5.0-1.1","63e55908254a436361a6787b","bdp_td","Tue Mar 28 2023 13:48:59 GMT-0700 (Pacific Daylight Time)","94044","","null","","","","FIX","","<div class='trialBorder'><div class='vertical-center'><img style='vertical-align:center; align:center' src=img/fixation3.jpg></div></div>","null","","","","","","",""
"html-keyboard-response","8","31791","0.0-5.0-2.1","63e55908254a436361a6787b","bdp_td","Tue Mar 28 2023 13:48:59 GMT-0700 (Pacific Daylight Time)","94044","","2481","","","","offer","","<div class='trialBorder'><div class='vertical-center'><img style='vertical-align:center; align:center' src=img/fixation3.jpg></div><div class='cl'><div class='vertical-center'>$28<br><br>now</div></div><div class='cr'><div class='vertical-center'>$30<br>in<br>12 weeks</div></div><div class='respDivL'><div class='vertical-center'>(E)</div></div><div class='respDivR'><div class='vertical-center'>(I)</div></div></div>","E","$28<br><br>now","$30<br>in<br>12 weeks","0","28","30","12","NOW"
"html-keyboard-response","9","32043","0.0-5.0-3.1","63e55908254a436361a6787b","bdp_td","Tue Mar 28 2023 13:48:59 GMT-0700 (Pacific Daylight Time)","94044","","null","","","","offerFB","","<div class='trialBorder'><div class='vertical-center'><img style='vertical-align:center; align:center' src=img/fixation3.jpg></div><div class='cl'><div class='vertical-center'><font style='color:orange'>$28<br><br>now</font></div></div><div class='cr'><div class='vertical-center'>$30<br>in<br>12 weeks</div></div><div class='respDivL'><div class='vertical-center'><font style='color:orange'>(E)</font></div></div><div class='respDivR'><div class='vertical-center'>(I)</div></div></div>","null","$28<br><br>now","$30<br>in<br>12 weeks","0","28","30","12",""
"html-keyboard-response","10","32544","0.0-5.0-1.2","63e55908254a436361a6787b","bdp_td","Tue Mar 28 2023 13:48:59 GMT-0700 (Pacific Daylight Time)","94044","","null","","","","FIX","","<div class='trialBorder'><div class='vertical-center'><img style='vertical-align:center; align:center' src=img/fixation3.jpg></div></div>","null","","","","","","",""
"html-keyboard-response","11","33938","0.0-5.0-2.2","63e55908254a436361a6787b","bdp_td","Tue Mar 28 2023 13:48:59 GMT-0700 (Pacific Daylight Time)","94044","","1393","","","","offer","","<div class='trialBorder'><div class='vertical-center'><img style='vertical-align:center; align:center' src=img/fixation3.jpg></div><div class='cl'><div class='vertical-center'>$31<br><br>now</div></div><div class='cr'><div class='vertical-center'>$85<br>in<br>1 week</div></div><div class='respDivL'><div class='vertical-center'>(E)</div></div><div class='respDivR'><div class='vertical-center'>(I)</div></div></div>","I","$31<br><br>now","$85<br>in<br>1 week","0","31","85","1","THEN"
"html-keyboard-response","12","34190","0.0-5.0-3.2","63e55908254a436361a6787b","bdp_td","Tue Mar 28 2023 13:48:59 GMT-0700 (Pacific Daylight Time)","94044","","null","","","","offerFB","","<div class='trialBorder'><div class='vertical-center'><img style='vertical-align:center; align:center' src=img/fixation3.jpg></div><div class='cl'><div class='vertical-center'>$31<br><br>now</div></div><div class='cr'><div class='vertical-center'><font style='color:orange'>$85<br>in<br>1 week</font></div></div><div class='respDivL'><div class='vertical-center'>(E)</div></div><div class='respDivR'><div class='vertical-center'><font style='color:orange'>(I)</font></div></div></div>","null","$31<br><br>now","$85<br>in<br>1 week","0","31","85","1",""
"html-keyboard-response","13","34692","0.0-5.0-1.3","63e55908254a436361a6787b","bdp_td","Tue Mar 28 2023 13:48:59 GMT-0700 (Pacific Daylight Time)","94044","","null","","","","FIX","","<div class='trialBorder'><div class='vertical-center'><img style='vertical-align:center; align:center' src=img/fixation3.jpg></div></div>","null","","","","","","",""
"html-keyboard-response","14","35929","0.0-5.0-2.3","63e55908254a436361a6787b","bdp_td","Tue Mar 28 2023 13:48:59 GMT-0700 (Pacific Daylight Time)","94044","","1237","","","","offer","","<div class='trialBorder'><div class='vertical-center'><img style='vertical-align:center; align:center' src=img/fixation3.jpg></div><div class='cl'><div class='vertical-center'>$34<br><br>now</div></div><div class='cr'><div class='vertical-center'>$35<br>in<br>12 weeks</div></div><div class='respDivL'><div class='vertical-center'>(E)</div></div><div class='respDivR'><div class='vertical-center'>(I)</div></div></div>","E","$34<br><br>now","$35<br>in<br>12 weeks","0","34","35","12","NOW"
"html-keyboard-response","15","36181","0.0-5.0-3.3","63e55908254a436361a6787b","bdp_td","Tue Mar 28 2023 13:48:59 GMT-0700 (Pacific Daylight Time)","94044","","null","","","","offerFB","","<div class='trialBorder'><div class='vertical-center'><img style='vertical-align:center; align:center' src=img/fixation3.jpg></div><div class='cl'><div class='vertical-center'><font style='color:orange'>$34<br><br>now</font></div></div><div class='cr'><div class='vertical-center'>$35<br>in<br>12 weeks</div></div><div class='respDivL'><div class='vertical-center'><font style='color:orange'>(E)</font></div></div><div class='respDivR'><div class='vertical-center'>(I)</div></div></div>","null","$34<br><br>now","$35<br>in<br>12 weeks","0","34","35","12",""
"html-keyboard-response","16","36682","0.0-5.0-1.4","63e55908254a436361a6787b","bdp_td","Tue Mar 28 2023 13:48:59 GMT-0700 (Pacific Daylight Time)","94044","","null","","","","FIX","","<div class='trialBorder'><div class='vertical-center'><img style='vertical-align:center; align:center' src=img/fixation3.jpg></div></div>","null","","","","","","",""
"html-keyboard-response","17","38689","0.0-5.0-2.4","63e55908254a436361a6787b","bdp_td","Tue Mar 28 2023 13:48:59 GMT-0700 (Pacific Daylight Time)","94044","","2006","","","","offer","","<div class='trialBorder'><div class='vertical-center'><img style='vertical-align:center; align:center' src=img/fixation3.jpg></div><div class='cl'><div class='vertical-center'>$27<br><br>now</div></div><div class='cr'><div class='vertical-center'>$50<br>in<br>3 weeks</div></div><div class='respDivL'><div class='vertical-center'>(E)</div></div><div class='respDivR'><div class='vertical-center'>(I)</div></div></div>","I","$27<br><br>now","$50<br>in<br>3 weeks","0","27","50","3","THEN"
"html-keyboard-response","18","38941","0.0-5.0-3.4","63e55908254a436361a6787b","bdp_td","Tue Mar 28 2023 13:48:59 GMT-0700 (Pacific Daylight Time)","94044","","null","","","","offerFB","","<div class='trialBorder'><div class='vertical-center'><img style='vertical-align:center; align:center' src=img/fixation3.jpg></div><div class='cl'><div class='vertical-center'>$27<br><br>now</div></div><div class='cr'><div class='vertical-center'><font style='color:orange'>$50<br>in<br>3 weeks</font></div></div><div class='respDivL'><div class='vertical-center'>(E)</div></div><div class='respDivR'><div class='vertical-center'><font style='color:orange'>(I)</font></div></div></div>","null","$27<br><br>now","$50<br>in<br>3 weeks","0","27","50","3",""
"html-keyboard-response","19","39443","0.0-5.0-1.5","63e55908254a436361a6787b","bdp_td","Tue Mar 28 2023 13:48:59 GMT-0700 (Pacific Daylight Time)","94044","","null","","","","FIX","","<div class='trialBorder'><div class='vertical-center'><img style='vertical-align:center; align:center' src=img/fixation3.jpg></div></div>","null","","","","","","",""
"html-keyboard-response","20","41259","0.0-5.0-2.5","63e55908254a436361a6787b","bdp_td","Tue Mar 28 2023 13:48:59 GMT-0700 (Pacific Daylight Time)","94044","","1816","","","","offer","","<div class='trialBorder'><div class='vertical-center'><img style='vertical-align:center; align:center' src=img/fixation3.jpg></div><div class='cl'><div class='vertical-center'>$22<br><br>now</div></div><div class='cr'><div class='vertical-center'>$25<br>in<br>12 weeks</div></div><div class='respDivL'><div class='vertical-center'>(E)</div></div><div class='respDivR'><div class='vertical-center'>(I)</div></div></div>","E","$22<br><br>now","$25<br>in<br>12 weeks","0","22","25","12","NOW"
"html-keyboard-response","21","41512","0.0-5.0-3.5","63e55908254a436361a6787b","bdp_td","Tue Mar 28 2023 13:48:59 GMT-0700 (Pacific Daylight Time)","94044","","null","","","","offerFB","","<div class='trialBorder'><div class='vertical-center'><img style='vertical-align:center; align:center' src=img/fixation3.jpg></div><div class='cl'><div class='vertical-center'><font style='color:orange'>$22<br><br>now</font></div></div><div class='cr'><div class='vertical-center'>$25<br>in<br>12 weeks</div></div><div class='respDivL'><div class='vertical-center'><font style='color:orange'>(E)</font></div></div><div class='respDivR'><div class='vertical-center'>(I)</div></div></div>","null","$22<br><br>now","$25<br>in<br>12 weeks","0","22","25","12",""
"html-keyboard-response","22","42012","0.0-5.0-1.6","63e55908254a436361a6787b","bdp_td","Tue Mar 28 2023 13:48:59 GMT-0700 (Pacific Daylight Time)","94044","","null","","","","FIX","","<div class='trialBorder'><div class='vertical-center'><img style='vertical-align:center; align:center' src=img/fixation3.jpg></div></div>","null","","","","","","",""
"html-keyboard-response","23","43804","0.0-5.0-2.6","63e55908254a436361a6787b","bdp_td","Tue Mar 28 2023 13:48:59 GMT-0700 (Pacific Daylight Time)","94044","","1791","","","","offer","","<div class='trialBorder'><div class='vertical-center'><img style='vertical-align:center; align:center' src=img/fixation3.jpg></div><div class='cl'><div class='vertical-center'>$55<br>in<br>12 weeks</div></div><div class='cr'><div class='vertical-center'>$54<br><br>now</div></div><div class='respDivL'><div class='vertical-center'>(E)</div></div><div class='respDivR'><div class='vertical-center'>(I)</div></div></div>","I","$54<br><br>now","$55<br>in<br>12 weeks","1","54","55","12","NOW"
"html-keyboard-response","24","44056","0.0-5.0-3.6","63e55908254a436361a6787b","bdp_td","Tue Mar 28 2023 13:48:59 GMT-0700 (Pacific Daylight Time)","94044","","null","","","","offerFB","","<div class='trialBorder'><div class='vertical-center'><img style='vertical-align:center; align:center' src=img/fixation3.jpg></div><div class='cl'><div class='vertical-center'>$55<br>in<br>12 weeks</div></div><div class='cr'><div class='vertical-center'><font style='color:orange'>$54<br><br>now</font></div></div><div class='respDivL'><div class='vertical-center'>(E)</div></div><div class='respDivR'><div class='vertical-center'><font style='color:orange'>(I)</font></div></div></div>","null","$54<br><br>now","$55<br>in<br>12 weeks","1","54","55","12",""
"html-keyboard-response","25","44557","0.0-5.0-1.7","63e55908254a436361a6787b","bdp_td","Tue Mar 28 2023 13:48:59 GMT-0700 (Pacific Daylight Time)","94044","","null","","","","FIX","","<div class='trialBorder'><div class='vertical-center'><img style='vertical-align:center; align:center' src=img/fixation3.jpg></div></div>","null","","","","","","",""
"html-keyboard-response","26","46142","0.0-5.0-2.7","63e55908254a436361a6787b","bdp_td","Tue Mar 28 2023 13:48:59 GMT-0700 (Pacific Daylight Time)","94044","","1584","","","","offer","","<div class='trialBorder'><div class='vertical-center'><img style='vertical-align:center; align:center' src=img/fixation3.jpg></div><div class='cl'><div class='vertical-center'>$80<br>in<br>2 weeks</div></div><div class='cr'><div class='vertical-center'>$33<br><br>now</div></div><div class='respDivL'><div class='vertical-center'>(E)</div></div><div class='respDivR'><div class='vertical-center'>(I)</div></div></div>","E","$33<br><br>now","$80<br>in<br>2 weeks","1","33","80","2","THEN"
"html-keyboard-response","27","46394","0.0-5.0-3.7","63e55908254a436361a6787b","bdp_td","Tue Mar 28 2023 13:48:59 GMT-0700 (Pacific Daylight Time)","94044","","null","","","","offerFB","","<div class='trialBorder'><div class='vertical-center'><img style='vertical-align:center; align:center' src=img/fixation3.jpg></div><div class='cl'><div class='vertical-center'><font style='color:orange'>$80<br>in<br>2 weeks</font></div></div><div class='cr'><div class='vertical-center'>$33<br><br>now</div></div><div class='respDivL'><div class='vertical-center'><font style='color:orange'>(E)</font></div></div><div class='respDivR'><div class='vertical-center'>(I)</div></div></div>","null","$33<br><br>now","$80<br>in<br>2 weeks","1","33","80","2",""
"html-keyboard-response","28","46896","0.0-5.0-1.8","63e55908254a436361a6787b","bdp_td","Tue Mar 28 2023 13:48:59 GMT-0700 (Pacific Daylight Time)","94044","","null","","","","FIX","","<div class='trialBorder'><div class='vertical-center'><img style='vertical-align:center; align:center' src=img/fixation3.jpg></div></div>","null","","","","","","",""
"html-keyboard-response","29","48771","0.0-5.0-2.8","63e55908254a436361a6787b","bdp_td","Tue Mar 28 2023 13:48:59 GMT-0700 (Pacific Daylight Time)","94044","","1875","","","","offer","","<div class='trialBorder'><div class='vertical-center'><img style='vertical-align:center; align:center' src=img/fixation3.jpg></div><div class='cl'><div class='vertical-center'>$75<br>in<br>3 weeks</div></div><div class='cr'><div class='vertical-center'>$41<br><br>now</div></div><div class='respDivL'><div class='vertical-center'>(E)</div></div><div class='respDivR'><div class='vertical-center'>(I)</div></div></div>","E","$41<br><br>now","$75<br>in<br>3 weeks","1","41","75","3","THEN"
"html-keyboard-response","30","49023","0.0-5.0-3.8","63e55908254a436361a6787b","bdp_td","Tue Mar 28 2023 13:48:59 GMT-0700 (Pacific Daylight Time)","94044","","null","","","","offerFB","","<div class='trialBorder'><div class='vertical-center'><img style='vertical-align:center; align:center' src=img/fixation3.jpg></div><div class='cl'><div class='vertical-center'><font style='color:orange'>$75<br>in<br>3 weeks</font></div></div><div class='cr'><div class='vertical-center'>$41<br><br>now</div></div><div class='respDivL'><div class='vertical-center'><font style='color:orange'>(E)</font></div></div><div class='respDivR'><div class='vertical-center'>(I)</div></div></div>","null","$41<br><br>now","$75<br>in<br>3 weeks","1","41","75","3",""
"html-keyboard-response","31","49524","0.0-5.0-1.9","63e55908254a436361a6787b","bdp_td","Tue Mar 28 2023 13:48:59 GMT-0700 (Pacific Daylight Time)","94044","","null","","","","FIX","","<div class='trialBorder'><div class='vertical-center'><img style='vertical-align:center; align:center' src=img/fixation3.jpg></div></div>","null","","","","","","",""
"html-keyboard-response","32","51007","0.0-5.0-2.9","63e55908254a436361a6787b","bdp_td","Tue Mar 28 2023 13:48:59 GMT-0700 (Pacific Daylight Time)","94044","","1482","","","","offer","","<div class='trialBorder'><div class='vertical-center'><img style='vertical-align:center; align:center' src=img/fixation3.jpg></div><div class='cl'><div class='vertical-center'>$78<br><br>now</div></div><div class='cr'><div class='vertical-center'>$80<br>in<br>12 weeks</div></div><div class='respDivL'><div class='vertical-center'>(E)</div></div><div class='respDivR'><div class='vertical-center'>(I)</div></div></div>","I","$78<br><br>now","$80<br>in<br>12 weeks","0","78","80","12","THEN"
"html-keyboard-response","33","51259","0.0-5.0-3.9","63e55908254a436361a6787b","bdp_td","Tue Mar 28 2023 13:48:59 GMT-0700 (Pacific Daylight Time)","94044","","null","","","","offerFB","","<div class='trialBorder'><div class='vertical-center'><img style='vertical-align:center; align:center' src=img/fixation3.jpg></div><div class='cl'><div class='vertical-center'>$78<br><br>now</div></div><div class='cr'><div class='vertical-center'><font style='color:orange'>$80<br>in<br>12 weeks</font></div></div><div class='respDivL'><div class='vertical-center'>(E)</div></div><div class='respDivR'><div class='vertical-center'><font style='color:orange'>(I)</font></div></div></div>","null","$78<br><br>now","$80<br>in<br>12 weeks","0","78","80","12",""
"html-keyboard-response","34","51761","0.0-5.0-1.10","63e55908254a436361a6787b","bdp_td","Tue Mar 28 2023 13:48:59 GMT-0700 (Pacific Daylight Time)","94044","","null","","","","FIX","","<div class='trialBorder'><div class='vertical-center'><img style='vertical-align:center; align:center' src=img/fixation3.jpg></div></div>","null","","","","","","",""
"html-keyboard-response","35","54900","0.0-5.0-2.10","63e55908254a436361a6787b","bdp_td","Tue Mar 28 2023 13:48:59 GMT-0700 (Pacific Daylight Time)","94044","","3138","","","","offer","","<div class='trialBorder'><div class='vertical-center'><img style='vertical-align:center; align:center' src=img/fixation3.jpg></div><div class='cl'><div class='vertical-center'>$25<br>in<br>3 weeks</div></div><div class='cr'><div class='vertical-center'>$14<br><br>now</div></div><div class='respDivL'><div class='vertical-center'>(E)</div></div><div class='respDivR'><div class='vertical-center'>(I)</div></div></div>","E","$14<br><br>now","$25<br>in<br>3 weeks","1","14","25","3","THEN"
"html-keyboard-response","36","55152","0.0-5.0-3.10","63e55908254a436361a6787b","bdp_td","Tue Mar 28 2023 13:48:59 GMT-0700 (Pacific Daylight Time)","94044","","null","","","","offerFB","","<div class='trialBorder'><div class='vertical-center'><img style='vertical-align:center; align:center' src=img/fixation3.jpg></div><div class='cl'><div class='vertical-center'><font style='color:orange'>$25<br>in<br>3 weeks</font></div></div><div class='cr'><div class='vertical-center'>$14<br><br>now</div></div><div class='respDivL'><div class='vertical-center'><font style='color:orange'>(E)</font></div></div><div class='respDivR'><div class='vertical-center'>(I)</div></div></div>","null","$14<br><br>now","$25<br>in<br>3 weeks","1","14","25","3",""
"html-keyboard-response","37","55653","0.0-5.0-1.11","63e55908254a436361a6787b","bdp_td","Tue Mar 28 2023 13:48:59 GMT-0700 (Pacific Daylight Time)","94044","","null","","","","FIX","","<div class='trialBorder'><div class='vertical-center'><img style='vertical-align:center; align:center' src=img/fixation3.jpg></div></div>","null","","","","","","",""
"html-keyboard-response","38","58278","0.0-5.0-2.11","63e55908254a436361a6787b","bdp_td","Tue Mar 28 2023 13:48:59 GMT-0700 (Pacific Daylight Time)","94044","","2625","","","","offer","","<div class='trialBorder'><div class='vertical-center'><img style='vertical-align:center; align:center' src=img/fixation3.jpg></div><div class='cl'><div class='vertical-center'>$34<br><br>now</div></div><div class='cr'><div class='vertical-center'>$50<br>in<br>6 weeks</div></div><div class='respDivL'><div class='vertical-center'>(E)</div></div><div class='respDivR'><div class='vertical-center'>(I)</div></div></div>","I","$34<br><br>now","$50<br>in<br>6 weeks","0","34","50","6","THEN"
"html-keyboard-response","39","58530","0.0-5.0-3.11","63e55908254a436361a6787b","bdp_td","Tue Mar 28 2023 13:48:59 GMT-0700 (Pacific Daylight Time)","94044","","null","","","","offerFB","","<div class='trialBorder'><div class='vertical-center'><img style='vertical-align:center; align:center' src=img/fixation3.jpg></div><div class='cl'><div class='vertical-center'>$34<br><br>now</div></div><div class='cr'><div class='vertical-center'><font style='color:orange'>$50<br>in<br>6 weeks</font></div></div><div class='respDivL'><div class='vertical-center'>(E)</div></div><div class='respDivR'><div class='vertical-center'><font style='color:orange'>(I)</font></div></div></div>","null","$34<br><br>now","$50<br>in<br>6 weeks","0","34","50","6",""
"html-keyboard-response","40","59031","0.0-5.0-1.12","63e55908254a436361a6787b","bdp_td","Tue Mar 28 2023 13:48:59 GMT-0700 (Pacific Daylight Time)","94044","","null","","","","FIX","","<div class='trialBorder'><div class='vertical-center'><img style='vertical-align:center; align:center' src=img/fixation3.jpg></div></div>","null","","","","","","",""
"html-keyboard-response","41","60659","0.0-5.0-2.12","63e55908254a436361a6787b","bdp_td","Tue Mar 28 2023 13:48:59 GMT-0700 (Pacific Daylight Time)","94044","","1627","","","","offer","","<div class='trialBorder'><div class='vertical-center'><img style='vertical-align:center; align:center' src=img/fixation3.jpg></div><div class='cl'><div class='vertical-center'>$40<br><br>now</div></div><div class='cr'><div class='vertical-center'>$55<br>in<br>6 weeks</div></div><div class='respDivL'><div class='vertical-center'>(E)</div></div><div class='respDivR'><div class='vertical-center'>(I)</div></div></div>","I","$40<br><br>now","$55<br>in<br>6 weeks","0","40","55","6","THEN"
"html-keyboard-response","42","60910","0.0-5.0-3.12","63e55908254a436361a6787b","bdp_td","Tue Mar 28 2023 13:48:59 GMT-0700 (Pacific Daylight Time)","94044","","null","","","","offerFB","","<div class='trialBorder'><div class='vertical-center'><img style='vertical-align:center; align:center' src=img/fixation3.jpg></div><div class='cl'><div class='vertical-center'>$40<br><br>now</div></div><div class='cr'><div class='vertical-center'><font style='color:orange'>$55<br>in<br>6 weeks</font></div></div><div class='respDivL'><div class='vertical-center'>(E)</div></div><div class='respDivR'><div class='vertical-center'><font style='color:orange'>(I)</font></div></div></div>","null","$40<br><br>now","$55<br>in<br>6 weeks","0","40","55","6",""
"html-keyboard-response","43","61412","0.0-5.0-1.13","63e55908254a436361a6787b","bdp_td","Tue Mar 28 2023 13:48:59 GMT-0700 (Pacific Daylight Time)","94044","","null","","","","FIX","","<div class='trialBorder'><div class='vertical-center'><img style='vertical-align:center; align:center' src=img/fixation3.jpg></div></div>","null","","","","","","",""
"html-keyboard-response","44","63009","0.0-5.0-2.13","63e55908254a436361a6787b","bdp_td","Tue Mar 28 2023 13:48:59 GMT-0700 (Pacific Daylight Time)","94044","","1597","","","","offer","","<div class='trialBorder'><div class='vertical-center'><img style='vertical-align:center; align:center' src=img/fixation3.jpg></div><div class='cl'><div class='vertical-center'>$47<br><br>now</div></div><div class='cr'><div class='vertical-center'>$50<br>in<br>12 weeks</div></div><div class='respDivL'><div class='vertical-center'>(E)</div></div><div class='respDivR'><div class='vertical-center'>(I)</div></div></div>","E","$47<br><br>now","$50<br>in<br>12 weeks","0","47","50","12","NOW"
"html-keyboard-response","45","63261","0.0-5.0-3.13","63e55908254a436361a6787b","bdp_td","Tue Mar 28 2023 13:48:59 GMT-0700 (Pacific Daylight Time)","94044","","null","","","","offerFB","","<div class='trialBorder'><div class='vertical-center'><img style='vertical-align:center; align:center' src=img/fixation3.jpg></div><div class='cl'><div class='vertical-center'><font style='color:orange'>$47<br><br>now</font></div></div><div class='cr'><div class='vertical-center'>$50<br>in<br>12 weeks</div></div><div class='respDivL'><div class='vertical-center'><font style='color:orange'>(E)</font></div></div><div class='respDivR'><div class='vertical-center'>(I)</div></div></div>","null","$47<br><br>now","$50<br>in<br>12 weeks","0","47","50","12",""
"html-keyboard-response","46","63763","0.0-5.0-1.14","63e55908254a436361a6787b","bdp_td","Tue Mar 28 2023 13:48:59 GMT-0700 (Pacific Daylight Time)","94044","","null","","","","FIX","","<div class='trialBorder'><div class='vertical-center'><img style='vertical-align:center; align:center' src=img/fixation3.jpg></div></div>","null","","","","","","",""
"html-keyboard-response","47","65978","0.0-5.0-2.14","63e55908254a436361a6787b","bdp_td","Tue Mar 28 2023 13:48:59 GMT-0700 (Pacific Daylight Time)","94044","","2214","","","","offer","","<div class='trialBorder'><div class='vertical-center'><img style='vertical-align:center; align:center' src=img/fixation3.jpg></div><div class='cl'><div class='vertical-center'>$80<br>in<br>3 weeks</div></div><div class='cr'><div class='vertical-center'>$54<br><br>now</div></div><div class='respDivL'><div class='vertical-center'>(E)</div></div><div class='respDivR'><div class='vertical-center'>(I)</div></div></div>","E","$54<br><br>now","$80<br>in<br>3 weeks","1","54","80","3","THEN"
"html-keyboard-response","48","66229","0.0-5.0-3.14","63e55908254a436361a6787b","bdp_td","Tue Mar 28 2023 13:48:59 GMT-0700 (Pacific Daylight Time)","94044","","null","","","","offerFB","","<div class='trialBorder'><div class='vertical-center'><img style='vertical-align:center; align:center' src=img/fixation3.jpg></div><div class='cl'><div class='vertical-center'><font style='color:orange'>$80<br>in<br>3 weeks</font></div></div><div class='cr'><div class='vertical-center'>$54<br><br>now</div></div><div class='respDivL'><div class='vertical-center'><font style='color:orange'>(E)</font></div></div><div class='respDivR'><div class='vertical-center'>(I)</div></div></div>","null","$54<br><br>now","$80<br>in<br>3 weeks","1","54","80","3",""
"html-keyboard-response","49","66731","0.0-5.0-1.15","63e55908254a436361a6787b","bdp_td","Tue Mar 28 2023 13:48:59 GMT-0700 (Pacific Daylight Time)","94044","","null","","","","FIX","","<div class='trialBorder'><div class='vertical-center'><img style='vertical-align:center; align:center' src=img/fixation3.jpg></div></div>","null","","","","","","",""
"html-keyboard-response","50","68367","0.0-5.0-2.15","63e55908254a436361a6787b","bdp_td","Tue Mar 28 2023 13:48:59 GMT-0700 (Pacific Daylight Time)","94044","","1636","","","","offer","","<div class='trialBorder'><div class='vertical-center'><img style='vertical-align:center; align:center' src=img/fixation3.jpg></div><div class='cl'><div class='vertical-center'>$55<br><br>now</div></div><div class='cr'><div class='vertical-center'>$75<br>in<br>6 weeks</div></div><div class='respDivL'><div class='vertical-center'>(E)</div></div><div class='respDivR'><div class='vertical-center'>(I)</div></div></div>","I","$55<br><br>now","$75<br>in<br>6 weeks","0","55","75","6","THEN"
"html-keyboard-response","51","68618","0.0-5.0-3.15","63e55908254a436361a6787b","bdp_td","Tue Mar 28 2023 13:48:59 GMT-0700 (Pacific Daylight Time)","94044","","null","","","","offerFB","","<div class='trialBorder'><div class='vertical-center'><img style='vertical-align:center; align:center' src=img/fixation3.jpg></div><div class='cl'><div class='vertical-center'>$55<br><br>now</div></div><div class='cr'><div class='vertical-center'><font style='color:orange'>$75<br>in<br>6 weeks</font></div></div><div class='respDivL'><div class='vertical-center'>(E)</div></div><div class='respDivR'><div class='vertical-center'><font style='color:orange'>(I)</font></div></div></div>","null","$55<br><br>now","$75<br>in<br>6 weeks","0","55","75","6",""
"html-keyboard-response","52","69120","0.0-5.0-1.16","63e55908254a436361a6787b","bdp_td","Tue Mar 28 2023 13:48:59 GMT-0700 (Pacific Daylight Time)","94044","","null","","","","FIX","","<div class='trialBorder'><div class='vertical-center'><img style='vertical-align:center; align:center' src=img/fixation3.jpg></div></div>","null","","","","","","",""
"html-keyboard-response","53","71009","0.0-5.0-2.16","63e55908254a436361a6787b","bdp_td","Tue Mar 28 2023 13:48:59 GMT-0700 (Pacific Daylight Time)","94044","","1889","","","","offer","","<div class='trialBorder'><div class='vertical-center'><img style='vertical-align:center; align:center' src=img/fixation3.jpg></div><div class='cl'><div class='vertical-center'>$30<br>in<br>6 weeks</div></div><div class='cr'><div class='vertical-center'>$25<br><br>now</div></div><div class='respDivL'><div class='vertical-center'>(E)</div></div><div class='respDivR'><div class='vertical-center'>(I)</div></div></div>","I","$25<br><br>now","$30<br>in<br>6 weeks","1","25","30","6","NOW"
"html-keyboard-response","54","71261","0.0-5.0-3.16","63e55908254a436361a6787b","bdp_td","Tue Mar 28 2023 13:48:59 GMT-0700 (Pacific Daylight Time)","94044","","null","","","","offerFB","","<div class='trialBorder'><div class='vertical-center'><img style='vertical-align:center; align:center' src=img/fixation3.jpg></div><div class='cl'><div class='vertical-center'>$30<br>in<br>6 weeks</div></div><div class='cr'><div class='vertical-center'><font style='color:orange'>$25<br><br>now</font></div></div><div class='respDivL'><div class='vertical-center'>(E)</div></div><div class='respDivR'><div class='vertical-center'><font style='color:orange'>(I)</font></div></div></div>","null","$25<br><br>now","$30<br>in<br>6 weeks","1","25","30","6",""
"html-keyboard-response","55","71762","0.0-5.0-1.17","63e55908254a436361a6787b","bdp_td","Tue Mar 28 2023 13:48:59 GMT-0700 (Pacific Daylight Time)","94044","","null","","","","FIX","","<div class='trialBorder'><div class='vertical-center'><img style='vertical-align:center; align:center' src=img/fixation3.jpg></div></div>","null","","","","","","",""
"html-keyboard-response","56","74117","0.0-5.0-2.17","63e55908254a436361a6787b","bdp_td","Tue Mar 28 2023 13:48:59 GMT-0700 (Pacific Daylight Time)","94044","","2354","","","","offer","","<div class='trialBorder'><div class='vertical-center'><img style='vertical-align:center; align:center' src=img/fixation3.jpg></div><div class='cl'><div class='vertical-center'>$54<br><br>now</div></div><div class='cr'><div class='vertical-center'>$60<br>in<br>12 weeks</div></div><div class='respDivL'><div class='vertical-center'>(E)</div></div><div class='respDivR'><div class='vertical-center'>(I)</div></div></div>","E","$54<br><br>now","$60<br>in<br>12 weeks","0","54","60","12","NOW"
"html-keyboard-response","57","74369","0.0-5.0-3.17","63e55908254a436361a6787b","bdp_td","Tue Mar 28 2023 13:48:59 GMT-0700 (Pacific Daylight Time)","94044","","null","","","","offerFB","","<div class='trialBorder'><div class='vertical-center'><img style='vertical-align:center; align:center' src=img/fixation3.jpg></div><div class='cl'><div class='vertical-center'><font style='color:orange'>$54<br><br>now</font></div></div><div class='cr'><div class='vertical-center'>$60<br>in<br>12 weeks</div></div><div class='respDivL'><div class='vertical-center'><font style='color:orange'>(E)</font></div></div><div class='respDivR'><div class='vertical-center'>(I)</div></div></div>","null","$54<br><br>now","$60<br>in<br>12 weeks","0","54","60","12",""
"html-keyboard-response","58","74870","0.0-5.0-1.18","63e55908254a436361a6787b","bdp_td","Tue Mar 28 2023 13:48:59 GMT-0700 (Pacific Daylight Time)","94044","","null","","","","FIX","","<div class='trialBorder'><div class='vertical-center'><img style='vertical-align:center; align:center' src=img/fixation3.jpg></div></div>","null","","","","","","",""
"html-keyboard-response","59","76681","0.0-5.0-2.18","63e55908254a436361a6787b","bdp_td","Tue Mar 28 2023 13:48:59 GMT-0700 (Pacific Daylight Time)","94044","","1810","","","","offer","","<div class='trialBorder'><div class='vertical-center'><img style='vertical-align:center; align:center' src=img/fixation3.jpg></div><div class='cl'><div class='vertical-center'>$55<br>in<br>1 week</div></div><div class='cr'><div class='vertical-center'>$20<br><br>now</div></div><div class='respDivL'><div class='vertical-center'>(E)</div></div><div class='respDivR'><div class='vertical-center'>(I)</div></div></div>","E","$20<br><br>now","$55<br>in<br>1 week","1","20","55","1","THEN"
"html-keyboard-response","60","76932","0.0-5.0-3.18","63e55908254a436361a6787b","bdp_td","Tue Mar 28 2023 13:48:59 GMT-0700 (Pacific Daylight Time)","94044","","null","","","","offerFB","","<div class='trialBorder'><div class='vertical-center'><img style='vertical-align:center; align:center' src=img/fixation3.jpg></div><div class='cl'><div class='vertical-center'><font style='color:orange'>$55<br>in<br>1 week</font></div></div><div class='cr'><div class='vertical-center'>$20<br><br>now</div></div><div class='respDivL'><div class='vertical-center'><font style='color:orange'>(E)</font></div></div><div class='respDivR'><div class='vertical-center'>(I)</div></div></div>","null","$20<br><br>now","$55<br>in<br>1 week","1","20","55","1",""
"html-keyboard-response","61","77434","0.0-5.0-1.19","63e55908254a436361a6787b","bdp_td","Tue Mar 28 2023 13:48:59 GMT-0700 (Pacific Daylight Time)","94044","","null","","","","FIX","","<div class='trialBorder'><div class='vertical-center'><img style='vertical-align:center; align:center' src=img/fixation3.jpg></div></div>","null","","","","","","",""
"html-keyboard-response","62","78623","0.0-5.0-2.19","63e55908254a436361a6787b","bdp_td","Tue Mar 28 2023 13:48:59 GMT-0700 (Pacific Daylight Time)","94044","","1188","","","","offer","","<div class='trialBorder'><div class='vertical-center'><img style='vertical-align:center; align:center' src=img/fixation3.jpg></div><div class='cl'><div class='vertical-center'>$30<br>in<br>2 weeks</div></div><div class='cr'><div class='vertical-center'>$11<br><br>now</div></div><div class='respDivL'><div class='vertical-center'>(E)</div></div><div class='respDivR'><div class='vertical-center'>(I)</div></div></div>","E","$11<br><br>now","$30<br>in<br>2 weeks","1","11","30","2","THEN"
"html-keyboard-response","63","78875","0.0-5.0-3.19","63e55908254a436361a6787b","bdp_td","Tue Mar 28 2023 13:48:59 GMT-0700 (Pacific Daylight Time)","94044","","null","","","","offerFB","","<div class='trialBorder'><div class='vertical-center'><img style='vertical-align:center; align:center' src=img/fixation3.jpg></div><div class='cl'><div class='vertical-center'><font style='color:orange'>$30<br>in<br>2 weeks</font></div></div><div class='cr'><div class='vertical-center'>$11<br><br>now</div></div><div class='respDivL'><div class='vertical-center'><font style='color:orange'>(E)</font></div></div><div class='respDivR'><div class='vertical-center'>(I)</div></div></div>","null","$11<br><br>now","$30<br>in<br>2 weeks","1","11","30","2",""
"html-keyboard-response","64","79377","0.0-5.0-1.20","63e55908254a436361a6787b","bdp_td","Tue Mar 28 2023 13:48:59 GMT-0700 (Pacific Daylight Time)","94044","","null","","","","FIX","","<div class='trialBorder'><div class='vertical-center'><img style='vertical-align:center; align:center' src=img/fixation3.jpg></div></div>","null","","","","","","",""
"html-keyboard-response","65","81915","0.0-5.0-2.20","63e55908254a436361a6787b","bdp_td","Tue Mar 28 2023 13:48:59 GMT-0700 (Pacific Daylight Time)","94044","","2538","","","","offer","","<div class='trialBorder'><div class='vertical-center'><img style='vertical-align:center; align:center' src=img/fixation3.jpg></div><div class='cl'><div class='vertical-center'>$25<br>in<br>6 weeks</div></div><div class='cr'><div class='vertical-center'>$19<br><br>now</div></div><div class='respDivL'><div class='vertical-center'>(E)</div></div><div class='respDivR'><div class='vertical-center'>(I)</div></div></div>","I","$19<br><br>now","$25<br>in<br>6 weeks","1","19","25","6","NOW"
"html-keyboard-response","66","82167","0.0-5.0-3.20","63e55908254a436361a6787b","bdp_td","Tue Mar 28 2023 13:48:59 GMT-0700 (Pacific Daylight Time)","94044","","null","","","","offerFB","","<div class='trialBorder'><div class='vertical-center'><img style='vertical-align:center; align:center' src=img/fixation3.jpg></div><div class='cl'><div class='vertical-center'>$25<br>in<br>6 weeks</div></div><div class='cr'><div class='vertical-center'><font style='color:orange'>$19<br><br>now</font></div></div><div class='respDivL'><div class='vertical-center'>(E)</div></div><div class='respDivR'><div class='vertical-center'><font style='color:orange'>(I)</font></div></div></div>","null","$19<br><br>now","$25<br>in<br>6 weeks","1","19","25","6",""
"html-keyboard-response","67","82668","0.0-5.0-1.21","63e55908254a436361a6787b","bdp_td","Tue Mar 28 2023 13:48:59 GMT-0700 (Pacific Daylight Time)","94044","","null","","","","FIX","","<div class='trialBorder'><div class='vertical-center'><img style='vertical-align:center; align:center' src=img/fixation3.jpg></div></div>","null","","","","","","",""
"html-keyboard-response","68","84075","0.0-5.0-2.21","63e55908254a436361a6787b","bdp_td","Tue Mar 28 2023 13:48:59 GMT-0700 (Pacific Daylight Time)","94044","","1407","","","","offer","","<div class='trialBorder'><div class='vertical-center'><img style='vertical-align:center; align:center' src=img/fixation3.jpg></div><div class='cl'><div class='vertical-center'>$85<br>in<br>12 weeks</div></div><div class='cr'><div class='vertical-center'>$80<br><br>now</div></div><div class='respDivL'><div class='vertical-center'>(E)</div></div><div class='respDivR'><div class='vertical-center'>(I)</div></div></div>","I","$80<br><br>now","$85<br>in<br>12 weeks","1","80","85","12","NOW"
"html-keyboard-response","69","84326","0.0-5.0-3.21","63e55908254a436361a6787b","bdp_td","Tue Mar 28 2023 13:48:59 GMT-0700 (Pacific Daylight Time)","94044","","null","","","","offerFB","","<div class='trialBorder'><div class='vertical-center'><img style='vertical-align:center; align:center' src=img/fixation3.jpg></div><div class='cl'><div class='vertical-center'>$85<br>in<br>12 weeks</div></div><div class='cr'><div class='vertical-center'><font style='color:orange'>$80<br><br>now</font></div></div><div class='respDivL'><div class='vertical-center'>(E)</div></div><div class='respDivR'><div class='vertical-center'><font style='color:orange'>(I)</font></div></div></div>","null","$80<br><br>now","$85<br>in<br>12 weeks","1","80","85","12",""
"html-keyboard-response","70","84827","0.0-5.0-1.22","63e55908254a436361a6787b","bdp_td","Tue Mar 28 2023 13:48:59 GMT-0700 (Pacific Daylight Time)","94044","","null","","","","FIX","","<div class='trialBorder'><div class='vertical-center'><img style='vertical-align:center; align:center' src=img/fixation3.jpg></div></div>","null","","","","","","",""
"html-keyboard-response","71","85654","0.0-5.0-2.22","63e55908254a436361a6787b","bdp_td","Tue Mar 28 2023 13:48:59 GMT-0700 (Pacific Daylight Time)","94044","","827","","","","offer","","<div class='trialBorder'><div class='vertical-center'><img style='vertical-align:center; align:center' src=img/fixation3.jpg></div><div class='cl'><div class='vertical-center'>$75<br>in<br>12 weeks</div></div><div class='cr'><div class='vertical-center'>$67<br><br>now</div></div><div class='respDivL'><div class='vertical-center'>(E)</div></div><div class='respDivR'><div class='vertical-center'>(I)</div></div></div>","I","$67<br><br>now","$75<br>in<br>12 weeks","1","67","75","12","NOW"
"html-keyboard-response","72","85905","0.0-5.0-3.22","63e55908254a436361a6787b","bdp_td","Tue Mar 28 2023 13:48:59 GMT-0700 (Pacific Daylight Time)","94044","","null","","","","offerFB","","<div class='trialBorder'><div class='vertical-center'><img style='vertical-align:center; align:center' src=img/fixation3.jpg></div><div class='cl'><div class='vertical-center'>$75<br>in<br>12 weeks</div></div><div class='cr'><div class='vertical-center'><font style='color:orange'>$67<br><br>now</font></div></div><div class='respDivL'><div class='vertical-center'>(E)</div></div><div class='respDivR'><div class='vertical-center'><font style='color:orange'>(I)</font></div></div></div>","null","$67<br><br>now","$75<br>in<br>12 weeks","1","67","75","12",""
"html-keyboard-response","73","86408","0.0-5.0-1.23","63e55908254a436361a6787b","bdp_td","Tue Mar 28 2023 13:48:59 GMT-0700 (Pacific Daylight Time)","94044","","null","","","","FIX","","<div class='trialBorder'><div class='vertical-center'><img style='vertical-align:center; align:center' src=img/fixation3.jpg></div></div>","null","","","","","","",""
"html-keyboard-response","74","87381","0.0-5.0-2.23","63e55908254a436361a6787b","bdp_td","Tue Mar 28 2023 13:48:59 GMT-0700 (Pacific Daylight Time)","94044","","973","","","","offer","","<div class='trialBorder'><div class='vertical-center'><img style='vertical-align:center; align:center' src=img/fixation3.jpg></div><div class='cl'><div class='vertical-center'>$85<br>in<br>6 weeks</div></div><div class='cr'><div class='vertical-center'>$69<br><br>now</div></div><div class='respDivL'><div class='vertical-center'>(E)</div></div><div class='respDivR'><div class='vertical-center'>(I)</div></div></div>","I","$69<br><br>now","$85<br>in<br>6 weeks","1","69","85","6","NOW"
"html-keyboard-response","75","87632","0.0-5.0-3.23","63e55908254a436361a6787b","bdp_td","Tue Mar 28 2023 13:48:59 GMT-0700 (Pacific Daylight Time)","94044","","null","","","","offerFB","","<div class='trialBorder'><div class='vertical-center'><img style='vertical-align:center; align:center' src=img/fixation3.jpg></div><div class='cl'><div class='vertical-center'>$85<br>in<br>6 weeks</div></div><div class='cr'><div class='vertical-center'><font style='color:orange'>$69<br><br>now</font></div></div><div class='respDivL'><div class='vertical-center'>(E)</div></div><div class='respDivR'><div class='vertical-center'><font style='color:orange'>(I)</font></div></div></div>","null","$69<br><br>now","$85<br>in<br>6 weeks","1","69","85","6",""
"html-keyboard-response","76","88134","0.0-5.0-1.24","63e55908254a436361a6787b","bdp_td","Tue Mar 28 2023 13:48:59 GMT-0700 (Pacific Daylight Time)","94044","","null","","","","FIX","","<div class='trialBorder'><div class='vertical-center'><img style='vertical-align:center; align:center' src=img/fixation3.jpg></div></div>","null","","","","","","",""
"html-keyboard-response","77","89899","0.0-5.0-2.24","63e55908254a436361a6787b","bdp_td","Tue Mar 28 2023 13:48:59 GMT-0700 (Pacific Daylight Time)","94044","","1765","","","","offer","","<div class='trialBorder'><div class='vertical-center'><img style='vertical-align:center; align:center' src=img/fixation3.jpg></div><div class='cl'><div class='vertical-center'>$15<br><br>now</div></div><div class='cr'><div class='vertical-center'>$35<br>in<br>2 weeks</div></div><div class='respDivL'><div class='vertical-center'>(E)</div></div><div class='respDivR'><div class='vertical-center'>(I)</div></div></div>","I","$15<br><br>now","$35<br>in<br>2 weeks","0","15","35","2","THEN"
"html-keyboard-response","78","90150","0.0-5.0-3.24","63e55908254a436361a6787b","bdp_td","Tue Mar 28 2023 13:48:59 GMT-0700 (Pacific Daylight Time)","94044","","null","","","","offerFB","","<div class='trialBorder'><div class='vertical-center'><img style='vertical-align:center; align:center' src=img/fixation3.jpg></div><div class='cl'><div class='vertical-center'>$15<br><br>now</div></div><div class='cr'><div class='vertical-center'><font style='color:orange'>$35<br>in<br>2 weeks</font></div></div><div class='respDivL'><div class='vertical-center'>(E)</div></div><div class='respDivR'><div class='vertical-center'><font style='color:orange'>(I)</font></div></div></div>","null","$15<br><br>now","$35<br>in<br>2 weeks","0","15","35","2",""
"html-keyboard-response","79","90652","0.0-5.0-1.25","63e55908254a436361a6787b","bdp_td","Tue Mar 28 2023 13:48:59 GMT-0700 (Pacific Daylight Time)","94044","","null","","","","FIX","","<div class='trialBorder'><div class='vertical-center'><img style='vertical-align:center; align:center' src=img/fixation3.jpg></div></div>","null","","","","","","",""
"html-keyboard-response","80","91383","0.0-5.0-2.25","63e55908254a436361a6787b","bdp_td","Tue Mar 28 2023 13:48:59 GMT-0700 (Pacific Daylight Time)","94044","","730","","","","offer","","<div class='trialBorder'><div class='vertical-center'><img style='vertical-align:center; align:center' src=img/fixation3.jpg></div><div class='cl'><div class='vertical-center'>$60<br>in<br>3 weeks</div></div><div class='cr'><div class='vertical-center'>$25<br><br>now</div></div><div class='respDivL'><div class='vertical-center'>(E)</div></div><div class='respDivR'><div class='vertical-center'>(I)</div></div></div>","E","$25<br><br>now","$60<br>in<br>3 weeks","1","25","60","3","THEN"
"html-keyboard-response","81","91635","0.0-5.0-3.25","63e55908254a436361a6787b","bdp_td","Tue Mar 28 2023 13:48:59 GMT-0700 (Pacific Daylight Time)","94044","","null","","","","offerFB","","<div class='trialBorder'><div class='vertical-center'><img style='vertical-align:center; align:center' src=img/fixation3.jpg></div><div class='cl'><div class='vertical-center'><font style='color:orange'>$60<br>in<br>3 weeks</font></div></div><div class='cr'><div class='vertical-center'>$25<br><br>now</div></div><div class='respDivL'><div class='vertical-center'><font style='color:orange'>(E)</font></div></div><div class='respDivR'><div class='vertical-center'>(I)</div></div></div>","null","$25<br><br>now","$60<br>in<br>3 weeks","1","25","60","3",""
"html-keyboard-response","82","92136","0.0-5.0-1.26","63e55908254a436361a6787b","bdp_td","Tue Mar 28 2023 13:48:59 GMT-0700 (Pacific Daylight Time)","94044","","null","","","","FIX","","<div class='trialBorder'><div class='vertical-center'><img style='vertical-align:center; align:center' src=img/fixation3.jpg></div></div>","null","","","","","","",""
"html-keyboard-response","83","92790","0.0-5.0-2.26","63e55908254a436361a6787b","bdp_td","Tue Mar 28 2023 13:48:59 GMT-0700 (Pacific Daylight Time)","94044","","653","","","","offer","","<div class='trialBorder'><div class='vertical-center'><img style='vertical-align:center; align:center' src=img/fixation3.jpg></div><div class='cl'><div class='vertical-center'>$24<br><br>now</div></div><div class='cr'><div class='vertical-center'>$35<br>in<br>3 weeks</div></div><div class='respDivL'><div class='vertical-center'>(E)</div></div><div class='respDivR'><div class='vertical-center'>(I)</div></div></div>","I","$24<br><br>now","$35<br>in<br>3 weeks","0","24","35","3","THEN"
"html-keyboard-response","84","93042","0.0-5.0-3.26","63e55908254a436361a6787b","bdp_td","Tue Mar 28 2023 13:48:59 GMT-0700 (Pacific Daylight Time)","94044","","null","","","","offerFB","","<div class='trialBorder'><div class='vertical-center'><img style='vertical-align:center; align:center' src=img/fixation3.jpg></div><div class='cl'><div class='vertical-center'>$24<br><br>now</div></div><div class='cr'><div class='vertical-center'><font style='color:orange'>$35<br>in<br>3 weeks</font></div></div><div class='respDivL'><div class='vertical-center'>(E)</div></div><div class='respDivR'><div class='vertical-center'><font style='color:orange'>(I)</font></div></div></div>","null","$24<br><br>now","$35<br>in<br>3 weeks","0","24","35","3",""
"","","","","63e55908254a436361a6787b","bdp_td","Tue Mar 28 2023 13:48:59 GMT-0700 (Pacific Daylight Time)","94044","","","fullscreenexit","85","93056","fullscreenexit","","","","","","","","","",""
"fullscreen","85","94043","0.0-6.0","63e55908254a436361a6787b","bdp_td","Tue Mar 28 2023 13:48:59 GMT-0700 (Pacific Daylight Time)","94044","","","","","","","true","","","","","","","","",""
"html-keyboard-response","86","94546","0.0-7.0","","","","","","null","","","","","","","null","","","","","","",""
