"trial_type","trial_index","time_elapsed","internal_node_id","subject_id","task","startTime","totalTime","view_history","rt","event","trial","time","trialtype","success","stimulus","key_press","nowOffer","thenOffer","thenLeft","nowAmt","thenAmt","thenWeeks","chosen"
"pavlovia","0","5","0.0-0.0","594936ad4152bf0001bfd5cd","bdp_td","Sat Mar 25 2023 20:55:16 GMT-0400 (Eastern Daylight Time)","133163","","","","","","","","","","","","","","","",""
"instructions","1","16488","0.0-1.0","594936ad4152bf0001bfd5cd","bdp_td","Sat Mar 25 2023 20:55:16 GMT-0400 (Eastern Daylight Time)","133163","[{""page_index"":0,""viewing_time"":16481}]","16482","","","","","","","","","","","","","",""
"","","","","594936ad4152bf0001bfd5cd","bdp_td","Sat Mar 25 2023 20:55:16 GMT-0400 (Eastern Daylight Time)","133163","","","fullscreenenter","2","18975","fullscreenenter","","","","","","","","","",""
"fullscreen","2","19953","0.0-2.0","594936ad4152bf0001bfd5cd","bdp_td","Sat Mar 25 2023 20:55:16 GMT-0400 (Eastern Daylight Time)","133163","","","","","","","true","","","","","","","","",""
"instructions","3","50463","0.0-4.0","594936ad4152bf0001bfd5cd","bdp_td","Sat Mar 25 2023 20:55:16 GMT-0400 (Eastern Daylight Time)","133163","[{""page_index"":0,""viewing_time"":12998},{""page_index"":1,""viewing_time"":13404},{""page_index"":2,""viewing_time"":4108}]","30510","","","","","","","","","","","","","",""
"html-keyboard-response","4","50965","0.0-5.0-1.0","594936ad4152bf0001bfd5cd","bdp_td","Sat Mar 25 2023 20:55:16 GMT-0400 (Eastern Daylight Time)","133163","","null","","","","FIX","","<div class='trialBorder'><div class='vertical-center'><img style='vertical-align:center; align:center' src=img/fixation3.jpg></div></div>","null","","","","","","",""
"html-keyboard-response","5","52611","0.0-5.0-2.0","594936ad4152bf0001bfd5cd","bdp_td","Sat Mar 25 2023 20:55:16 GMT-0400 (Eastern Daylight Time)","133163","","1646","","","","offer","","<div class='trialBorder'><div class='vertical-center'><img style='vertical-align:center; align:center' src=img/fixation3.jpg></div><div class='cl'><div class='vertical-center'>$41<br><br>now</div></div><div class='cr'><div class='vertical-center'>$75<br>in<br>3 weeks</div></div><div class='respDivL'><div class='vertical-center'>(E)</div></div><div class='respDivR'><div class='vertical-center'>(I)</div></div></div>","I","$41<br><br>now","$75<br>in<br>3 weeks","0","41","75","3","THEN"
"html-keyboard-response","6","52863","0.0-5.0-3.0","594936ad4152bf0001bfd5cd","bdp_td","Sat Mar 25 2023 20:55:16 GMT-0400 (Eastern Daylight Time)","133163","","null","","","","offerFB","","<div class='trialBorder'><div class='vertical-center'><img style='vertical-align:center; align:center' src=img/fixation3.jpg></div><div class='cl'><div class='vertical-center'>$41<br><br>now</div></div><div class='cr'><div class='vertical-center'><font style='color:orange'>$75<br>in<br>3 weeks</font></div></div><div class='respDivL'><div class='vertical-center'>(E)</div></div><div class='respDivR'><div class='vertical-center'><font style='color:orange'>(I)</font></div></div></div>","null","$41<br><br>now","$75<br>in<br>3 weeks","0","41","75","3",""
"html-keyboard-response","7","53364","0.0-5.0-1.1","594936ad4152bf0001bfd5cd","bdp_td","Sat Mar 25 2023 20:55:16 GMT-0400 (Eastern Daylight Time)","133163","","null","","","","FIX","","<div class='trialBorder'><div class='vertical-center'><img style='vertical-align:center; align:center' src=img/fixation3.jpg></div></div>","null","","","","","","",""
"html-keyboard-response","8","54961","0.0-5.0-2.1","594936ad4152bf0001bfd5cd","bdp_td","Sat Mar 25 2023 20:55:16 GMT-0400 (Eastern Daylight Time)","133163","","1596","","","","offer","","<div class='trialBorder'><div class='vertical-center'><img style='vertical-align:center; align:center' src=img/fixation3.jpg></div><div class='cl'><div class='vertical-center'>$67<br><br>now</div></div><div class='cr'><div class='vertical-center'>$75<br>in<br>12 weeks</div></div><div class='respDivL'><div class='vertical-center'>(E)</div></div><div class='respDivR'><div class='vertical-center'>(I)</div></div></div>","E","$67<br><br>now","$75<br>in<br>12 weeks","0","67","75","12","NOW"
"html-keyboard-response","9","55214","0.0-5.0-3.1","594936ad4152bf0001bfd5cd","bdp_td","Sat Mar 25 2023 20:55:16 GMT-0400 (Eastern Daylight Time)","133163","","null","","","","offerFB","","<div class='trialBorder'><div class='vertical-center'><img style='vertical-align:center; align:center' src=img/fixation3.jpg></div><div class='cl'><div class='vertical-center'><font style='color:orange'>$67<br><br>now</font></div></div><div class='cr'><div class='vertical-center'>$75<br>in<br>12 weeks</div></div><div class='respDivL'><div class='vertical-center'><font style='color:orange'>(E)</font></div></div><div class='respDivR'><div class='vertical-center'>(I)</div></div></div>","null","$67<br><br>now","$75<br>in<br>12 weeks","0","67","75","12",""
"html-keyboard-response","10","55715","0.0-5.0-1.2","594936ad4152bf0001bfd5cd","bdp_td","Sat Mar 25 2023 20:55:16 GMT-0400 (Eastern Daylight Time)","133163","","null","","","","FIX","","<div class='trialBorder'><div class='vertical-center'><img style='vertical-align:center; align:center' src=img/fixation3.jpg></div></div>","null","","","","","","",""
"html-keyboard-response","11","57771","0.0-5.0-2.2","594936ad4152bf0001bfd5cd","bdp_td","Sat Mar 25 2023 20:55:16 GMT-0400 (Eastern Daylight Time)","133163","","2055","","","","offer","","<div class='trialBorder'><div class='vertical-center'><img style='vertical-align:center; align:center' src=img/fixation3.jpg></div><div class='cl'><div class='vertical-center'>$30<br>in<br>2 weeks</div></div><div class='cr'><div class='vertical-center'>$11<br><br>now</div></div><div class='respDivL'><div class='vertical-center'>(E)</div></div><div class='respDivR'><div class='vertical-center'>(I)</div></div></div>","E","$11<br><br>now","$30<br>in<br>2 weeks","1","11","30","2","THEN"
"html-keyboard-response","12","58023","0.0-5.0-3.2","594936ad4152bf0001bfd5cd","bdp_td","Sat Mar 25 2023 20:55:16 GMT-0400 (Eastern Daylight Time)","133163","","null","","","","offerFB","","<div class='trialBorder'><div class='vertical-center'><img style='vertical-align:center; align:center' src=img/fixation3.jpg></div><div class='cl'><div class='vertical-center'><font style='color:orange'>$30<br>in<br>2 weeks</font></div></div><div class='cr'><div class='vertical-center'>$11<br><br>now</div></div><div class='respDivL'><div class='vertical-center'><font style='color:orange'>(E)</font></div></div><div class='respDivR'><div class='vertical-center'>(I)</div></div></div>","null","$11<br><br>now","$30<br>in<br>2 weeks","1","11","30","2",""
"html-keyboard-response","13","58525","0.0-5.0-1.3","594936ad4152bf0001bfd5cd","bdp_td","Sat Mar 25 2023 20:55:16 GMT-0400 (Eastern Daylight Time)","133163","","null","","","","FIX","","<div class='trialBorder'><div class='vertical-center'><img style='vertical-align:center; align:center' src=img/fixation3.jpg></div></div>","null","","","","","","",""
"html-keyboard-response","14","60769","0.0-5.0-2.3","594936ad4152bf0001bfd5cd","bdp_td","Sat Mar 25 2023 20:55:16 GMT-0400 (Eastern Daylight Time)","133163","","2243","","","","offer","","<div class='trialBorder'><div class='vertical-center'><img style='vertical-align:center; align:center' src=img/fixation3.jpg></div><div class='cl'><div class='vertical-center'>$75<br>in<br>6 weeks</div></div><div class='cr'><div class='vertical-center'>$55<br><br>now</div></div><div class='respDivL'><div class='vertical-center'>(E)</div></div><div class='respDivR'><div class='vertical-center'>(I)</div></div></div>","I","$55<br><br>now","$75<br>in<br>6 weeks","1","55","75","6","NOW"
"html-keyboard-response","15","61021","0.0-5.0-3.3","594936ad4152bf0001bfd5cd","bdp_td","Sat Mar 25 2023 20:55:16 GMT-0400 (Eastern Daylight Time)","133163","","null","","","","offerFB","","<div class='trialBorder'><div class='vertical-center'><img style='vertical-align:center; align:center' src=img/fixation3.jpg></div><div class='cl'><div class='vertical-center'>$75<br>in<br>6 weeks</div></div><div class='cr'><div class='vertical-center'><font style='color:orange'>$55<br><br>now</font></div></div><div class='respDivL'><div class='vertical-center'>(E)</div></div><div class='respDivR'><div class='vertical-center'><font style='color:orange'>(I)</font></div></div></div>","null","$55<br><br>now","$75<br>in<br>6 weeks","1","55","75","6",""
"html-keyboard-response","16","61524","0.0-5.0-1.4","594936ad4152bf0001bfd5cd","bdp_td","Sat Mar 25 2023 20:55:16 GMT-0400 (Eastern Daylight Time)","133163","","null","","","","FIX","","<div class='trialBorder'><div class='vertical-center'><img style='vertical-align:center; align:center' src=img/fixation3.jpg></div></div>","null","","","","","","",""
"html-keyboard-response","17","63149","0.0-5.0-2.4","594936ad4152bf0001bfd5cd","bdp_td","Sat Mar 25 2023 20:55:16 GMT-0400 (Eastern Daylight Time)","133163","","1624","","","","offer","","<div class='trialBorder'><div class='vertical-center'><img style='vertical-align:center; align:center' src=img/fixation3.jpg></div><div class='cl'><div class='vertical-center'>$35<br>in<br>2 weeks</div></div><div class='cr'><div class='vertical-center'>$15<br><br>now</div></div><div class='respDivL'><div class='vertical-center'>(E)</div></div><div class='respDivR'><div class='vertical-center'>(I)</div></div></div>","E","$15<br><br>now","$35<br>in<br>2 weeks","1","15","35","2","THEN"
"html-keyboard-response","18","63400","0.0-5.0-3.4","594936ad4152bf0001bfd5cd","bdp_td","Sat Mar 25 2023 20:55:16 GMT-0400 (Eastern Daylight Time)","133163","","null","","","","offerFB","","<div class='trialBorder'><div class='vertical-center'><img style='vertical-align:center; align:center' src=img/fixation3.jpg></div><div class='cl'><div class='vertical-center'><font style='color:orange'>$35<br>in<br>2 weeks</font></div></div><div class='cr'><div class='vertical-center'>$15<br><br>now</div></div><div class='respDivL'><div class='vertical-center'><font style='color:orange'>(E)</font></div></div><div class='respDivR'><div class='vertical-center'>(I)</div></div></div>","null","$15<br><br>now","$35<br>in<br>2 weeks","1","15","35","2",""
"html-keyboard-response","19","63902","0.0-5.0-1.5","594936ad4152bf0001bfd5cd","bdp_td","Sat Mar 25 2023 20:55:16 GMT-0400 (Eastern Daylight Time)","133163","","null","","","","FIX","","<div class='trialBorder'><div class='vertical-center'><img style='vertical-align:center; align:center' src=img/fixation3.jpg></div></div>","null","","","","","","",""
"html-keyboard-response","20","65859","0.0-5.0-2.5","594936ad4152bf0001bfd5cd","bdp_td","Sat Mar 25 2023 20:55:16 GMT-0400 (Eastern Daylight Time)","133163","","1956","","","","offer","","<div class='trialBorder'><div class='vertical-center'><img style='vertical-align:center; align:center' src=img/fixation3.jpg></div><div class='cl'><div class='vertical-center'>$47<br><br>now</div></div><div class='cr'><div class='vertical-center'>$50<br>in<br>12 weeks</div></div><div class='respDivL'><div class='vertical-center'>(E)</div></div><div class='respDivR'><div class='vertical-center'>(I)</div></div></div>","E","$47<br><br>now","$50<br>in<br>12 weeks","0","47","50","12","NOW"
"html-keyboard-response","21","66111","0.0-5.0-3.5","594936ad4152bf0001bfd5cd","bdp_td","Sat Mar 25 2023 20:55:16 GMT-0400 (Eastern Daylight Time)","133163","","null","","","","offerFB","","<div class='trialBorder'><div class='vertical-center'><img style='vertical-align:center; align:center' src=img/fixation3.jpg></div><div class='cl'><div class='vertical-center'><font style='color:orange'>$47<br><br>now</font></div></div><div class='cr'><div class='vertical-center'>$50<br>in<br>12 weeks</div></div><div class='respDivL'><div class='vertical-center'><font style='color:orange'>(E)</font></div></div><div class='respDivR'><div class='vertical-center'>(I)</div></div></div>","null","$47<br><br>now","$50<br>in<br>12 weeks","0","47","50","12",""
"html-keyboard-response","22","66613","0.0-5.0-1.6","594936ad4152bf0001bfd5cd","bdp_td","Sat Mar 25 2023 20:55:16 GMT-0400 (Eastern Daylight Time)","133163","","null","","","","FIX","","<div class='trialBorder'><div class='vertical-center'><img style='vertical-align:center; align:center' src=img/fixation3.jpg></div></div>","null","","","","","","",""
"html-keyboard-response","23","68706","0.0-5.0-2.6","594936ad4152bf0001bfd5cd","bdp_td","Sat Mar 25 2023 20:55:16 GMT-0400 (Eastern Daylight Time)","133163","","2091","","","","offer","","<div class='trialBorder'><div class='vertical-center'><img style='vertical-align:center; align:center' src=img/fixation3.jpg></div><div class='cl'><div class='vertical-center'>$35<br>in<br>12 weeks</div></div><div class='cr'><div class='vertical-center'>$34<br><br>now</div></div><div class='respDivL'><div class='vertical-center'>(E)</div></div><div class='respDivR'><div class='vertical-center'>(I)</div></div></div>","I","$34<br><br>now","$35<br>in<br>12 weeks","1","34","35","12","NOW"
"html-keyboard-response","24","68957","0.0-5.0-3.6","594936ad4152bf0001bfd5cd","bdp_td","Sat Mar 25 2023 20:55:16 GMT-0400 (Eastern Daylight Time)","133163","","null","","","","offerFB","","<div class='trialBorder'><div class='vertical-center'><img style='vertical-align:center; align:center' src=img/fixation3.jpg></div><div class='cl'><div class='vertical-center'>$35<br>in<br>12 weeks</div></div><div class='cr'><div class='vertical-center'><font style='color:orange'>$34<br><br>now</font></div></div><div class='respDivL'><div class='vertical-center'>(E)</div></div><div class='respDivR'><div class='vertical-center'><font style='color:orange'>(I)</font></div></div></div>","null","$34<br><br>now","$35<br>in<br>12 weeks","1","34","35","12",""
"html-keyboard-response","25","69459","0.0-5.0-1.7","594936ad4152bf0001bfd5cd","bdp_td","Sat Mar 25 2023 20:55:16 GMT-0400 (Eastern Daylight Time)","133163","","null","","","","FIX","","<div class='trialBorder'><div class='vertical-center'><img style='vertical-align:center; align:center' src=img/fixation3.jpg></div></div>","null","","","","","","",""
"html-keyboard-response","26","71472","0.0-5.0-2.7","594936ad4152bf0001bfd5cd","bdp_td","Sat Mar 25 2023 20:55:16 GMT-0400 (Eastern Daylight Time)","133163","","2011","","","","offer","","<div class='trialBorder'><div class='vertical-center'><img style='vertical-align:center; align:center' src=img/fixation3.jpg></div><div class='cl'><div class='vertical-center'>$78<br><br>now</div></div><div class='cr'><div class='vertical-center'>$80<br>in<br>12 weeks</div></div><div class='respDivL'><div class='vertical-center'>(E)</div></div><div class='respDivR'><div class='vertical-center'>(I)</div></div></div>","E","$78<br><br>now","$80<br>in<br>12 weeks","0","78","80","12","NOW"
"html-keyboard-response","27","71724","0.0-5.0-3.7","594936ad4152bf0001bfd5cd","bdp_td","Sat Mar 25 2023 20:55:16 GMT-0400 (Eastern Daylight Time)","133163","","null","","","","offerFB","","<div class='trialBorder'><div class='vertical-center'><img style='vertical-align:center; align:center' src=img/fixation3.jpg></div><div class='cl'><div class='vertical-center'><font style='color:orange'>$78<br><br>now</font></div></div><div class='cr'><div class='vertical-center'>$80<br>in<br>12 weeks</div></div><div class='respDivL'><div class='vertical-center'><font style='color:orange'>(E)</font></div></div><div class='respDivR'><div class='vertical-center'>(I)</div></div></div>","null","$78<br><br>now","$80<br>in<br>12 weeks","0","78","80","12",""
"html-keyboard-response","28","72226","0.0-5.0-1.8","594936ad4152bf0001bfd5cd","bdp_td","Sat Mar 25 2023 20:55:16 GMT-0400 (Eastern Daylight Time)","133163","","null","","","","FIX","","<div class='trialBorder'><div class='vertical-center'><img style='vertical-align:center; align:center' src=img/fixation3.jpg></div></div>","null","","","","","","",""
"html-keyboard-response","29","74310","0.0-5.0-2.8","594936ad4152bf0001bfd5cd","bdp_td","Sat Mar 25 2023 20:55:16 GMT-0400 (Eastern Daylight Time)","133163","","2084","","","","offer","","<div class='trialBorder'><div class='vertical-center'><img style='vertical-align:center; align:center' src=img/fixation3.jpg></div><div class='cl'><div class='vertical-center'>$85<br>in<br>6 weeks</div></div><div class='cr'><div class='vertical-center'>$69<br><br>now</div></div><div class='respDivL'><div class='vertical-center'>(E)</div></div><div class='respDivR'><div class='vertical-center'>(I)</div></div></div>","I","$69<br><br>now","$85<br>in<br>6 weeks","1","69","85","6","NOW"
"html-keyboard-response","30","74563","0.0-5.0-3.8","594936ad4152bf0001bfd5cd","bdp_td","Sat Mar 25 2023 20:55:16 GMT-0400 (Eastern Daylight Time)","133163","","null","","","","offerFB","","<div class='trialBorder'><div class='vertical-center'><img style='vertical-align:center; align:center' src=img/fixation3.jpg></div><div class='cl'><div class='vertical-center'>$85<br>in<br>6 weeks</div></div><div class='cr'><div class='vertical-center'><font style='color:orange'>$69<br><br>now</font></div></div><div class='respDivL'><div class='vertical-center'>(E)</div></div><div class='respDivR'><div class='vertical-center'><font style='color:orange'>(I)</font></div></div></div>","null","$69<br><br>now","$85<br>in<br>6 weeks","1","69","85","6",""
"html-keyboard-response","31","75064","0.0-5.0-1.9","594936ad4152bf0001bfd5cd","bdp_td","Sat Mar 25 2023 20:55:16 GMT-0400 (Eastern Daylight Time)","133163","","null","","","","FIX","","<div class='trialBorder'><div class='vertical-center'><img style='vertical-align:center; align:center' src=img/fixation3.jpg></div></div>","null","","","","","","",""
"html-keyboard-response","32","76542","0.0-5.0-2.9","594936ad4152bf0001bfd5cd","bdp_td","Sat Mar 25 2023 20:55:16 GMT-0400 (Eastern Daylight Time)","133163","","1477","","","","offer","","<div class='trialBorder'><div class='vertical-center'><img style='vertical-align:center; align:center' src=img/fixation3.jpg></div><div class='cl'><div class='vertical-center'>$80<br>in<br>2 weeks</div></div><div class='cr'><div class='vertical-center'>$33<br><br>now</div></div><div class='respDivL'><div class='vertical-center'>(E)</div></div><div class='respDivR'><div class='vertical-center'>(I)</div></div></div>","E","$33<br><br>now","$80<br>in<br>2 weeks","1","33","80","2","THEN"
"html-keyboard-response","33","76795","0.0-5.0-3.9","594936ad4152bf0001bfd5cd","bdp_td","Sat Mar 25 2023 20:55:16 GMT-0400 (Eastern Daylight Time)","133163","","null","","","","offerFB","","<div class='trialBorder'><div class='vertical-center'><img style='vertical-align:center; align:center' src=img/fixation3.jpg></div><div class='cl'><div class='vertical-center'><font style='color:orange'>$80<br>in<br>2 weeks</font></div></div><div class='cr'><div class='vertical-center'>$33<br><br>now</div></div><div class='respDivL'><div class='vertical-center'><font style='color:orange'>(E)</font></div></div><div class='respDivR'><div class='vertical-center'>(I)</div></div></div>","null","$33<br><br>now","$80<br>in<br>2 weeks","1","33","80","2",""
"html-keyboard-response","34","77296","0.0-5.0-1.10","594936ad4152bf0001bfd5cd","bdp_td","Sat Mar 25 2023 20:55:16 GMT-0400 (Eastern Daylight Time)","133163","","null","","","","FIX","","<div class='trialBorder'><div class='vertical-center'><img style='vertical-align:center; align:center' src=img/fixation3.jpg></div></div>","null","","","","","","",""
"html-keyboard-response","35","80386","0.0-5.0-2.10","594936ad4152bf0001bfd5cd","bdp_td","Sat Mar 25 2023 20:55:16 GMT-0400 (Eastern Daylight Time)","133163","","3088","","","","offer","","<div class='trialBorder'><div class='vertical-center'><img style='vertical-align:center; align:center' src=img/fixation3.jpg></div><div class='cl'><div class='vertical-center'>$24<br><br>now</div></div><div class='cr'><div class='vertical-center'>$35<br>in<br>3 weeks</div></div><div class='respDivL'><div class='vertical-center'>(E)</div></div><div class='respDivR'><div class='vertical-center'>(I)</div></div></div>","E","$24<br><br>now","$35<br>in<br>3 weeks","0","24","35","3","NOW"
"html-keyboard-response","36","80639","0.0-5.0-3.10","594936ad4152bf0001bfd5cd","bdp_td","Sat Mar 25 2023 20:55:16 GMT-0400 (Eastern Daylight Time)","133163","","null","","","","offerFB","","<div class='trialBorder'><div class='vertical-center'><img style='vertical-align:center; align:center' src=img/fixation3.jpg></div><div class='cl'><div class='vertical-center'><font style='color:orange'>$24<br><br>now</font></div></div><div class='cr'><div class='vertical-center'>$35<br>in<br>3 weeks</div></div><div class='respDivL'><div class='vertical-center'><font style='color:orange'>(E)</font></div></div><div class='respDivR'><div class='vertical-center'>(I)</div></div></div>","null","$24<br><br>now","$35<br>in<br>3 weeks","0","24","35","3",""
"html-keyboard-response","37","81139","0.0-5.0-1.11","594936ad4152bf0001bfd5cd","bdp_td","Sat Mar 25 2023 20:55:16 GMT-0400 (Eastern Daylight Time)","133163","","null","","","","FIX","","<div class='trialBorder'><div class='vertical-center'><img style='vertical-align:center; align:center' src=img/fixation3.jpg></div></div>","null","","","","","","",""
"html-keyboard-response","38","83152","0.0-5.0-2.11","594936ad4152bf0001bfd5cd","bdp_td","Sat Mar 25 2023 20:55:16 GMT-0400 (Eastern Daylight Time)","133163","","2012","","","","offer","","<div class='trialBorder'><div class='vertical-center'><img style='vertical-align:center; align:center' src=img/fixation3.jpg></div><div class='cl'><div class='vertical-center'>$19<br><br>now</div></div><div class='cr'><div class='vertical-center'>$25<br>in<br>6 weeks</div></div><div class='respDivL'><div class='vertical-center'>(E)</div></div><div class='respDivR'><div class='vertical-center'>(I)</div></div></div>","E","$19<br><br>now","$25<br>in<br>6 weeks","0","19","25","6","NOW"
"html-keyboard-response","39","83405","0.0-5.0-3.11","594936ad4152bf0001bfd5cd","bdp_td","Sat Mar 25 2023 20:55:16 GMT-0400 (Eastern Daylight Time)","133163","","null","","","","offerFB","","<div class='trialBorder'><div class='vertical-center'><img style='vertical-align:center; align:center' src=img/fixation3.jpg></div><div class='cl'><div class='vertical-center'><font style='color:orange'>$19<br><br>now</font></div></div><div class='cr'><div class='vertical-center'>$25<br>in<br>6 weeks</div></div><div class='respDivL'><div class='vertical-center'><font style='color:orange'>(E)</font></div></div><div class='respDivR'><div class='vertical-center'>(I)</div></div></div>","null","$19<br><br>now","$25<br>in<br>6 weeks","0","19","25","6",""
"html-keyboard-response","40","83907","0.0-5.0-1.12","594936ad4152bf0001bfd5cd","bdp_td","Sat Mar 25 2023 20:55:16 GMT-0400 (Eastern Daylight Time)","133163","","null","","","","FIX","","<div class='trialBorder'><div class='vertical-center'><img style='vertical-align:center; align:center' src=img/fixation3.jpg></div></div>","null","","","","","","",""
"html-keyboard-response","41","87009","0.0-5.0-2.12","594936ad4152bf0001bfd5cd","bdp_td","Sat Mar 25 2023 20:55:16 GMT-0400 (Eastern Daylight Time)","133163","","3101","","","","offer","","<div class='trialBorder'><div class='vertical-center'><img style='vertical-align:center; align:center' src=img/fixation3.jpg></div><div class='cl'><div class='vertical-center'>$25<br>in<br>12 weeks</div></div><div class='cr'><div class='vertical-center'>$22<br><br>now</div></div><div class='respDivL'><div class='vertical-center'>(E)</div></div><div class='respDivR'><div class='vertical-center'>(I)</div></div></div>","I","$22<br><br>now","$25<br>in<br>12 weeks","1","22","25","12","NOW"
"html-keyboard-response","42","87261","0.0-5.0-3.12","594936ad4152bf0001bfd5cd","bdp_td","Sat Mar 25 2023 20:55:16 GMT-0400 (Eastern Daylight Time)","133163","","null","","","","offerFB","","<div class='trialBorder'><div class='vertical-center'><img style='vertical-align:center; align:center' src=img/fixation3.jpg></div><div class='cl'><div class='vertical-center'>$25<br>in<br>12 weeks</div></div><div class='cr'><div class='vertical-center'><font style='color:orange'>$22<br><br>now</font></div></div><div class='respDivL'><div class='vertical-center'>(E)</div></div><div class='respDivR'><div class='vertical-center'><font style='color:orange'>(I)</font></div></div></div>","null","$22<br><br>now","$25<br>in<br>12 weeks","1","22","25","12",""
"html-keyboard-response","43","87762","0.0-5.0-1.13","594936ad4152bf0001bfd5cd","bdp_td","Sat Mar 25 2023 20:55:16 GMT-0400 (Eastern Daylight Time)","133163","","null","","","","FIX","","<div class='trialBorder'><div class='vertical-center'><img style='vertical-align:center; align:center' src=img/fixation3.jpg></div></div>","null","","","","","","",""
"html-keyboard-response","44","91989","0.0-5.0-2.13","594936ad4152bf0001bfd5cd","bdp_td","Sat Mar 25 2023 20:55:16 GMT-0400 (Eastern Daylight Time)","133163","","4226","","","","offer","","<div class='trialBorder'><div class='vertical-center'><img style='vertical-align:center; align:center' src=img/fixation3.jpg></div><div class='cl'><div class='vertical-center'>$54<br><br>now</div></div><div class='cr'><div class='vertical-center'>$60<br>in<br>12 weeks</div></div><div class='respDivL'><div class='vertical-center'>(E)</div></div><div class='respDivR'><div class='vertical-center'>(I)</div></div></div>","E","$54<br><br>now","$60<br>in<br>12 weeks","0","54","60","12","NOW"
"html-keyboard-response","45","92243","0.0-5.0-3.13","594936ad4152bf0001bfd5cd","bdp_td","Sat Mar 25 2023 20:55:16 GMT-0400 (Eastern Daylight Time)","133163","","null","","","","offerFB","","<div class='trialBorder'><div class='vertical-center'><img style='vertical-align:center; align:center' src=img/fixation3.jpg></div><div class='cl'><div class='vertical-center'><font style='color:orange'>$54<br><br>now</font></div></div><div class='cr'><div class='vertical-center'>$60<br>in<br>12 weeks</div></div><div class='respDivL'><div class='vertical-center'><font style='color:orange'>(E)</font></div></div><div class='respDivR'><div class='vertical-center'>(I)</div></div></div>","null","$54<br><br>now","$60<br>in<br>12 weeks","0","54","60","12",""
"html-keyboard-response","46","92745","0.0-5.0-1.14","594936ad4152bf0001bfd5cd","bdp_td","Sat Mar 25 2023 20:55:16 GMT-0400 (Eastern Daylight Time)","133163","","null","","","","FIX","","<div class='trialBorder'><div class='vertical-center'><img style='vertical-align:center; align:center' src=img/fixation3.jpg></div></div>","null","","","","","","",""
"html-keyboard-response","47","97089","0.0-5.0-2.14","594936ad4152bf0001bfd5cd","bdp_td","Sat Mar 25 2023 20:55:16 GMT-0400 (Eastern Daylight Time)","133163","","4343","","","","offer","","<div class='trialBorder'><div class='vertical-center'><img style='vertical-align:center; align:center' src=img/fixation3.jpg></div><div class='cl'><div class='vertical-center'>$20<br><br>now</div></div><div class='cr'><div class='vertical-center'>$55<br>in<br>1 week</div></div><div class='respDivL'><div class='vertical-center'>(E)</div></div><div class='respDivR'><div class='vertical-center'>(I)</div></div></div>","I","$20<br><br>now","$55<br>in<br>1 week","0","20","55","1","THEN"
"html-keyboard-response","48","97342","0.0-5.0-3.14","594936ad4152bf0001bfd5cd","bdp_td","Sat Mar 25 2023 20:55:16 GMT-0400 (Eastern Daylight Time)","133163","","null","","","","offerFB","","<div class='trialBorder'><div class='vertical-center'><img style='vertical-align:center; align:center' src=img/fixation3.jpg></div><div class='cl'><div class='vertical-center'>$20<br><br>now</div></div><div class='cr'><div class='vertical-center'><font style='color:orange'>$55<br>in<br>1 week</font></div></div><div class='respDivL'><div class='vertical-center'>(E)</div></div><div class='respDivR'><div class='vertical-center'><font style='color:orange'>(I)</font></div></div></div>","null","$20<br><br>now","$55<br>in<br>1 week","0","20","55","1",""
"html-keyboard-response","49","97844","0.0-5.0-1.15","594936ad4152bf0001bfd5cd","bdp_td","Sat Mar 25 2023 20:55:16 GMT-0400 (Eastern Daylight Time)","133163","","null","","","","FIX","","<div class='trialBorder'><div class='vertical-center'><img style='vertical-align:center; align:center' src=img/fixation3.jpg></div></div>","null","","","","","","",""
"html-keyboard-response","50","99498","0.0-5.0-2.15","594936ad4152bf0001bfd5cd","bdp_td","Sat Mar 25 2023 20:55:16 GMT-0400 (Eastern Daylight Time)","133163","","1653","","","","offer","","<div class='trialBorder'><div class='vertical-center'><img style='vertical-align:center; align:center' src=img/fixation3.jpg></div><div class='cl'><div class='vertical-center'>$80<br>in<br>3 weeks</div></div><div class='cr'><div class='vertical-center'>$54<br><br>now</div></div><div class='respDivL'><div class='vertical-center'>(E)</div></div><div class='respDivR'><div class='vertical-center'>(I)</div></div></div>","E","$54<br><br>now","$80<br>in<br>3 weeks","1","54","80","3","THEN"
"html-keyboard-response","51","99750","0.0-5.0-3.15","594936ad4152bf0001bfd5cd","bdp_td","Sat Mar 25 2023 20:55:16 GMT-0400 (Eastern Daylight Time)","133163","","null","","","","offerFB","","<div class='trialBorder'><div class='vertical-center'><img style='vertical-align:center; align:center' src=img/fixation3.jpg></div><div class='cl'><div class='vertical-center'><font style='color:orange'>$80<br>in<br>3 weeks</font></div></div><div class='cr'><div class='vertical-center'>$54<br><br>now</div></div><div class='respDivL'><div class='vertical-center'><font style='color:orange'>(E)</font></div></div><div class='respDivR'><div class='vertical-center'>(I)</div></div></div>","null","$54<br><br>now","$80<br>in<br>3 weeks","1","54","80","3",""
"html-keyboard-response","52","100252","0.0-5.0-1.16","594936ad4152bf0001bfd5cd","bdp_td","Sat Mar 25 2023 20:55:16 GMT-0400 (Eastern Daylight Time)","133163","","null","","","","FIX","","<div class='trialBorder'><div class='vertical-center'><img style='vertical-align:center; align:center' src=img/fixation3.jpg></div></div>","null","","","","","","",""
"html-keyboard-response","53","102580","0.0-5.0-2.16","594936ad4152bf0001bfd5cd","bdp_td","Sat Mar 25 2023 20:55:16 GMT-0400 (Eastern Daylight Time)","133163","","2327","","","","offer","","<div class='trialBorder'><div class='vertical-center'><img style='vertical-align:center; align:center' src=img/fixation3.jpg></div><div class='cl'><div class='vertical-center'>$49<br><br>now</div></div><div class='cr'><div class='vertical-center'>$60<br>in<br>6 weeks</div></div><div class='respDivL'><div class='vertical-center'>(E)</div></div><div class='respDivR'><div class='vertical-center'>(I)</div></div></div>","E","$49<br><br>now","$60<br>in<br>6 weeks","0","49","60","6","NOW"
"html-keyboard-response","54","102833","0.0-5.0-3.16","594936ad4152bf0001bfd5cd","bdp_td","Sat Mar 25 2023 20:55:16 GMT-0400 (Eastern Daylight Time)","133163","","null","","","","offerFB","","<div class='trialBorder'><div class='vertical-center'><img style='vertical-align:center; align:center' src=img/fixation3.jpg></div><div class='cl'><div class='vertical-center'><font style='color:orange'>$49<br><br>now</font></div></div><div class='cr'><div class='vertical-center'>$60<br>in<br>6 weeks</div></div><div class='respDivL'><div class='vertical-center'><font style='color:orange'>(E)</font></div></div><div class='respDivR'><div class='vertical-center'>(I)</div></div></div>","null","$49<br><br>now","$60<br>in<br>6 weeks","0","49","60","6",""
"html-keyboard-response","55","103335","0.0-5.0-1.17","594936ad4152bf0001bfd5cd","bdp_td","Sat Mar 25 2023 20:55:16 GMT-0400 (Eastern Daylight Time)","133163","","null","","","","FIX","","<div class='trialBorder'><div class='vertical-center'><img style='vertical-align:center; align:center' src=img/fixation3.jpg></div></div>","null","","","","","","",""
"html-keyboard-response","56","105252","0.0-5.0-2.17","594936ad4152bf0001bfd5cd","bdp_td","Sat Mar 25 2023 20:55:16 GMT-0400 (Eastern Daylight Time)","133163","","1916","","","","offer","","<div class='trialBorder'><div class='vertical-center'><img style='vertical-align:center; align:center' src=img/fixation3.jpg></div><div class='cl'><div class='vertical-center'>$34<br><br>now</div></div><div class='cr'><div class='vertical-center'>$50<br>in<br>6 weeks</div></div><div class='respDivL'><div class='vertical-center'>(E)</div></div><div class='respDivR'><div class='vertical-center'>(I)</div></div></div>","E","$34<br><br>now","$50<br>in<br>6 weeks","0","34","50","6","NOW"
"html-keyboard-response","57","105504","0.0-5.0-3.17","594936ad4152bf0001bfd5cd","bdp_td","Sat Mar 25 2023 20:55:16 GMT-0400 (Eastern Daylight Time)","133163","","null","","","","offerFB","","<div class='trialBorder'><div class='vertical-center'><img style='vertical-align:center; align:center' src=img/fixation3.jpg></div><div class='cl'><div class='vertical-center'><font style='color:orange'>$34<br><br>now</font></div></div><div class='cr'><div class='vertical-center'>$50<br>in<br>6 weeks</div></div><div class='respDivL'><div class='vertical-center'><font style='color:orange'>(E)</font></div></div><div class='respDivR'><div class='vertical-center'>(I)</div></div></div>","null","$34<br><br>now","$50<br>in<br>6 weeks","0","34","50","6",""
"html-keyboard-response","58","106006","0.0-5.0-1.18","594936ad4152bf0001bfd5cd","bdp_td","Sat Mar 25 2023 20:55:16 GMT-0400 (Eastern Daylight Time)","133163","","null","","","","FIX","","<div class='trialBorder'><div class='vertical-center'><img style='vertical-align:center; align:center' src=img/fixation3.jpg></div></div>","null","","","","","","",""
"html-keyboard-response","59","107254","0.0-5.0-2.18","594936ad4152bf0001bfd5cd","bdp_td","Sat Mar 25 2023 20:55:16 GMT-0400 (Eastern Daylight Time)","133163","","1246","","","","offer","","<div class='trialBorder'><div class='vertical-center'><img style='vertical-align:center; align:center' src=img/fixation3.jpg></div><div class='cl'><div class='vertical-center'>$28<br><br>now</div></div><div class='cr'><div class='vertical-center'>$30<br>in<br>12 weeks</div></div><div class='respDivL'><div class='vertical-center'>(E)</div></div><div class='respDivR'><div class='vertical-center'>(I)</div></div></div>","E","$28<br><br>now","$30<br>in<br>12 weeks","0","28","30","12","NOW"
"html-keyboard-response","60","107506","0.0-5.0-3.18","594936ad4152bf0001bfd5cd","bdp_td","Sat Mar 25 2023 20:55:16 GMT-0400 (Eastern Daylight Time)","133163","","null","","","","offerFB","","<div class='trialBorder'><div class='vertical-center'><img style='vertical-align:center; align:center' src=img/fixation3.jpg></div><div class='cl'><div class='vertical-center'><font style='color:orange'>$28<br><br>now</font></div></div><div class='cr'><div class='vertical-center'>$30<br>in<br>12 weeks</div></div><div class='respDivL'><div class='vertical-center'><font style='color:orange'>(E)</font></div></div><div class='respDivR'><div class='vertical-center'>(I)</div></div></div>","null","$28<br><br>now","$30<br>in<br>12 weeks","0","28","30","12",""
"html-keyboard-response","61","108007","0.0-5.0-1.19","594936ad4152bf0001bfd5cd","bdp_td","Sat Mar 25 2023 20:55:16 GMT-0400 (Eastern Daylight Time)","133163","","null","","","","FIX","","<div class='trialBorder'><div class='vertical-center'><img style='vertical-align:center; align:center' src=img/fixation3.jpg></div></div>","null","","","","","","",""
"html-keyboard-response","62","109052","0.0-5.0-2.19","594936ad4152bf0001bfd5cd","bdp_td","Sat Mar 25 2023 20:55:16 GMT-0400 (Eastern Daylight Time)","133163","","1044","","","","offer","","<div class='trialBorder'><div class='vertical-center'><img style='vertical-align:center; align:center' src=img/fixation3.jpg></div><div class='cl'><div class='vertical-center'>$55<br>in<br>6 weeks</div></div><div class='cr'><div class='vertical-center'>$40<br><br>now</div></div><div class='respDivL'><div class='vertical-center'>(E)</div></div><div class='respDivR'><div class='vertical-center'>(I)</div></div></div>","I","$40<br><br>now","$55<br>in<br>6 weeks","1","40","55","6","NOW"
"html-keyboard-response","63","109304","0.0-5.0-3.19","594936ad4152bf0001bfd5cd","bdp_td","Sat Mar 25 2023 20:55:16 GMT-0400 (Eastern Daylight Time)","133163","","null","","","","offerFB","","<div class='trialBorder'><div class='vertical-center'><img style='vertical-align:center; align:center' src=img/fixation3.jpg></div><div class='cl'><div class='vertical-center'>$55<br>in<br>6 weeks</div></div><div class='cr'><div class='vertical-center'><font style='color:orange'>$40<br><br>now</font></div></div><div class='respDivL'><div class='vertical-center'>(E)</div></div><div class='respDivR'><div class='vertical-center'><font style='color:orange'>(I)</font></div></div></div>","null","$40<br><br>now","$55<br>in<br>6 weeks","1","40","55","6",""
"html-keyboard-response","64","109806","0.0-5.0-1.20","594936ad4152bf0001bfd5cd","bdp_td","Sat Mar 25 2023 20:55:16 GMT-0400 (Eastern Daylight Time)","133163","","null","","","","FIX","","<div class='trialBorder'><div class='vertical-center'><img style='vertical-align:center; align:center' src=img/fixation3.jpg></div></div>","null","","","","","","",""
"html-keyboard-response","65","111827","0.0-5.0-2.20","594936ad4152bf0001bfd5cd","bdp_td","Sat Mar 25 2023 20:55:16 GMT-0400 (Eastern Daylight Time)","133163","","2020","","","","offer","","<div class='trialBorder'><div class='vertical-center'><img style='vertical-align:center; align:center' src=img/fixation3.jpg></div><div class='cl'><div class='vertical-center'>$25<br><br>now</div></div><div class='cr'><div class='vertical-center'>$30<br>in<br>6 weeks</div></div><div class='respDivL'><div class='vertical-center'>(E)</div></div><div class='respDivR'><div class='vertical-center'>(I)</div></div></div>","E","$25<br><br>now","$30<br>in<br>6 weeks","0","25","30","6","NOW"
"html-keyboard-response","66","112080","0.0-5.0-3.20","594936ad4152bf0001bfd5cd","bdp_td","Sat Mar 25 2023 20:55:16 GMT-0400 (Eastern Daylight Time)","133163","","null","","","","offerFB","","<div class='trialBorder'><div class='vertical-center'><img style='vertical-align:center; align:center' src=img/fixation3.jpg></div><div class='cl'><div class='vertical-center'><font style='color:orange'>$25<br><br>now</font></div></div><div class='cr'><div class='vertical-center'>$30<br>in<br>6 weeks</div></div><div class='respDivL'><div class='vertical-center'><font style='color:orange'>(E)</font></div></div><div class='respDivR'><div class='vertical-center'>(I)</div></div></div>","null","$25<br><br>now","$30<br>in<br>6 weeks","0","25","30","6",""
"html-keyboard-response","67","112582","0.0-5.0-1.21","594936ad4152bf0001bfd5cd","bdp_td","Sat Mar 25 2023 20:55:16 GMT-0400 (Eastern Daylight Time)","133163","","null","","","","FIX","","<div class='trialBorder'><div class='vertical-center'><img style='vertical-align:center; align:center' src=img/fixation3.jpg></div></div>","null","","","","","","",""
"html-keyboard-response","68","114553","0.0-5.0-2.21","594936ad4152bf0001bfd5cd","bdp_td","Sat Mar 25 2023 20:55:16 GMT-0400 (Eastern Daylight Time)","133163","","1971","","","","offer","","<div class='trialBorder'><div class='vertical-center'><img style='vertical-align:center; align:center' src=img/fixation3.jpg></div><div class='cl'><div class='vertical-center'>$50<br>in<br>3 weeks</div></div><div class='cr'><div class='vertical-center'>$27<br><br>now</div></div><div class='respDivL'><div class='vertical-center'>(E)</div></div><div class='respDivR'><div class='vertical-center'>(I)</div></div></div>","E","$27<br><br>now","$50<br>in<br>3 weeks","1","27","50","3","THEN"
"html-keyboard-response","69","114805","0.0-5.0-3.21","594936ad4152bf0001bfd5cd","bdp_td","Sat Mar 25 2023 20:55:16 GMT-0400 (Eastern Daylight Time)","133163","","null","","","","offerFB","","<div class='trialBorder'><div class='vertical-center'><img style='vertical-align:center; align:center' src=img/fixation3.jpg></div><div class='cl'><div class='vertical-center'><font style='color:orange'>$50<br>in<br>3 weeks</font></div></div><div class='cr'><div class='vertical-center'>$27<br><br>now</div></div><div class='respDivL'><div class='vertical-center'><font style='color:orange'>(E)</font></div></div><div class='respDivR'><div class='vertical-center'>(I)</div></div></div>","null","$27<br><br>now","$50<br>in<br>3 weeks","1","27","50","3",""
"html-keyboard-response","70","115307","0.0-5.0-1.22","594936ad4152bf0001bfd5cd","bdp_td","Sat Mar 25 2023 20:55:16 GMT-0400 (Eastern Daylight Time)","133163","","null","","","","FIX","","<div class='trialBorder'><div class='vertical-center'><img style='vertical-align:center; align:center' src=img/fixation3.jpg></div></div>","null","","","","","","",""
"html-keyboard-response","71","117613","0.0-5.0-2.22","594936ad4152bf0001bfd5cd","bdp_td","Sat Mar 25 2023 20:55:16 GMT-0400 (Eastern Daylight Time)","133163","","2306","","","","offer","","<div class='trialBorder'><div class='vertical-center'><img style='vertical-align:center; align:center' src=img/fixation3.jpg></div><div class='cl'><div class='vertical-center'>$80<br><br>now</div></div><div class='cr'><div class='vertical-center'>$85<br>in<br>12 weeks</div></div><div class='respDivL'><div class='vertical-center'>(E)</div></div><div class='respDivR'><div class='vertical-center'>(I)</div></div></div>","E","$80<br><br>now","$85<br>in<br>12 weeks","0","80","85","12","NOW"
"html-keyboard-response","72","117865","0.0-5.0-3.22","594936ad4152bf0001bfd5cd","bdp_td","Sat Mar 25 2023 20:55:16 GMT-0400 (Eastern Daylight Time)","133163","","null","","","","offerFB","","<div class='trialBorder'><div class='vertical-center'><img style='vertical-align:center; align:center' src=img/fixation3.jpg></div><div class='cl'><div class='vertical-center'><font style='color:orange'>$80<br><br>now</font></div></div><div class='cr'><div class='vertical-center'>$85<br>in<br>12 weeks</div></div><div class='respDivL'><div class='vertical-center'><font style='color:orange'>(E)</font></div></div><div class='respDivR'><div class='vertical-center'>(I)</div></div></div>","null","$80<br><br>now","$85<br>in<br>12 weeks","0","80","85","12",""
"html-keyboard-response","73","118366","0.0-5.0-1.23","594936ad4152bf0001bfd5cd","bdp_td","Sat Mar 25 2023 20:55:16 GMT-0400 (Eastern Daylight Time)","133163","","null","","","","FIX","","<div class='trialBorder'><div class='vertical-center'><img style='vertical-align:center; align:center' src=img/fixation3.jpg></div></div>","null","","","","","","",""
"html-keyboard-response","74","120318","0.0-5.0-2.23","594936ad4152bf0001bfd5cd","bdp_td","Sat Mar 25 2023 20:55:16 GMT-0400 (Eastern Daylight Time)","133163","","1951","","","","offer","","<div class='trialBorder'><div class='vertical-center'><img style='vertical-align:center; align:center' src=img/fixation3.jpg></div><div class='cl'><div class='vertical-center'>$54<br><br>now</div></div><div class='cr'><div class='vertical-center'>$55<br>in<br>12 weeks</div></div><div class='respDivL'><div class='vertical-center'>(E)</div></div><div class='respDivR'><div class='vertical-center'>(I)</div></div></div>","E","$54<br><br>now","$55<br>in<br>12 weeks","0","54","55","12","NOW"
"html-keyboard-response","75","120570","0.0-5.0-3.23","594936ad4152bf0001bfd5cd","bdp_td","Sat Mar 25 2023 20:55:16 GMT-0400 (Eastern Daylight Time)","133163","","null","","","","offerFB","","<div class='trialBorder'><div class='vertical-center'><img style='vertical-align:center; align:center' src=img/fixation3.jpg></div><div class='cl'><div class='vertical-center'><font style='color:orange'>$54<br><br>now</font></div></div><div class='cr'><div class='vertical-center'>$55<br>in<br>12 weeks</div></div><div class='respDivL'><div class='vertical-center'><font style='color:orange'>(E)</font></div></div><div class='respDivR'><div class='vertical-center'>(I)</div></div></div>","null","$54<br><br>now","$55<br>in<br>12 weeks","0","54","55","12",""
"html-keyboard-response","76","121072","0.0-5.0-1.24","594936ad4152bf0001bfd5cd","bdp_td","Sat Mar 25 2023 20:55:16 GMT-0400 (Eastern Daylight Time)","133163","","null","","","","FIX","","<div class='trialBorder'><div class='vertical-center'><img style='vertical-align:center; align:center' src=img/fixation3.jpg></div></div>","null","","","","","","",""
"html-keyboard-response","77","125774","0.0-5.0-2.24","594936ad4152bf0001bfd5cd","bdp_td","Sat Mar 25 2023 20:55:16 GMT-0400 (Eastern Daylight Time)","133163","","4700","","","","offer","","<div class='trialBorder'><div class='vertical-center'><img style='vertical-align:center; align:center' src=img/fixation3.jpg></div><div class='cl'><div class='vertical-center'>$60<br>in<br>3 weeks</div></div><div class='cr'><div class='vertical-center'>$25<br><br>now</div></div><div class='respDivL'><div class='vertical-center'>(E)</div></div><div class='respDivR'><div class='vertical-center'>(I)</div></div></div>","E","$25<br><br>now","$60<br>in<br>3 weeks","1","25","60","3","THEN"
"html-keyboard-response","78","126025","0.0-5.0-3.24","594936ad4152bf0001bfd5cd","bdp_td","Sat Mar 25 2023 20:55:16 GMT-0400 (Eastern Daylight Time)","133163","","null","","","","offerFB","","<div class='trialBorder'><div class='vertical-center'><img style='vertical-align:center; align:center' src=img/fixation3.jpg></div><div class='cl'><div class='vertical-center'><font style='color:orange'>$60<br>in<br>3 weeks</font></div></div><div class='cr'><div class='vertical-center'>$25<br><br>now</div></div><div class='respDivL'><div class='vertical-center'><font style='color:orange'>(E)</font></div></div><div class='respDivR'><div class='vertical-center'>(I)</div></div></div>","null","$25<br><br>now","$60<br>in<br>3 weeks","1","25","60","3",""
"html-keyboard-response","79","126526","0.0-5.0-1.25","594936ad4152bf0001bfd5cd","bdp_td","Sat Mar 25 2023 20:55:16 GMT-0400 (Eastern Daylight Time)","133163","","null","","","","FIX","","<div class='trialBorder'><div class='vertical-center'><img style='vertical-align:center; align:center' src=img/fixation3.jpg></div></div>","null","","","","","","",""
"html-keyboard-response","80","129405","0.0-5.0-2.25","594936ad4152bf0001bfd5cd","bdp_td","Sat Mar 25 2023 20:55:16 GMT-0400 (Eastern Daylight Time)","133163","","2878","","","","offer","","<div class='trialBorder'><div class='vertical-center'><img style='vertical-align:center; align:center' src=img/fixation3.jpg></div><div class='cl'><div class='vertical-center'>$25<br>in<br>3 weeks</div></div><div class='cr'><div class='vertical-center'>$14<br><br>now</div></div><div class='respDivL'><div class='vertical-center'>(E)</div></div><div class='respDivR'><div class='vertical-center'>(I)</div></div></div>","I","$14<br><br>now","$25<br>in<br>3 weeks","1","14","25","3","NOW"
"html-keyboard-response","81","129658","0.0-5.0-3.25","594936ad4152bf0001bfd5cd","bdp_td","Sat Mar 25 2023 20:55:16 GMT-0400 (Eastern Daylight Time)","133163","","null","","","","offerFB","","<div class='trialBorder'><div class='vertical-center'><img style='vertical-align:center; align:center' src=img/fixation3.jpg></div><div class='cl'><div class='vertical-center'>$25<br>in<br>3 weeks</div></div><div class='cr'><div class='vertical-center'><font style='color:orange'>$14<br><br>now</font></div></div><div class='respDivL'><div class='vertical-center'>(E)</div></div><div class='respDivR'><div class='vertical-center'><font style='color:orange'>(I)</font></div></div></div>","null","$14<br><br>now","$25<br>in<br>3 weeks","1","14","25","3",""
"html-keyboard-response","82","130160","0.0-5.0-1.26","594936ad4152bf0001bfd5cd","bdp_td","Sat Mar 25 2023 20:55:16 GMT-0400 (Eastern Daylight Time)","133163","","null","","","","FIX","","<div class='trialBorder'><div class='vertical-center'><img style='vertical-align:center; align:center' src=img/fixation3.jpg></div></div>","null","","","","","","",""
"html-keyboard-response","83","131910","0.0-5.0-2.26","594936ad4152bf0001bfd5cd","bdp_td","Sat Mar 25 2023 20:55:16 GMT-0400 (Eastern Daylight Time)","133163","","1749","","","","offer","","<div class='trialBorder'><div class='vertical-center'><img style='vertical-align:center; align:center' src=img/fixation3.jpg></div><div class='cl'><div class='vertical-center'>$85<br>in<br>1 week</div></div><div class='cr'><div class='vertical-center'>$31<br><br>now</div></div><div class='respDivL'><div class='vertical-center'>(E)</div></div><div class='respDivR'><div class='vertical-center'>(I)</div></div></div>","E","$31<br><br>now","$85<br>in<br>1 week","1","31","85","1","THEN"
"html-keyboard-response","84","132161","0.0-5.0-3.26","594936ad4152bf0001bfd5cd","bdp_td","Sat Mar 25 2023 20:55:16 GMT-0400 (Eastern Daylight Time)","133163","","null","","","","offerFB","","<div class='trialBorder'><div class='vertical-center'><img style='vertical-align:center; align:center' src=img/fixation3.jpg></div><div class='cl'><div class='vertical-center'><font style='color:orange'>$85<br>in<br>1 week</font></div></div><div class='cr'><div class='vertical-center'>$31<br><br>now</div></div><div class='respDivL'><div class='vertical-center'><font style='color:orange'>(E)</font></div></div><div class='respDivR'><div class='vertical-center'>(I)</div></div></div>","null","$31<br><br>now","$85<br>in<br>1 week","1","31","85","1",""
"","","","","594936ad4152bf0001bfd5cd","bdp_td","Sat Mar 25 2023 20:55:16 GMT-0400 (Eastern Daylight Time)","133163","","","fullscreenexit","85","132185","fullscreenexit","","","","","","","","","",""
"fullscreen","85","133163","0.0-6.0","594936ad4152bf0001bfd5cd","bdp_td","Sat Mar 25 2023 20:55:16 GMT-0400 (Eastern Daylight Time)","133163","","","","","","","true","","","","","","","","",""
"html-keyboard-response","86","133664","0.0-7.0","","","","","","null","","","","","","","null","","","","","","",""
