"trial_type","trial_index","time_elapsed","internal_node_id","subject_id","task","startTime","totalTime","view_history","rt","event","trial","time","trialtype","success","stimulus","key_press","nowOffer","thenOffer","thenLeft","nowAmt","thenAmt","thenWeeks","chosen"
"pavlovia","0","3","0.0-0.0","63ea4164c5b33a0d13129c84","bdp_td","Mon Mar 27 2023 16:04:40 GMT-0400 (Eastern Daylight Time)","121938","","","","","","","","","","","","","","","",""
"instructions","1","10419","0.0-1.0","63ea4164c5b33a0d13129c84","bdp_td","Mon Mar 27 2023 16:04:40 GMT-0400 (Eastern Daylight Time)","121938","[{""page_index"":0,""viewing_time"":10416}]","10416","","","","","","","","","","","","","",""
"","","","","63ea4164c5b33a0d13129c84","bdp_td","Mon Mar 27 2023 16:04:40 GMT-0400 (Eastern Daylight Time)","121938","","","fullscreenenter","2","12063","fullscreenenter","","","","","","","","","",""
"fullscreen","2","13060","0.0-2.0","63ea4164c5b33a0d13129c84","bdp_td","Mon Mar 27 2023 16:04:40 GMT-0400 (Eastern Daylight Time)","121938","","","","","","","true","","","","","","","","",""
"instructions","3","75226","0.0-4.0","63ea4164c5b33a0d13129c84","bdp_td","Mon Mar 27 2023 16:04:40 GMT-0400 (Eastern Daylight Time)","121938","[{""page_index"":0,""viewing_time"":42157},{""page_index"":1,""viewing_time"":12372},{""page_index"":2,""viewing_time"":7633}]","62163","","","","","","","","","","","","","",""
"html-keyboard-response","4","75729","0.0-5.0-1.0","63ea4164c5b33a0d13129c84","bdp_td","Mon Mar 27 2023 16:04:40 GMT-0400 (Eastern Daylight Time)","121938","","null","","","","FIX","","<div class='trialBorder'><div class='vertical-center'><img style='vertical-align:center; align:center' src=img/fixation3.jpg></div></div>","null","","","","","","",""
"html-keyboard-response","5","78629","0.0-5.0-2.0","63ea4164c5b33a0d13129c84","bdp_td","Mon Mar 27 2023 16:04:40 GMT-0400 (Eastern Daylight Time)","121938","","2897","","","","offer","","<div class='trialBorder'><div class='vertical-center'><img style='vertical-align:center; align:center' src=img/fixation3.jpg></div><div class='cl'><div class='vertical-center'>$55<br>in<br>1 week</div></div><div class='cr'><div class='vertical-center'>$20<br><br>now</div></div><div class='respDivL'><div class='vertical-center'>(E)</div></div><div class='respDivR'><div class='vertical-center'>(I)</div></div></div>","E","$20<br><br>now","$55<br>in<br>1 week","1","20","55","1","THEN"
"html-keyboard-response","6","78897","0.0-5.0-3.0","63ea4164c5b33a0d13129c84","bdp_td","Mon Mar 27 2023 16:04:40 GMT-0400 (Eastern Daylight Time)","121938","","null","","","","offerFB","","<div class='trialBorder'><div class='vertical-center'><img style='vertical-align:center; align:center' src=img/fixation3.jpg></div><div class='cl'><div class='vertical-center'><font style='color:orange'>$55<br>in<br>1 week</font></div></div><div class='cr'><div class='vertical-center'>$20<br><br>now</div></div><div class='respDivL'><div class='vertical-center'><font style='color:orange'>(E)</font></div></div><div class='respDivR'><div class='vertical-center'>(I)</div></div></div>","null","$20<br><br>now","$55<br>in<br>1 week","1","20","55","1",""
"html-keyboard-response","7","79408","0.0-5.0-1.1","63ea4164c5b33a0d13129c84","bdp_td","Mon Mar 27 2023 16:04:40 GMT-0400 (Eastern Daylight Time)","121938","","null","","","","FIX","","<div class='trialBorder'><div class='vertical-center'><img style='vertical-align:center; align:center' src=img/fixation3.jpg></div></div>","null","","","","","","",""
"html-keyboard-response","8","80770","0.0-5.0-2.1","63ea4164c5b33a0d13129c84","bdp_td","Mon Mar 27 2023 16:04:40 GMT-0400 (Eastern Daylight Time)","121938","","1361","","","","offer","","<div class='trialBorder'><div class='vertical-center'><img style='vertical-align:center; align:center' src=img/fixation3.jpg></div><div class='cl'><div class='vertical-center'>$28<br><br>now</div></div><div class='cr'><div class='vertical-center'>$30<br>in<br>12 weeks</div></div><div class='respDivL'><div class='vertical-center'>(E)</div></div><div class='respDivR'><div class='vertical-center'>(I)</div></div></div>","E","$28<br><br>now","$30<br>in<br>12 weeks","0","28","30","12","NOW"
"html-keyboard-response","9","81026","0.0-5.0-3.1","63ea4164c5b33a0d13129c84","bdp_td","Mon Mar 27 2023 16:04:40 GMT-0400 (Eastern Daylight Time)","121938","","null","","","","offerFB","","<div class='trialBorder'><div class='vertical-center'><img style='vertical-align:center; align:center' src=img/fixation3.jpg></div><div class='cl'><div class='vertical-center'><font style='color:orange'>$28<br><br>now</font></div></div><div class='cr'><div class='vertical-center'>$30<br>in<br>12 weeks</div></div><div class='respDivL'><div class='vertical-center'><font style='color:orange'>(E)</font></div></div><div class='respDivR'><div class='vertical-center'>(I)</div></div></div>","null","$28<br><br>now","$30<br>in<br>12 weeks","0","28","30","12",""
"html-keyboard-response","10","81539","0.0-5.0-1.2","63ea4164c5b33a0d13129c84","bdp_td","Mon Mar 27 2023 16:04:40 GMT-0400 (Eastern Daylight Time)","121938","","null","","","","FIX","","<div class='trialBorder'><div class='vertical-center'><img style='vertical-align:center; align:center' src=img/fixation3.jpg></div></div>","null","","","","","","",""
"html-keyboard-response","11","82864","0.0-5.0-2.2","63ea4164c5b33a0d13129c84","bdp_td","Mon Mar 27 2023 16:04:40 GMT-0400 (Eastern Daylight Time)","121938","","1325","","","","offer","","<div class='trialBorder'><div class='vertical-center'><img style='vertical-align:center; align:center' src=img/fixation3.jpg></div><div class='cl'><div class='vertical-center'>$54<br><br>now</div></div><div class='cr'><div class='vertical-center'>$60<br>in<br>12 weeks</div></div><div class='respDivL'><div class='vertical-center'>(E)</div></div><div class='respDivR'><div class='vertical-center'>(I)</div></div></div>","E","$54<br><br>now","$60<br>in<br>12 weeks","0","54","60","12","NOW"
"html-keyboard-response","12","83122","0.0-5.0-3.2","63ea4164c5b33a0d13129c84","bdp_td","Mon Mar 27 2023 16:04:40 GMT-0400 (Eastern Daylight Time)","121938","","null","","","","offerFB","","<div class='trialBorder'><div class='vertical-center'><img style='vertical-align:center; align:center' src=img/fixation3.jpg></div><div class='cl'><div class='vertical-center'><font style='color:orange'>$54<br><br>now</font></div></div><div class='cr'><div class='vertical-center'>$60<br>in<br>12 weeks</div></div><div class='respDivL'><div class='vertical-center'><font style='color:orange'>(E)</font></div></div><div class='respDivR'><div class='vertical-center'>(I)</div></div></div>","null","$54<br><br>now","$60<br>in<br>12 weeks","0","54","60","12",""
"html-keyboard-response","13","83634","0.0-5.0-1.3","63ea4164c5b33a0d13129c84","bdp_td","Mon Mar 27 2023 16:04:40 GMT-0400 (Eastern Daylight Time)","121938","","null","","","","FIX","","<div class='trialBorder'><div class='vertical-center'><img style='vertical-align:center; align:center' src=img/fixation3.jpg></div></div>","null","","","","","","",""
"html-keyboard-response","14","85108","0.0-5.0-2.3","63ea4164c5b33a0d13129c84","bdp_td","Mon Mar 27 2023 16:04:40 GMT-0400 (Eastern Daylight Time)","121938","","1472","","","","offer","","<div class='trialBorder'><div class='vertical-center'><img style='vertical-align:center; align:center' src=img/fixation3.jpg></div><div class='cl'><div class='vertical-center'>$49<br><br>now</div></div><div class='cr'><div class='vertical-center'>$60<br>in<br>6 weeks</div></div><div class='respDivL'><div class='vertical-center'>(E)</div></div><div class='respDivR'><div class='vertical-center'>(I)</div></div></div>","I","$49<br><br>now","$60<br>in<br>6 weeks","0","49","60","6","THEN"
"html-keyboard-response","15","85378","0.0-5.0-3.3","63ea4164c5b33a0d13129c84","bdp_td","Mon Mar 27 2023 16:04:40 GMT-0400 (Eastern Daylight Time)","121938","","null","","","","offerFB","","<div class='trialBorder'><div class='vertical-center'><img style='vertical-align:center; align:center' src=img/fixation3.jpg></div><div class='cl'><div class='vertical-center'>$49<br><br>now</div></div><div class='cr'><div class='vertical-center'><font style='color:orange'>$60<br>in<br>6 weeks</font></div></div><div class='respDivL'><div class='vertical-center'>(E)</div></div><div class='respDivR'><div class='vertical-center'><font style='color:orange'>(I)</font></div></div></div>","null","$49<br><br>now","$60<br>in<br>6 weeks","0","49","60","6",""
"html-keyboard-response","16","85889","0.0-5.0-1.4","63ea4164c5b33a0d13129c84","bdp_td","Mon Mar 27 2023 16:04:40 GMT-0400 (Eastern Daylight Time)","121938","","null","","","","FIX","","<div class='trialBorder'><div class='vertical-center'><img style='vertical-align:center; align:center' src=img/fixation3.jpg></div></div>","null","","","","","","",""
"html-keyboard-response","17","86819","0.0-5.0-2.4","63ea4164c5b33a0d13129c84","bdp_td","Mon Mar 27 2023 16:04:40 GMT-0400 (Eastern Daylight Time)","121938","","929","","","","offer","","<div class='trialBorder'><div class='vertical-center'><img style='vertical-align:center; align:center' src=img/fixation3.jpg></div><div class='cl'><div class='vertical-center'>$22<br><br>now</div></div><div class='cr'><div class='vertical-center'>$25<br>in<br>12 weeks</div></div><div class='respDivL'><div class='vertical-center'>(E)</div></div><div class='respDivR'><div class='vertical-center'>(I)</div></div></div>","I","$22<br><br>now","$25<br>in<br>12 weeks","0","22","25","12","THEN"
"html-keyboard-response","18","87073","0.0-5.0-3.4","63ea4164c5b33a0d13129c84","bdp_td","Mon Mar 27 2023 16:04:40 GMT-0400 (Eastern Daylight Time)","121938","","null","","","","offerFB","","<div class='trialBorder'><div class='vertical-center'><img style='vertical-align:center; align:center' src=img/fixation3.jpg></div><div class='cl'><div class='vertical-center'>$22<br><br>now</div></div><div class='cr'><div class='vertical-center'><font style='color:orange'>$25<br>in<br>12 weeks</font></div></div><div class='respDivL'><div class='vertical-center'>(E)</div></div><div class='respDivR'><div class='vertical-center'><font style='color:orange'>(I)</font></div></div></div>","null","$22<br><br>now","$25<br>in<br>12 weeks","0","22","25","12",""
"html-keyboard-response","19","87586","0.0-5.0-1.5","63ea4164c5b33a0d13129c84","bdp_td","Mon Mar 27 2023 16:04:40 GMT-0400 (Eastern Daylight Time)","121938","","null","","","","FIX","","<div class='trialBorder'><div class='vertical-center'><img style='vertical-align:center; align:center' src=img/fixation3.jpg></div></div>","null","","","","","","",""
"html-keyboard-response","20","89212","0.0-5.0-2.5","63ea4164c5b33a0d13129c84","bdp_td","Mon Mar 27 2023 16:04:40 GMT-0400 (Eastern Daylight Time)","121938","","1625","","","","offer","","<div class='trialBorder'><div class='vertical-center'><img style='vertical-align:center; align:center' src=img/fixation3.jpg></div><div class='cl'><div class='vertical-center'>$80<br>in<br>2 weeks</div></div><div class='cr'><div class='vertical-center'>$33<br><br>now</div></div><div class='respDivL'><div class='vertical-center'>(E)</div></div><div class='respDivR'><div class='vertical-center'>(I)</div></div></div>","E","$33<br><br>now","$80<br>in<br>2 weeks","1","33","80","2","THEN"
"html-keyboard-response","21","89473","0.0-5.0-3.5","63ea4164c5b33a0d13129c84","bdp_td","Mon Mar 27 2023 16:04:40 GMT-0400 (Eastern Daylight Time)","121938","","null","","","","offerFB","","<div class='trialBorder'><div class='vertical-center'><img style='vertical-align:center; align:center' src=img/fixation3.jpg></div><div class='cl'><div class='vertical-center'><font style='color:orange'>$80<br>in<br>2 weeks</font></div></div><div class='cr'><div class='vertical-center'>$33<br><br>now</div></div><div class='respDivL'><div class='vertical-center'><font style='color:orange'>(E)</font></div></div><div class='respDivR'><div class='vertical-center'>(I)</div></div></div>","null","$33<br><br>now","$80<br>in<br>2 weeks","1","33","80","2",""
"html-keyboard-response","22","89985","0.0-5.0-1.6","63ea4164c5b33a0d13129c84","bdp_td","Mon Mar 27 2023 16:04:40 GMT-0400 (Eastern Daylight Time)","121938","","null","","","","FIX","","<div class='trialBorder'><div class='vertical-center'><img style='vertical-align:center; align:center' src=img/fixation3.jpg></div></div>","null","","","","","","",""
"html-keyboard-response","23","90612","0.0-5.0-2.6","63ea4164c5b33a0d13129c84","bdp_td","Mon Mar 27 2023 16:04:40 GMT-0400 (Eastern Daylight Time)","121938","","625","","","","offer","","<div class='trialBorder'><div class='vertical-center'><img style='vertical-align:center; align:center' src=img/fixation3.jpg></div><div class='cl'><div class='vertical-center'>$50<br>in<br>12 weeks</div></div><div class='cr'><div class='vertical-center'>$47<br><br>now</div></div><div class='respDivL'><div class='vertical-center'>(E)</div></div><div class='respDivR'><div class='vertical-center'>(I)</div></div></div>","E","$47<br><br>now","$50<br>in<br>12 weeks","1","47","50","12","THEN"
"html-keyboard-response","24","90881","0.0-5.0-3.6","63ea4164c5b33a0d13129c84","bdp_td","Mon Mar 27 2023 16:04:40 GMT-0400 (Eastern Daylight Time)","121938","","null","","","","offerFB","","<div class='trialBorder'><div class='vertical-center'><img style='vertical-align:center; align:center' src=img/fixation3.jpg></div><div class='cl'><div class='vertical-center'><font style='color:orange'>$50<br>in<br>12 weeks</font></div></div><div class='cr'><div class='vertical-center'>$47<br><br>now</div></div><div class='respDivL'><div class='vertical-center'><font style='color:orange'>(E)</font></div></div><div class='respDivR'><div class='vertical-center'>(I)</div></div></div>","null","$47<br><br>now","$50<br>in<br>12 weeks","1","47","50","12",""
"html-keyboard-response","25","91393","0.0-5.0-1.7","63ea4164c5b33a0d13129c84","bdp_td","Mon Mar 27 2023 16:04:40 GMT-0400 (Eastern Daylight Time)","121938","","null","","","","FIX","","<div class='trialBorder'><div class='vertical-center'><img style='vertical-align:center; align:center' src=img/fixation3.jpg></div></div>","null","","","","","","",""
"html-keyboard-response","26","92058","0.0-5.0-2.7","63ea4164c5b33a0d13129c84","bdp_td","Mon Mar 27 2023 16:04:40 GMT-0400 (Eastern Daylight Time)","121938","","663","","","","offer","","<div class='trialBorder'><div class='vertical-center'><img style='vertical-align:center; align:center' src=img/fixation3.jpg></div><div class='cl'><div class='vertical-center'>$54<br><br>now</div></div><div class='cr'><div class='vertical-center'>$80<br>in<br>3 weeks</div></div><div class='respDivL'><div class='vertical-center'>(E)</div></div><div class='respDivR'><div class='vertical-center'>(I)</div></div></div>","I","$54<br><br>now","$80<br>in<br>3 weeks","0","54","80","3","THEN"
"html-keyboard-response","27","92322","0.0-5.0-3.7","63ea4164c5b33a0d13129c84","bdp_td","Mon Mar 27 2023 16:04:40 GMT-0400 (Eastern Daylight Time)","121938","","null","","","","offerFB","","<div class='trialBorder'><div class='vertical-center'><img style='vertical-align:center; align:center' src=img/fixation3.jpg></div><div class='cl'><div class='vertical-center'>$54<br><br>now</div></div><div class='cr'><div class='vertical-center'><font style='color:orange'>$80<br>in<br>3 weeks</font></div></div><div class='respDivL'><div class='vertical-center'>(E)</div></div><div class='respDivR'><div class='vertical-center'><font style='color:orange'>(I)</font></div></div></div>","null","$54<br><br>now","$80<br>in<br>3 weeks","0","54","80","3",""
"html-keyboard-response","28","92834","0.0-5.0-1.8","63ea4164c5b33a0d13129c84","bdp_td","Mon Mar 27 2023 16:04:40 GMT-0400 (Eastern Daylight Time)","121938","","null","","","","FIX","","<div class='trialBorder'><div class='vertical-center'><img style='vertical-align:center; align:center' src=img/fixation3.jpg></div></div>","null","","","","","","",""
"html-keyboard-response","29","93684","0.0-5.0-2.8","63ea4164c5b33a0d13129c84","bdp_td","Mon Mar 27 2023 16:04:40 GMT-0400 (Eastern Daylight Time)","121938","","848","","","","offer","","<div class='trialBorder'><div class='vertical-center'><img style='vertical-align:center; align:center' src=img/fixation3.jpg></div><div class='cl'><div class='vertical-center'>$60<br>in<br>3 weeks</div></div><div class='cr'><div class='vertical-center'>$25<br><br>now</div></div><div class='respDivL'><div class='vertical-center'>(E)</div></div><div class='respDivR'><div class='vertical-center'>(I)</div></div></div>","E","$25<br><br>now","$60<br>in<br>3 weeks","1","25","60","3","THEN"
"html-keyboard-response","30","93948","0.0-5.0-3.8","63ea4164c5b33a0d13129c84","bdp_td","Mon Mar 27 2023 16:04:40 GMT-0400 (Eastern Daylight Time)","121938","","null","","","","offerFB","","<div class='trialBorder'><div class='vertical-center'><img style='vertical-align:center; align:center' src=img/fixation3.jpg></div><div class='cl'><div class='vertical-center'><font style='color:orange'>$60<br>in<br>3 weeks</font></div></div><div class='cr'><div class='vertical-center'>$25<br><br>now</div></div><div class='respDivL'><div class='vertical-center'><font style='color:orange'>(E)</font></div></div><div class='respDivR'><div class='vertical-center'>(I)</div></div></div>","null","$25<br><br>now","$60<br>in<br>3 weeks","1","25","60","3",""
"html-keyboard-response","31","94466","0.0-5.0-1.9","63ea4164c5b33a0d13129c84","bdp_td","Mon Mar 27 2023 16:04:40 GMT-0400 (Eastern Daylight Time)","121938","","null","","","","FIX","","<div class='trialBorder'><div class='vertical-center'><img style='vertical-align:center; align:center' src=img/fixation3.jpg></div></div>","null","","","","","","",""
"html-keyboard-response","32","94960","0.0-5.0-2.9","63ea4164c5b33a0d13129c84","bdp_td","Mon Mar 27 2023 16:04:40 GMT-0400 (Eastern Daylight Time)","121938","","491","","","","offer","","<div class='trialBorder'><div class='vertical-center'><img style='vertical-align:center; align:center' src=img/fixation3.jpg></div><div class='cl'><div class='vertical-center'>$35<br>in<br>2 weeks</div></div><div class='cr'><div class='vertical-center'>$15<br><br>now</div></div><div class='respDivL'><div class='vertical-center'>(E)</div></div><div class='respDivR'><div class='vertical-center'>(I)</div></div></div>","E","$15<br><br>now","$35<br>in<br>2 weeks","1","15","35","2","THEN"
"html-keyboard-response","33","95217","0.0-5.0-3.9","63ea4164c5b33a0d13129c84","bdp_td","Mon Mar 27 2023 16:04:40 GMT-0400 (Eastern Daylight Time)","121938","","null","","","","offerFB","","<div class='trialBorder'><div class='vertical-center'><img style='vertical-align:center; align:center' src=img/fixation3.jpg></div><div class='cl'><div class='vertical-center'><font style='color:orange'>$35<br>in<br>2 weeks</font></div></div><div class='cr'><div class='vertical-center'>$15<br><br>now</div></div><div class='respDivL'><div class='vertical-center'><font style='color:orange'>(E)</font></div></div><div class='respDivR'><div class='vertical-center'>(I)</div></div></div>","null","$15<br><br>now","$35<br>in<br>2 weeks","1","15","35","2",""
"html-keyboard-response","34","95729","0.0-5.0-1.10","63ea4164c5b33a0d13129c84","bdp_td","Mon Mar 27 2023 16:04:40 GMT-0400 (Eastern Daylight Time)","121938","","null","","","","FIX","","<div class='trialBorder'><div class='vertical-center'><img style='vertical-align:center; align:center' src=img/fixation3.jpg></div></div>","null","","","","","","",""
"html-keyboard-response","35","95909","0.0-5.0-2.10","63ea4164c5b33a0d13129c84","bdp_td","Mon Mar 27 2023 16:04:40 GMT-0400 (Eastern Daylight Time)","121938","","179","","","","offer","","<div class='trialBorder'><div class='vertical-center'><img style='vertical-align:center; align:center' src=img/fixation3.jpg></div><div class='cl'><div class='vertical-center'>$27<br><br>now</div></div><div class='cr'><div class='vertical-center'>$50<br>in<br>3 weeks</div></div><div class='respDivL'><div class='vertical-center'>(E)</div></div><div class='respDivR'><div class='vertical-center'>(I)</div></div></div>","E","$27<br><br>now","$50<br>in<br>3 weeks","0","27","50","3","NOW"
"html-keyboard-response","36","96178","0.0-5.0-3.10","63ea4164c5b33a0d13129c84","bdp_td","Mon Mar 27 2023 16:04:40 GMT-0400 (Eastern Daylight Time)","121938","","null","","","","offerFB","","<div class='trialBorder'><div class='vertical-center'><img style='vertical-align:center; align:center' src=img/fixation3.jpg></div><div class='cl'><div class='vertical-center'><font style='color:orange'>$27<br><br>now</font></div></div><div class='cr'><div class='vertical-center'>$50<br>in<br>3 weeks</div></div><div class='respDivL'><div class='vertical-center'><font style='color:orange'>(E)</font></div></div><div class='respDivR'><div class='vertical-center'>(I)</div></div></div>","null","$27<br><br>now","$50<br>in<br>3 weeks","0","27","50","3",""
"html-keyboard-response","37","96691","0.0-5.0-1.11","63ea4164c5b33a0d13129c84","bdp_td","Mon Mar 27 2023 16:04:40 GMT-0400 (Eastern Daylight Time)","121938","","null","","","","FIX","","<div class='trialBorder'><div class='vertical-center'><img style='vertical-align:center; align:center' src=img/fixation3.jpg></div></div>","null","","","","","","",""
"html-keyboard-response","38","96698","0.0-5.0-2.11","63ea4164c5b33a0d13129c84","bdp_td","Mon Mar 27 2023 16:04:40 GMT-0400 (Eastern Daylight Time)","121938","","7","","","","offer","","<div class='trialBorder'><div class='vertical-center'><img style='vertical-align:center; align:center' src=img/fixation3.jpg></div><div class='cl'><div class='vertical-center'>$55<br>in<br>12 weeks</div></div><div class='cr'><div class='vertical-center'>$54<br><br>now</div></div><div class='respDivL'><div class='vertical-center'>(E)</div></div><div class='respDivR'><div class='vertical-center'>(I)</div></div></div>","E","$54<br><br>now","$55<br>in<br>12 weeks","1","54","55","12","THEN"
"html-keyboard-response","39","96961","0.0-5.0-3.11","63ea4164c5b33a0d13129c84","bdp_td","Mon Mar 27 2023 16:04:40 GMT-0400 (Eastern Daylight Time)","121938","","null","","","","offerFB","","<div class='trialBorder'><div class='vertical-center'><img style='vertical-align:center; align:center' src=img/fixation3.jpg></div><div class='cl'><div class='vertical-center'><font style='color:orange'>$55<br>in<br>12 weeks</font></div></div><div class='cr'><div class='vertical-center'>$54<br><br>now</div></div><div class='respDivL'><div class='vertical-center'><font style='color:orange'>(E)</font></div></div><div class='respDivR'><div class='vertical-center'>(I)</div></div></div>","null","$54<br><br>now","$55<br>in<br>12 weeks","1","54","55","12",""
"html-keyboard-response","40","97471","0.0-5.0-1.12","63ea4164c5b33a0d13129c84","bdp_td","Mon Mar 27 2023 16:04:40 GMT-0400 (Eastern Daylight Time)","121938","","null","","","","FIX","","<div class='trialBorder'><div class='vertical-center'><img style='vertical-align:center; align:center' src=img/fixation3.jpg></div></div>","null","","","","","","",""
"html-keyboard-response","41","98056","0.0-5.0-2.12","63ea4164c5b33a0d13129c84","bdp_td","Mon Mar 27 2023 16:04:40 GMT-0400 (Eastern Daylight Time)","121938","","582","","","","offer","","<div class='trialBorder'><div class='vertical-center'><img style='vertical-align:center; align:center' src=img/fixation3.jpg></div><div class='cl'><div class='vertical-center'>$11<br><br>now</div></div><div class='cr'><div class='vertical-center'>$30<br>in<br>2 weeks</div></div><div class='respDivL'><div class='vertical-center'>(E)</div></div><div class='respDivR'><div class='vertical-center'>(I)</div></div></div>","E","$11<br><br>now","$30<br>in<br>2 weeks","0","11","30","2","NOW"
"html-keyboard-response","42","98321","0.0-5.0-3.12","63ea4164c5b33a0d13129c84","bdp_td","Mon Mar 27 2023 16:04:40 GMT-0400 (Eastern Daylight Time)","121938","","null","","","","offerFB","","<div class='trialBorder'><div class='vertical-center'><img style='vertical-align:center; align:center' src=img/fixation3.jpg></div><div class='cl'><div class='vertical-center'><font style='color:orange'>$11<br><br>now</font></div></div><div class='cr'><div class='vertical-center'>$30<br>in<br>2 weeks</div></div><div class='respDivL'><div class='vertical-center'><font style='color:orange'>(E)</font></div></div><div class='respDivR'><div class='vertical-center'>(I)</div></div></div>","null","$11<br><br>now","$30<br>in<br>2 weeks","0","11","30","2",""
"html-keyboard-response","43","98832","0.0-5.0-1.13","63ea4164c5b33a0d13129c84","bdp_td","Mon Mar 27 2023 16:04:40 GMT-0400 (Eastern Daylight Time)","121938","","null","","","","FIX","","<div class='trialBorder'><div class='vertical-center'><img style='vertical-align:center; align:center' src=img/fixation3.jpg></div></div>","null","","","","","","",""
"html-keyboard-response","44","99329","0.0-5.0-2.13","63ea4164c5b33a0d13129c84","bdp_td","Mon Mar 27 2023 16:04:40 GMT-0400 (Eastern Daylight Time)","121938","","496","","","","offer","","<div class='trialBorder'><div class='vertical-center'><img style='vertical-align:center; align:center' src=img/fixation3.jpg></div><div class='cl'><div class='vertical-center'>$35<br>in<br>12 weeks</div></div><div class='cr'><div class='vertical-center'>$34<br><br>now</div></div><div class='respDivL'><div class='vertical-center'>(E)</div></div><div class='respDivR'><div class='vertical-center'>(I)</div></div></div>","E","$34<br><br>now","$35<br>in<br>12 weeks","1","34","35","12","THEN"
"html-keyboard-response","45","99585","0.0-5.0-3.13","63ea4164c5b33a0d13129c84","bdp_td","Mon Mar 27 2023 16:04:40 GMT-0400 (Eastern Daylight Time)","121938","","null","","","","offerFB","","<div class='trialBorder'><div class='vertical-center'><img style='vertical-align:center; align:center' src=img/fixation3.jpg></div><div class='cl'><div class='vertical-center'><font style='color:orange'>$35<br>in<br>12 weeks</font></div></div><div class='cr'><div class='vertical-center'>$34<br><br>now</div></div><div class='respDivL'><div class='vertical-center'><font style='color:orange'>(E)</font></div></div><div class='respDivR'><div class='vertical-center'>(I)</div></div></div>","null","$34<br><br>now","$35<br>in<br>12 weeks","1","34","35","12",""
"html-keyboard-response","46","100099","0.0-5.0-1.14","63ea4164c5b33a0d13129c84","bdp_td","Mon Mar 27 2023 16:04:40 GMT-0400 (Eastern Daylight Time)","121938","","null","","","","FIX","","<div class='trialBorder'><div class='vertical-center'><img style='vertical-align:center; align:center' src=img/fixation3.jpg></div></div>","null","","","","","","",""
"html-keyboard-response","47","100907","0.0-5.0-2.14","63ea4164c5b33a0d13129c84","bdp_td","Mon Mar 27 2023 16:04:40 GMT-0400 (Eastern Daylight Time)","121938","","805","","","","offer","","<div class='trialBorder'><div class='vertical-center'><img style='vertical-align:center; align:center' src=img/fixation3.jpg></div><div class='cl'><div class='vertical-center'>$85<br>in<br>1 week</div></div><div class='cr'><div class='vertical-center'>$31<br><br>now</div></div><div class='respDivL'><div class='vertical-center'>(E)</div></div><div class='respDivR'><div class='vertical-center'>(I)</div></div></div>","E","$31<br><br>now","$85<br>in<br>1 week","1","31","85","1","THEN"
"html-keyboard-response","48","101168","0.0-5.0-3.14","63ea4164c5b33a0d13129c84","bdp_td","Mon Mar 27 2023 16:04:40 GMT-0400 (Eastern Daylight Time)","121938","","null","","","","offerFB","","<div class='trialBorder'><div class='vertical-center'><img style='vertical-align:center; align:center' src=img/fixation3.jpg></div><div class='cl'><div class='vertical-center'><font style='color:orange'>$85<br>in<br>1 week</font></div></div><div class='cr'><div class='vertical-center'>$31<br><br>now</div></div><div class='respDivL'><div class='vertical-center'><font style='color:orange'>(E)</font></div></div><div class='respDivR'><div class='vertical-center'>(I)</div></div></div>","null","$31<br><br>now","$85<br>in<br>1 week","1","31","85","1",""
"html-keyboard-response","49","101680","0.0-5.0-1.15","63ea4164c5b33a0d13129c84","bdp_td","Mon Mar 27 2023 16:04:40 GMT-0400 (Eastern Daylight Time)","121938","","null","","","","FIX","","<div class='trialBorder'><div class='vertical-center'><img style='vertical-align:center; align:center' src=img/fixation3.jpg></div></div>","null","","","","","","",""
"html-keyboard-response","50","102676","0.0-5.0-2.15","63ea4164c5b33a0d13129c84","bdp_td","Mon Mar 27 2023 16:04:40 GMT-0400 (Eastern Daylight Time)","121938","","993","","","","offer","","<div class='trialBorder'><div class='vertical-center'><img style='vertical-align:center; align:center' src=img/fixation3.jpg></div><div class='cl'><div class='vertical-center'>$14<br><br>now</div></div><div class='cr'><div class='vertical-center'>$25<br>in<br>3 weeks</div></div><div class='respDivL'><div class='vertical-center'>(E)</div></div><div class='respDivR'><div class='vertical-center'>(I)</div></div></div>","E","$14<br><br>now","$25<br>in<br>3 weeks","0","14","25","3","NOW"
"html-keyboard-response","51","102929","0.0-5.0-3.15","63ea4164c5b33a0d13129c84","bdp_td","Mon Mar 27 2023 16:04:40 GMT-0400 (Eastern Daylight Time)","121938","","null","","","","offerFB","","<div class='trialBorder'><div class='vertical-center'><img style='vertical-align:center; align:center' src=img/fixation3.jpg></div><div class='cl'><div class='vertical-center'><font style='color:orange'>$14<br><br>now</font></div></div><div class='cr'><div class='vertical-center'>$25<br>in<br>3 weeks</div></div><div class='respDivL'><div class='vertical-center'><font style='color:orange'>(E)</font></div></div><div class='respDivR'><div class='vertical-center'>(I)</div></div></div>","null","$14<br><br>now","$25<br>in<br>3 weeks","0","14","25","3",""
"html-keyboard-response","52","103441","0.0-5.0-1.16","63ea4164c5b33a0d13129c84","bdp_td","Mon Mar 27 2023 16:04:40 GMT-0400 (Eastern Daylight Time)","121938","","null","","","","FIX","","<div class='trialBorder'><div class='vertical-center'><img style='vertical-align:center; align:center' src=img/fixation3.jpg></div></div>","null","","","","","","",""
"html-keyboard-response","53","103876","0.0-5.0-2.16","63ea4164c5b33a0d13129c84","bdp_td","Mon Mar 27 2023 16:04:40 GMT-0400 (Eastern Daylight Time)","121938","","435","","","","offer","","<div class='trialBorder'><div class='vertical-center'><img style='vertical-align:center; align:center' src=img/fixation3.jpg></div><div class='cl'><div class='vertical-center'>$55<br>in<br>6 weeks</div></div><div class='cr'><div class='vertical-center'>$40<br><br>now</div></div><div class='respDivL'><div class='vertical-center'>(E)</div></div><div class='respDivR'><div class='vertical-center'>(I)</div></div></div>","E","$40<br><br>now","$55<br>in<br>6 weeks","1","40","55","6","THEN"
"html-keyboard-response","54","104145","0.0-5.0-3.16","63ea4164c5b33a0d13129c84","bdp_td","Mon Mar 27 2023 16:04:40 GMT-0400 (Eastern Daylight Time)","121938","","null","","","","offerFB","","<div class='trialBorder'><div class='vertical-center'><img style='vertical-align:center; align:center' src=img/fixation3.jpg></div><div class='cl'><div class='vertical-center'><font style='color:orange'>$55<br>in<br>6 weeks</font></div></div><div class='cr'><div class='vertical-center'>$40<br><br>now</div></div><div class='respDivL'><div class='vertical-center'><font style='color:orange'>(E)</font></div></div><div class='respDivR'><div class='vertical-center'>(I)</div></div></div>","null","$40<br><br>now","$55<br>in<br>6 weeks","1","40","55","6",""
"html-keyboard-response","55","104656","0.0-5.0-1.17","63ea4164c5b33a0d13129c84","bdp_td","Mon Mar 27 2023 16:04:40 GMT-0400 (Eastern Daylight Time)","121938","","null","","","","FIX","","<div class='trialBorder'><div class='vertical-center'><img style='vertical-align:center; align:center' src=img/fixation3.jpg></div></div>","null","","","","","","",""
"html-keyboard-response","56","105063","0.0-5.0-2.17","63ea4164c5b33a0d13129c84","bdp_td","Mon Mar 27 2023 16:04:40 GMT-0400 (Eastern Daylight Time)","121938","","406","","","","offer","","<div class='trialBorder'><div class='vertical-center'><img style='vertical-align:center; align:center' src=img/fixation3.jpg></div><div class='cl'><div class='vertical-center'>$67<br><br>now</div></div><div class='cr'><div class='vertical-center'>$75<br>in<br>12 weeks</div></div><div class='respDivL'><div class='vertical-center'>(E)</div></div><div class='respDivR'><div class='vertical-center'>(I)</div></div></div>","I","$67<br><br>now","$75<br>in<br>12 weeks","0","67","75","12","THEN"
"html-keyboard-response","57","105328","0.0-5.0-3.17","63ea4164c5b33a0d13129c84","bdp_td","Mon Mar 27 2023 16:04:40 GMT-0400 (Eastern Daylight Time)","121938","","null","","","","offerFB","","<div class='trialBorder'><div class='vertical-center'><img style='vertical-align:center; align:center' src=img/fixation3.jpg></div><div class='cl'><div class='vertical-center'>$67<br><br>now</div></div><div class='cr'><div class='vertical-center'><font style='color:orange'>$75<br>in<br>12 weeks</font></div></div><div class='respDivL'><div class='vertical-center'>(E)</div></div><div class='respDivR'><div class='vertical-center'><font style='color:orange'>(I)</font></div></div></div>","null","$67<br><br>now","$75<br>in<br>12 weeks","0","67","75","12",""
"html-keyboard-response","58","105841","0.0-5.0-1.18","63ea4164c5b33a0d13129c84","bdp_td","Mon Mar 27 2023 16:04:40 GMT-0400 (Eastern Daylight Time)","121938","","null","","","","FIX","","<div class='trialBorder'><div class='vertical-center'><img style='vertical-align:center; align:center' src=img/fixation3.jpg></div></div>","null","","","","","","",""
"html-keyboard-response","59","106321","0.0-5.0-2.18","63ea4164c5b33a0d13129c84","bdp_td","Mon Mar 27 2023 16:04:40 GMT-0400 (Eastern Daylight Time)","121938","","478","","","","offer","","<div class='trialBorder'><div class='vertical-center'><img style='vertical-align:center; align:center' src=img/fixation3.jpg></div><div class='cl'><div class='vertical-center'>$25<br>in<br>6 weeks</div></div><div class='cr'><div class='vertical-center'>$19<br><br>now</div></div><div class='respDivL'><div class='vertical-center'>(E)</div></div><div class='respDivR'><div class='vertical-center'>(I)</div></div></div>","E","$19<br><br>now","$25<br>in<br>6 weeks","1","19","25","6","THEN"
"html-keyboard-response","60","106577","0.0-5.0-3.18","63ea4164c5b33a0d13129c84","bdp_td","Mon Mar 27 2023 16:04:40 GMT-0400 (Eastern Daylight Time)","121938","","null","","","","offerFB","","<div class='trialBorder'><div class='vertical-center'><img style='vertical-align:center; align:center' src=img/fixation3.jpg></div><div class='cl'><div class='vertical-center'><font style='color:orange'>$25<br>in<br>6 weeks</font></div></div><div class='cr'><div class='vertical-center'>$19<br><br>now</div></div><div class='respDivL'><div class='vertical-center'><font style='color:orange'>(E)</font></div></div><div class='respDivR'><div class='vertical-center'>(I)</div></div></div>","null","$19<br><br>now","$25<br>in<br>6 weeks","1","19","25","6",""
"html-keyboard-response","61","107088","0.0-5.0-1.19","63ea4164c5b33a0d13129c84","bdp_td","Mon Mar 27 2023 16:04:40 GMT-0400 (Eastern Daylight Time)","121938","","null","","","","FIX","","<div class='trialBorder'><div class='vertical-center'><img style='vertical-align:center; align:center' src=img/fixation3.jpg></div></div>","null","","","","","","",""
"html-keyboard-response","62","107745","0.0-5.0-2.19","63ea4164c5b33a0d13129c84","bdp_td","Mon Mar 27 2023 16:04:40 GMT-0400 (Eastern Daylight Time)","121938","","655","","","","offer","","<div class='trialBorder'><div class='vertical-center'><img style='vertical-align:center; align:center' src=img/fixation3.jpg></div><div class='cl'><div class='vertical-center'>$30<br>in<br>6 weeks</div></div><div class='cr'><div class='vertical-center'>$25<br><br>now</div></div><div class='respDivL'><div class='vertical-center'>(E)</div></div><div class='respDivR'><div class='vertical-center'>(I)</div></div></div>","E","$25<br><br>now","$30<br>in<br>6 weeks","1","25","30","6","THEN"
"html-keyboard-response","63","108000","0.0-5.0-3.19","63ea4164c5b33a0d13129c84","bdp_td","Mon Mar 27 2023 16:04:40 GMT-0400 (Eastern Daylight Time)","121938","","null","","","","offerFB","","<div class='trialBorder'><div class='vertical-center'><img style='vertical-align:center; align:center' src=img/fixation3.jpg></div><div class='cl'><div class='vertical-center'><font style='color:orange'>$30<br>in<br>6 weeks</font></div></div><div class='cr'><div class='vertical-center'>$25<br><br>now</div></div><div class='respDivL'><div class='vertical-center'><font style='color:orange'>(E)</font></div></div><div class='respDivR'><div class='vertical-center'>(I)</div></div></div>","null","$25<br><br>now","$30<br>in<br>6 weeks","1","25","30","6",""
"html-keyboard-response","64","108512","0.0-5.0-1.20","63ea4164c5b33a0d13129c84","bdp_td","Mon Mar 27 2023 16:04:40 GMT-0400 (Eastern Daylight Time)","121938","","null","","","","FIX","","<div class='trialBorder'><div class='vertical-center'><img style='vertical-align:center; align:center' src=img/fixation3.jpg></div></div>","null","","","","","","",""
"html-keyboard-response","65","109449","0.0-5.0-2.20","63ea4164c5b33a0d13129c84","bdp_td","Mon Mar 27 2023 16:04:40 GMT-0400 (Eastern Daylight Time)","121938","","935","","","","offer","","<div class='trialBorder'><div class='vertical-center'><img style='vertical-align:center; align:center' src=img/fixation3.jpg></div><div class='cl'><div class='vertical-center'>$75<br>in<br>6 weeks</div></div><div class='cr'><div class='vertical-center'>$55<br><br>now</div></div><div class='respDivL'><div class='vertical-center'>(E)</div></div><div class='respDivR'><div class='vertical-center'>(I)</div></div></div>","E","$55<br><br>now","$75<br>in<br>6 weeks","1","55","75","6","THEN"
"html-keyboard-response","66","109712","0.0-5.0-3.20","63ea4164c5b33a0d13129c84","bdp_td","Mon Mar 27 2023 16:04:40 GMT-0400 (Eastern Daylight Time)","121938","","null","","","","offerFB","","<div class='trialBorder'><div class='vertical-center'><img style='vertical-align:center; align:center' src=img/fixation3.jpg></div><div class='cl'><div class='vertical-center'><font style='color:orange'>$75<br>in<br>6 weeks</font></div></div><div class='cr'><div class='vertical-center'>$55<br><br>now</div></div><div class='respDivL'><div class='vertical-center'><font style='color:orange'>(E)</font></div></div><div class='respDivR'><div class='vertical-center'>(I)</div></div></div>","null","$55<br><br>now","$75<br>in<br>6 weeks","1","55","75","6",""
"html-keyboard-response","67","110224","0.0-5.0-1.21","63ea4164c5b33a0d13129c84","bdp_td","Mon Mar 27 2023 16:04:40 GMT-0400 (Eastern Daylight Time)","121938","","null","","","","FIX","","<div class='trialBorder'><div class='vertical-center'><img style='vertical-align:center; align:center' src=img/fixation3.jpg></div></div>","null","","","","","","",""
"html-keyboard-response","68","111407","0.0-5.0-2.21","63ea4164c5b33a0d13129c84","bdp_td","Mon Mar 27 2023 16:04:40 GMT-0400 (Eastern Daylight Time)","121938","","1180","","","","offer","","<div class='trialBorder'><div class='vertical-center'><img style='vertical-align:center; align:center' src=img/fixation3.jpg></div><div class='cl'><div class='vertical-center'>$35<br>in<br>3 weeks</div></div><div class='cr'><div class='vertical-center'>$24<br><br>now</div></div><div class='respDivL'><div class='vertical-center'>(E)</div></div><div class='respDivR'><div class='vertical-center'>(I)</div></div></div>","E","$24<br><br>now","$35<br>in<br>3 weeks","1","24","35","3","THEN"
"html-keyboard-response","69","111665","0.0-5.0-3.21","63ea4164c5b33a0d13129c84","bdp_td","Mon Mar 27 2023 16:04:40 GMT-0400 (Eastern Daylight Time)","121938","","null","","","","offerFB","","<div class='trialBorder'><div class='vertical-center'><img style='vertical-align:center; align:center' src=img/fixation3.jpg></div><div class='cl'><div class='vertical-center'><font style='color:orange'>$35<br>in<br>3 weeks</font></div></div><div class='cr'><div class='vertical-center'>$24<br><br>now</div></div><div class='respDivL'><div class='vertical-center'><font style='color:orange'>(E)</font></div></div><div class='respDivR'><div class='vertical-center'>(I)</div></div></div>","null","$24<br><br>now","$35<br>in<br>3 weeks","1","24","35","3",""
"html-keyboard-response","70","112177","0.0-5.0-1.22","63ea4164c5b33a0d13129c84","bdp_td","Mon Mar 27 2023 16:04:40 GMT-0400 (Eastern Daylight Time)","121938","","null","","","","FIX","","<div class='trialBorder'><div class='vertical-center'><img style='vertical-align:center; align:center' src=img/fixation3.jpg></div></div>","null","","","","","","",""
"html-keyboard-response","71","114242","0.0-5.0-2.22","63ea4164c5b33a0d13129c84","bdp_td","Mon Mar 27 2023 16:04:40 GMT-0400 (Eastern Daylight Time)","121938","","2063","","","","offer","","<div class='trialBorder'><div class='vertical-center'><img style='vertical-align:center; align:center' src=img/fixation3.jpg></div><div class='cl'><div class='vertical-center'>$80<br><br>now</div></div><div class='cr'><div class='vertical-center'>$85<br>in<br>12 weeks</div></div><div class='respDivL'><div class='vertical-center'>(E)</div></div><div class='respDivR'><div class='vertical-center'>(I)</div></div></div>","E","$80<br><br>now","$85<br>in<br>12 weeks","0","80","85","12","NOW"
"html-keyboard-response","72","114496","0.0-5.0-3.22","63ea4164c5b33a0d13129c84","bdp_td","Mon Mar 27 2023 16:04:40 GMT-0400 (Eastern Daylight Time)","121938","","null","","","","offerFB","","<div class='trialBorder'><div class='vertical-center'><img style='vertical-align:center; align:center' src=img/fixation3.jpg></div><div class='cl'><div class='vertical-center'><font style='color:orange'>$80<br><br>now</font></div></div><div class='cr'><div class='vertical-center'>$85<br>in<br>12 weeks</div></div><div class='respDivL'><div class='vertical-center'><font style='color:orange'>(E)</font></div></div><div class='respDivR'><div class='vertical-center'>(I)</div></div></div>","null","$80<br><br>now","$85<br>in<br>12 weeks","0","80","85","12",""
"html-keyboard-response","73","115008","0.0-5.0-1.23","63ea4164c5b33a0d13129c84","bdp_td","Mon Mar 27 2023 16:04:40 GMT-0400 (Eastern Daylight Time)","121938","","null","","","","FIX","","<div class='trialBorder'><div class='vertical-center'><img style='vertical-align:center; align:center' src=img/fixation3.jpg></div></div>","null","","","","","","",""
"html-keyboard-response","74","116466","0.0-5.0-2.23","63ea4164c5b33a0d13129c84","bdp_td","Mon Mar 27 2023 16:04:40 GMT-0400 (Eastern Daylight Time)","121938","","1457","","","","offer","","<div class='trialBorder'><div class='vertical-center'><img style='vertical-align:center; align:center' src=img/fixation3.jpg></div><div class='cl'><div class='vertical-center'>$75<br>in<br>3 weeks</div></div><div class='cr'><div class='vertical-center'>$41<br><br>now</div></div><div class='respDivL'><div class='vertical-center'>(E)</div></div><div class='respDivR'><div class='vertical-center'>(I)</div></div></div>","I","$41<br><br>now","$75<br>in<br>3 weeks","1","41","75","3","NOW"
"html-keyboard-response","75","116720","0.0-5.0-3.23","63ea4164c5b33a0d13129c84","bdp_td","Mon Mar 27 2023 16:04:40 GMT-0400 (Eastern Daylight Time)","121938","","null","","","","offerFB","","<div class='trialBorder'><div class='vertical-center'><img style='vertical-align:center; align:center' src=img/fixation3.jpg></div><div class='cl'><div class='vertical-center'>$75<br>in<br>3 weeks</div></div><div class='cr'><div class='vertical-center'><font style='color:orange'>$41<br><br>now</font></div></div><div class='respDivL'><div class='vertical-center'>(E)</div></div><div class='respDivR'><div class='vertical-center'><font style='color:orange'>(I)</font></div></div></div>","null","$41<br><br>now","$75<br>in<br>3 weeks","1","41","75","3",""
"html-keyboard-response","76","117233","0.0-5.0-1.24","63ea4164c5b33a0d13129c84","bdp_td","Mon Mar 27 2023 16:04:40 GMT-0400 (Eastern Daylight Time)","121938","","null","","","","FIX","","<div class='trialBorder'><div class='vertical-center'><img style='vertical-align:center; align:center' src=img/fixation3.jpg></div></div>","null","","","","","","",""
"html-keyboard-response","77","118092","0.0-5.0-2.24","63ea4164c5b33a0d13129c84","bdp_td","Mon Mar 27 2023 16:04:40 GMT-0400 (Eastern Daylight Time)","121938","","858","","","","offer","","<div class='trialBorder'><div class='vertical-center'><img style='vertical-align:center; align:center' src=img/fixation3.jpg></div><div class='cl'><div class='vertical-center'>$69<br><br>now</div></div><div class='cr'><div class='vertical-center'>$85<br>in<br>6 weeks</div></div><div class='respDivL'><div class='vertical-center'>(E)</div></div><div class='respDivR'><div class='vertical-center'>(I)</div></div></div>","E","$69<br><br>now","$85<br>in<br>6 weeks","0","69","85","6","NOW"
"html-keyboard-response","78","118353","0.0-5.0-3.24","63ea4164c5b33a0d13129c84","bdp_td","Mon Mar 27 2023 16:04:40 GMT-0400 (Eastern Daylight Time)","121938","","null","","","","offerFB","","<div class='trialBorder'><div class='vertical-center'><img style='vertical-align:center; align:center' src=img/fixation3.jpg></div><div class='cl'><div class='vertical-center'><font style='color:orange'>$69<br><br>now</font></div></div><div class='cr'><div class='vertical-center'>$85<br>in<br>6 weeks</div></div><div class='respDivL'><div class='vertical-center'><font style='color:orange'>(E)</font></div></div><div class='respDivR'><div class='vertical-center'>(I)</div></div></div>","null","$69<br><br>now","$85<br>in<br>6 weeks","0","69","85","6",""
"html-keyboard-response","79","118865","0.0-5.0-1.25","63ea4164c5b33a0d13129c84","bdp_td","Mon Mar 27 2023 16:04:40 GMT-0400 (Eastern Daylight Time)","121938","","null","","","","FIX","","<div class='trialBorder'><div class='vertical-center'><img style='vertical-align:center; align:center' src=img/fixation3.jpg></div></div>","null","","","","","","",""
"html-keyboard-response","80","119039","0.0-5.0-2.25","63ea4164c5b33a0d13129c84","bdp_td","Mon Mar 27 2023 16:04:40 GMT-0400 (Eastern Daylight Time)","121938","","172","","","","offer","","<div class='trialBorder'><div class='vertical-center'><img style='vertical-align:center; align:center' src=img/fixation3.jpg></div><div class='cl'><div class='vertical-center'>$34<br><br>now</div></div><div class='cr'><div class='vertical-center'>$50<br>in<br>6 weeks</div></div><div class='respDivL'><div class='vertical-center'>(E)</div></div><div class='respDivR'><div class='vertical-center'>(I)</div></div></div>","E","$34<br><br>now","$50<br>in<br>6 weeks","0","34","50","6","NOW"
"html-keyboard-response","81","119296","0.0-5.0-3.25","63ea4164c5b33a0d13129c84","bdp_td","Mon Mar 27 2023 16:04:40 GMT-0400 (Eastern Daylight Time)","121938","","null","","","","offerFB","","<div class='trialBorder'><div class='vertical-center'><img style='vertical-align:center; align:center' src=img/fixation3.jpg></div><div class='cl'><div class='vertical-center'><font style='color:orange'>$34<br><br>now</font></div></div><div class='cr'><div class='vertical-center'>$50<br>in<br>6 weeks</div></div><div class='respDivL'><div class='vertical-center'><font style='color:orange'>(E)</font></div></div><div class='respDivR'><div class='vertical-center'>(I)</div></div></div>","null","$34<br><br>now","$50<br>in<br>6 weeks","0","34","50","6",""
"html-keyboard-response","82","119809","0.0-5.0-1.26","63ea4164c5b33a0d13129c84","bdp_td","Mon Mar 27 2023 16:04:40 GMT-0400 (Eastern Daylight Time)","121938","","null","","","","FIX","","<div class='trialBorder'><div class='vertical-center'><img style='vertical-align:center; align:center' src=img/fixation3.jpg></div></div>","null","","","","","","",""
"html-keyboard-response","83","120667","0.0-5.0-2.26","63ea4164c5b33a0d13129c84","bdp_td","Mon Mar 27 2023 16:04:40 GMT-0400 (Eastern Daylight Time)","121938","","855","","","","offer","","<div class='trialBorder'><div class='vertical-center'><img style='vertical-align:center; align:center' src=img/fixation3.jpg></div><div class='cl'><div class='vertical-center'>$78<br><br>now</div></div><div class='cr'><div class='vertical-center'>$80<br>in<br>12 weeks</div></div><div class='respDivL'><div class='vertical-center'>(E)</div></div><div class='respDivR'><div class='vertical-center'>(I)</div></div></div>","E","$78<br><br>now","$80<br>in<br>12 weeks","0","78","80","12","NOW"
"html-keyboard-response","84","120929","0.0-5.0-3.26","63ea4164c5b33a0d13129c84","bdp_td","Mon Mar 27 2023 16:04:40 GMT-0400 (Eastern Daylight Time)","121938","","null","","","","offerFB","","<div class='trialBorder'><div class='vertical-center'><img style='vertical-align:center; align:center' src=img/fixation3.jpg></div><div class='cl'><div class='vertical-center'><font style='color:orange'>$78<br><br>now</font></div></div><div class='cr'><div class='vertical-center'>$80<br>in<br>12 weeks</div></div><div class='respDivL'><div class='vertical-center'><font style='color:orange'>(E)</font></div></div><div class='respDivR'><div class='vertical-center'>(I)</div></div></div>","null","$78<br><br>now","$80<br>in<br>12 weeks","0","78","80","12",""
"","","","","63ea4164c5b33a0d13129c84","bdp_td","Mon Mar 27 2023 16:04:40 GMT-0400 (Eastern Daylight Time)","121938","","","fullscreenexit","85","120941","fullscreenexit","","","","","","","","","",""
"fullscreen","85","121937","0.0-6.0","63ea4164c5b33a0d13129c84","bdp_td","Mon Mar 27 2023 16:04:40 GMT-0400 (Eastern Daylight Time)","121938","","","","","","","true","","","","","","","","",""
"html-keyboard-response","86","122450","0.0-7.0","","","","","","null","","","","","","","null","","","","","","",""
