"trial_type","trial_index","time_elapsed","internal_node_id","subject_id","task","startTime","totalTime","view_history","rt","event","trial","time","trialtype","success","stimulus","key_press","nowOffer","thenOffer","thenLeft","nowAmt","thenAmt","thenWeeks","chosen"
"pavlovia","0","2","0.0-0.0","63b6cc23f13731158517f900","bdp_td","Tue Apr 11 2023 01:03:41 GMT-0600 (Mountain Daylight Time)","103096","","","","","","","","","","","","","","","",""
"instructions","1","1500","0.0-1.0","63b6cc23f13731158517f900","bdp_td","Tue Apr 11 2023 01:03:41 GMT-0600 (Mountain Daylight Time)","103096","[{""page_index"":0,""viewing_time"":1497}]","1497","","","","","","","","","","","","","",""
"","","","","63b6cc23f13731158517f900","bdp_td","Tue Apr 11 2023 01:03:41 GMT-0600 (Mountain Daylight Time)","103096","","","fullscreenenter","2","3633","fullscreenenter","","","","","","","","","",""
"fullscreen","2","4618","0.0-2.0","63b6cc23f13731158517f900","bdp_td","Tue Apr 11 2023 01:03:41 GMT-0600 (Mountain Daylight Time)","103096","","","","","","","true","","","","","","","","",""
"instructions","3","21285","0.0-4.0","63b6cc23f13731158517f900","bdp_td","Tue Apr 11 2023 01:03:41 GMT-0600 (Mountain Daylight Time)","103096","[{""page_index"":0,""viewing_time"":5177},{""page_index"":1,""viewing_time"":5973},{""page_index"":2,""viewing_time"":5515}]","16666","","","","","","","","","","","","","",""
"html-keyboard-response","4","21786","0.0-5.0-1.0","63b6cc23f13731158517f900","bdp_td","Tue Apr 11 2023 01:03:41 GMT-0600 (Mountain Daylight Time)","103096","","null","","","","FIX","","<div class='trialBorder'><div class='vertical-center'><img style='vertical-align:center; align:center' src=img/fixation3.jpg></div></div>","null","","","","","","",""
"html-keyboard-response","5","25688","0.0-5.0-2.0","63b6cc23f13731158517f900","bdp_td","Tue Apr 11 2023 01:03:41 GMT-0600 (Mountain Daylight Time)","103096","","3902","","","","offer","","<div class='trialBorder'><div class='vertical-center'><img style='vertical-align:center; align:center' src=img/fixation3.jpg></div><div class='cl'><div class='vertical-center'>$50<br>in<br>12 weeks</div></div><div class='cr'><div class='vertical-center'>$47<br><br>now</div></div><div class='respDivL'><div class='vertical-center'>(E)</div></div><div class='respDivR'><div class='vertical-center'>(I)</div></div></div>","I","$47<br><br>now","$50<br>in<br>12 weeks","1","47","50","12","NOW"
"html-keyboard-response","6","25939","0.0-5.0-3.0","63b6cc23f13731158517f900","bdp_td","Tue Apr 11 2023 01:03:41 GMT-0600 (Mountain Daylight Time)","103096","","null","","","","offerFB","","<div class='trialBorder'><div class='vertical-center'><img style='vertical-align:center; align:center' src=img/fixation3.jpg></div><div class='cl'><div class='vertical-center'>$50<br>in<br>12 weeks</div></div><div class='cr'><div class='vertical-center'><font style='color:orange'>$47<br><br>now</font></div></div><div class='respDivL'><div class='vertical-center'>(E)</div></div><div class='respDivR'><div class='vertical-center'><font style='color:orange'>(I)</font></div></div></div>","null","$47<br><br>now","$50<br>in<br>12 weeks","1","47","50","12",""
"html-keyboard-response","7","26440","0.0-5.0-1.1","63b6cc23f13731158517f900","bdp_td","Tue Apr 11 2023 01:03:41 GMT-0600 (Mountain Daylight Time)","103096","","null","","","","FIX","","<div class='trialBorder'><div class='vertical-center'><img style='vertical-align:center; align:center' src=img/fixation3.jpg></div></div>","null","","","","","","",""
"html-keyboard-response","8","29531","0.0-5.0-2.1","63b6cc23f13731158517f900","bdp_td","Tue Apr 11 2023 01:03:41 GMT-0600 (Mountain Daylight Time)","103096","","3090","","","","offer","","<div class='trialBorder'><div class='vertical-center'><img style='vertical-align:center; align:center' src=img/fixation3.jpg></div><div class='cl'><div class='vertical-center'>$22<br><br>now</div></div><div class='cr'><div class='vertical-center'>$25<br>in<br>12 weeks</div></div><div class='respDivL'><div class='vertical-center'>(E)</div></div><div class='respDivR'><div class='vertical-center'>(I)</div></div></div>","E","$22<br><br>now","$25<br>in<br>12 weeks","0","22","25","12","NOW"
"html-keyboard-response","9","29783","0.0-5.0-3.1","63b6cc23f13731158517f900","bdp_td","Tue Apr 11 2023 01:03:41 GMT-0600 (Mountain Daylight Time)","103096","","null","","","","offerFB","","<div class='trialBorder'><div class='vertical-center'><img style='vertical-align:center; align:center' src=img/fixation3.jpg></div><div class='cl'><div class='vertical-center'><font style='color:orange'>$22<br><br>now</font></div></div><div class='cr'><div class='vertical-center'>$25<br>in<br>12 weeks</div></div><div class='respDivL'><div class='vertical-center'><font style='color:orange'>(E)</font></div></div><div class='respDivR'><div class='vertical-center'>(I)</div></div></div>","null","$22<br><br>now","$25<br>in<br>12 weeks","0","22","25","12",""
"html-keyboard-response","10","30284","0.0-5.0-1.2","63b6cc23f13731158517f900","bdp_td","Tue Apr 11 2023 01:03:41 GMT-0600 (Mountain Daylight Time)","103096","","null","","","","FIX","","<div class='trialBorder'><div class='vertical-center'><img style='vertical-align:center; align:center' src=img/fixation3.jpg></div></div>","null","","","","","","",""
"html-keyboard-response","11","33365","0.0-5.0-2.2","63b6cc23f13731158517f900","bdp_td","Tue Apr 11 2023 01:03:41 GMT-0600 (Mountain Daylight Time)","103096","","3080","","","","offer","","<div class='trialBorder'><div class='vertical-center'><img style='vertical-align:center; align:center' src=img/fixation3.jpg></div><div class='cl'><div class='vertical-center'>$28<br><br>now</div></div><div class='cr'><div class='vertical-center'>$30<br>in<br>12 weeks</div></div><div class='respDivL'><div class='vertical-center'>(E)</div></div><div class='respDivR'><div class='vertical-center'>(I)</div></div></div>","E","$28<br><br>now","$30<br>in<br>12 weeks","0","28","30","12","NOW"
"html-keyboard-response","12","33616","0.0-5.0-3.2","63b6cc23f13731158517f900","bdp_td","Tue Apr 11 2023 01:03:41 GMT-0600 (Mountain Daylight Time)","103096","","null","","","","offerFB","","<div class='trialBorder'><div class='vertical-center'><img style='vertical-align:center; align:center' src=img/fixation3.jpg></div><div class='cl'><div class='vertical-center'><font style='color:orange'>$28<br><br>now</font></div></div><div class='cr'><div class='vertical-center'>$30<br>in<br>12 weeks</div></div><div class='respDivL'><div class='vertical-center'><font style='color:orange'>(E)</font></div></div><div class='respDivR'><div class='vertical-center'>(I)</div></div></div>","null","$28<br><br>now","$30<br>in<br>12 weeks","0","28","30","12",""
"html-keyboard-response","13","34118","0.0-5.0-1.3","63b6cc23f13731158517f900","bdp_td","Tue Apr 11 2023 01:03:41 GMT-0600 (Mountain Daylight Time)","103096","","null","","","","FIX","","<div class='trialBorder'><div class='vertical-center'><img style='vertical-align:center; align:center' src=img/fixation3.jpg></div></div>","null","","","","","","",""
"html-keyboard-response","14","37701","0.0-5.0-2.3","63b6cc23f13731158517f900","bdp_td","Tue Apr 11 2023 01:03:41 GMT-0600 (Mountain Daylight Time)","103096","","3583","","","","offer","","<div class='trialBorder'><div class='vertical-center'><img style='vertical-align:center; align:center' src=img/fixation3.jpg></div><div class='cl'><div class='vertical-center'>$19<br><br>now</div></div><div class='cr'><div class='vertical-center'>$25<br>in<br>6 weeks</div></div><div class='respDivL'><div class='vertical-center'>(E)</div></div><div class='respDivR'><div class='vertical-center'>(I)</div></div></div>","I","$19<br><br>now","$25<br>in<br>6 weeks","0","19","25","6","THEN"
"html-keyboard-response","15","37953","0.0-5.0-3.3","63b6cc23f13731158517f900","bdp_td","Tue Apr 11 2023 01:03:41 GMT-0600 (Mountain Daylight Time)","103096","","null","","","","offerFB","","<div class='trialBorder'><div class='vertical-center'><img style='vertical-align:center; align:center' src=img/fixation3.jpg></div><div class='cl'><div class='vertical-center'>$19<br><br>now</div></div><div class='cr'><div class='vertical-center'><font style='color:orange'>$25<br>in<br>6 weeks</font></div></div><div class='respDivL'><div class='vertical-center'>(E)</div></div><div class='respDivR'><div class='vertical-center'><font style='color:orange'>(I)</font></div></div></div>","null","$19<br><br>now","$25<br>in<br>6 weeks","0","19","25","6",""
"html-keyboard-response","16","38454","0.0-5.0-1.4","63b6cc23f13731158517f900","bdp_td","Tue Apr 11 2023 01:03:41 GMT-0600 (Mountain Daylight Time)","103096","","null","","","","FIX","","<div class='trialBorder'><div class='vertical-center'><img style='vertical-align:center; align:center' src=img/fixation3.jpg></div></div>","null","","","","","","",""
"html-keyboard-response","17","41296","0.0-5.0-2.4","63b6cc23f13731158517f900","bdp_td","Tue Apr 11 2023 01:03:41 GMT-0600 (Mountain Daylight Time)","103096","","2842","","","","offer","","<div class='trialBorder'><div class='vertical-center'><img style='vertical-align:center; align:center' src=img/fixation3.jpg></div><div class='cl'><div class='vertical-center'>$30<br>in<br>2 weeks</div></div><div class='cr'><div class='vertical-center'>$11<br><br>now</div></div><div class='respDivL'><div class='vertical-center'>(E)</div></div><div class='respDivR'><div class='vertical-center'>(I)</div></div></div>","E","$11<br><br>now","$30<br>in<br>2 weeks","1","11","30","2","THEN"
"html-keyboard-response","18","41547","0.0-5.0-3.4","63b6cc23f13731158517f900","bdp_td","Tue Apr 11 2023 01:03:41 GMT-0600 (Mountain Daylight Time)","103096","","null","","","","offerFB","","<div class='trialBorder'><div class='vertical-center'><img style='vertical-align:center; align:center' src=img/fixation3.jpg></div><div class='cl'><div class='vertical-center'><font style='color:orange'>$30<br>in<br>2 weeks</font></div></div><div class='cr'><div class='vertical-center'>$11<br><br>now</div></div><div class='respDivL'><div class='vertical-center'><font style='color:orange'>(E)</font></div></div><div class='respDivR'><div class='vertical-center'>(I)</div></div></div>","null","$11<br><br>now","$30<br>in<br>2 weeks","1","11","30","2",""
"html-keyboard-response","19","42048","0.0-5.0-1.5","63b6cc23f13731158517f900","bdp_td","Tue Apr 11 2023 01:03:41 GMT-0600 (Mountain Daylight Time)","103096","","null","","","","FIX","","<div class='trialBorder'><div class='vertical-center'><img style='vertical-align:center; align:center' src=img/fixation3.jpg></div></div>","null","","","","","","",""
"html-keyboard-response","20","44140","0.0-5.0-2.5","63b6cc23f13731158517f900","bdp_td","Tue Apr 11 2023 01:03:41 GMT-0600 (Mountain Daylight Time)","103096","","2091","","","","offer","","<div class='trialBorder'><div class='vertical-center'><img style='vertical-align:center; align:center' src=img/fixation3.jpg></div><div class='cl'><div class='vertical-center'>$55<br>in<br>12 weeks</div></div><div class='cr'><div class='vertical-center'>$54<br><br>now</div></div><div class='respDivL'><div class='vertical-center'>(E)</div></div><div class='respDivR'><div class='vertical-center'>(I)</div></div></div>","I","$54<br><br>now","$55<br>in<br>12 weeks","1","54","55","12","NOW"
"html-keyboard-response","21","44391","0.0-5.0-3.5","63b6cc23f13731158517f900","bdp_td","Tue Apr 11 2023 01:03:41 GMT-0600 (Mountain Daylight Time)","103096","","null","","","","offerFB","","<div class='trialBorder'><div class='vertical-center'><img style='vertical-align:center; align:center' src=img/fixation3.jpg></div><div class='cl'><div class='vertical-center'>$55<br>in<br>12 weeks</div></div><div class='cr'><div class='vertical-center'><font style='color:orange'>$54<br><br>now</font></div></div><div class='respDivL'><div class='vertical-center'>(E)</div></div><div class='respDivR'><div class='vertical-center'><font style='color:orange'>(I)</font></div></div></div>","null","$54<br><br>now","$55<br>in<br>12 weeks","1","54","55","12",""
"html-keyboard-response","22","44892","0.0-5.0-1.6","63b6cc23f13731158517f900","bdp_td","Tue Apr 11 2023 01:03:41 GMT-0600 (Mountain Daylight Time)","103096","","null","","","","FIX","","<div class='trialBorder'><div class='vertical-center'><img style='vertical-align:center; align:center' src=img/fixation3.jpg></div></div>","null","","","","","","",""
"html-keyboard-response","23","47361","0.0-5.0-2.6","63b6cc23f13731158517f900","bdp_td","Tue Apr 11 2023 01:03:41 GMT-0600 (Mountain Daylight Time)","103096","","2468","","","","offer","","<div class='trialBorder'><div class='vertical-center'><img style='vertical-align:center; align:center' src=img/fixation3.jpg></div><div class='cl'><div class='vertical-center'>$78<br><br>now</div></div><div class='cr'><div class='vertical-center'>$80<br>in<br>12 weeks</div></div><div class='respDivL'><div class='vertical-center'>(E)</div></div><div class='respDivR'><div class='vertical-center'>(I)</div></div></div>","E","$78<br><br>now","$80<br>in<br>12 weeks","0","78","80","12","NOW"
"html-keyboard-response","24","47613","0.0-5.0-3.6","63b6cc23f13731158517f900","bdp_td","Tue Apr 11 2023 01:03:41 GMT-0600 (Mountain Daylight Time)","103096","","null","","","","offerFB","","<div class='trialBorder'><div class='vertical-center'><img style='vertical-align:center; align:center' src=img/fixation3.jpg></div><div class='cl'><div class='vertical-center'><font style='color:orange'>$78<br><br>now</font></div></div><div class='cr'><div class='vertical-center'>$80<br>in<br>12 weeks</div></div><div class='respDivL'><div class='vertical-center'><font style='color:orange'>(E)</font></div></div><div class='respDivR'><div class='vertical-center'>(I)</div></div></div>","null","$78<br><br>now","$80<br>in<br>12 weeks","0","78","80","12",""
"html-keyboard-response","25","48114","0.0-5.0-1.7","63b6cc23f13731158517f900","bdp_td","Tue Apr 11 2023 01:03:41 GMT-0600 (Mountain Daylight Time)","103096","","null","","","","FIX","","<div class='trialBorder'><div class='vertical-center'><img style='vertical-align:center; align:center' src=img/fixation3.jpg></div></div>","null","","","","","","",""
"html-keyboard-response","26","49960","0.0-5.0-2.7","63b6cc23f13731158517f900","bdp_td","Tue Apr 11 2023 01:03:41 GMT-0600 (Mountain Daylight Time)","103096","","1846","","","","offer","","<div class='trialBorder'><div class='vertical-center'><img style='vertical-align:center; align:center' src=img/fixation3.jpg></div><div class='cl'><div class='vertical-center'>$85<br>in<br>1 week</div></div><div class='cr'><div class='vertical-center'>$31<br><br>now</div></div><div class='respDivL'><div class='vertical-center'>(E)</div></div><div class='respDivR'><div class='vertical-center'>(I)</div></div></div>","E","$31<br><br>now","$85<br>in<br>1 week","1","31","85","1","THEN"
"html-keyboard-response","27","50211","0.0-5.0-3.7","63b6cc23f13731158517f900","bdp_td","Tue Apr 11 2023 01:03:41 GMT-0600 (Mountain Daylight Time)","103096","","null","","","","offerFB","","<div class='trialBorder'><div class='vertical-center'><img style='vertical-align:center; align:center' src=img/fixation3.jpg></div><div class='cl'><div class='vertical-center'><font style='color:orange'>$85<br>in<br>1 week</font></div></div><div class='cr'><div class='vertical-center'>$31<br><br>now</div></div><div class='respDivL'><div class='vertical-center'><font style='color:orange'>(E)</font></div></div><div class='respDivR'><div class='vertical-center'>(I)</div></div></div>","null","$31<br><br>now","$85<br>in<br>1 week","1","31","85","1",""
"html-keyboard-response","28","50712","0.0-5.0-1.8","63b6cc23f13731158517f900","bdp_td","Tue Apr 11 2023 01:03:41 GMT-0600 (Mountain Daylight Time)","103096","","null","","","","FIX","","<div class='trialBorder'><div class='vertical-center'><img style='vertical-align:center; align:center' src=img/fixation3.jpg></div></div>","null","","","","","","",""
"html-keyboard-response","29","54051","0.0-5.0-2.8","63b6cc23f13731158517f900","bdp_td","Tue Apr 11 2023 01:03:41 GMT-0600 (Mountain Daylight Time)","103096","","3338","","","","offer","","<div class='trialBorder'><div class='vertical-center'><img style='vertical-align:center; align:center' src=img/fixation3.jpg></div><div class='cl'><div class='vertical-center'>$30<br>in<br>6 weeks</div></div><div class='cr'><div class='vertical-center'>$25<br><br>now</div></div><div class='respDivL'><div class='vertical-center'>(E)</div></div><div class='respDivR'><div class='vertical-center'>(I)</div></div></div>","E","$25<br><br>now","$30<br>in<br>6 weeks","1","25","30","6","THEN"
"html-keyboard-response","30","54303","0.0-5.0-3.8","63b6cc23f13731158517f900","bdp_td","Tue Apr 11 2023 01:03:41 GMT-0600 (Mountain Daylight Time)","103096","","null","","","","offerFB","","<div class='trialBorder'><div class='vertical-center'><img style='vertical-align:center; align:center' src=img/fixation3.jpg></div><div class='cl'><div class='vertical-center'><font style='color:orange'>$30<br>in<br>6 weeks</font></div></div><div class='cr'><div class='vertical-center'>$25<br><br>now</div></div><div class='respDivL'><div class='vertical-center'><font style='color:orange'>(E)</font></div></div><div class='respDivR'><div class='vertical-center'>(I)</div></div></div>","null","$25<br><br>now","$30<br>in<br>6 weeks","1","25","30","6",""
"html-keyboard-response","31","54804","0.0-5.0-1.9","63b6cc23f13731158517f900","bdp_td","Tue Apr 11 2023 01:03:41 GMT-0600 (Mountain Daylight Time)","103096","","null","","","","FIX","","<div class='trialBorder'><div class='vertical-center'><img style='vertical-align:center; align:center' src=img/fixation3.jpg></div></div>","null","","","","","","",""
"html-keyboard-response","32","57084","0.0-5.0-2.9","63b6cc23f13731158517f900","bdp_td","Tue Apr 11 2023 01:03:41 GMT-0600 (Mountain Daylight Time)","103096","","2279","","","","offer","","<div class='trialBorder'><div class='vertical-center'><img style='vertical-align:center; align:center' src=img/fixation3.jpg></div><div class='cl'><div class='vertical-center'>$75<br>in<br>12 weeks</div></div><div class='cr'><div class='vertical-center'>$67<br><br>now</div></div><div class='respDivL'><div class='vertical-center'>(E)</div></div><div class='respDivR'><div class='vertical-center'>(I)</div></div></div>","E","$67<br><br>now","$75<br>in<br>12 weeks","1","67","75","12","THEN"
"html-keyboard-response","33","57335","0.0-5.0-3.9","63b6cc23f13731158517f900","bdp_td","Tue Apr 11 2023 01:03:41 GMT-0600 (Mountain Daylight Time)","103096","","null","","","","offerFB","","<div class='trialBorder'><div class='vertical-center'><img style='vertical-align:center; align:center' src=img/fixation3.jpg></div><div class='cl'><div class='vertical-center'><font style='color:orange'>$75<br>in<br>12 weeks</font></div></div><div class='cr'><div class='vertical-center'>$67<br><br>now</div></div><div class='respDivL'><div class='vertical-center'><font style='color:orange'>(E)</font></div></div><div class='respDivR'><div class='vertical-center'>(I)</div></div></div>","null","$67<br><br>now","$75<br>in<br>12 weeks","1","67","75","12",""
"html-keyboard-response","34","57836","0.0-5.0-1.10","63b6cc23f13731158517f900","bdp_td","Tue Apr 11 2023 01:03:41 GMT-0600 (Mountain Daylight Time)","103096","","null","","","","FIX","","<div class='trialBorder'><div class='vertical-center'><img style='vertical-align:center; align:center' src=img/fixation3.jpg></div></div>","null","","","","","","",""
"html-keyboard-response","35","60302","0.0-5.0-2.10","63b6cc23f13731158517f900","bdp_td","Tue Apr 11 2023 01:03:41 GMT-0600 (Mountain Daylight Time)","103096","","2465","","","","offer","","<div class='trialBorder'><div class='vertical-center'><img style='vertical-align:center; align:center' src=img/fixation3.jpg></div><div class='cl'><div class='vertical-center'>$34<br><br>now</div></div><div class='cr'><div class='vertical-center'>$35<br>in<br>12 weeks</div></div><div class='respDivL'><div class='vertical-center'>(E)</div></div><div class='respDivR'><div class='vertical-center'>(I)</div></div></div>","E","$34<br><br>now","$35<br>in<br>12 weeks","0","34","35","12","NOW"
"html-keyboard-response","36","60554","0.0-5.0-3.10","63b6cc23f13731158517f900","bdp_td","Tue Apr 11 2023 01:03:41 GMT-0600 (Mountain Daylight Time)","103096","","null","","","","offerFB","","<div class='trialBorder'><div class='vertical-center'><img style='vertical-align:center; align:center' src=img/fixation3.jpg></div><div class='cl'><div class='vertical-center'><font style='color:orange'>$34<br><br>now</font></div></div><div class='cr'><div class='vertical-center'>$35<br>in<br>12 weeks</div></div><div class='respDivL'><div class='vertical-center'><font style='color:orange'>(E)</font></div></div><div class='respDivR'><div class='vertical-center'>(I)</div></div></div>","null","$34<br><br>now","$35<br>in<br>12 weeks","0","34","35","12",""
"html-keyboard-response","37","61055","0.0-5.0-1.11","63b6cc23f13731158517f900","bdp_td","Tue Apr 11 2023 01:03:41 GMT-0600 (Mountain Daylight Time)","103096","","null","","","","FIX","","<div class='trialBorder'><div class='vertical-center'><img style='vertical-align:center; align:center' src=img/fixation3.jpg></div></div>","null","","","","","","",""
"html-keyboard-response","38","63044","0.0-5.0-2.11","63b6cc23f13731158517f900","bdp_td","Tue Apr 11 2023 01:03:41 GMT-0600 (Mountain Daylight Time)","103096","","1989","","","","offer","","<div class='trialBorder'><div class='vertical-center'><img style='vertical-align:center; align:center' src=img/fixation3.jpg></div><div class='cl'><div class='vertical-center'>$69<br><br>now</div></div><div class='cr'><div class='vertical-center'>$85<br>in<br>6 weeks</div></div><div class='respDivL'><div class='vertical-center'>(E)</div></div><div class='respDivR'><div class='vertical-center'>(I)</div></div></div>","I","$69<br><br>now","$85<br>in<br>6 weeks","0","69","85","6","THEN"
"html-keyboard-response","39","63294","0.0-5.0-3.11","63b6cc23f13731158517f900","bdp_td","Tue Apr 11 2023 01:03:41 GMT-0600 (Mountain Daylight Time)","103096","","null","","","","offerFB","","<div class='trialBorder'><div class='vertical-center'><img style='vertical-align:center; align:center' src=img/fixation3.jpg></div><div class='cl'><div class='vertical-center'>$69<br><br>now</div></div><div class='cr'><div class='vertical-center'><font style='color:orange'>$85<br>in<br>6 weeks</font></div></div><div class='respDivL'><div class='vertical-center'>(E)</div></div><div class='respDivR'><div class='vertical-center'><font style='color:orange'>(I)</font></div></div></div>","null","$69<br><br>now","$85<br>in<br>6 weeks","0","69","85","6",""
"html-keyboard-response","40","63795","0.0-5.0-1.12","63b6cc23f13731158517f900","bdp_td","Tue Apr 11 2023 01:03:41 GMT-0600 (Mountain Daylight Time)","103096","","null","","","","FIX","","<div class='trialBorder'><div class='vertical-center'><img style='vertical-align:center; align:center' src=img/fixation3.jpg></div></div>","null","","","","","","",""
"html-keyboard-response","41","65748","0.0-5.0-2.12","63b6cc23f13731158517f900","bdp_td","Tue Apr 11 2023 01:03:41 GMT-0600 (Mountain Daylight Time)","103096","","1952","","","","offer","","<div class='trialBorder'><div class='vertical-center'><img style='vertical-align:center; align:center' src=img/fixation3.jpg></div><div class='cl'><div class='vertical-center'>$25<br>in<br>3 weeks</div></div><div class='cr'><div class='vertical-center'>$14<br><br>now</div></div><div class='respDivL'><div class='vertical-center'>(E)</div></div><div class='respDivR'><div class='vertical-center'>(I)</div></div></div>","E","$14<br><br>now","$25<br>in<br>3 weeks","1","14","25","3","THEN"
"html-keyboard-response","42","65999","0.0-5.0-3.12","63b6cc23f13731158517f900","bdp_td","Tue Apr 11 2023 01:03:41 GMT-0600 (Mountain Daylight Time)","103096","","null","","","","offerFB","","<div class='trialBorder'><div class='vertical-center'><img style='vertical-align:center; align:center' src=img/fixation3.jpg></div><div class='cl'><div class='vertical-center'><font style='color:orange'>$25<br>in<br>3 weeks</font></div></div><div class='cr'><div class='vertical-center'>$14<br><br>now</div></div><div class='respDivL'><div class='vertical-center'><font style='color:orange'>(E)</font></div></div><div class='respDivR'><div class='vertical-center'>(I)</div></div></div>","null","$14<br><br>now","$25<br>in<br>3 weeks","1","14","25","3",""
"html-keyboard-response","43","66500","0.0-5.0-1.13","63b6cc23f13731158517f900","bdp_td","Tue Apr 11 2023 01:03:41 GMT-0600 (Mountain Daylight Time)","103096","","null","","","","FIX","","<div class='trialBorder'><div class='vertical-center'><img style='vertical-align:center; align:center' src=img/fixation3.jpg></div></div>","null","","","","","","",""
"html-keyboard-response","44","68494","0.0-5.0-2.13","63b6cc23f13731158517f900","bdp_td","Tue Apr 11 2023 01:03:41 GMT-0600 (Mountain Daylight Time)","103096","","1993","","","","offer","","<div class='trialBorder'><div class='vertical-center'><img style='vertical-align:center; align:center' src=img/fixation3.jpg></div><div class='cl'><div class='vertical-center'>$60<br>in<br>3 weeks</div></div><div class='cr'><div class='vertical-center'>$25<br><br>now</div></div><div class='respDivL'><div class='vertical-center'>(E)</div></div><div class='respDivR'><div class='vertical-center'>(I)</div></div></div>","E","$25<br><br>now","$60<br>in<br>3 weeks","1","25","60","3","THEN"
"html-keyboard-response","45","68745","0.0-5.0-3.13","63b6cc23f13731158517f900","bdp_td","Tue Apr 11 2023 01:03:41 GMT-0600 (Mountain Daylight Time)","103096","","null","","","","offerFB","","<div class='trialBorder'><div class='vertical-center'><img style='vertical-align:center; align:center' src=img/fixation3.jpg></div><div class='cl'><div class='vertical-center'><font style='color:orange'>$60<br>in<br>3 weeks</font></div></div><div class='cr'><div class='vertical-center'>$25<br><br>now</div></div><div class='respDivL'><div class='vertical-center'><font style='color:orange'>(E)</font></div></div><div class='respDivR'><div class='vertical-center'>(I)</div></div></div>","null","$25<br><br>now","$60<br>in<br>3 weeks","1","25","60","3",""
"html-keyboard-response","46","69246","0.0-5.0-1.14","63b6cc23f13731158517f900","bdp_td","Tue Apr 11 2023 01:03:41 GMT-0600 (Mountain Daylight Time)","103096","","null","","","","FIX","","<div class='trialBorder'><div class='vertical-center'><img style='vertical-align:center; align:center' src=img/fixation3.jpg></div></div>","null","","","","","","",""
"html-keyboard-response","47","71618","0.0-5.0-2.14","63b6cc23f13731158517f900","bdp_td","Tue Apr 11 2023 01:03:41 GMT-0600 (Mountain Daylight Time)","103096","","2372","","","","offer","","<div class='trialBorder'><div class='vertical-center'><img style='vertical-align:center; align:center' src=img/fixation3.jpg></div><div class='cl'><div class='vertical-center'>$85<br>in<br>12 weeks</div></div><div class='cr'><div class='vertical-center'>$80<br><br>now</div></div><div class='respDivL'><div class='vertical-center'>(E)</div></div><div class='respDivR'><div class='vertical-center'>(I)</div></div></div>","E","$80<br><br>now","$85<br>in<br>12 weeks","1","80","85","12","THEN"
"html-keyboard-response","48","71870","0.0-5.0-3.14","63b6cc23f13731158517f900","bdp_td","Tue Apr 11 2023 01:03:41 GMT-0600 (Mountain Daylight Time)","103096","","null","","","","offerFB","","<div class='trialBorder'><div class='vertical-center'><img style='vertical-align:center; align:center' src=img/fixation3.jpg></div><div class='cl'><div class='vertical-center'><font style='color:orange'>$85<br>in<br>12 weeks</font></div></div><div class='cr'><div class='vertical-center'>$80<br><br>now</div></div><div class='respDivL'><div class='vertical-center'><font style='color:orange'>(E)</font></div></div><div class='respDivR'><div class='vertical-center'>(I)</div></div></div>","null","$80<br><br>now","$85<br>in<br>12 weeks","1","80","85","12",""
"html-keyboard-response","49","72371","0.0-5.0-1.15","63b6cc23f13731158517f900","bdp_td","Tue Apr 11 2023 01:03:41 GMT-0600 (Mountain Daylight Time)","103096","","null","","","","FIX","","<div class='trialBorder'><div class='vertical-center'><img style='vertical-align:center; align:center' src=img/fixation3.jpg></div></div>","null","","","","","","",""
"html-keyboard-response","50","73815","0.0-5.0-2.15","63b6cc23f13731158517f900","bdp_td","Tue Apr 11 2023 01:03:41 GMT-0600 (Mountain Daylight Time)","103096","","1444","","","","offer","","<div class='trialBorder'><div class='vertical-center'><img style='vertical-align:center; align:center' src=img/fixation3.jpg></div><div class='cl'><div class='vertical-center'>$24<br><br>now</div></div><div class='cr'><div class='vertical-center'>$35<br>in<br>3 weeks</div></div><div class='respDivL'><div class='vertical-center'>(E)</div></div><div class='respDivR'><div class='vertical-center'>(I)</div></div></div>","I","$24<br><br>now","$35<br>in<br>3 weeks","0","24","35","3","THEN"
"html-keyboard-response","51","74066","0.0-5.0-3.15","63b6cc23f13731158517f900","bdp_td","Tue Apr 11 2023 01:03:41 GMT-0600 (Mountain Daylight Time)","103096","","null","","","","offerFB","","<div class='trialBorder'><div class='vertical-center'><img style='vertical-align:center; align:center' src=img/fixation3.jpg></div><div class='cl'><div class='vertical-center'>$24<br><br>now</div></div><div class='cr'><div class='vertical-center'><font style='color:orange'>$35<br>in<br>3 weeks</font></div></div><div class='respDivL'><div class='vertical-center'>(E)</div></div><div class='respDivR'><div class='vertical-center'><font style='color:orange'>(I)</font></div></div></div>","null","$24<br><br>now","$35<br>in<br>3 weeks","0","24","35","3",""
"html-keyboard-response","52","74567","0.0-5.0-1.16","63b6cc23f13731158517f900","bdp_td","Tue Apr 11 2023 01:03:41 GMT-0600 (Mountain Daylight Time)","103096","","null","","","","FIX","","<div class='trialBorder'><div class='vertical-center'><img style='vertical-align:center; align:center' src=img/fixation3.jpg></div></div>","null","","","","","","",""
"html-keyboard-response","53","77104","0.0-5.0-2.16","63b6cc23f13731158517f900","bdp_td","Tue Apr 11 2023 01:03:41 GMT-0600 (Mountain Daylight Time)","103096","","2536","","","","offer","","<div class='trialBorder'><div class='vertical-center'><img style='vertical-align:center; align:center' src=img/fixation3.jpg></div><div class='cl'><div class='vertical-center'>$60<br>in<br>12 weeks</div></div><div class='cr'><div class='vertical-center'>$54<br><br>now</div></div><div class='respDivL'><div class='vertical-center'>(E)</div></div><div class='respDivR'><div class='vertical-center'>(I)</div></div></div>","E","$54<br><br>now","$60<br>in<br>12 weeks","1","54","60","12","THEN"
"html-keyboard-response","54","77356","0.0-5.0-3.16","63b6cc23f13731158517f900","bdp_td","Tue Apr 11 2023 01:03:41 GMT-0600 (Mountain Daylight Time)","103096","","null","","","","offerFB","","<div class='trialBorder'><div class='vertical-center'><img style='vertical-align:center; align:center' src=img/fixation3.jpg></div><div class='cl'><div class='vertical-center'><font style='color:orange'>$60<br>in<br>12 weeks</font></div></div><div class='cr'><div class='vertical-center'>$54<br><br>now</div></div><div class='respDivL'><div class='vertical-center'><font style='color:orange'>(E)</font></div></div><div class='respDivR'><div class='vertical-center'>(I)</div></div></div>","null","$54<br><br>now","$60<br>in<br>12 weeks","1","54","60","12",""
"html-keyboard-response","55","77857","0.0-5.0-1.17","63b6cc23f13731158517f900","bdp_td","Tue Apr 11 2023 01:03:41 GMT-0600 (Mountain Daylight Time)","103096","","null","","","","FIX","","<div class='trialBorder'><div class='vertical-center'><img style='vertical-align:center; align:center' src=img/fixation3.jpg></div></div>","null","","","","","","",""
"html-keyboard-response","56","80008","0.0-5.0-2.17","63b6cc23f13731158517f900","bdp_td","Tue Apr 11 2023 01:03:41 GMT-0600 (Mountain Daylight Time)","103096","","2150","","","","offer","","<div class='trialBorder'><div class='vertical-center'><img style='vertical-align:center; align:center' src=img/fixation3.jpg></div><div class='cl'><div class='vertical-center'>$80<br>in<br>3 weeks</div></div><div class='cr'><div class='vertical-center'>$54<br><br>now</div></div><div class='respDivL'><div class='vertical-center'>(E)</div></div><div class='respDivR'><div class='vertical-center'>(I)</div></div></div>","E","$54<br><br>now","$80<br>in<br>3 weeks","1","54","80","3","THEN"
"html-keyboard-response","57","80259","0.0-5.0-3.17","63b6cc23f13731158517f900","bdp_td","Tue Apr 11 2023 01:03:41 GMT-0600 (Mountain Daylight Time)","103096","","null","","","","offerFB","","<div class='trialBorder'><div class='vertical-center'><img style='vertical-align:center; align:center' src=img/fixation3.jpg></div><div class='cl'><div class='vertical-center'><font style='color:orange'>$80<br>in<br>3 weeks</font></div></div><div class='cr'><div class='vertical-center'>$54<br><br>now</div></div><div class='respDivL'><div class='vertical-center'><font style='color:orange'>(E)</font></div></div><div class='respDivR'><div class='vertical-center'>(I)</div></div></div>","null","$54<br><br>now","$80<br>in<br>3 weeks","1","54","80","3",""
"html-keyboard-response","58","80760","0.0-5.0-1.18","63b6cc23f13731158517f900","bdp_td","Tue Apr 11 2023 01:03:41 GMT-0600 (Mountain Daylight Time)","103096","","null","","","","FIX","","<div class='trialBorder'><div class='vertical-center'><img style='vertical-align:center; align:center' src=img/fixation3.jpg></div></div>","null","","","","","","",""
"html-keyboard-response","59","82600","0.0-5.0-2.18","63b6cc23f13731158517f900","bdp_td","Tue Apr 11 2023 01:03:41 GMT-0600 (Mountain Daylight Time)","103096","","1840","","","","offer","","<div class='trialBorder'><div class='vertical-center'><img style='vertical-align:center; align:center' src=img/fixation3.jpg></div><div class='cl'><div class='vertical-center'>$55<br><br>now</div></div><div class='cr'><div class='vertical-center'>$75<br>in<br>6 weeks</div></div><div class='respDivL'><div class='vertical-center'>(E)</div></div><div class='respDivR'><div class='vertical-center'>(I)</div></div></div>","I","$55<br><br>now","$75<br>in<br>6 weeks","0","55","75","6","THEN"
"html-keyboard-response","60","82851","0.0-5.0-3.18","63b6cc23f13731158517f900","bdp_td","Tue Apr 11 2023 01:03:41 GMT-0600 (Mountain Daylight Time)","103096","","null","","","","offerFB","","<div class='trialBorder'><div class='vertical-center'><img style='vertical-align:center; align:center' src=img/fixation3.jpg></div><div class='cl'><div class='vertical-center'>$55<br><br>now</div></div><div class='cr'><div class='vertical-center'><font style='color:orange'>$75<br>in<br>6 weeks</font></div></div><div class='respDivL'><div class='vertical-center'>(E)</div></div><div class='respDivR'><div class='vertical-center'><font style='color:orange'>(I)</font></div></div></div>","null","$55<br><br>now","$75<br>in<br>6 weeks","0","55","75","6",""
"html-keyboard-response","61","83352","0.0-5.0-1.19","63b6cc23f13731158517f900","bdp_td","Tue Apr 11 2023 01:03:41 GMT-0600 (Mountain Daylight Time)","103096","","null","","","","FIX","","<div class='trialBorder'><div class='vertical-center'><img style='vertical-align:center; align:center' src=img/fixation3.jpg></div></div>","null","","","","","","",""
"html-keyboard-response","62","84866","0.0-5.0-2.19","63b6cc23f13731158517f900","bdp_td","Tue Apr 11 2023 01:03:41 GMT-0600 (Mountain Daylight Time)","103096","","1513","","","","offer","","<div class='trialBorder'><div class='vertical-center'><img style='vertical-align:center; align:center' src=img/fixation3.jpg></div><div class='cl'><div class='vertical-center'>$20<br><br>now</div></div><div class='cr'><div class='vertical-center'>$55<br>in<br>1 week</div></div><div class='respDivL'><div class='vertical-center'>(E)</div></div><div class='respDivR'><div class='vertical-center'>(I)</div></div></div>","I","$20<br><br>now","$55<br>in<br>1 week","0","20","55","1","THEN"
"html-keyboard-response","63","85117","0.0-5.0-3.19","63b6cc23f13731158517f900","bdp_td","Tue Apr 11 2023 01:03:41 GMT-0600 (Mountain Daylight Time)","103096","","null","","","","offerFB","","<div class='trialBorder'><div class='vertical-center'><img style='vertical-align:center; align:center' src=img/fixation3.jpg></div><div class='cl'><div class='vertical-center'>$20<br><br>now</div></div><div class='cr'><div class='vertical-center'><font style='color:orange'>$55<br>in<br>1 week</font></div></div><div class='respDivL'><div class='vertical-center'>(E)</div></div><div class='respDivR'><div class='vertical-center'><font style='color:orange'>(I)</font></div></div></div>","null","$20<br><br>now","$55<br>in<br>1 week","0","20","55","1",""
"html-keyboard-response","64","85618","0.0-5.0-1.20","63b6cc23f13731158517f900","bdp_td","Tue Apr 11 2023 01:03:41 GMT-0600 (Mountain Daylight Time)","103096","","null","","","","FIX","","<div class='trialBorder'><div class='vertical-center'><img style='vertical-align:center; align:center' src=img/fixation3.jpg></div></div>","null","","","","","","",""
"html-keyboard-response","65","88164","0.0-5.0-2.20","63b6cc23f13731158517f900","bdp_td","Tue Apr 11 2023 01:03:41 GMT-0600 (Mountain Daylight Time)","103096","","2546","","","","offer","","<div class='trialBorder'><div class='vertical-center'><img style='vertical-align:center; align:center' src=img/fixation3.jpg></div><div class='cl'><div class='vertical-center'>$35<br>in<br>2 weeks</div></div><div class='cr'><div class='vertical-center'>$15<br><br>now</div></div><div class='respDivL'><div class='vertical-center'>(E)</div></div><div class='respDivR'><div class='vertical-center'>(I)</div></div></div>","E","$15<br><br>now","$35<br>in<br>2 weeks","1","15","35","2","THEN"
"html-keyboard-response","66","88415","0.0-5.0-3.20","63b6cc23f13731158517f900","bdp_td","Tue Apr 11 2023 01:03:41 GMT-0600 (Mountain Daylight Time)","103096","","null","","","","offerFB","","<div class='trialBorder'><div class='vertical-center'><img style='vertical-align:center; align:center' src=img/fixation3.jpg></div><div class='cl'><div class='vertical-center'><font style='color:orange'>$35<br>in<br>2 weeks</font></div></div><div class='cr'><div class='vertical-center'>$15<br><br>now</div></div><div class='respDivL'><div class='vertical-center'><font style='color:orange'>(E)</font></div></div><div class='respDivR'><div class='vertical-center'>(I)</div></div></div>","null","$15<br><br>now","$35<br>in<br>2 weeks","1","15","35","2",""
"html-keyboard-response","67","88917","0.0-5.0-1.21","63b6cc23f13731158517f900","bdp_td","Tue Apr 11 2023 01:03:41 GMT-0600 (Mountain Daylight Time)","103096","","null","","","","FIX","","<div class='trialBorder'><div class='vertical-center'><img style='vertical-align:center; align:center' src=img/fixation3.jpg></div></div>","null","","","","","","",""
"html-keyboard-response","68","90309","0.0-5.0-2.21","63b6cc23f13731158517f900","bdp_td","Tue Apr 11 2023 01:03:41 GMT-0600 (Mountain Daylight Time)","103096","","1392","","","","offer","","<div class='trialBorder'><div class='vertical-center'><img style='vertical-align:center; align:center' src=img/fixation3.jpg></div><div class='cl'><div class='vertical-center'>$50<br>in<br>6 weeks</div></div><div class='cr'><div class='vertical-center'>$34<br><br>now</div></div><div class='respDivL'><div class='vertical-center'>(E)</div></div><div class='respDivR'><div class='vertical-center'>(I)</div></div></div>","E","$34<br><br>now","$50<br>in<br>6 weeks","1","34","50","6","THEN"
"html-keyboard-response","69","90560","0.0-5.0-3.21","63b6cc23f13731158517f900","bdp_td","Tue Apr 11 2023 01:03:41 GMT-0600 (Mountain Daylight Time)","103096","","null","","","","offerFB","","<div class='trialBorder'><div class='vertical-center'><img style='vertical-align:center; align:center' src=img/fixation3.jpg></div><div class='cl'><div class='vertical-center'><font style='color:orange'>$50<br>in<br>6 weeks</font></div></div><div class='cr'><div class='vertical-center'>$34<br><br>now</div></div><div class='respDivL'><div class='vertical-center'><font style='color:orange'>(E)</font></div></div><div class='respDivR'><div class='vertical-center'>(I)</div></div></div>","null","$34<br><br>now","$50<br>in<br>6 weeks","1","34","50","6",""
"html-keyboard-response","70","91061","0.0-5.0-1.22","63b6cc23f13731158517f900","bdp_td","Tue Apr 11 2023 01:03:41 GMT-0600 (Mountain Daylight Time)","103096","","null","","","","FIX","","<div class='trialBorder'><div class='vertical-center'><img style='vertical-align:center; align:center' src=img/fixation3.jpg></div></div>","null","","","","","","",""
"html-keyboard-response","71","92527","0.0-5.0-2.22","63b6cc23f13731158517f900","bdp_td","Tue Apr 11 2023 01:03:41 GMT-0600 (Mountain Daylight Time)","103096","","1466","","","","offer","","<div class='trialBorder'><div class='vertical-center'><img style='vertical-align:center; align:center' src=img/fixation3.jpg></div><div class='cl'><div class='vertical-center'>$40<br><br>now</div></div><div class='cr'><div class='vertical-center'>$55<br>in<br>6 weeks</div></div><div class='respDivL'><div class='vertical-center'>(E)</div></div><div class='respDivR'><div class='vertical-center'>(I)</div></div></div>","I","$40<br><br>now","$55<br>in<br>6 weeks","0","40","55","6","THEN"
"html-keyboard-response","72","92788","0.0-5.0-3.22","63b6cc23f13731158517f900","bdp_td","Tue Apr 11 2023 01:03:41 GMT-0600 (Mountain Daylight Time)","103096","","null","","","","offerFB","","<div class='trialBorder'><div class='vertical-center'><img style='vertical-align:center; align:center' src=img/fixation3.jpg></div><div class='cl'><div class='vertical-center'>$40<br><br>now</div></div><div class='cr'><div class='vertical-center'><font style='color:orange'>$55<br>in<br>6 weeks</font></div></div><div class='respDivL'><div class='vertical-center'>(E)</div></div><div class='respDivR'><div class='vertical-center'><font style='color:orange'>(I)</font></div></div></div>","null","$40<br><br>now","$55<br>in<br>6 weeks","0","40","55","6",""
"html-keyboard-response","73","93289","0.0-5.0-1.23","63b6cc23f13731158517f900","bdp_td","Tue Apr 11 2023 01:03:41 GMT-0600 (Mountain Daylight Time)","103096","","null","","","","FIX","","<div class='trialBorder'><div class='vertical-center'><img style='vertical-align:center; align:center' src=img/fixation3.jpg></div></div>","null","","","","","","",""
"html-keyboard-response","74","94650","0.0-5.0-2.23","63b6cc23f13731158517f900","bdp_td","Tue Apr 11 2023 01:03:41 GMT-0600 (Mountain Daylight Time)","103096","","1360","","","","offer","","<div class='trialBorder'><div class='vertical-center'><img style='vertical-align:center; align:center' src=img/fixation3.jpg></div><div class='cl'><div class='vertical-center'>$33<br><br>now</div></div><div class='cr'><div class='vertical-center'>$80<br>in<br>2 weeks</div></div><div class='respDivL'><div class='vertical-center'>(E)</div></div><div class='respDivR'><div class='vertical-center'>(I)</div></div></div>","I","$33<br><br>now","$80<br>in<br>2 weeks","0","33","80","2","THEN"
"html-keyboard-response","75","94901","0.0-5.0-3.23","63b6cc23f13731158517f900","bdp_td","Tue Apr 11 2023 01:03:41 GMT-0600 (Mountain Daylight Time)","103096","","null","","","","offerFB","","<div class='trialBorder'><div class='vertical-center'><img style='vertical-align:center; align:center' src=img/fixation3.jpg></div><div class='cl'><div class='vertical-center'>$33<br><br>now</div></div><div class='cr'><div class='vertical-center'><font style='color:orange'>$80<br>in<br>2 weeks</font></div></div><div class='respDivL'><div class='vertical-center'>(E)</div></div><div class='respDivR'><div class='vertical-center'><font style='color:orange'>(I)</font></div></div></div>","null","$33<br><br>now","$80<br>in<br>2 weeks","0","33","80","2",""
"html-keyboard-response","76","95402","0.0-5.0-1.24","63b6cc23f13731158517f900","bdp_td","Tue Apr 11 2023 01:03:41 GMT-0600 (Mountain Daylight Time)","103096","","null","","","","FIX","","<div class='trialBorder'><div class='vertical-center'><img style='vertical-align:center; align:center' src=img/fixation3.jpg></div></div>","null","","","","","","",""
"html-keyboard-response","77","97488","0.0-5.0-2.24","63b6cc23f13731158517f900","bdp_td","Tue Apr 11 2023 01:03:41 GMT-0600 (Mountain Daylight Time)","103096","","2086","","","","offer","","<div class='trialBorder'><div class='vertical-center'><img style='vertical-align:center; align:center' src=img/fixation3.jpg></div><div class='cl'><div class='vertical-center'>$41<br><br>now</div></div><div class='cr'><div class='vertical-center'>$75<br>in<br>3 weeks</div></div><div class='respDivL'><div class='vertical-center'>(E)</div></div><div class='respDivR'><div class='vertical-center'>(I)</div></div></div>","I","$41<br><br>now","$75<br>in<br>3 weeks","0","41","75","3","THEN"
"html-keyboard-response","78","97739","0.0-5.0-3.24","63b6cc23f13731158517f900","bdp_td","Tue Apr 11 2023 01:03:41 GMT-0600 (Mountain Daylight Time)","103096","","null","","","","offerFB","","<div class='trialBorder'><div class='vertical-center'><img style='vertical-align:center; align:center' src=img/fixation3.jpg></div><div class='cl'><div class='vertical-center'>$41<br><br>now</div></div><div class='cr'><div class='vertical-center'><font style='color:orange'>$75<br>in<br>3 weeks</font></div></div><div class='respDivL'><div class='vertical-center'>(E)</div></div><div class='respDivR'><div class='vertical-center'><font style='color:orange'>(I)</font></div></div></div>","null","$41<br><br>now","$75<br>in<br>3 weeks","0","41","75","3",""
"html-keyboard-response","79","98240","0.0-5.0-1.25","63b6cc23f13731158517f900","bdp_td","Tue Apr 11 2023 01:03:41 GMT-0600 (Mountain Daylight Time)","103096","","null","","","","FIX","","<div class='trialBorder'><div class='vertical-center'><img style='vertical-align:center; align:center' src=img/fixation3.jpg></div></div>","null","","","","","","",""
"html-keyboard-response","80","100001","0.0-5.0-2.25","63b6cc23f13731158517f900","bdp_td","Tue Apr 11 2023 01:03:41 GMT-0600 (Mountain Daylight Time)","103096","","1761","","","","offer","","<div class='trialBorder'><div class='vertical-center'><img style='vertical-align:center; align:center' src=img/fixation3.jpg></div><div class='cl'><div class='vertical-center'>$50<br>in<br>3 weeks</div></div><div class='cr'><div class='vertical-center'>$27<br><br>now</div></div><div class='respDivL'><div class='vertical-center'>(E)</div></div><div class='respDivR'><div class='vertical-center'>(I)</div></div></div>","E","$27<br><br>now","$50<br>in<br>3 weeks","1","27","50","3","THEN"
"html-keyboard-response","81","100252","0.0-5.0-3.25","63b6cc23f13731158517f900","bdp_td","Tue Apr 11 2023 01:03:41 GMT-0600 (Mountain Daylight Time)","103096","","null","","","","offerFB","","<div class='trialBorder'><div class='vertical-center'><img style='vertical-align:center; align:center' src=img/fixation3.jpg></div><div class='cl'><div class='vertical-center'><font style='color:orange'>$50<br>in<br>3 weeks</font></div></div><div class='cr'><div class='vertical-center'>$27<br><br>now</div></div><div class='respDivL'><div class='vertical-center'><font style='color:orange'>(E)</font></div></div><div class='respDivR'><div class='vertical-center'>(I)</div></div></div>","null","$27<br><br>now","$50<br>in<br>3 weeks","1","27","50","3",""
"html-keyboard-response","82","100753","0.0-5.0-1.26","63b6cc23f13731158517f900","bdp_td","Tue Apr 11 2023 01:03:41 GMT-0600 (Mountain Daylight Time)","103096","","null","","","","FIX","","<div class='trialBorder'><div class='vertical-center'><img style='vertical-align:center; align:center' src=img/fixation3.jpg></div></div>","null","","","","","","",""
"html-keyboard-response","83","101844","0.0-5.0-2.26","63b6cc23f13731158517f900","bdp_td","Tue Apr 11 2023 01:03:41 GMT-0600 (Mountain Daylight Time)","103096","","1090","","","","offer","","<div class='trialBorder'><div class='vertical-center'><img style='vertical-align:center; align:center' src=img/fixation3.jpg></div><div class='cl'><div class='vertical-center'>$49<br><br>now</div></div><div class='cr'><div class='vertical-center'>$60<br>in<br>6 weeks</div></div><div class='respDivL'><div class='vertical-center'>(E)</div></div><div class='respDivR'><div class='vertical-center'>(I)</div></div></div>","I","$49<br><br>now","$60<br>in<br>6 weeks","0","49","60","6","THEN"
"html-keyboard-response","84","102095","0.0-5.0-3.26","63b6cc23f13731158517f900","bdp_td","Tue Apr 11 2023 01:03:41 GMT-0600 (Mountain Daylight Time)","103096","","null","","","","offerFB","","<div class='trialBorder'><div class='vertical-center'><img style='vertical-align:center; align:center' src=img/fixation3.jpg></div><div class='cl'><div class='vertical-center'>$49<br><br>now</div></div><div class='cr'><div class='vertical-center'><font style='color:orange'>$60<br>in<br>6 weeks</font></div></div><div class='respDivL'><div class='vertical-center'>(E)</div></div><div class='respDivR'><div class='vertical-center'><font style='color:orange'>(I)</font></div></div></div>","null","$49<br><br>now","$60<br>in<br>6 weeks","0","49","60","6",""
"","","","","63b6cc23f13731158517f900","bdp_td","Tue Apr 11 2023 01:03:41 GMT-0600 (Mountain Daylight Time)","103096","","","fullscreenexit","85","102114","fullscreenexit","","","","","","","","","",""
"fullscreen","85","103096","0.0-6.0","63b6cc23f13731158517f900","bdp_td","Tue Apr 11 2023 01:03:41 GMT-0600 (Mountain Daylight Time)","103096","","","","","","","true","","","","","","","","",""
"html-keyboard-response","86","103604","0.0-7.0","","","","","","null","","","","","","","null","","","","","","",""
