"event","trial","time","trialtype","subject_id","task","startTime","totalTime","trial_type","trial_index","time_elapsed","internal_node_id","view_history","rt","success","stimulus","key_press","nowOffer","thenOffer","thenLeft","nowAmt","thenAmt","thenWeeks","chosen"
"focus","0","0","focusevent","63e885e4e1fc973179d56f63","bdp_td","Sun Apr 09 2023 17:41:32 GMT-0500 (Central Daylight Time)","122383","","","","","","","","","","","","","","","",""
"","","","","63e885e4e1fc973179d56f63","bdp_td","Sun Apr 09 2023 17:41:32 GMT-0500 (Central Daylight Time)","122383","pavlovia","0","12","0.0-0.0","","","","","","","","","","","",""
"","","","","63e885e4e1fc973179d56f63","bdp_td","Sun Apr 09 2023 17:41:32 GMT-0500 (Central Daylight Time)","122383","instructions","1","2509","0.0-1.0","[{""page_index"":0,""viewing_time"":2492}]","2494","","","","","","","","","",""
"fullscreenexit","2","6682","fullscreenexit","63e885e4e1fc973179d56f63","bdp_td","Sun Apr 09 2023 17:41:32 GMT-0500 (Central Daylight Time)","122383","","","","","","","","","","","","","","","",""
"","","","","63e885e4e1fc973179d56f63","bdp_td","Sun Apr 09 2023 17:41:32 GMT-0500 (Central Daylight Time)","122383","fullscreen","2","7399","0.0-2.0","","","true","","","","","","","","",""
"","","","fullscreenfail","63e885e4e1fc973179d56f63","bdp_td","Sun Apr 09 2023 17:41:32 GMT-0500 (Central Daylight Time)","122383","image-keyboard-response","3","8535","0.0-3.0-0.0","","1126","","","32","","","","","","",""
"","","","","63e885e4e1fc973179d56f63","bdp_td","Sun Apr 09 2023 17:41:32 GMT-0500 (Central Daylight Time)","122383","instructions","4","19250","0.0-4.0","[{""page_index"":0,""viewing_time"":5957},{""page_index"":1,""viewing_time"":2980},{""page_index"":2,""viewing_time"":1524}]","10462","","","","","","","","","",""
"","","","FIX","63e885e4e1fc973179d56f63","bdp_td","Sun Apr 09 2023 17:41:32 GMT-0500 (Central Daylight Time)","122383","html-keyboard-response","5","19762","0.0-5.0-1.0","","null","","<div class='trialBorder'><div class='vertical-center'><img style='vertical-align:center; align:center' src=img/fixation3.jpg></div></div>","null","","","","","","",""
"","","","offer","63e885e4e1fc973179d56f63","bdp_td","Sun Apr 09 2023 17:41:32 GMT-0500 (Central Daylight Time)","122383","html-keyboard-response","6","22805","0.0-5.0-2.0","","3038","","<div class='trialBorder'><div class='vertical-center'><img style='vertical-align:center; align:center' src=img/fixation3.jpg></div><div class='cl'><div class='vertical-center'>$41<br><br>now</div></div><div class='cr'><div class='vertical-center'>$75<br>in<br>3 weeks</div></div><div class='respDivL'><div class='vertical-center'>(E)</div></div><div class='respDivR'><div class='vertical-center'>(I)</div></div></div>","I","$41<br><br>now","$75<br>in<br>3 weeks","0","41","75","3","THEN"
"","","","offerFB","63e885e4e1fc973179d56f63","bdp_td","Sun Apr 09 2023 17:41:32 GMT-0500 (Central Daylight Time)","122383","html-keyboard-response","7","23071","0.0-5.0-3.0","","null","","<div class='trialBorder'><div class='vertical-center'><img style='vertical-align:center; align:center' src=img/fixation3.jpg></div><div class='cl'><div class='vertical-center'>$41<br><br>now</div></div><div class='cr'><div class='vertical-center'><font style='color:orange'>$75<br>in<br>3 weeks</font></div></div><div class='respDivL'><div class='vertical-center'>(E)</div></div><div class='respDivR'><div class='vertical-center'><font style='color:orange'>(I)</font></div></div></div>","null","$41<br><br>now","$75<br>in<br>3 weeks","0","41","75","3",""
"","","","FIX","63e885e4e1fc973179d56f63","bdp_td","Sun Apr 09 2023 17:41:32 GMT-0500 (Central Daylight Time)","122383","html-keyboard-response","8","23573","0.0-5.0-1.1","","null","","<div class='trialBorder'><div class='vertical-center'><img style='vertical-align:center; align:center' src=img/fixation3.jpg></div></div>","null","","","","","","",""
"","","","offer","63e885e4e1fc973179d56f63","bdp_td","Sun Apr 09 2023 17:41:32 GMT-0500 (Central Daylight Time)","122383","html-keyboard-response","9","25015","0.0-5.0-2.1","","1438","","<div class='trialBorder'><div class='vertical-center'><img style='vertical-align:center; align:center' src=img/fixation3.jpg></div><div class='cl'><div class='vertical-center'>$34<br><br>now</div></div><div class='cr'><div class='vertical-center'>$50<br>in<br>6 weeks</div></div><div class='respDivL'><div class='vertical-center'>(E)</div></div><div class='respDivR'><div class='vertical-center'>(I)</div></div></div>","I","$34<br><br>now","$50<br>in<br>6 weeks","0","34","50","6","THEN"
"","","","offerFB","63e885e4e1fc973179d56f63","bdp_td","Sun Apr 09 2023 17:41:32 GMT-0500 (Central Daylight Time)","122383","html-keyboard-response","10","25277","0.0-5.0-3.1","","null","","<div class='trialBorder'><div class='vertical-center'><img style='vertical-align:center; align:center' src=img/fixation3.jpg></div><div class='cl'><div class='vertical-center'>$34<br><br>now</div></div><div class='cr'><div class='vertical-center'><font style='color:orange'>$50<br>in<br>6 weeks</font></div></div><div class='respDivL'><div class='vertical-center'>(E)</div></div><div class='respDivR'><div class='vertical-center'><font style='color:orange'>(I)</font></div></div></div>","null","$34<br><br>now","$50<br>in<br>6 weeks","0","34","50","6",""
"","","","FIX","63e885e4e1fc973179d56f63","bdp_td","Sun Apr 09 2023 17:41:32 GMT-0500 (Central Daylight Time)","122383","html-keyboard-response","11","25796","0.0-5.0-1.2","","null","","<div class='trialBorder'><div class='vertical-center'><img style='vertical-align:center; align:center' src=img/fixation3.jpg></div></div>","null","","","","","","",""
"","","","offer","63e885e4e1fc973179d56f63","bdp_td","Sun Apr 09 2023 17:41:32 GMT-0500 (Central Daylight Time)","122383","html-keyboard-response","12","29664","0.0-5.0-2.2","","3864","","<div class='trialBorder'><div class='vertical-center'><img style='vertical-align:center; align:center' src=img/fixation3.jpg></div><div class='cl'><div class='vertical-center'>$60<br>in<br>6 weeks</div></div><div class='cr'><div class='vertical-center'>$49<br><br>now</div></div><div class='respDivL'><div class='vertical-center'>(E)</div></div><div class='respDivR'><div class='vertical-center'>(I)</div></div></div>","I","$49<br><br>now","$60<br>in<br>6 weeks","1","49","60","6","NOW"
"","","","offerFB","63e885e4e1fc973179d56f63","bdp_td","Sun Apr 09 2023 17:41:32 GMT-0500 (Central Daylight Time)","122383","html-keyboard-response","13","29930","0.0-5.0-3.2","","null","","<div class='trialBorder'><div class='vertical-center'><img style='vertical-align:center; align:center' src=img/fixation3.jpg></div><div class='cl'><div class='vertical-center'>$60<br>in<br>6 weeks</div></div><div class='cr'><div class='vertical-center'><font style='color:orange'>$49<br><br>now</font></div></div><div class='respDivL'><div class='vertical-center'>(E)</div></div><div class='respDivR'><div class='vertical-center'><font style='color:orange'>(I)</font></div></div></div>","null","$49<br><br>now","$60<br>in<br>6 weeks","1","49","60","6",""
"","","","FIX","63e885e4e1fc973179d56f63","bdp_td","Sun Apr 09 2023 17:41:32 GMT-0500 (Central Daylight Time)","122383","html-keyboard-response","14","30447","0.0-5.0-1.3","","null","","<div class='trialBorder'><div class='vertical-center'><img style='vertical-align:center; align:center' src=img/fixation3.jpg></div></div>","null","","","","","","",""
"","","","offer","63e885e4e1fc973179d56f63","bdp_td","Sun Apr 09 2023 17:41:32 GMT-0500 (Central Daylight Time)","122383","html-keyboard-response","15","32653","0.0-5.0-2.3","","2202","","<div class='trialBorder'><div class='vertical-center'><img style='vertical-align:center; align:center' src=img/fixation3.jpg></div><div class='cl'><div class='vertical-center'>$15<br><br>now</div></div><div class='cr'><div class='vertical-center'>$35<br>in<br>2 weeks</div></div><div class='respDivL'><div class='vertical-center'>(E)</div></div><div class='respDivR'><div class='vertical-center'>(I)</div></div></div>","I","$15<br><br>now","$35<br>in<br>2 weeks","0","15","35","2","THEN"
"","","","offerFB","63e885e4e1fc973179d56f63","bdp_td","Sun Apr 09 2023 17:41:32 GMT-0500 (Central Daylight Time)","122383","html-keyboard-response","16","32916","0.0-5.0-3.3","","null","","<div class='trialBorder'><div class='vertical-center'><img style='vertical-align:center; align:center' src=img/fixation3.jpg></div><div class='cl'><div class='vertical-center'>$15<br><br>now</div></div><div class='cr'><div class='vertical-center'><font style='color:orange'>$35<br>in<br>2 weeks</font></div></div><div class='respDivL'><div class='vertical-center'>(E)</div></div><div class='respDivR'><div class='vertical-center'><font style='color:orange'>(I)</font></div></div></div>","null","$15<br><br>now","$35<br>in<br>2 weeks","0","15","35","2",""
"","","","FIX","63e885e4e1fc973179d56f63","bdp_td","Sun Apr 09 2023 17:41:32 GMT-0500 (Central Daylight Time)","122383","html-keyboard-response","17","33419","0.0-5.0-1.4","","null","","<div class='trialBorder'><div class='vertical-center'><img style='vertical-align:center; align:center' src=img/fixation3.jpg></div></div>","null","","","","","","",""
"","","","offer","63e885e4e1fc973179d56f63","bdp_td","Sun Apr 09 2023 17:41:32 GMT-0500 (Central Daylight Time)","122383","html-keyboard-response","18","37547","0.0-5.0-2.4","","4125","","<div class='trialBorder'><div class='vertical-center'><img style='vertical-align:center; align:center' src=img/fixation3.jpg></div><div class='cl'><div class='vertical-center'>$80<br>in<br>2 weeks</div></div><div class='cr'><div class='vertical-center'>$33<br><br>now</div></div><div class='respDivL'><div class='vertical-center'>(E)</div></div><div class='respDivR'><div class='vertical-center'>(I)</div></div></div>","E","$33<br><br>now","$80<br>in<br>2 weeks","1","33","80","2","THEN"
"","","","offerFB","63e885e4e1fc973179d56f63","bdp_td","Sun Apr 09 2023 17:41:32 GMT-0500 (Central Daylight Time)","122383","html-keyboard-response","19","37802","0.0-5.0-3.4","","null","","<div class='trialBorder'><div class='vertical-center'><img style='vertical-align:center; align:center' src=img/fixation3.jpg></div><div class='cl'><div class='vertical-center'><font style='color:orange'>$80<br>in<br>2 weeks</font></div></div><div class='cr'><div class='vertical-center'>$33<br><br>now</div></div><div class='respDivL'><div class='vertical-center'><font style='color:orange'>(E)</font></div></div><div class='respDivR'><div class='vertical-center'>(I)</div></div></div>","null","$33<br><br>now","$80<br>in<br>2 weeks","1","33","80","2",""
"","","","FIX","63e885e4e1fc973179d56f63","bdp_td","Sun Apr 09 2023 17:41:32 GMT-0500 (Central Daylight Time)","122383","html-keyboard-response","20","38319","0.0-5.0-1.5","","null","","<div class='trialBorder'><div class='vertical-center'><img style='vertical-align:center; align:center' src=img/fixation3.jpg></div></div>","null","","","","","","",""
"","","","offer","63e885e4e1fc973179d56f63","bdp_td","Sun Apr 09 2023 17:41:32 GMT-0500 (Central Daylight Time)","122383","html-keyboard-response","21","41499","0.0-5.0-2.5","","3177","","<div class='trialBorder'><div class='vertical-center'><img style='vertical-align:center; align:center' src=img/fixation3.jpg></div><div class='cl'><div class='vertical-center'>$67<br><br>now</div></div><div class='cr'><div class='vertical-center'>$75<br>in<br>12 weeks</div></div><div class='respDivL'><div class='vertical-center'>(E)</div></div><div class='respDivR'><div class='vertical-center'>(I)</div></div></div>","E","$67<br><br>now","$75<br>in<br>12 weeks","0","67","75","12","NOW"
"","","","offerFB","63e885e4e1fc973179d56f63","bdp_td","Sun Apr 09 2023 17:41:32 GMT-0500 (Central Daylight Time)","122383","html-keyboard-response","22","41769","0.0-5.0-3.5","","null","","<div class='trialBorder'><div class='vertical-center'><img style='vertical-align:center; align:center' src=img/fixation3.jpg></div><div class='cl'><div class='vertical-center'><font style='color:orange'>$67<br><br>now</font></div></div><div class='cr'><div class='vertical-center'>$75<br>in<br>12 weeks</div></div><div class='respDivL'><div class='vertical-center'><font style='color:orange'>(E)</font></div></div><div class='respDivR'><div class='vertical-center'>(I)</div></div></div>","null","$67<br><br>now","$75<br>in<br>12 weeks","0","67","75","12",""
"","","","FIX","63e885e4e1fc973179d56f63","bdp_td","Sun Apr 09 2023 17:41:32 GMT-0500 (Central Daylight Time)","122383","html-keyboard-response","23","42271","0.0-5.0-1.6","","null","","<div class='trialBorder'><div class='vertical-center'><img style='vertical-align:center; align:center' src=img/fixation3.jpg></div></div>","null","","","","","","",""
"","","","offer","63e885e4e1fc973179d56f63","bdp_td","Sun Apr 09 2023 17:41:32 GMT-0500 (Central Daylight Time)","122383","html-keyboard-response","24","44584","0.0-5.0-2.6","","2310","","<div class='trialBorder'><div class='vertical-center'><img style='vertical-align:center; align:center' src=img/fixation3.jpg></div><div class='cl'><div class='vertical-center'>$34<br><br>now</div></div><div class='cr'><div class='vertical-center'>$35<br>in<br>12 weeks</div></div><div class='respDivL'><div class='vertical-center'>(E)</div></div><div class='respDivR'><div class='vertical-center'>(I)</div></div></div>","E","$34<br><br>now","$35<br>in<br>12 weeks","0","34","35","12","NOW"
"","","","offerFB","63e885e4e1fc973179d56f63","bdp_td","Sun Apr 09 2023 17:41:32 GMT-0500 (Central Daylight Time)","122383","html-keyboard-response","25","44839","0.0-5.0-3.6","","null","","<div class='trialBorder'><div class='vertical-center'><img style='vertical-align:center; align:center' src=img/fixation3.jpg></div><div class='cl'><div class='vertical-center'><font style='color:orange'>$34<br><br>now</font></div></div><div class='cr'><div class='vertical-center'>$35<br>in<br>12 weeks</div></div><div class='respDivL'><div class='vertical-center'><font style='color:orange'>(E)</font></div></div><div class='respDivR'><div class='vertical-center'>(I)</div></div></div>","null","$34<br><br>now","$35<br>in<br>12 weeks","0","34","35","12",""
"","","","FIX","63e885e4e1fc973179d56f63","bdp_td","Sun Apr 09 2023 17:41:32 GMT-0500 (Central Daylight Time)","122383","html-keyboard-response","26","45356","0.0-5.0-1.7","","null","","<div class='trialBorder'><div class='vertical-center'><img style='vertical-align:center; align:center' src=img/fixation3.jpg></div></div>","null","","","","","","",""
"","","","offer","63e885e4e1fc973179d56f63","bdp_td","Sun Apr 09 2023 17:41:32 GMT-0500 (Central Daylight Time)","122383","html-keyboard-response","27","47281","0.0-5.0-2.7","","1921","","<div class='trialBorder'><div class='vertical-center'><img style='vertical-align:center; align:center' src=img/fixation3.jpg></div><div class='cl'><div class='vertical-center'>$30<br>in<br>12 weeks</div></div><div class='cr'><div class='vertical-center'>$28<br><br>now</div></div><div class='respDivL'><div class='vertical-center'>(E)</div></div><div class='respDivR'><div class='vertical-center'>(I)</div></div></div>","I","$28<br><br>now","$30<br>in<br>12 weeks","1","28","30","12","NOW"
"","","","offerFB","63e885e4e1fc973179d56f63","bdp_td","Sun Apr 09 2023 17:41:32 GMT-0500 (Central Daylight Time)","122383","html-keyboard-response","28","47533","0.0-5.0-3.7","","null","","<div class='trialBorder'><div class='vertical-center'><img style='vertical-align:center; align:center' src=img/fixation3.jpg></div><div class='cl'><div class='vertical-center'>$30<br>in<br>12 weeks</div></div><div class='cr'><div class='vertical-center'><font style='color:orange'>$28<br><br>now</font></div></div><div class='respDivL'><div class='vertical-center'>(E)</div></div><div class='respDivR'><div class='vertical-center'><font style='color:orange'>(I)</font></div></div></div>","null","$28<br><br>now","$30<br>in<br>12 weeks","1","28","30","12",""
"","","","FIX","63e885e4e1fc973179d56f63","bdp_td","Sun Apr 09 2023 17:41:32 GMT-0500 (Central Daylight Time)","122383","html-keyboard-response","29","48050","0.0-5.0-1.8","","null","","<div class='trialBorder'><div class='vertical-center'><img style='vertical-align:center; align:center' src=img/fixation3.jpg></div></div>","null","","","","","","",""
"","","","offer","63e885e4e1fc973179d56f63","bdp_td","Sun Apr 09 2023 17:41:32 GMT-0500 (Central Daylight Time)","122383","html-keyboard-response","30","50738","0.0-5.0-2.8","","2684","","<div class='trialBorder'><div class='vertical-center'><img style='vertical-align:center; align:center' src=img/fixation3.jpg></div><div class='cl'><div class='vertical-center'>$27<br><br>now</div></div><div class='cr'><div class='vertical-center'>$50<br>in<br>3 weeks</div></div><div class='respDivL'><div class='vertical-center'>(E)</div></div><div class='respDivR'><div class='vertical-center'>(I)</div></div></div>","I","$27<br><br>now","$50<br>in<br>3 weeks","0","27","50","3","THEN"
"","","","offerFB","63e885e4e1fc973179d56f63","bdp_td","Sun Apr 09 2023 17:41:32 GMT-0500 (Central Daylight Time)","122383","html-keyboard-response","31","51005","0.0-5.0-3.8","","null","","<div class='trialBorder'><div class='vertical-center'><img style='vertical-align:center; align:center' src=img/fixation3.jpg></div><div class='cl'><div class='vertical-center'>$27<br><br>now</div></div><div class='cr'><div class='vertical-center'><font style='color:orange'>$50<br>in<br>3 weeks</font></div></div><div class='respDivL'><div class='vertical-center'>(E)</div></div><div class='respDivR'><div class='vertical-center'><font style='color:orange'>(I)</font></div></div></div>","null","$27<br><br>now","$50<br>in<br>3 weeks","0","27","50","3",""
"","","","FIX","63e885e4e1fc973179d56f63","bdp_td","Sun Apr 09 2023 17:41:32 GMT-0500 (Central Daylight Time)","122383","html-keyboard-response","32","51508","0.0-5.0-1.9","","null","","<div class='trialBorder'><div class='vertical-center'><img style='vertical-align:center; align:center' src=img/fixation3.jpg></div></div>","null","","","","","","",""
"","","","offer","63e885e4e1fc973179d56f63","bdp_td","Sun Apr 09 2023 17:41:32 GMT-0500 (Central Daylight Time)","122383","html-keyboard-response","33","55089","0.0-5.0-2.9","","3579","","<div class='trialBorder'><div class='vertical-center'><img style='vertical-align:center; align:center' src=img/fixation3.jpg></div><div class='cl'><div class='vertical-center'>$25<br>in<br>3 weeks</div></div><div class='cr'><div class='vertical-center'>$14<br><br>now</div></div><div class='respDivL'><div class='vertical-center'>(E)</div></div><div class='respDivR'><div class='vertical-center'>(I)</div></div></div>","E","$14<br><br>now","$25<br>in<br>3 weeks","1","14","25","3","THEN"
"","","","offerFB","63e885e4e1fc973179d56f63","bdp_td","Sun Apr 09 2023 17:41:32 GMT-0500 (Central Daylight Time)","122383","html-keyboard-response","34","55344","0.0-5.0-3.9","","null","","<div class='trialBorder'><div class='vertical-center'><img style='vertical-align:center; align:center' src=img/fixation3.jpg></div><div class='cl'><div class='vertical-center'><font style='color:orange'>$25<br>in<br>3 weeks</font></div></div><div class='cr'><div class='vertical-center'>$14<br><br>now</div></div><div class='respDivL'><div class='vertical-center'><font style='color:orange'>(E)</font></div></div><div class='respDivR'><div class='vertical-center'>(I)</div></div></div>","null","$14<br><br>now","$25<br>in<br>3 weeks","1","14","25","3",""
"","","","FIX","63e885e4e1fc973179d56f63","bdp_td","Sun Apr 09 2023 17:41:32 GMT-0500 (Central Daylight Time)","122383","html-keyboard-response","35","55859","0.0-5.0-1.10","","null","","<div class='trialBorder'><div class='vertical-center'><img style='vertical-align:center; align:center' src=img/fixation3.jpg></div></div>","null","","","","","","",""
"","","","offer","63e885e4e1fc973179d56f63","bdp_td","Sun Apr 09 2023 17:41:32 GMT-0500 (Central Daylight Time)","122383","html-keyboard-response","36","59342","0.0-5.0-2.10","","3477","","<div class='trialBorder'><div class='vertical-center'><img style='vertical-align:center; align:center' src=img/fixation3.jpg></div><div class='cl'><div class='vertical-center'>$55<br>in<br>6 weeks</div></div><div class='cr'><div class='vertical-center'>$40<br><br>now</div></div><div class='respDivL'><div class='vertical-center'>(E)</div></div><div class='respDivR'><div class='vertical-center'>(I)</div></div></div>","I","$40<br><br>now","$55<br>in<br>6 weeks","1","40","55","6","NOW"
"","","","offerFB","63e885e4e1fc973179d56f63","bdp_td","Sun Apr 09 2023 17:41:32 GMT-0500 (Central Daylight Time)","122383","html-keyboard-response","37","59618","0.0-5.0-3.10","","null","","<div class='trialBorder'><div class='vertical-center'><img style='vertical-align:center; align:center' src=img/fixation3.jpg></div><div class='cl'><div class='vertical-center'>$55<br>in<br>6 weeks</div></div><div class='cr'><div class='vertical-center'><font style='color:orange'>$40<br><br>now</font></div></div><div class='respDivL'><div class='vertical-center'>(E)</div></div><div class='respDivR'><div class='vertical-center'><font style='color:orange'>(I)</font></div></div></div>","null","$40<br><br>now","$55<br>in<br>6 weeks","1","40","55","6",""
"","","","FIX","63e885e4e1fc973179d56f63","bdp_td","Sun Apr 09 2023 17:41:32 GMT-0500 (Central Daylight Time)","122383","html-keyboard-response","38","60135","0.0-5.0-1.11","","null","","<div class='trialBorder'><div class='vertical-center'><img style='vertical-align:center; align:center' src=img/fixation3.jpg></div></div>","null","","","","","","",""
"","","","offer","63e885e4e1fc973179d56f63","bdp_td","Sun Apr 09 2023 17:41:32 GMT-0500 (Central Daylight Time)","122383","html-keyboard-response","39","62141","0.0-5.0-2.11","","2000","","<div class='trialBorder'><div class='vertical-center'><img style='vertical-align:center; align:center' src=img/fixation3.jpg></div><div class='cl'><div class='vertical-center'>$47<br><br>now</div></div><div class='cr'><div class='vertical-center'>$50<br>in<br>12 weeks</div></div><div class='respDivL'><div class='vertical-center'>(E)</div></div><div class='respDivR'><div class='vertical-center'>(I)</div></div></div>","E","$47<br><br>now","$50<br>in<br>12 weeks","0","47","50","12","NOW"
"","","","offerFB","63e885e4e1fc973179d56f63","bdp_td","Sun Apr 09 2023 17:41:32 GMT-0500 (Central Daylight Time)","122383","html-keyboard-response","40","62410","0.0-5.0-3.11","","null","","<div class='trialBorder'><div class='vertical-center'><img style='vertical-align:center; align:center' src=img/fixation3.jpg></div><div class='cl'><div class='vertical-center'><font style='color:orange'>$47<br><br>now</font></div></div><div class='cr'><div class='vertical-center'>$50<br>in<br>12 weeks</div></div><div class='respDivL'><div class='vertical-center'><font style='color:orange'>(E)</font></div></div><div class='respDivR'><div class='vertical-center'>(I)</div></div></div>","null","$47<br><br>now","$50<br>in<br>12 weeks","0","47","50","12",""
"","","","FIX","63e885e4e1fc973179d56f63","bdp_td","Sun Apr 09 2023 17:41:32 GMT-0500 (Central Daylight Time)","122383","html-keyboard-response","41","62926","0.0-5.0-1.12","","null","","<div class='trialBorder'><div class='vertical-center'><img style='vertical-align:center; align:center' src=img/fixation3.jpg></div></div>","null","","","","","","",""
"","","","offer","63e885e4e1fc973179d56f63","bdp_td","Sun Apr 09 2023 17:41:32 GMT-0500 (Central Daylight Time)","122383","html-keyboard-response","42","66154","0.0-5.0-2.12","","3223","","<div class='trialBorder'><div class='vertical-center'><img style='vertical-align:center; align:center' src=img/fixation3.jpg></div><div class='cl'><div class='vertical-center'>$80<br><br>now</div></div><div class='cr'><div class='vertical-center'>$85<br>in<br>12 weeks</div></div><div class='respDivL'><div class='vertical-center'>(E)</div></div><div class='respDivR'><div class='vertical-center'>(I)</div></div></div>","E","$80<br><br>now","$85<br>in<br>12 weeks","0","80","85","12","NOW"
"","","","offerFB","63e885e4e1fc973179d56f63","bdp_td","Sun Apr 09 2023 17:41:32 GMT-0500 (Central Daylight Time)","122383","html-keyboard-response","43","66422","0.0-5.0-3.12","","null","","<div class='trialBorder'><div class='vertical-center'><img style='vertical-align:center; align:center' src=img/fixation3.jpg></div><div class='cl'><div class='vertical-center'><font style='color:orange'>$80<br><br>now</font></div></div><div class='cr'><div class='vertical-center'>$85<br>in<br>12 weeks</div></div><div class='respDivL'><div class='vertical-center'><font style='color:orange'>(E)</font></div></div><div class='respDivR'><div class='vertical-center'>(I)</div></div></div>","null","$80<br><br>now","$85<br>in<br>12 weeks","0","80","85","12",""
"","","","FIX","63e885e4e1fc973179d56f63","bdp_td","Sun Apr 09 2023 17:41:32 GMT-0500 (Central Daylight Time)","122383","html-keyboard-response","44","66937","0.0-5.0-1.13","","null","","<div class='trialBorder'><div class='vertical-center'><img style='vertical-align:center; align:center' src=img/fixation3.jpg></div></div>","null","","","","","","",""
"","","","offer","63e885e4e1fc973179d56f63","bdp_td","Sun Apr 09 2023 17:41:32 GMT-0500 (Central Daylight Time)","122383","html-keyboard-response","45","72467","0.0-5.0-2.13","","5526","","<div class='trialBorder'><div class='vertical-center'><img style='vertical-align:center; align:center' src=img/fixation3.jpg></div><div class='cl'><div class='vertical-center'>$24<br><br>now</div></div><div class='cr'><div class='vertical-center'>$35<br>in<br>3 weeks</div></div><div class='respDivL'><div class='vertical-center'>(E)</div></div><div class='respDivR'><div class='vertical-center'>(I)</div></div></div>","E","$24<br><br>now","$35<br>in<br>3 weeks","0","24","35","3","NOW"
"","","","offerFB","63e885e4e1fc973179d56f63","bdp_td","Sun Apr 09 2023 17:41:32 GMT-0500 (Central Daylight Time)","122383","html-keyboard-response","46","72726","0.0-5.0-3.13","","null","","<div class='trialBorder'><div class='vertical-center'><img style='vertical-align:center; align:center' src=img/fixation3.jpg></div><div class='cl'><div class='vertical-center'><font style='color:orange'>$24<br><br>now</font></div></div><div class='cr'><div class='vertical-center'>$35<br>in<br>3 weeks</div></div><div class='respDivL'><div class='vertical-center'><font style='color:orange'>(E)</font></div></div><div class='respDivR'><div class='vertical-center'>(I)</div></div></div>","null","$24<br><br>now","$35<br>in<br>3 weeks","0","24","35","3",""
"","","","FIX","63e885e4e1fc973179d56f63","bdp_td","Sun Apr 09 2023 17:41:32 GMT-0500 (Central Daylight Time)","122383","html-keyboard-response","47","73242","0.0-5.0-1.14","","null","","<div class='trialBorder'><div class='vertical-center'><img style='vertical-align:center; align:center' src=img/fixation3.jpg></div></div>","null","","","","","","",""
"","","","offer","63e885e4e1fc973179d56f63","bdp_td","Sun Apr 09 2023 17:41:32 GMT-0500 (Central Daylight Time)","122383","html-keyboard-response","48","74984","0.0-5.0-2.14","","1739","","<div class='trialBorder'><div class='vertical-center'><img style='vertical-align:center; align:center' src=img/fixation3.jpg></div><div class='cl'><div class='vertical-center'>$25<br><br>now</div></div><div class='cr'><div class='vertical-center'>$60<br>in<br>3 weeks</div></div><div class='respDivL'><div class='vertical-center'>(E)</div></div><div class='respDivR'><div class='vertical-center'>(I)</div></div></div>","I","$25<br><br>now","$60<br>in<br>3 weeks","0","25","60","3","THEN"
"","","","offerFB","63e885e4e1fc973179d56f63","bdp_td","Sun Apr 09 2023 17:41:32 GMT-0500 (Central Daylight Time)","122383","html-keyboard-response","49","75250","0.0-5.0-3.14","","null","","<div class='trialBorder'><div class='vertical-center'><img style='vertical-align:center; align:center' src=img/fixation3.jpg></div><div class='cl'><div class='vertical-center'>$25<br><br>now</div></div><div class='cr'><div class='vertical-center'><font style='color:orange'>$60<br>in<br>3 weeks</font></div></div><div class='respDivL'><div class='vertical-center'>(E)</div></div><div class='respDivR'><div class='vertical-center'><font style='color:orange'>(I)</font></div></div></div>","null","$25<br><br>now","$60<br>in<br>3 weeks","0","25","60","3",""
"","","","FIX","63e885e4e1fc973179d56f63","bdp_td","Sun Apr 09 2023 17:41:32 GMT-0500 (Central Daylight Time)","122383","html-keyboard-response","50","75767","0.0-5.0-1.15","","null","","<div class='trialBorder'><div class='vertical-center'><img style='vertical-align:center; align:center' src=img/fixation3.jpg></div></div>","null","","","","","","",""
"","","","offer","63e885e4e1fc973179d56f63","bdp_td","Sun Apr 09 2023 17:41:32 GMT-0500 (Central Daylight Time)","122383","html-keyboard-response","51","78139","0.0-5.0-2.15","","2368","","<div class='trialBorder'><div class='vertical-center'><img style='vertical-align:center; align:center' src=img/fixation3.jpg></div><div class='cl'><div class='vertical-center'>$25<br>in<br>12 weeks</div></div><div class='cr'><div class='vertical-center'>$22<br><br>now</div></div><div class='respDivL'><div class='vertical-center'>(E)</div></div><div class='respDivR'><div class='vertical-center'>(I)</div></div></div>","I","$22<br><br>now","$25<br>in<br>12 weeks","1","22","25","12","NOW"
"","","","offerFB","63e885e4e1fc973179d56f63","bdp_td","Sun Apr 09 2023 17:41:32 GMT-0500 (Central Daylight Time)","122383","html-keyboard-response","52","78412","0.0-5.0-3.15","","null","","<div class='trialBorder'><div class='vertical-center'><img style='vertical-align:center; align:center' src=img/fixation3.jpg></div><div class='cl'><div class='vertical-center'>$25<br>in<br>12 weeks</div></div><div class='cr'><div class='vertical-center'><font style='color:orange'>$22<br><br>now</font></div></div><div class='respDivL'><div class='vertical-center'>(E)</div></div><div class='respDivR'><div class='vertical-center'><font style='color:orange'>(I)</font></div></div></div>","null","$22<br><br>now","$25<br>in<br>12 weeks","1","22","25","12",""
"","","","FIX","63e885e4e1fc973179d56f63","bdp_td","Sun Apr 09 2023 17:41:32 GMT-0500 (Central Daylight Time)","122383","html-keyboard-response","53","78928","0.0-5.0-1.16","","null","","<div class='trialBorder'><div class='vertical-center'><img style='vertical-align:center; align:center' src=img/fixation3.jpg></div></div>","null","","","","","","",""
"","","","offer","63e885e4e1fc973179d56f63","bdp_td","Sun Apr 09 2023 17:41:32 GMT-0500 (Central Daylight Time)","122383","html-keyboard-response","54","81819","0.0-5.0-2.16","","2887","","<div class='trialBorder'><div class='vertical-center'><img style='vertical-align:center; align:center' src=img/fixation3.jpg></div><div class='cl'><div class='vertical-center'>$60<br>in<br>12 weeks</div></div><div class='cr'><div class='vertical-center'>$54<br><br>now</div></div><div class='respDivL'><div class='vertical-center'>(E)</div></div><div class='respDivR'><div class='vertical-center'>(I)</div></div></div>","I","$54<br><br>now","$60<br>in<br>12 weeks","1","54","60","12","NOW"
"","","","offerFB","63e885e4e1fc973179d56f63","bdp_td","Sun Apr 09 2023 17:41:32 GMT-0500 (Central Daylight Time)","122383","html-keyboard-response","55","82084","0.0-5.0-3.16","","null","","<div class='trialBorder'><div class='vertical-center'><img style='vertical-align:center; align:center' src=img/fixation3.jpg></div><div class='cl'><div class='vertical-center'>$60<br>in<br>12 weeks</div></div><div class='cr'><div class='vertical-center'><font style='color:orange'>$54<br><br>now</font></div></div><div class='respDivL'><div class='vertical-center'>(E)</div></div><div class='respDivR'><div class='vertical-center'><font style='color:orange'>(I)</font></div></div></div>","null","$54<br><br>now","$60<br>in<br>12 weeks","1","54","60","12",""
"","","","FIX","63e885e4e1fc973179d56f63","bdp_td","Sun Apr 09 2023 17:41:32 GMT-0500 (Central Daylight Time)","122383","html-keyboard-response","56","82601","0.0-5.0-1.17","","null","","<div class='trialBorder'><div class='vertical-center'><img style='vertical-align:center; align:center' src=img/fixation3.jpg></div></div>","null","","","","","","",""
"","","","offer","63e885e4e1fc973179d56f63","bdp_td","Sun Apr 09 2023 17:41:32 GMT-0500 (Central Daylight Time)","122383","html-keyboard-response","57","85045","0.0-5.0-2.17","","2441","","<div class='trialBorder'><div class='vertical-center'><img style='vertical-align:center; align:center' src=img/fixation3.jpg></div><div class='cl'><div class='vertical-center'>$31<br><br>now</div></div><div class='cr'><div class='vertical-center'>$85<br>in<br>1 week</div></div><div class='respDivL'><div class='vertical-center'>(E)</div></div><div class='respDivR'><div class='vertical-center'>(I)</div></div></div>","I","$31<br><br>now","$85<br>in<br>1 week","0","31","85","1","THEN"
"","","","offerFB","63e885e4e1fc973179d56f63","bdp_td","Sun Apr 09 2023 17:41:32 GMT-0500 (Central Daylight Time)","122383","html-keyboard-response","58","85311","0.0-5.0-3.17","","null","","<div class='trialBorder'><div class='vertical-center'><img style='vertical-align:center; align:center' src=img/fixation3.jpg></div><div class='cl'><div class='vertical-center'>$31<br><br>now</div></div><div class='cr'><div class='vertical-center'><font style='color:orange'>$85<br>in<br>1 week</font></div></div><div class='respDivL'><div class='vertical-center'>(E)</div></div><div class='respDivR'><div class='vertical-center'><font style='color:orange'>(I)</font></div></div></div>","null","$31<br><br>now","$85<br>in<br>1 week","0","31","85","1",""
"","","","FIX","63e885e4e1fc973179d56f63","bdp_td","Sun Apr 09 2023 17:41:32 GMT-0500 (Central Daylight Time)","122383","html-keyboard-response","59","85813","0.0-5.0-1.18","","null","","<div class='trialBorder'><div class='vertical-center'><img style='vertical-align:center; align:center' src=img/fixation3.jpg></div></div>","null","","","","","","",""
"","","","offer","63e885e4e1fc973179d56f63","bdp_td","Sun Apr 09 2023 17:41:32 GMT-0500 (Central Daylight Time)","122383","html-keyboard-response","60","88151","0.0-5.0-2.18","","2334","","<div class='trialBorder'><div class='vertical-center'><img style='vertical-align:center; align:center' src=img/fixation3.jpg></div><div class='cl'><div class='vertical-center'>$54<br><br>now</div></div><div class='cr'><div class='vertical-center'>$80<br>in<br>3 weeks</div></div><div class='respDivL'><div class='vertical-center'>(E)</div></div><div class='respDivR'><div class='vertical-center'>(I)</div></div></div>","I","$54<br><br>now","$80<br>in<br>3 weeks","0","54","80","3","THEN"
"","","","offerFB","63e885e4e1fc973179d56f63","bdp_td","Sun Apr 09 2023 17:41:32 GMT-0500 (Central Daylight Time)","122383","html-keyboard-response","61","88404","0.0-5.0-3.18","","null","","<div class='trialBorder'><div class='vertical-center'><img style='vertical-align:center; align:center' src=img/fixation3.jpg></div><div class='cl'><div class='vertical-center'>$54<br><br>now</div></div><div class='cr'><div class='vertical-center'><font style='color:orange'>$80<br>in<br>3 weeks</font></div></div><div class='respDivL'><div class='vertical-center'>(E)</div></div><div class='respDivR'><div class='vertical-center'><font style='color:orange'>(I)</font></div></div></div>","null","$54<br><br>now","$80<br>in<br>3 weeks","0","54","80","3",""
"","","","FIX","63e885e4e1fc973179d56f63","bdp_td","Sun Apr 09 2023 17:41:32 GMT-0500 (Central Daylight Time)","122383","html-keyboard-response","62","88907","0.0-5.0-1.19","","null","","<div class='trialBorder'><div class='vertical-center'><img style='vertical-align:center; align:center' src=img/fixation3.jpg></div></div>","null","","","","","","",""
"","","","offer","63e885e4e1fc973179d56f63","bdp_td","Sun Apr 09 2023 17:41:32 GMT-0500 (Central Daylight Time)","122383","html-keyboard-response","63","92202","0.0-5.0-2.19","","3293","","<div class='trialBorder'><div class='vertical-center'><img style='vertical-align:center; align:center' src=img/fixation3.jpg></div><div class='cl'><div class='vertical-center'>$55<br>in<br>1 week</div></div><div class='cr'><div class='vertical-center'>$20<br><br>now</div></div><div class='respDivL'><div class='vertical-center'>(E)</div></div><div class='respDivR'><div class='vertical-center'>(I)</div></div></div>","E","$20<br><br>now","$55<br>in<br>1 week","1","20","55","1","THEN"
"","","","offerFB","63e885e4e1fc973179d56f63","bdp_td","Sun Apr 09 2023 17:41:32 GMT-0500 (Central Daylight Time)","122383","html-keyboard-response","64","92471","0.0-5.0-3.19","","null","","<div class='trialBorder'><div class='vertical-center'><img style='vertical-align:center; align:center' src=img/fixation3.jpg></div><div class='cl'><div class='vertical-center'><font style='color:orange'>$55<br>in<br>1 week</font></div></div><div class='cr'><div class='vertical-center'>$20<br><br>now</div></div><div class='respDivL'><div class='vertical-center'><font style='color:orange'>(E)</font></div></div><div class='respDivR'><div class='vertical-center'>(I)</div></div></div>","null","$20<br><br>now","$55<br>in<br>1 week","1","20","55","1",""
"","","","FIX","63e885e4e1fc973179d56f63","bdp_td","Sun Apr 09 2023 17:41:32 GMT-0500 (Central Daylight Time)","122383","html-keyboard-response","65","92987","0.0-5.0-1.20","","null","","<div class='trialBorder'><div class='vertical-center'><img style='vertical-align:center; align:center' src=img/fixation3.jpg></div></div>","null","","","","","","",""
"","","","offer","63e885e4e1fc973179d56f63","bdp_td","Sun Apr 09 2023 17:41:32 GMT-0500 (Central Daylight Time)","122383","html-keyboard-response","66","95102","0.0-5.0-2.20","","2112","","<div class='trialBorder'><div class='vertical-center'><img style='vertical-align:center; align:center' src=img/fixation3.jpg></div><div class='cl'><div class='vertical-center'>$54<br><br>now</div></div><div class='cr'><div class='vertical-center'>$55<br>in<br>12 weeks</div></div><div class='respDivL'><div class='vertical-center'>(E)</div></div><div class='respDivR'><div class='vertical-center'>(I)</div></div></div>","E","$54<br><br>now","$55<br>in<br>12 weeks","0","54","55","12","NOW"
"","","","offerFB","63e885e4e1fc973179d56f63","bdp_td","Sun Apr 09 2023 17:41:32 GMT-0500 (Central Daylight Time)","122383","html-keyboard-response","67","95366","0.0-5.0-3.20","","null","","<div class='trialBorder'><div class='vertical-center'><img style='vertical-align:center; align:center' src=img/fixation3.jpg></div><div class='cl'><div class='vertical-center'><font style='color:orange'>$54<br><br>now</font></div></div><div class='cr'><div class='vertical-center'>$55<br>in<br>12 weeks</div></div><div class='respDivL'><div class='vertical-center'><font style='color:orange'>(E)</font></div></div><div class='respDivR'><div class='vertical-center'>(I)</div></div></div>","null","$54<br><br>now","$55<br>in<br>12 weeks","0","54","55","12",""
"","","","FIX","63e885e4e1fc973179d56f63","bdp_td","Sun Apr 09 2023 17:41:32 GMT-0500 (Central Daylight Time)","122383","html-keyboard-response","68","95884","0.0-5.0-1.21","","null","","<div class='trialBorder'><div class='vertical-center'><img style='vertical-align:center; align:center' src=img/fixation3.jpg></div></div>","null","","","","","","",""
"","","","offer","63e885e4e1fc973179d56f63","bdp_td","Sun Apr 09 2023 17:41:32 GMT-0500 (Central Daylight Time)","122383","html-keyboard-response","69","99596","0.0-5.0-2.21","","3706","","<div class='trialBorder'><div class='vertical-center'><img style='vertical-align:center; align:center' src=img/fixation3.jpg></div><div class='cl'><div class='vertical-center'>$78<br><br>now</div></div><div class='cr'><div class='vertical-center'>$80<br>in<br>12 weeks</div></div><div class='respDivL'><div class='vertical-center'>(E)</div></div><div class='respDivR'><div class='vertical-center'>(I)</div></div></div>","E","$78<br><br>now","$80<br>in<br>12 weeks","0","78","80","12","NOW"
"","","","offerFB","63e885e4e1fc973179d56f63","bdp_td","Sun Apr 09 2023 17:41:32 GMT-0500 (Central Daylight Time)","122383","html-keyboard-response","70","99857","0.0-5.0-3.21","","null","","<div class='trialBorder'><div class='vertical-center'><img style='vertical-align:center; align:center' src=img/fixation3.jpg></div><div class='cl'><div class='vertical-center'><font style='color:orange'>$78<br><br>now</font></div></div><div class='cr'><div class='vertical-center'>$80<br>in<br>12 weeks</div></div><div class='respDivL'><div class='vertical-center'><font style='color:orange'>(E)</font></div></div><div class='respDivR'><div class='vertical-center'>(I)</div></div></div>","null","$78<br><br>now","$80<br>in<br>12 weeks","0","78","80","12",""
"","","","FIX","63e885e4e1fc973179d56f63","bdp_td","Sun Apr 09 2023 17:41:32 GMT-0500 (Central Daylight Time)","122383","html-keyboard-response","71","100382","0.0-5.0-1.22","","null","","<div class='trialBorder'><div class='vertical-center'><img style='vertical-align:center; align:center' src=img/fixation3.jpg></div></div>","null","","","","","","",""
"","","","offer","63e885e4e1fc973179d56f63","bdp_td","Sun Apr 09 2023 17:41:32 GMT-0500 (Central Daylight Time)","122383","html-keyboard-response","72","105235","0.0-5.0-2.22","","4848","","<div class='trialBorder'><div class='vertical-center'><img style='vertical-align:center; align:center' src=img/fixation3.jpg></div><div class='cl'><div class='vertical-center'>$85<br>in<br>6 weeks</div></div><div class='cr'><div class='vertical-center'>$69<br><br>now</div></div><div class='respDivL'><div class='vertical-center'>(E)</div></div><div class='respDivR'><div class='vertical-center'>(I)</div></div></div>","E","$69<br><br>now","$85<br>in<br>6 weeks","1","69","85","6","THEN"
"","","","offerFB","63e885e4e1fc973179d56f63","bdp_td","Sun Apr 09 2023 17:41:32 GMT-0500 (Central Daylight Time)","122383","html-keyboard-response","73","105498","0.0-5.0-3.22","","null","","<div class='trialBorder'><div class='vertical-center'><img style='vertical-align:center; align:center' src=img/fixation3.jpg></div><div class='cl'><div class='vertical-center'><font style='color:orange'>$85<br>in<br>6 weeks</font></div></div><div class='cr'><div class='vertical-center'>$69<br><br>now</div></div><div class='respDivL'><div class='vertical-center'><font style='color:orange'>(E)</font></div></div><div class='respDivR'><div class='vertical-center'>(I)</div></div></div>","null","$69<br><br>now","$85<br>in<br>6 weeks","1","69","85","6",""
"","","","FIX","63e885e4e1fc973179d56f63","bdp_td","Sun Apr 09 2023 17:41:32 GMT-0500 (Central Daylight Time)","122383","html-keyboard-response","74","106015","0.0-5.0-1.23","","null","","<div class='trialBorder'><div class='vertical-center'><img style='vertical-align:center; align:center' src=img/fixation3.jpg></div></div>","null","","","","","","",""
"","","","offer","63e885e4e1fc973179d56f63","bdp_td","Sun Apr 09 2023 17:41:32 GMT-0500 (Central Daylight Time)","122383","html-keyboard-response","75","110197","0.0-5.0-2.23","","4177","","<div class='trialBorder'><div class='vertical-center'><img style='vertical-align:center; align:center' src=img/fixation3.jpg></div><div class='cl'><div class='vertical-center'>$25<br>in<br>6 weeks</div></div><div class='cr'><div class='vertical-center'>$19<br><br>now</div></div><div class='respDivL'><div class='vertical-center'>(E)</div></div><div class='respDivR'><div class='vertical-center'>(I)</div></div></div>","I","$19<br><br>now","$25<br>in<br>6 weeks","1","19","25","6","NOW"
"","","","offerFB","63e885e4e1fc973179d56f63","bdp_td","Sun Apr 09 2023 17:41:32 GMT-0500 (Central Daylight Time)","122383","html-keyboard-response","76","110460","0.0-5.0-3.23","","null","","<div class='trialBorder'><div class='vertical-center'><img style='vertical-align:center; align:center' src=img/fixation3.jpg></div><div class='cl'><div class='vertical-center'>$25<br>in<br>6 weeks</div></div><div class='cr'><div class='vertical-center'><font style='color:orange'>$19<br><br>now</font></div></div><div class='respDivL'><div class='vertical-center'>(E)</div></div><div class='respDivR'><div class='vertical-center'><font style='color:orange'>(I)</font></div></div></div>","null","$19<br><br>now","$25<br>in<br>6 weeks","1","19","25","6",""
"","","","FIX","63e885e4e1fc973179d56f63","bdp_td","Sun Apr 09 2023 17:41:32 GMT-0500 (Central Daylight Time)","122383","html-keyboard-response","77","110977","0.0-5.0-1.24","","null","","<div class='trialBorder'><div class='vertical-center'><img style='vertical-align:center; align:center' src=img/fixation3.jpg></div></div>","null","","","","","","",""
"","","","offer","63e885e4e1fc973179d56f63","bdp_td","Sun Apr 09 2023 17:41:32 GMT-0500 (Central Daylight Time)","122383","html-keyboard-response","78","114698","0.0-5.0-2.24","","3719","","<div class='trialBorder'><div class='vertical-center'><img style='vertical-align:center; align:center' src=img/fixation3.jpg></div><div class='cl'><div class='vertical-center'>$30<br>in<br>6 weeks</div></div><div class='cr'><div class='vertical-center'>$25<br><br>now</div></div><div class='respDivL'><div class='vertical-center'>(E)</div></div><div class='respDivR'><div class='vertical-center'>(I)</div></div></div>","I","$25<br><br>now","$30<br>in<br>6 weeks","1","25","30","6","NOW"
"","","","offerFB","63e885e4e1fc973179d56f63","bdp_td","Sun Apr 09 2023 17:41:32 GMT-0500 (Central Daylight Time)","122383","html-keyboard-response","79","114958","0.0-5.0-3.24","","null","","<div class='trialBorder'><div class='vertical-center'><img style='vertical-align:center; align:center' src=img/fixation3.jpg></div><div class='cl'><div class='vertical-center'>$30<br>in<br>6 weeks</div></div><div class='cr'><div class='vertical-center'><font style='color:orange'>$25<br><br>now</font></div></div><div class='respDivL'><div class='vertical-center'>(E)</div></div><div class='respDivR'><div class='vertical-center'><font style='color:orange'>(I)</font></div></div></div>","null","$25<br><br>now","$30<br>in<br>6 weeks","1","25","30","6",""
"","","","FIX","63e885e4e1fc973179d56f63","bdp_td","Sun Apr 09 2023 17:41:32 GMT-0500 (Central Daylight Time)","122383","html-keyboard-response","80","115460","0.0-5.0-1.25","","null","","<div class='trialBorder'><div class='vertical-center'><img style='vertical-align:center; align:center' src=img/fixation3.jpg></div></div>","null","","","","","","",""
"","","","offer","63e885e4e1fc973179d56f63","bdp_td","Sun Apr 09 2023 17:41:32 GMT-0500 (Central Daylight Time)","122383","html-keyboard-response","81","117158","0.0-5.0-2.25","","1695","","<div class='trialBorder'><div class='vertical-center'><img style='vertical-align:center; align:center' src=img/fixation3.jpg></div><div class='cl'><div class='vertical-center'>$30<br>in<br>2 weeks</div></div><div class='cr'><div class='vertical-center'>$11<br><br>now</div></div><div class='respDivL'><div class='vertical-center'>(E)</div></div><div class='respDivR'><div class='vertical-center'>(I)</div></div></div>","E","$11<br><br>now","$30<br>in<br>2 weeks","1","11","30","2","THEN"
"","","","offerFB","63e885e4e1fc973179d56f63","bdp_td","Sun Apr 09 2023 17:41:32 GMT-0500 (Central Daylight Time)","122383","html-keyboard-response","82","117415","0.0-5.0-3.25","","null","","<div class='trialBorder'><div class='vertical-center'><img style='vertical-align:center; align:center' src=img/fixation3.jpg></div><div class='cl'><div class='vertical-center'><font style='color:orange'>$30<br>in<br>2 weeks</font></div></div><div class='cr'><div class='vertical-center'>$11<br><br>now</div></div><div class='respDivL'><div class='vertical-center'><font style='color:orange'>(E)</font></div></div><div class='respDivR'><div class='vertical-center'>(I)</div></div></div>","null","$11<br><br>now","$30<br>in<br>2 weeks","1","11","30","2",""
"","","","FIX","63e885e4e1fc973179d56f63","bdp_td","Sun Apr 09 2023 17:41:32 GMT-0500 (Central Daylight Time)","122383","html-keyboard-response","83","117939","0.0-5.0-1.26","","null","","<div class='trialBorder'><div class='vertical-center'><img style='vertical-align:center; align:center' src=img/fixation3.jpg></div></div>","null","","","","","","",""
"","","","offer","63e885e4e1fc973179d56f63","bdp_td","Sun Apr 09 2023 17:41:32 GMT-0500 (Central Daylight Time)","122383","html-keyboard-response","84","121115","0.0-5.0-2.26","","3174","","<div class='trialBorder'><div class='vertical-center'><img style='vertical-align:center; align:center' src=img/fixation3.jpg></div><div class='cl'><div class='vertical-center'>$75<br>in<br>6 weeks</div></div><div class='cr'><div class='vertical-center'>$55<br><br>now</div></div><div class='respDivL'><div class='vertical-center'>(E)</div></div><div class='respDivR'><div class='vertical-center'>(I)</div></div></div>","E","$55<br><br>now","$75<br>in<br>6 weeks","1","55","75","6","THEN"
"","","","offerFB","63e885e4e1fc973179d56f63","bdp_td","Sun Apr 09 2023 17:41:32 GMT-0500 (Central Daylight Time)","122383","html-keyboard-response","85","121379","0.0-5.0-3.26","","null","","<div class='trialBorder'><div class='vertical-center'><img style='vertical-align:center; align:center' src=img/fixation3.jpg></div><div class='cl'><div class='vertical-center'><font style='color:orange'>$75<br>in<br>6 weeks</font></div></div><div class='cr'><div class='vertical-center'>$55<br><br>now</div></div><div class='respDivL'><div class='vertical-center'><font style='color:orange'>(E)</font></div></div><div class='respDivR'><div class='vertical-center'>(I)</div></div></div>","null","$55<br><br>now","$75<br>in<br>6 weeks","1","55","75","6",""
"fullscreenexit","86","121678","fullscreenexit","63e885e4e1fc973179d56f63","bdp_td","Sun Apr 09 2023 17:41:32 GMT-0500 (Central Daylight Time)","122383","","","","","","","","","","","","","","","",""
"","","","","63e885e4e1fc973179d56f63","bdp_td","Sun Apr 09 2023 17:41:32 GMT-0500 (Central Daylight Time)","122383","fullscreen","86","122382","0.0-6.0","","","true","","","","","","","","",""
"","","","","","","","","html-keyboard-response","87","122900","0.0-7.0","","null","","","null","","","","","","",""
