"trial_type","trial_index","time_elapsed","internal_node_id","subject_id","task","startTime","totalTime","view_history","rt","event","trial","time","trialtype","success","stimulus","key_press","nowOffer","thenOffer","thenLeft","nowAmt","thenAmt","thenWeeks","chosen"
"pavlovia","0","2","0.0-0.0","63e7ac6bcbc2e035cbeadf8a","bdp_td","Tue Mar 28 2023 11:43:14 GMT-0400 (Eastern Daylight Time)","145198","","","","","","","","","","","","","","","",""
"instructions","1","3328","0.0-1.0","63e7ac6bcbc2e035cbeadf8a","bdp_td","Tue Mar 28 2023 11:43:14 GMT-0400 (Eastern Daylight Time)","145198","[{""page_index"":0,""viewing_time"":3325}]","3326","","","","","","","","","","","","","",""
"","","","","63e7ac6bcbc2e035cbeadf8a","bdp_td","Tue Mar 28 2023 11:43:14 GMT-0400 (Eastern Daylight Time)","145198","","","fullscreenenter","2","5657","fullscreenenter","","","","","","","","","",""
"fullscreen","2","6645","0.0-2.0","63e7ac6bcbc2e035cbeadf8a","bdp_td","Tue Mar 28 2023 11:43:14 GMT-0400 (Eastern Daylight Time)","145198","","","","","","","true","","","","","","","","",""
"instructions","3","53303","0.0-4.0","63e7ac6bcbc2e035cbeadf8a","bdp_td","Tue Mar 28 2023 11:43:14 GMT-0400 (Eastern Daylight Time)","145198","[{""page_index"":0,""viewing_time"":13849},{""page_index"":1,""viewing_time"":21526},{""page_index"":2,""viewing_time"":11282}]","46657","","","","","","","","","","","","","",""
"html-keyboard-response","4","53804","0.0-5.0-1.0","63e7ac6bcbc2e035cbeadf8a","bdp_td","Tue Mar 28 2023 11:43:14 GMT-0400 (Eastern Daylight Time)","145198","","null","","","","FIX","","<div class='trialBorder'><div class='vertical-center'><img style='vertical-align:center; align:center' src=img/fixation3.jpg></div></div>","null","","","","","","",""
"html-keyboard-response","5","57547","0.0-5.0-2.0","63e7ac6bcbc2e035cbeadf8a","bdp_td","Tue Mar 28 2023 11:43:14 GMT-0400 (Eastern Daylight Time)","145198","","3742","","","","offer","","<div class='trialBorder'><div class='vertical-center'><img style='vertical-align:center; align:center' src=img/fixation3.jpg></div><div class='cl'><div class='vertical-center'>$35<br>in<br>12 weeks</div></div><div class='cr'><div class='vertical-center'>$34<br><br>now</div></div><div class='respDivL'><div class='vertical-center'>(E)</div></div><div class='respDivR'><div class='vertical-center'>(I)</div></div></div>","I","$34<br><br>now","$35<br>in<br>12 weeks","1","34","35","12","NOW"
"html-keyboard-response","6","57799","0.0-5.0-3.0","63e7ac6bcbc2e035cbeadf8a","bdp_td","Tue Mar 28 2023 11:43:14 GMT-0400 (Eastern Daylight Time)","145198","","null","","","","offerFB","","<div class='trialBorder'><div class='vertical-center'><img style='vertical-align:center; align:center' src=img/fixation3.jpg></div><div class='cl'><div class='vertical-center'>$35<br>in<br>12 weeks</div></div><div class='cr'><div class='vertical-center'><font style='color:orange'>$34<br><br>now</font></div></div><div class='respDivL'><div class='vertical-center'>(E)</div></div><div class='respDivR'><div class='vertical-center'><font style='color:orange'>(I)</font></div></div></div>","null","$34<br><br>now","$35<br>in<br>12 weeks","1","34","35","12",""
"html-keyboard-response","7","58300","0.0-5.0-1.1","63e7ac6bcbc2e035cbeadf8a","bdp_td","Tue Mar 28 2023 11:43:14 GMT-0400 (Eastern Daylight Time)","145198","","null","","","","FIX","","<div class='trialBorder'><div class='vertical-center'><img style='vertical-align:center; align:center' src=img/fixation3.jpg></div></div>","null","","","","","","",""
"html-keyboard-response","8","61737","0.0-5.0-2.1","63e7ac6bcbc2e035cbeadf8a","bdp_td","Tue Mar 28 2023 11:43:14 GMT-0400 (Eastern Daylight Time)","145198","","3437","","","","offer","","<div class='trialBorder'><div class='vertical-center'><img style='vertical-align:center; align:center' src=img/fixation3.jpg></div><div class='cl'><div class='vertical-center'>$14<br><br>now</div></div><div class='cr'><div class='vertical-center'>$25<br>in<br>3 weeks</div></div><div class='respDivL'><div class='vertical-center'>(E)</div></div><div class='respDivR'><div class='vertical-center'>(I)</div></div></div>","I","$14<br><br>now","$25<br>in<br>3 weeks","0","14","25","3","THEN"
"html-keyboard-response","9","61989","0.0-5.0-3.1","63e7ac6bcbc2e035cbeadf8a","bdp_td","Tue Mar 28 2023 11:43:14 GMT-0400 (Eastern Daylight Time)","145198","","null","","","","offerFB","","<div class='trialBorder'><div class='vertical-center'><img style='vertical-align:center; align:center' src=img/fixation3.jpg></div><div class='cl'><div class='vertical-center'>$14<br><br>now</div></div><div class='cr'><div class='vertical-center'><font style='color:orange'>$25<br>in<br>3 weeks</font></div></div><div class='respDivL'><div class='vertical-center'>(E)</div></div><div class='respDivR'><div class='vertical-center'><font style='color:orange'>(I)</font></div></div></div>","null","$14<br><br>now","$25<br>in<br>3 weeks","0","14","25","3",""
"html-keyboard-response","10","62490","0.0-5.0-1.2","63e7ac6bcbc2e035cbeadf8a","bdp_td","Tue Mar 28 2023 11:43:14 GMT-0400 (Eastern Daylight Time)","145198","","null","","","","FIX","","<div class='trialBorder'><div class='vertical-center'><img style='vertical-align:center; align:center' src=img/fixation3.jpg></div></div>","null","","","","","","",""
"html-keyboard-response","11","65776","0.0-5.0-2.2","63e7ac6bcbc2e035cbeadf8a","bdp_td","Tue Mar 28 2023 11:43:14 GMT-0400 (Eastern Daylight Time)","145198","","3285","","","","offer","","<div class='trialBorder'><div class='vertical-center'><img style='vertical-align:center; align:center' src=img/fixation3.jpg></div><div class='cl'><div class='vertical-center'>$60<br>in<br>6 weeks</div></div><div class='cr'><div class='vertical-center'>$49<br><br>now</div></div><div class='respDivL'><div class='vertical-center'>(E)</div></div><div class='respDivR'><div class='vertical-center'>(I)</div></div></div>","E","$49<br><br>now","$60<br>in<br>6 weeks","1","49","60","6","THEN"
"html-keyboard-response","12","66026","0.0-5.0-3.2","63e7ac6bcbc2e035cbeadf8a","bdp_td","Tue Mar 28 2023 11:43:14 GMT-0400 (Eastern Daylight Time)","145198","","null","","","","offerFB","","<div class='trialBorder'><div class='vertical-center'><img style='vertical-align:center; align:center' src=img/fixation3.jpg></div><div class='cl'><div class='vertical-center'><font style='color:orange'>$60<br>in<br>6 weeks</font></div></div><div class='cr'><div class='vertical-center'>$49<br><br>now</div></div><div class='respDivL'><div class='vertical-center'><font style='color:orange'>(E)</font></div></div><div class='respDivR'><div class='vertical-center'>(I)</div></div></div>","null","$49<br><br>now","$60<br>in<br>6 weeks","1","49","60","6",""
"html-keyboard-response","13","66528","0.0-5.0-1.3","63e7ac6bcbc2e035cbeadf8a","bdp_td","Tue Mar 28 2023 11:43:14 GMT-0400 (Eastern Daylight Time)","145198","","null","","","","FIX","","<div class='trialBorder'><div class='vertical-center'><img style='vertical-align:center; align:center' src=img/fixation3.jpg></div></div>","null","","","","","","",""
"html-keyboard-response","14","68423","0.0-5.0-2.3","63e7ac6bcbc2e035cbeadf8a","bdp_td","Tue Mar 28 2023 11:43:14 GMT-0400 (Eastern Daylight Time)","145198","","1895","","","","offer","","<div class='trialBorder'><div class='vertical-center'><img style='vertical-align:center; align:center' src=img/fixation3.jpg></div><div class='cl'><div class='vertical-center'>$75<br>in<br>6 weeks</div></div><div class='cr'><div class='vertical-center'>$55<br><br>now</div></div><div class='respDivL'><div class='vertical-center'>(E)</div></div><div class='respDivR'><div class='vertical-center'>(I)</div></div></div>","E","$55<br><br>now","$75<br>in<br>6 weeks","1","55","75","6","THEN"
"html-keyboard-response","15","68675","0.0-5.0-3.3","63e7ac6bcbc2e035cbeadf8a","bdp_td","Tue Mar 28 2023 11:43:14 GMT-0400 (Eastern Daylight Time)","145198","","null","","","","offerFB","","<div class='trialBorder'><div class='vertical-center'><img style='vertical-align:center; align:center' src=img/fixation3.jpg></div><div class='cl'><div class='vertical-center'><font style='color:orange'>$75<br>in<br>6 weeks</font></div></div><div class='cr'><div class='vertical-center'>$55<br><br>now</div></div><div class='respDivL'><div class='vertical-center'><font style='color:orange'>(E)</font></div></div><div class='respDivR'><div class='vertical-center'>(I)</div></div></div>","null","$55<br><br>now","$75<br>in<br>6 weeks","1","55","75","6",""
"html-keyboard-response","16","69175","0.0-5.0-1.4","63e7ac6bcbc2e035cbeadf8a","bdp_td","Tue Mar 28 2023 11:43:14 GMT-0400 (Eastern Daylight Time)","145198","","null","","","","FIX","","<div class='trialBorder'><div class='vertical-center'><img style='vertical-align:center; align:center' src=img/fixation3.jpg></div></div>","null","","","","","","",""
"html-keyboard-response","17","71199","0.0-5.0-2.4","63e7ac6bcbc2e035cbeadf8a","bdp_td","Tue Mar 28 2023 11:43:14 GMT-0400 (Eastern Daylight Time)","145198","","2024","","","","offer","","<div class='trialBorder'><div class='vertical-center'><img style='vertical-align:center; align:center' src=img/fixation3.jpg></div><div class='cl'><div class='vertical-center'>$35<br>in<br>3 weeks</div></div><div class='cr'><div class='vertical-center'>$24<br><br>now</div></div><div class='respDivL'><div class='vertical-center'>(E)</div></div><div class='respDivR'><div class='vertical-center'>(I)</div></div></div>","E","$24<br><br>now","$35<br>in<br>3 weeks","1","24","35","3","THEN"
"html-keyboard-response","18","71451","0.0-5.0-3.4","63e7ac6bcbc2e035cbeadf8a","bdp_td","Tue Mar 28 2023 11:43:14 GMT-0400 (Eastern Daylight Time)","145198","","null","","","","offerFB","","<div class='trialBorder'><div class='vertical-center'><img style='vertical-align:center; align:center' src=img/fixation3.jpg></div><div class='cl'><div class='vertical-center'><font style='color:orange'>$35<br>in<br>3 weeks</font></div></div><div class='cr'><div class='vertical-center'>$24<br><br>now</div></div><div class='respDivL'><div class='vertical-center'><font style='color:orange'>(E)</font></div></div><div class='respDivR'><div class='vertical-center'>(I)</div></div></div>","null","$24<br><br>now","$35<br>in<br>3 weeks","1","24","35","3",""
"html-keyboard-response","19","71952","0.0-5.0-1.5","63e7ac6bcbc2e035cbeadf8a","bdp_td","Tue Mar 28 2023 11:43:14 GMT-0400 (Eastern Daylight Time)","145198","","null","","","","FIX","","<div class='trialBorder'><div class='vertical-center'><img style='vertical-align:center; align:center' src=img/fixation3.jpg></div></div>","null","","","","","","",""
"html-keyboard-response","20","73521","0.0-5.0-2.5","63e7ac6bcbc2e035cbeadf8a","bdp_td","Tue Mar 28 2023 11:43:14 GMT-0400 (Eastern Daylight Time)","145198","","1569","","","","offer","","<div class='trialBorder'><div class='vertical-center'><img style='vertical-align:center; align:center' src=img/fixation3.jpg></div><div class='cl'><div class='vertical-center'>$35<br>in<br>2 weeks</div></div><div class='cr'><div class='vertical-center'>$15<br><br>now</div></div><div class='respDivL'><div class='vertical-center'>(E)</div></div><div class='respDivR'><div class='vertical-center'>(I)</div></div></div>","E","$15<br><br>now","$35<br>in<br>2 weeks","1","15","35","2","THEN"
"html-keyboard-response","21","73772","0.0-5.0-3.5","63e7ac6bcbc2e035cbeadf8a","bdp_td","Tue Mar 28 2023 11:43:14 GMT-0400 (Eastern Daylight Time)","145198","","null","","","","offerFB","","<div class='trialBorder'><div class='vertical-center'><img style='vertical-align:center; align:center' src=img/fixation3.jpg></div><div class='cl'><div class='vertical-center'><font style='color:orange'>$35<br>in<br>2 weeks</font></div></div><div class='cr'><div class='vertical-center'>$15<br><br>now</div></div><div class='respDivL'><div class='vertical-center'><font style='color:orange'>(E)</font></div></div><div class='respDivR'><div class='vertical-center'>(I)</div></div></div>","null","$15<br><br>now","$35<br>in<br>2 weeks","1","15","35","2",""
"html-keyboard-response","22","74273","0.0-5.0-1.6","63e7ac6bcbc2e035cbeadf8a","bdp_td","Tue Mar 28 2023 11:43:14 GMT-0400 (Eastern Daylight Time)","145198","","null","","","","FIX","","<div class='trialBorder'><div class='vertical-center'><img style='vertical-align:center; align:center' src=img/fixation3.jpg></div></div>","null","","","","","","",""
"html-keyboard-response","23","76102","0.0-5.0-2.6","63e7ac6bcbc2e035cbeadf8a","bdp_td","Tue Mar 28 2023 11:43:14 GMT-0400 (Eastern Daylight Time)","145198","","1829","","","","offer","","<div class='trialBorder'><div class='vertical-center'><img style='vertical-align:center; align:center' src=img/fixation3.jpg></div><div class='cl'><div class='vertical-center'>$11<br><br>now</div></div><div class='cr'><div class='vertical-center'>$30<br>in<br>2 weeks</div></div><div class='respDivL'><div class='vertical-center'>(E)</div></div><div class='respDivR'><div class='vertical-center'>(I)</div></div></div>","I","$11<br><br>now","$30<br>in<br>2 weeks","0","11","30","2","THEN"
"html-keyboard-response","24","76354","0.0-5.0-3.6","63e7ac6bcbc2e035cbeadf8a","bdp_td","Tue Mar 28 2023 11:43:14 GMT-0400 (Eastern Daylight Time)","145198","","null","","","","offerFB","","<div class='trialBorder'><div class='vertical-center'><img style='vertical-align:center; align:center' src=img/fixation3.jpg></div><div class='cl'><div class='vertical-center'>$11<br><br>now</div></div><div class='cr'><div class='vertical-center'><font style='color:orange'>$30<br>in<br>2 weeks</font></div></div><div class='respDivL'><div class='vertical-center'>(E)</div></div><div class='respDivR'><div class='vertical-center'><font style='color:orange'>(I)</font></div></div></div>","null","$11<br><br>now","$30<br>in<br>2 weeks","0","11","30","2",""
"html-keyboard-response","25","76855","0.0-5.0-1.7","63e7ac6bcbc2e035cbeadf8a","bdp_td","Tue Mar 28 2023 11:43:14 GMT-0400 (Eastern Daylight Time)","145198","","null","","","","FIX","","<div class='trialBorder'><div class='vertical-center'><img style='vertical-align:center; align:center' src=img/fixation3.jpg></div></div>","null","","","","","","",""
"html-keyboard-response","26","78959","0.0-5.0-2.7","63e7ac6bcbc2e035cbeadf8a","bdp_td","Tue Mar 28 2023 11:43:14 GMT-0400 (Eastern Daylight Time)","145198","","2104","","","","offer","","<div class='trialBorder'><div class='vertical-center'><img style='vertical-align:center; align:center' src=img/fixation3.jpg></div><div class='cl'><div class='vertical-center'>$78<br><br>now</div></div><div class='cr'><div class='vertical-center'>$80<br>in<br>12 weeks</div></div><div class='respDivL'><div class='vertical-center'>(E)</div></div><div class='respDivR'><div class='vertical-center'>(I)</div></div></div>","E","$78<br><br>now","$80<br>in<br>12 weeks","0","78","80","12","NOW"
"html-keyboard-response","27","79210","0.0-5.0-3.7","63e7ac6bcbc2e035cbeadf8a","bdp_td","Tue Mar 28 2023 11:43:14 GMT-0400 (Eastern Daylight Time)","145198","","null","","","","offerFB","","<div class='trialBorder'><div class='vertical-center'><img style='vertical-align:center; align:center' src=img/fixation3.jpg></div><div class='cl'><div class='vertical-center'><font style='color:orange'>$78<br><br>now</font></div></div><div class='cr'><div class='vertical-center'>$80<br>in<br>12 weeks</div></div><div class='respDivL'><div class='vertical-center'><font style='color:orange'>(E)</font></div></div><div class='respDivR'><div class='vertical-center'>(I)</div></div></div>","null","$78<br><br>now","$80<br>in<br>12 weeks","0","78","80","12",""
"html-keyboard-response","28","79711","0.0-5.0-1.8","63e7ac6bcbc2e035cbeadf8a","bdp_td","Tue Mar 28 2023 11:43:14 GMT-0400 (Eastern Daylight Time)","145198","","null","","","","FIX","","<div class='trialBorder'><div class='vertical-center'><img style='vertical-align:center; align:center' src=img/fixation3.jpg></div></div>","null","","","","","","",""
"html-keyboard-response","29","82054","0.0-5.0-2.8","63e7ac6bcbc2e035cbeadf8a","bdp_td","Tue Mar 28 2023 11:43:14 GMT-0400 (Eastern Daylight Time)","145198","","2343","","","","offer","","<div class='trialBorder'><div class='vertical-center'><img style='vertical-align:center; align:center' src=img/fixation3.jpg></div><div class='cl'><div class='vertical-center'>$60<br>in<br>3 weeks</div></div><div class='cr'><div class='vertical-center'>$25<br><br>now</div></div><div class='respDivL'><div class='vertical-center'>(E)</div></div><div class='respDivR'><div class='vertical-center'>(I)</div></div></div>","E","$25<br><br>now","$60<br>in<br>3 weeks","1","25","60","3","THEN"
"html-keyboard-response","30","82305","0.0-5.0-3.8","63e7ac6bcbc2e035cbeadf8a","bdp_td","Tue Mar 28 2023 11:43:14 GMT-0400 (Eastern Daylight Time)","145198","","null","","","","offerFB","","<div class='trialBorder'><div class='vertical-center'><img style='vertical-align:center; align:center' src=img/fixation3.jpg></div><div class='cl'><div class='vertical-center'><font style='color:orange'>$60<br>in<br>3 weeks</font></div></div><div class='cr'><div class='vertical-center'>$25<br><br>now</div></div><div class='respDivL'><div class='vertical-center'><font style='color:orange'>(E)</font></div></div><div class='respDivR'><div class='vertical-center'>(I)</div></div></div>","null","$25<br><br>now","$60<br>in<br>3 weeks","1","25","60","3",""
"html-keyboard-response","31","82806","0.0-5.0-1.9","63e7ac6bcbc2e035cbeadf8a","bdp_td","Tue Mar 28 2023 11:43:14 GMT-0400 (Eastern Daylight Time)","145198","","null","","","","FIX","","<div class='trialBorder'><div class='vertical-center'><img style='vertical-align:center; align:center' src=img/fixation3.jpg></div></div>","null","","","","","","",""
"html-keyboard-response","32","85844","0.0-5.0-2.9","63e7ac6bcbc2e035cbeadf8a","bdp_td","Tue Mar 28 2023 11:43:14 GMT-0400 (Eastern Daylight Time)","145198","","3037","","","","offer","","<div class='trialBorder'><div class='vertical-center'><img style='vertical-align:center; align:center' src=img/fixation3.jpg></div><div class='cl'><div class='vertical-center'>$69<br><br>now</div></div><div class='cr'><div class='vertical-center'>$85<br>in<br>6 weeks</div></div><div class='respDivL'><div class='vertical-center'>(E)</div></div><div class='respDivR'><div class='vertical-center'>(I)</div></div></div>","I","$69<br><br>now","$85<br>in<br>6 weeks","0","69","85","6","THEN"
"html-keyboard-response","33","86095","0.0-5.0-3.9","63e7ac6bcbc2e035cbeadf8a","bdp_td","Tue Mar 28 2023 11:43:14 GMT-0400 (Eastern Daylight Time)","145198","","null","","","","offerFB","","<div class='trialBorder'><div class='vertical-center'><img style='vertical-align:center; align:center' src=img/fixation3.jpg></div><div class='cl'><div class='vertical-center'>$69<br><br>now</div></div><div class='cr'><div class='vertical-center'><font style='color:orange'>$85<br>in<br>6 weeks</font></div></div><div class='respDivL'><div class='vertical-center'>(E)</div></div><div class='respDivR'><div class='vertical-center'><font style='color:orange'>(I)</font></div></div></div>","null","$69<br><br>now","$85<br>in<br>6 weeks","0","69","85","6",""
"html-keyboard-response","34","86596","0.0-5.0-1.10","63e7ac6bcbc2e035cbeadf8a","bdp_td","Tue Mar 28 2023 11:43:14 GMT-0400 (Eastern Daylight Time)","145198","","null","","","","FIX","","<div class='trialBorder'><div class='vertical-center'><img style='vertical-align:center; align:center' src=img/fixation3.jpg></div></div>","null","","","","","","",""
"html-keyboard-response","35","90412","0.0-5.0-2.10","63e7ac6bcbc2e035cbeadf8a","bdp_td","Tue Mar 28 2023 11:43:14 GMT-0400 (Eastern Daylight Time)","145198","","3815","","","","offer","","<div class='trialBorder'><div class='vertical-center'><img style='vertical-align:center; align:center' src=img/fixation3.jpg></div><div class='cl'><div class='vertical-center'>$54<br><br>now</div></div><div class='cr'><div class='vertical-center'>$60<br>in<br>12 weeks</div></div><div class='respDivL'><div class='vertical-center'>(E)</div></div><div class='respDivR'><div class='vertical-center'>(I)</div></div></div>","E","$54<br><br>now","$60<br>in<br>12 weeks","0","54","60","12","NOW"
"html-keyboard-response","36","90664","0.0-5.0-3.10","63e7ac6bcbc2e035cbeadf8a","bdp_td","Tue Mar 28 2023 11:43:14 GMT-0400 (Eastern Daylight Time)","145198","","null","","","","offerFB","","<div class='trialBorder'><div class='vertical-center'><img style='vertical-align:center; align:center' src=img/fixation3.jpg></div><div class='cl'><div class='vertical-center'><font style='color:orange'>$54<br><br>now</font></div></div><div class='cr'><div class='vertical-center'>$60<br>in<br>12 weeks</div></div><div class='respDivL'><div class='vertical-center'><font style='color:orange'>(E)</font></div></div><div class='respDivR'><div class='vertical-center'>(I)</div></div></div>","null","$54<br><br>now","$60<br>in<br>12 weeks","0","54","60","12",""
"html-keyboard-response","37","91164","0.0-5.0-1.11","63e7ac6bcbc2e035cbeadf8a","bdp_td","Tue Mar 28 2023 11:43:14 GMT-0400 (Eastern Daylight Time)","145198","","null","","","","FIX","","<div class='trialBorder'><div class='vertical-center'><img style='vertical-align:center; align:center' src=img/fixation3.jpg></div></div>","null","","","","","","",""
"html-keyboard-response","38","93935","0.0-5.0-2.11","63e7ac6bcbc2e035cbeadf8a","bdp_td","Tue Mar 28 2023 11:43:14 GMT-0400 (Eastern Daylight Time)","145198","","2770","","","","offer","","<div class='trialBorder'><div class='vertical-center'><img style='vertical-align:center; align:center' src=img/fixation3.jpg></div><div class='cl'><div class='vertical-center'>$25<br>in<br>12 weeks</div></div><div class='cr'><div class='vertical-center'>$22<br><br>now</div></div><div class='respDivL'><div class='vertical-center'>(E)</div></div><div class='respDivR'><div class='vertical-center'>(I)</div></div></div>","I","$22<br><br>now","$25<br>in<br>12 weeks","1","22","25","12","NOW"
"html-keyboard-response","39","94186","0.0-5.0-3.11","63e7ac6bcbc2e035cbeadf8a","bdp_td","Tue Mar 28 2023 11:43:14 GMT-0400 (Eastern Daylight Time)","145198","","null","","","","offerFB","","<div class='trialBorder'><div class='vertical-center'><img style='vertical-align:center; align:center' src=img/fixation3.jpg></div><div class='cl'><div class='vertical-center'>$25<br>in<br>12 weeks</div></div><div class='cr'><div class='vertical-center'><font style='color:orange'>$22<br><br>now</font></div></div><div class='respDivL'><div class='vertical-center'>(E)</div></div><div class='respDivR'><div class='vertical-center'><font style='color:orange'>(I)</font></div></div></div>","null","$22<br><br>now","$25<br>in<br>12 weeks","1","22","25","12",""
"html-keyboard-response","40","94687","0.0-5.0-1.12","63e7ac6bcbc2e035cbeadf8a","bdp_td","Tue Mar 28 2023 11:43:14 GMT-0400 (Eastern Daylight Time)","145198","","null","","","","FIX","","<div class='trialBorder'><div class='vertical-center'><img style='vertical-align:center; align:center' src=img/fixation3.jpg></div></div>","null","","","","","","",""
"html-keyboard-response","41","98938","0.0-5.0-2.12","63e7ac6bcbc2e035cbeadf8a","bdp_td","Tue Mar 28 2023 11:43:14 GMT-0400 (Eastern Daylight Time)","145198","","4251","","","","offer","","<div class='trialBorder'><div class='vertical-center'><img style='vertical-align:center; align:center' src=img/fixation3.jpg></div><div class='cl'><div class='vertical-center'>$67<br><br>now</div></div><div class='cr'><div class='vertical-center'>$75<br>in<br>12 weeks</div></div><div class='respDivL'><div class='vertical-center'>(E)</div></div><div class='respDivR'><div class='vertical-center'>(I)</div></div></div>","E","$67<br><br>now","$75<br>in<br>12 weeks","0","67","75","12","NOW"
"html-keyboard-response","42","99189","0.0-5.0-3.12","63e7ac6bcbc2e035cbeadf8a","bdp_td","Tue Mar 28 2023 11:43:14 GMT-0400 (Eastern Daylight Time)","145198","","null","","","","offerFB","","<div class='trialBorder'><div class='vertical-center'><img style='vertical-align:center; align:center' src=img/fixation3.jpg></div><div class='cl'><div class='vertical-center'><font style='color:orange'>$67<br><br>now</font></div></div><div class='cr'><div class='vertical-center'>$75<br>in<br>12 weeks</div></div><div class='respDivL'><div class='vertical-center'><font style='color:orange'>(E)</font></div></div><div class='respDivR'><div class='vertical-center'>(I)</div></div></div>","null","$67<br><br>now","$75<br>in<br>12 weeks","0","67","75","12",""
"html-keyboard-response","43","99690","0.0-5.0-1.13","63e7ac6bcbc2e035cbeadf8a","bdp_td","Tue Mar 28 2023 11:43:14 GMT-0400 (Eastern Daylight Time)","145198","","null","","","","FIX","","<div class='trialBorder'><div class='vertical-center'><img style='vertical-align:center; align:center' src=img/fixation3.jpg></div></div>","null","","","","","","",""
"html-keyboard-response","44","102798","0.0-5.0-2.13","63e7ac6bcbc2e035cbeadf8a","bdp_td","Tue Mar 28 2023 11:43:14 GMT-0400 (Eastern Daylight Time)","145198","","3107","","","","offer","","<div class='trialBorder'><div class='vertical-center'><img style='vertical-align:center; align:center' src=img/fixation3.jpg></div><div class='cl'><div class='vertical-center'>$55<br>in<br>6 weeks</div></div><div class='cr'><div class='vertical-center'>$40<br><br>now</div></div><div class='respDivL'><div class='vertical-center'>(E)</div></div><div class='respDivR'><div class='vertical-center'>(I)</div></div></div>","E","$40<br><br>now","$55<br>in<br>6 weeks","1","40","55","6","THEN"
"html-keyboard-response","45","103050","0.0-5.0-3.13","63e7ac6bcbc2e035cbeadf8a","bdp_td","Tue Mar 28 2023 11:43:14 GMT-0400 (Eastern Daylight Time)","145198","","null","","","","offerFB","","<div class='trialBorder'><div class='vertical-center'><img style='vertical-align:center; align:center' src=img/fixation3.jpg></div><div class='cl'><div class='vertical-center'><font style='color:orange'>$55<br>in<br>6 weeks</font></div></div><div class='cr'><div class='vertical-center'>$40<br><br>now</div></div><div class='respDivL'><div class='vertical-center'><font style='color:orange'>(E)</font></div></div><div class='respDivR'><div class='vertical-center'>(I)</div></div></div>","null","$40<br><br>now","$55<br>in<br>6 weeks","1","40","55","6",""
"html-keyboard-response","46","103550","0.0-5.0-1.14","63e7ac6bcbc2e035cbeadf8a","bdp_td","Tue Mar 28 2023 11:43:14 GMT-0400 (Eastern Daylight Time)","145198","","null","","","","FIX","","<div class='trialBorder'><div class='vertical-center'><img style='vertical-align:center; align:center' src=img/fixation3.jpg></div></div>","null","","","","","","",""
"html-keyboard-response","47","106691","0.0-5.0-2.14","63e7ac6bcbc2e035cbeadf8a","bdp_td","Tue Mar 28 2023 11:43:14 GMT-0400 (Eastern Daylight Time)","145198","","3140","","","","offer","","<div class='trialBorder'><div class='vertical-center'><img style='vertical-align:center; align:center' src=img/fixation3.jpg></div><div class='cl'><div class='vertical-center'>$25<br><br>now</div></div><div class='cr'><div class='vertical-center'>$30<br>in<br>6 weeks</div></div><div class='respDivL'><div class='vertical-center'>(E)</div></div><div class='respDivR'><div class='vertical-center'>(I)</div></div></div>","E","$25<br><br>now","$30<br>in<br>6 weeks","0","25","30","6","NOW"
"html-keyboard-response","48","106942","0.0-5.0-3.14","63e7ac6bcbc2e035cbeadf8a","bdp_td","Tue Mar 28 2023 11:43:14 GMT-0400 (Eastern Daylight Time)","145198","","null","","","","offerFB","","<div class='trialBorder'><div class='vertical-center'><img style='vertical-align:center; align:center' src=img/fixation3.jpg></div><div class='cl'><div class='vertical-center'><font style='color:orange'>$25<br><br>now</font></div></div><div class='cr'><div class='vertical-center'>$30<br>in<br>6 weeks</div></div><div class='respDivL'><div class='vertical-center'><font style='color:orange'>(E)</font></div></div><div class='respDivR'><div class='vertical-center'>(I)</div></div></div>","null","$25<br><br>now","$30<br>in<br>6 weeks","0","25","30","6",""
"html-keyboard-response","49","107443","0.0-5.0-1.15","63e7ac6bcbc2e035cbeadf8a","bdp_td","Tue Mar 28 2023 11:43:14 GMT-0400 (Eastern Daylight Time)","145198","","null","","","","FIX","","<div class='trialBorder'><div class='vertical-center'><img style='vertical-align:center; align:center' src=img/fixation3.jpg></div></div>","null","","","","","","",""
"html-keyboard-response","50","111536","0.0-5.0-2.15","63e7ac6bcbc2e035cbeadf8a","bdp_td","Tue Mar 28 2023 11:43:14 GMT-0400 (Eastern Daylight Time)","145198","","4092","","","","offer","","<div class='trialBorder'><div class='vertical-center'><img style='vertical-align:center; align:center' src=img/fixation3.jpg></div><div class='cl'><div class='vertical-center'>$47<br><br>now</div></div><div class='cr'><div class='vertical-center'>$50<br>in<br>12 weeks</div></div><div class='respDivL'><div class='vertical-center'>(E)</div></div><div class='respDivR'><div class='vertical-center'>(I)</div></div></div>","E","$47<br><br>now","$50<br>in<br>12 weeks","0","47","50","12","NOW"
"html-keyboard-response","51","111787","0.0-5.0-3.15","63e7ac6bcbc2e035cbeadf8a","bdp_td","Tue Mar 28 2023 11:43:14 GMT-0400 (Eastern Daylight Time)","145198","","null","","","","offerFB","","<div class='trialBorder'><div class='vertical-center'><img style='vertical-align:center; align:center' src=img/fixation3.jpg></div><div class='cl'><div class='vertical-center'><font style='color:orange'>$47<br><br>now</font></div></div><div class='cr'><div class='vertical-center'>$50<br>in<br>12 weeks</div></div><div class='respDivL'><div class='vertical-center'><font style='color:orange'>(E)</font></div></div><div class='respDivR'><div class='vertical-center'>(I)</div></div></div>","null","$47<br><br>now","$50<br>in<br>12 weeks","0","47","50","12",""
"html-keyboard-response","52","112288","0.0-5.0-1.16","63e7ac6bcbc2e035cbeadf8a","bdp_td","Tue Mar 28 2023 11:43:14 GMT-0400 (Eastern Daylight Time)","145198","","null","","","","FIX","","<div class='trialBorder'><div class='vertical-center'><img style='vertical-align:center; align:center' src=img/fixation3.jpg></div></div>","null","","","","","","",""
"html-keyboard-response","53","113944","0.0-5.0-2.16","63e7ac6bcbc2e035cbeadf8a","bdp_td","Tue Mar 28 2023 11:43:14 GMT-0400 (Eastern Daylight Time)","145198","","1655","","","","offer","","<div class='trialBorder'><div class='vertical-center'><img style='vertical-align:center; align:center' src=img/fixation3.jpg></div><div class='cl'><div class='vertical-center'>$25<br>in<br>6 weeks</div></div><div class='cr'><div class='vertical-center'>$19<br><br>now</div></div><div class='respDivL'><div class='vertical-center'>(E)</div></div><div class='respDivR'><div class='vertical-center'>(I)</div></div></div>","E","$19<br><br>now","$25<br>in<br>6 weeks","1","19","25","6","THEN"
"html-keyboard-response","54","114195","0.0-5.0-3.16","63e7ac6bcbc2e035cbeadf8a","bdp_td","Tue Mar 28 2023 11:43:14 GMT-0400 (Eastern Daylight Time)","145198","","null","","","","offerFB","","<div class='trialBorder'><div class='vertical-center'><img style='vertical-align:center; align:center' src=img/fixation3.jpg></div><div class='cl'><div class='vertical-center'><font style='color:orange'>$25<br>in<br>6 weeks</font></div></div><div class='cr'><div class='vertical-center'>$19<br><br>now</div></div><div class='respDivL'><div class='vertical-center'><font style='color:orange'>(E)</font></div></div><div class='respDivR'><div class='vertical-center'>(I)</div></div></div>","null","$19<br><br>now","$25<br>in<br>6 weeks","1","19","25","6",""
"html-keyboard-response","55","114696","0.0-5.0-1.17","63e7ac6bcbc2e035cbeadf8a","bdp_td","Tue Mar 28 2023 11:43:14 GMT-0400 (Eastern Daylight Time)","145198","","null","","","","FIX","","<div class='trialBorder'><div class='vertical-center'><img style='vertical-align:center; align:center' src=img/fixation3.jpg></div></div>","null","","","","","","",""
"html-keyboard-response","56","117793","0.0-5.0-2.17","63e7ac6bcbc2e035cbeadf8a","bdp_td","Tue Mar 28 2023 11:43:14 GMT-0400 (Eastern Daylight Time)","145198","","3097","","","","offer","","<div class='trialBorder'><div class='vertical-center'><img style='vertical-align:center; align:center' src=img/fixation3.jpg></div><div class='cl'><div class='vertical-center'>$80<br><br>now</div></div><div class='cr'><div class='vertical-center'>$85<br>in<br>12 weeks</div></div><div class='respDivL'><div class='vertical-center'>(E)</div></div><div class='respDivR'><div class='vertical-center'>(I)</div></div></div>","E","$80<br><br>now","$85<br>in<br>12 weeks","0","80","85","12","NOW"
"html-keyboard-response","57","118044","0.0-5.0-3.17","63e7ac6bcbc2e035cbeadf8a","bdp_td","Tue Mar 28 2023 11:43:14 GMT-0400 (Eastern Daylight Time)","145198","","null","","","","offerFB","","<div class='trialBorder'><div class='vertical-center'><img style='vertical-align:center; align:center' src=img/fixation3.jpg></div><div class='cl'><div class='vertical-center'><font style='color:orange'>$80<br><br>now</font></div></div><div class='cr'><div class='vertical-center'>$85<br>in<br>12 weeks</div></div><div class='respDivL'><div class='vertical-center'><font style='color:orange'>(E)</font></div></div><div class='respDivR'><div class='vertical-center'>(I)</div></div></div>","null","$80<br><br>now","$85<br>in<br>12 weeks","0","80","85","12",""
"html-keyboard-response","58","118545","0.0-5.0-1.18","63e7ac6bcbc2e035cbeadf8a","bdp_td","Tue Mar 28 2023 11:43:14 GMT-0400 (Eastern Daylight Time)","145198","","null","","","","FIX","","<div class='trialBorder'><div class='vertical-center'><img style='vertical-align:center; align:center' src=img/fixation3.jpg></div></div>","null","","","","","","",""
"html-keyboard-response","59","120422","0.0-5.0-2.18","63e7ac6bcbc2e035cbeadf8a","bdp_td","Tue Mar 28 2023 11:43:14 GMT-0400 (Eastern Daylight Time)","145198","","1877","","","","offer","","<div class='trialBorder'><div class='vertical-center'><img style='vertical-align:center; align:center' src=img/fixation3.jpg></div><div class='cl'><div class='vertical-center'>$27<br><br>now</div></div><div class='cr'><div class='vertical-center'>$50<br>in<br>3 weeks</div></div><div class='respDivL'><div class='vertical-center'>(E)</div></div><div class='respDivR'><div class='vertical-center'>(I)</div></div></div>","I","$27<br><br>now","$50<br>in<br>3 weeks","0","27","50","3","THEN"
"html-keyboard-response","60","120673","0.0-5.0-3.18","63e7ac6bcbc2e035cbeadf8a","bdp_td","Tue Mar 28 2023 11:43:14 GMT-0400 (Eastern Daylight Time)","145198","","null","","","","offerFB","","<div class='trialBorder'><div class='vertical-center'><img style='vertical-align:center; align:center' src=img/fixation3.jpg></div><div class='cl'><div class='vertical-center'>$27<br><br>now</div></div><div class='cr'><div class='vertical-center'><font style='color:orange'>$50<br>in<br>3 weeks</font></div></div><div class='respDivL'><div class='vertical-center'>(E)</div></div><div class='respDivR'><div class='vertical-center'><font style='color:orange'>(I)</font></div></div></div>","null","$27<br><br>now","$50<br>in<br>3 weeks","0","27","50","3",""
"html-keyboard-response","61","121174","0.0-5.0-1.19","63e7ac6bcbc2e035cbeadf8a","bdp_td","Tue Mar 28 2023 11:43:14 GMT-0400 (Eastern Daylight Time)","145198","","null","","","","FIX","","<div class='trialBorder'><div class='vertical-center'><img style='vertical-align:center; align:center' src=img/fixation3.jpg></div></div>","null","","","","","","",""
"html-keyboard-response","62","123152","0.0-5.0-2.19","63e7ac6bcbc2e035cbeadf8a","bdp_td","Tue Mar 28 2023 11:43:14 GMT-0400 (Eastern Daylight Time)","145198","","1978","","","","offer","","<div class='trialBorder'><div class='vertical-center'><img style='vertical-align:center; align:center' src=img/fixation3.jpg></div><div class='cl'><div class='vertical-center'>$80<br>in<br>2 weeks</div></div><div class='cr'><div class='vertical-center'>$33<br><br>now</div></div><div class='respDivL'><div class='vertical-center'>(E)</div></div><div class='respDivR'><div class='vertical-center'>(I)</div></div></div>","E","$33<br><br>now","$80<br>in<br>2 weeks","1","33","80","2","THEN"
"html-keyboard-response","63","123403","0.0-5.0-3.19","63e7ac6bcbc2e035cbeadf8a","bdp_td","Tue Mar 28 2023 11:43:14 GMT-0400 (Eastern Daylight Time)","145198","","null","","","","offerFB","","<div class='trialBorder'><div class='vertical-center'><img style='vertical-align:center; align:center' src=img/fixation3.jpg></div><div class='cl'><div class='vertical-center'><font style='color:orange'>$80<br>in<br>2 weeks</font></div></div><div class='cr'><div class='vertical-center'>$33<br><br>now</div></div><div class='respDivL'><div class='vertical-center'><font style='color:orange'>(E)</font></div></div><div class='respDivR'><div class='vertical-center'>(I)</div></div></div>","null","$33<br><br>now","$80<br>in<br>2 weeks","1","33","80","2",""
"html-keyboard-response","64","123903","0.0-5.0-1.20","63e7ac6bcbc2e035cbeadf8a","bdp_td","Tue Mar 28 2023 11:43:14 GMT-0400 (Eastern Daylight Time)","145198","","null","","","","FIX","","<div class='trialBorder'><div class='vertical-center'><img style='vertical-align:center; align:center' src=img/fixation3.jpg></div></div>","null","","","","","","",""
"html-keyboard-response","65","125459","0.0-5.0-2.20","63e7ac6bcbc2e035cbeadf8a","bdp_td","Tue Mar 28 2023 11:43:14 GMT-0400 (Eastern Daylight Time)","145198","","1555","","","","offer","","<div class='trialBorder'><div class='vertical-center'><img style='vertical-align:center; align:center' src=img/fixation3.jpg></div><div class='cl'><div class='vertical-center'>$54<br><br>now</div></div><div class='cr'><div class='vertical-center'>$80<br>in<br>3 weeks</div></div><div class='respDivL'><div class='vertical-center'>(E)</div></div><div class='respDivR'><div class='vertical-center'>(I)</div></div></div>","I","$54<br><br>now","$80<br>in<br>3 weeks","0","54","80","3","THEN"
"html-keyboard-response","66","125710","0.0-5.0-3.20","63e7ac6bcbc2e035cbeadf8a","bdp_td","Tue Mar 28 2023 11:43:14 GMT-0400 (Eastern Daylight Time)","145198","","null","","","","offerFB","","<div class='trialBorder'><div class='vertical-center'><img style='vertical-align:center; align:center' src=img/fixation3.jpg></div><div class='cl'><div class='vertical-center'>$54<br><br>now</div></div><div class='cr'><div class='vertical-center'><font style='color:orange'>$80<br>in<br>3 weeks</font></div></div><div class='respDivL'><div class='vertical-center'>(E)</div></div><div class='respDivR'><div class='vertical-center'><font style='color:orange'>(I)</font></div></div></div>","null","$54<br><br>now","$80<br>in<br>3 weeks","0","54","80","3",""
"html-keyboard-response","67","126211","0.0-5.0-1.21","63e7ac6bcbc2e035cbeadf8a","bdp_td","Tue Mar 28 2023 11:43:14 GMT-0400 (Eastern Daylight Time)","145198","","null","","","","FIX","","<div class='trialBorder'><div class='vertical-center'><img style='vertical-align:center; align:center' src=img/fixation3.jpg></div></div>","null","","","","","","",""
"html-keyboard-response","68","130487","0.0-5.0-2.21","63e7ac6bcbc2e035cbeadf8a","bdp_td","Tue Mar 28 2023 11:43:14 GMT-0400 (Eastern Daylight Time)","145198","","4276","","","","offer","","<div class='trialBorder'><div class='vertical-center'><img style='vertical-align:center; align:center' src=img/fixation3.jpg></div><div class='cl'><div class='vertical-center'>$20<br><br>now</div></div><div class='cr'><div class='vertical-center'>$55<br>in<br>1 week</div></div><div class='respDivL'><div class='vertical-center'>(E)</div></div><div class='respDivR'><div class='vertical-center'>(I)</div></div></div>","I","$20<br><br>now","$55<br>in<br>1 week","0","20","55","1","THEN"
"html-keyboard-response","69","130738","0.0-5.0-3.21","63e7ac6bcbc2e035cbeadf8a","bdp_td","Tue Mar 28 2023 11:43:14 GMT-0400 (Eastern Daylight Time)","145198","","null","","","","offerFB","","<div class='trialBorder'><div class='vertical-center'><img style='vertical-align:center; align:center' src=img/fixation3.jpg></div><div class='cl'><div class='vertical-center'>$20<br><br>now</div></div><div class='cr'><div class='vertical-center'><font style='color:orange'>$55<br>in<br>1 week</font></div></div><div class='respDivL'><div class='vertical-center'>(E)</div></div><div class='respDivR'><div class='vertical-center'><font style='color:orange'>(I)</font></div></div></div>","null","$20<br><br>now","$55<br>in<br>1 week","0","20","55","1",""
"html-keyboard-response","70","131240","0.0-5.0-1.22","63e7ac6bcbc2e035cbeadf8a","bdp_td","Tue Mar 28 2023 11:43:14 GMT-0400 (Eastern Daylight Time)","145198","","null","","","","FIX","","<div class='trialBorder'><div class='vertical-center'><img style='vertical-align:center; align:center' src=img/fixation3.jpg></div></div>","null","","","","","","",""
"html-keyboard-response","71","132584","0.0-5.0-2.22","63e7ac6bcbc2e035cbeadf8a","bdp_td","Tue Mar 28 2023 11:43:14 GMT-0400 (Eastern Daylight Time)","145198","","1344","","","","offer","","<div class='trialBorder'><div class='vertical-center'><img style='vertical-align:center; align:center' src=img/fixation3.jpg></div><div class='cl'><div class='vertical-center'>$54<br><br>now</div></div><div class='cr'><div class='vertical-center'>$55<br>in<br>12 weeks</div></div><div class='respDivL'><div class='vertical-center'>(E)</div></div><div class='respDivR'><div class='vertical-center'>(I)</div></div></div>","E","$54<br><br>now","$55<br>in<br>12 weeks","0","54","55","12","NOW"
"html-keyboard-response","72","132835","0.0-5.0-3.22","63e7ac6bcbc2e035cbeadf8a","bdp_td","Tue Mar 28 2023 11:43:14 GMT-0400 (Eastern Daylight Time)","145198","","null","","","","offerFB","","<div class='trialBorder'><div class='vertical-center'><img style='vertical-align:center; align:center' src=img/fixation3.jpg></div><div class='cl'><div class='vertical-center'><font style='color:orange'>$54<br><br>now</font></div></div><div class='cr'><div class='vertical-center'>$55<br>in<br>12 weeks</div></div><div class='respDivL'><div class='vertical-center'><font style='color:orange'>(E)</font></div></div><div class='respDivR'><div class='vertical-center'>(I)</div></div></div>","null","$54<br><br>now","$55<br>in<br>12 weeks","0","54","55","12",""
"html-keyboard-response","73","133336","0.0-5.0-1.23","63e7ac6bcbc2e035cbeadf8a","bdp_td","Tue Mar 28 2023 11:43:14 GMT-0400 (Eastern Daylight Time)","145198","","null","","","","FIX","","<div class='trialBorder'><div class='vertical-center'><img style='vertical-align:center; align:center' src=img/fixation3.jpg></div></div>","null","","","","","","",""
"html-keyboard-response","74","135377","0.0-5.0-2.23","63e7ac6bcbc2e035cbeadf8a","bdp_td","Tue Mar 28 2023 11:43:14 GMT-0400 (Eastern Daylight Time)","145198","","2041","","","","offer","","<div class='trialBorder'><div class='vertical-center'><img style='vertical-align:center; align:center' src=img/fixation3.jpg></div><div class='cl'><div class='vertical-center'>$41<br><br>now</div></div><div class='cr'><div class='vertical-center'>$75<br>in<br>3 weeks</div></div><div class='respDivL'><div class='vertical-center'>(E)</div></div><div class='respDivR'><div class='vertical-center'>(I)</div></div></div>","I","$41<br><br>now","$75<br>in<br>3 weeks","0","41","75","3","THEN"
"html-keyboard-response","75","135628","0.0-5.0-3.23","63e7ac6bcbc2e035cbeadf8a","bdp_td","Tue Mar 28 2023 11:43:14 GMT-0400 (Eastern Daylight Time)","145198","","null","","","","offerFB","","<div class='trialBorder'><div class='vertical-center'><img style='vertical-align:center; align:center' src=img/fixation3.jpg></div><div class='cl'><div class='vertical-center'>$41<br><br>now</div></div><div class='cr'><div class='vertical-center'><font style='color:orange'>$75<br>in<br>3 weeks</font></div></div><div class='respDivL'><div class='vertical-center'>(E)</div></div><div class='respDivR'><div class='vertical-center'><font style='color:orange'>(I)</font></div></div></div>","null","$41<br><br>now","$75<br>in<br>3 weeks","0","41","75","3",""
"html-keyboard-response","76","136129","0.0-5.0-1.24","63e7ac6bcbc2e035cbeadf8a","bdp_td","Tue Mar 28 2023 11:43:14 GMT-0400 (Eastern Daylight Time)","145198","","null","","","","FIX","","<div class='trialBorder'><div class='vertical-center'><img style='vertical-align:center; align:center' src=img/fixation3.jpg></div></div>","null","","","","","","",""
"html-keyboard-response","77","138443","0.0-5.0-2.24","63e7ac6bcbc2e035cbeadf8a","bdp_td","Tue Mar 28 2023 11:43:14 GMT-0400 (Eastern Daylight Time)","145198","","2314","","","","offer","","<div class='trialBorder'><div class='vertical-center'><img style='vertical-align:center; align:center' src=img/fixation3.jpg></div><div class='cl'><div class='vertical-center'>$30<br>in<br>12 weeks</div></div><div class='cr'><div class='vertical-center'>$28<br><br>now</div></div><div class='respDivL'><div class='vertical-center'>(E)</div></div><div class='respDivR'><div class='vertical-center'>(I)</div></div></div>","I","$28<br><br>now","$30<br>in<br>12 weeks","1","28","30","12","NOW"
"html-keyboard-response","78","138693","0.0-5.0-3.24","63e7ac6bcbc2e035cbeadf8a","bdp_td","Tue Mar 28 2023 11:43:14 GMT-0400 (Eastern Daylight Time)","145198","","null","","","","offerFB","","<div class='trialBorder'><div class='vertical-center'><img style='vertical-align:center; align:center' src=img/fixation3.jpg></div><div class='cl'><div class='vertical-center'>$30<br>in<br>12 weeks</div></div><div class='cr'><div class='vertical-center'><font style='color:orange'>$28<br><br>now</font></div></div><div class='respDivL'><div class='vertical-center'>(E)</div></div><div class='respDivR'><div class='vertical-center'><font style='color:orange'>(I)</font></div></div></div>","null","$28<br><br>now","$30<br>in<br>12 weeks","1","28","30","12",""
"html-keyboard-response","79","139195","0.0-5.0-1.25","63e7ac6bcbc2e035cbeadf8a","bdp_td","Tue Mar 28 2023 11:43:14 GMT-0400 (Eastern Daylight Time)","145198","","null","","","","FIX","","<div class='trialBorder'><div class='vertical-center'><img style='vertical-align:center; align:center' src=img/fixation3.jpg></div></div>","null","","","","","","",""
"html-keyboard-response","80","140810","0.0-5.0-2.25","63e7ac6bcbc2e035cbeadf8a","bdp_td","Tue Mar 28 2023 11:43:14 GMT-0400 (Eastern Daylight Time)","145198","","1615","","","","offer","","<div class='trialBorder'><div class='vertical-center'><img style='vertical-align:center; align:center' src=img/fixation3.jpg></div><div class='cl'><div class='vertical-center'>$85<br>in<br>1 week</div></div><div class='cr'><div class='vertical-center'>$31<br><br>now</div></div><div class='respDivL'><div class='vertical-center'>(E)</div></div><div class='respDivR'><div class='vertical-center'>(I)</div></div></div>","E","$31<br><br>now","$85<br>in<br>1 week","1","31","85","1","THEN"
"html-keyboard-response","81","141060","0.0-5.0-3.25","63e7ac6bcbc2e035cbeadf8a","bdp_td","Tue Mar 28 2023 11:43:14 GMT-0400 (Eastern Daylight Time)","145198","","null","","","","offerFB","","<div class='trialBorder'><div class='vertical-center'><img style='vertical-align:center; align:center' src=img/fixation3.jpg></div><div class='cl'><div class='vertical-center'><font style='color:orange'>$85<br>in<br>1 week</font></div></div><div class='cr'><div class='vertical-center'>$31<br><br>now</div></div><div class='respDivL'><div class='vertical-center'><font style='color:orange'>(E)</font></div></div><div class='respDivR'><div class='vertical-center'>(I)</div></div></div>","null","$31<br><br>now","$85<br>in<br>1 week","1","31","85","1",""
"html-keyboard-response","82","141561","0.0-5.0-1.26","63e7ac6bcbc2e035cbeadf8a","bdp_td","Tue Mar 28 2023 11:43:14 GMT-0400 (Eastern Daylight Time)","145198","","null","","","","FIX","","<div class='trialBorder'><div class='vertical-center'><img style='vertical-align:center; align:center' src=img/fixation3.jpg></div></div>","null","","","","","","",""
"html-keyboard-response","83","143945","0.0-5.0-2.26","63e7ac6bcbc2e035cbeadf8a","bdp_td","Tue Mar 28 2023 11:43:14 GMT-0400 (Eastern Daylight Time)","145198","","2383","","","","offer","","<div class='trialBorder'><div class='vertical-center'><img style='vertical-align:center; align:center' src=img/fixation3.jpg></div><div class='cl'><div class='vertical-center'>$50<br>in<br>6 weeks</div></div><div class='cr'><div class='vertical-center'>$34<br><br>now</div></div><div class='respDivL'><div class='vertical-center'>(E)</div></div><div class='respDivR'><div class='vertical-center'>(I)</div></div></div>","E","$34<br><br>now","$50<br>in<br>6 weeks","1","34","50","6","THEN"
"html-keyboard-response","84","144197","0.0-5.0-3.26","63e7ac6bcbc2e035cbeadf8a","bdp_td","Tue Mar 28 2023 11:43:14 GMT-0400 (Eastern Daylight Time)","145198","","null","","","","offerFB","","<div class='trialBorder'><div class='vertical-center'><img style='vertical-align:center; align:center' src=img/fixation3.jpg></div><div class='cl'><div class='vertical-center'><font style='color:orange'>$50<br>in<br>6 weeks</font></div></div><div class='cr'><div class='vertical-center'>$34<br><br>now</div></div><div class='respDivL'><div class='vertical-center'><font style='color:orange'>(E)</font></div></div><div class='respDivR'><div class='vertical-center'>(I)</div></div></div>","null","$34<br><br>now","$50<br>in<br>6 weeks","1","34","50","6",""
"","","","","63e7ac6bcbc2e035cbeadf8a","bdp_td","Tue Mar 28 2023 11:43:14 GMT-0400 (Eastern Daylight Time)","145198","","","fullscreenexit","85","144205","fullscreenexit","","","","","","","","","",""
"fullscreen","85","145198","0.0-6.0","63e7ac6bcbc2e035cbeadf8a","bdp_td","Tue Mar 28 2023 11:43:14 GMT-0400 (Eastern Daylight Time)","145198","","","","","","","true","","","","","","","","",""
"html-keyboard-response","86","145698","0.0-7.0","","","","","","null","","","","","","","null","","","","","","",""
