"event","trial","time","trialtype","subject_id","task","startTime","totalTime","trial_type","trial_index","time_elapsed","internal_node_id","view_history","rt","success","stimulus","key_press","nowOffer","thenOffer","thenLeft","nowAmt","thenAmt","thenWeeks","chosen"
"focus","0","0","focusevent","6400d9235287137e7b62fd29","bdp_td","Sun Apr 09 2023 16:40:19 GMT-0700 (Pacific Daylight Time)","92658","","","","","","","","","","","","","","","",""
"","","","","6400d9235287137e7b62fd29","bdp_td","Sun Apr 09 2023 16:40:19 GMT-0700 (Pacific Daylight Time)","92658","pavlovia","0","7","0.0-0.0","","","","","","","","","","","",""
"","","","","6400d9235287137e7b62fd29","bdp_td","Sun Apr 09 2023 16:40:19 GMT-0700 (Pacific Daylight Time)","92658","instructions","1","6342","0.0-1.0","[{""page_index"":0,""viewing_time"":6332}]","6333","","","","","","","","","",""
"fullscreenenter","2","9674","fullscreenenter","6400d9235287137e7b62fd29","bdp_td","Sun Apr 09 2023 16:40:19 GMT-0700 (Pacific Daylight Time)","92658","","","","","","","","","","","","","","","",""
"","","","","6400d9235287137e7b62fd29","bdp_td","Sun Apr 09 2023 16:40:19 GMT-0700 (Pacific Daylight Time)","92658","fullscreen","2","10633","0.0-2.0","","","true","","","","","","","","",""
"","","","","6400d9235287137e7b62fd29","bdp_td","Sun Apr 09 2023 16:40:19 GMT-0700 (Pacific Daylight Time)","92658","instructions","3","20825","0.0-4.0","[{""page_index"":0,""viewing_time"":3995},{""page_index"":1,""viewing_time"":3888},{""page_index"":2,""viewing_time"":2306}]","10190","","","","","","","","","",""
"","","","FIX","6400d9235287137e7b62fd29","bdp_td","Sun Apr 09 2023 16:40:19 GMT-0700 (Pacific Daylight Time)","92658","html-keyboard-response","4","21328","0.0-5.0-1.0","","null","","<div class='trialBorder'><div class='vertical-center'><img style='vertical-align:center; align:center' src=img/fixation3.jpg></div></div>","null","","","","","","",""
"","","","offer","6400d9235287137e7b62fd29","bdp_td","Sun Apr 09 2023 16:40:19 GMT-0700 (Pacific Daylight Time)","92658","html-keyboard-response","5","25467","0.0-5.0-2.0","","4136","","<div class='trialBorder'><div class='vertical-center'><img style='vertical-align:center; align:center' src=img/fixation3.jpg></div><div class='cl'><div class='vertical-center'>$85<br>in<br>12 weeks</div></div><div class='cr'><div class='vertical-center'>$80<br><br>now</div></div><div class='respDivL'><div class='vertical-center'>(E)</div></div><div class='respDivR'><div class='vertical-center'>(I)</div></div></div>","I","$80<br><br>now","$85<br>in<br>12 weeks","1","80","85","12","NOW"
"","","","offerFB","6400d9235287137e7b62fd29","bdp_td","Sun Apr 09 2023 16:40:19 GMT-0700 (Pacific Daylight Time)","92658","html-keyboard-response","6","25728","0.0-5.0-3.0","","null","","<div class='trialBorder'><div class='vertical-center'><img style='vertical-align:center; align:center' src=img/fixation3.jpg></div><div class='cl'><div class='vertical-center'>$85<br>in<br>12 weeks</div></div><div class='cr'><div class='vertical-center'><font style='color:orange'>$80<br><br>now</font></div></div><div class='respDivL'><div class='vertical-center'>(E)</div></div><div class='respDivR'><div class='vertical-center'><font style='color:orange'>(I)</font></div></div></div>","null","$80<br><br>now","$85<br>in<br>12 weeks","1","80","85","12",""
"","","","FIX","6400d9235287137e7b62fd29","bdp_td","Sun Apr 09 2023 16:40:19 GMT-0700 (Pacific Daylight Time)","92658","html-keyboard-response","7","26235","0.0-5.0-1.1","","null","","<div class='trialBorder'><div class='vertical-center'><img style='vertical-align:center; align:center' src=img/fixation3.jpg></div></div>","null","","","","","","",""
"","","","offer","6400d9235287137e7b62fd29","bdp_td","Sun Apr 09 2023 16:40:19 GMT-0700 (Pacific Daylight Time)","92658","html-keyboard-response","8","28263","0.0-5.0-2.1","","2026","","<div class='trialBorder'><div class='vertical-center'><img style='vertical-align:center; align:center' src=img/fixation3.jpg></div><div class='cl'><div class='vertical-center'>$55<br>in<br>6 weeks</div></div><div class='cr'><div class='vertical-center'>$40<br><br>now</div></div><div class='respDivL'><div class='vertical-center'>(E)</div></div><div class='respDivR'><div class='vertical-center'>(I)</div></div></div>","I","$40<br><br>now","$55<br>in<br>6 weeks","1","40","55","6","NOW"
"","","","offerFB","6400d9235287137e7b62fd29","bdp_td","Sun Apr 09 2023 16:40:19 GMT-0700 (Pacific Daylight Time)","92658","html-keyboard-response","9","28521","0.0-5.0-3.1","","null","","<div class='trialBorder'><div class='vertical-center'><img style='vertical-align:center; align:center' src=img/fixation3.jpg></div><div class='cl'><div class='vertical-center'>$55<br>in<br>6 weeks</div></div><div class='cr'><div class='vertical-center'><font style='color:orange'>$40<br><br>now</font></div></div><div class='respDivL'><div class='vertical-center'>(E)</div></div><div class='respDivR'><div class='vertical-center'><font style='color:orange'>(I)</font></div></div></div>","null","$40<br><br>now","$55<br>in<br>6 weeks","1","40","55","6",""
"","","","FIX","6400d9235287137e7b62fd29","bdp_td","Sun Apr 09 2023 16:40:19 GMT-0700 (Pacific Daylight Time)","92658","html-keyboard-response","10","29026","0.0-5.0-1.2","","null","","<div class='trialBorder'><div class='vertical-center'><img style='vertical-align:center; align:center' src=img/fixation3.jpg></div></div>","null","","","","","","",""
"","","","offer","6400d9235287137e7b62fd29","bdp_td","Sun Apr 09 2023 16:40:19 GMT-0700 (Pacific Daylight Time)","92658","html-keyboard-response","11","32283","0.0-5.0-2.2","","3255","","<div class='trialBorder'><div class='vertical-center'><img style='vertical-align:center; align:center' src=img/fixation3.jpg></div><div class='cl'><div class='vertical-center'>$35<br>in<br>3 weeks</div></div><div class='cr'><div class='vertical-center'>$24<br><br>now</div></div><div class='respDivL'><div class='vertical-center'>(E)</div></div><div class='respDivR'><div class='vertical-center'>(I)</div></div></div>","I","$24<br><br>now","$35<br>in<br>3 weeks","1","24","35","3","NOW"
"","","","offerFB","6400d9235287137e7b62fd29","bdp_td","Sun Apr 09 2023 16:40:19 GMT-0700 (Pacific Daylight Time)","92658","html-keyboard-response","12","32537","0.0-5.0-3.2","","null","","<div class='trialBorder'><div class='vertical-center'><img style='vertical-align:center; align:center' src=img/fixation3.jpg></div><div class='cl'><div class='vertical-center'>$35<br>in<br>3 weeks</div></div><div class='cr'><div class='vertical-center'><font style='color:orange'>$24<br><br>now</font></div></div><div class='respDivL'><div class='vertical-center'>(E)</div></div><div class='respDivR'><div class='vertical-center'><font style='color:orange'>(I)</font></div></div></div>","null","$24<br><br>now","$35<br>in<br>3 weeks","1","24","35","3",""
"","","","FIX","6400d9235287137e7b62fd29","bdp_td","Sun Apr 09 2023 16:40:19 GMT-0700 (Pacific Daylight Time)","92658","html-keyboard-response","13","33042","0.0-5.0-1.3","","null","","<div class='trialBorder'><div class='vertical-center'><img style='vertical-align:center; align:center' src=img/fixation3.jpg></div></div>","null","","","","","","",""
"","","","offer","6400d9235287137e7b62fd29","bdp_td","Sun Apr 09 2023 16:40:19 GMT-0700 (Pacific Daylight Time)","92658","html-keyboard-response","14","35436","0.0-5.0-2.3","","2392","","<div class='trialBorder'><div class='vertical-center'><img style='vertical-align:center; align:center' src=img/fixation3.jpg></div><div class='cl'><div class='vertical-center'>$25<br><br>now</div></div><div class='cr'><div class='vertical-center'>$30<br>in<br>6 weeks</div></div><div class='respDivL'><div class='vertical-center'>(E)</div></div><div class='respDivR'><div class='vertical-center'>(I)</div></div></div>","E","$25<br><br>now","$30<br>in<br>6 weeks","0","25","30","6","NOW"
"","","","offerFB","6400d9235287137e7b62fd29","bdp_td","Sun Apr 09 2023 16:40:19 GMT-0700 (Pacific Daylight Time)","92658","html-keyboard-response","15","35688","0.0-5.0-3.3","","null","","<div class='trialBorder'><div class='vertical-center'><img style='vertical-align:center; align:center' src=img/fixation3.jpg></div><div class='cl'><div class='vertical-center'><font style='color:orange'>$25<br><br>now</font></div></div><div class='cr'><div class='vertical-center'>$30<br>in<br>6 weeks</div></div><div class='respDivL'><div class='vertical-center'><font style='color:orange'>(E)</font></div></div><div class='respDivR'><div class='vertical-center'>(I)</div></div></div>","null","$25<br><br>now","$30<br>in<br>6 weeks","0","25","30","6",""
"","","","FIX","6400d9235287137e7b62fd29","bdp_td","Sun Apr 09 2023 16:40:19 GMT-0700 (Pacific Daylight Time)","92658","html-keyboard-response","16","36193","0.0-5.0-1.4","","null","","<div class='trialBorder'><div class='vertical-center'><img style='vertical-align:center; align:center' src=img/fixation3.jpg></div></div>","null","","","","","","",""
"","","","offer","6400d9235287137e7b62fd29","bdp_td","Sun Apr 09 2023 16:40:19 GMT-0700 (Pacific Daylight Time)","92658","html-keyboard-response","17","37680","0.0-5.0-2.4","","1485","","<div class='trialBorder'><div class='vertical-center'><img style='vertical-align:center; align:center' src=img/fixation3.jpg></div><div class='cl'><div class='vertical-center'>$80<br>in<br>3 weeks</div></div><div class='cr'><div class='vertical-center'>$54<br><br>now</div></div><div class='respDivL'><div class='vertical-center'>(E)</div></div><div class='respDivR'><div class='vertical-center'>(I)</div></div></div>","E","$54<br><br>now","$80<br>in<br>3 weeks","1","54","80","3","THEN"
"","","","offerFB","6400d9235287137e7b62fd29","bdp_td","Sun Apr 09 2023 16:40:19 GMT-0700 (Pacific Daylight Time)","92658","html-keyboard-response","18","37932","0.0-5.0-3.4","","null","","<div class='trialBorder'><div class='vertical-center'><img style='vertical-align:center; align:center' src=img/fixation3.jpg></div><div class='cl'><div class='vertical-center'><font style='color:orange'>$80<br>in<br>3 weeks</font></div></div><div class='cr'><div class='vertical-center'>$54<br><br>now</div></div><div class='respDivL'><div class='vertical-center'><font style='color:orange'>(E)</font></div></div><div class='respDivR'><div class='vertical-center'>(I)</div></div></div>","null","$54<br><br>now","$80<br>in<br>3 weeks","1","54","80","3",""
"","","","FIX","6400d9235287137e7b62fd29","bdp_td","Sun Apr 09 2023 16:40:19 GMT-0700 (Pacific Daylight Time)","92658","html-keyboard-response","19","38446","0.0-5.0-1.5","","null","","<div class='trialBorder'><div class='vertical-center'><img style='vertical-align:center; align:center' src=img/fixation3.jpg></div></div>","null","","","","","","",""
"","","","offer","6400d9235287137e7b62fd29","bdp_td","Sun Apr 09 2023 16:40:19 GMT-0700 (Pacific Daylight Time)","92658","html-keyboard-response","20","41080","0.0-5.0-2.5","","2631","","<div class='trialBorder'><div class='vertical-center'><img style='vertical-align:center; align:center' src=img/fixation3.jpg></div><div class='cl'><div class='vertical-center'>$25<br>in<br>6 weeks</div></div><div class='cr'><div class='vertical-center'>$19<br><br>now</div></div><div class='respDivL'><div class='vertical-center'>(E)</div></div><div class='respDivR'><div class='vertical-center'>(I)</div></div></div>","I","$19<br><br>now","$25<br>in<br>6 weeks","1","19","25","6","NOW"
"","","","offerFB","6400d9235287137e7b62fd29","bdp_td","Sun Apr 09 2023 16:40:19 GMT-0700 (Pacific Daylight Time)","92658","html-keyboard-response","21","41340","0.0-5.0-3.5","","null","","<div class='trialBorder'><div class='vertical-center'><img style='vertical-align:center; align:center' src=img/fixation3.jpg></div><div class='cl'><div class='vertical-center'>$25<br>in<br>6 weeks</div></div><div class='cr'><div class='vertical-center'><font style='color:orange'>$19<br><br>now</font></div></div><div class='respDivL'><div class='vertical-center'>(E)</div></div><div class='respDivR'><div class='vertical-center'><font style='color:orange'>(I)</font></div></div></div>","null","$19<br><br>now","$25<br>in<br>6 weeks","1","19","25","6",""
"","","","FIX","6400d9235287137e7b62fd29","bdp_td","Sun Apr 09 2023 16:40:19 GMT-0700 (Pacific Daylight Time)","92658","html-keyboard-response","22","41848","0.0-5.0-1.6","","null","","<div class='trialBorder'><div class='vertical-center'><img style='vertical-align:center; align:center' src=img/fixation3.jpg></div></div>","null","","","","","","",""
"","","","offer","6400d9235287137e7b62fd29","bdp_td","Sun Apr 09 2023 16:40:19 GMT-0700 (Pacific Daylight Time)","92658","html-keyboard-response","23","44260","0.0-5.0-2.6","","2410","","<div class='trialBorder'><div class='vertical-center'><img style='vertical-align:center; align:center' src=img/fixation3.jpg></div><div class='cl'><div class='vertical-center'>$80<br>in<br>2 weeks</div></div><div class='cr'><div class='vertical-center'>$33<br><br>now</div></div><div class='respDivL'><div class='vertical-center'>(E)</div></div><div class='respDivR'><div class='vertical-center'>(I)</div></div></div>","E","$33<br><br>now","$80<br>in<br>2 weeks","1","33","80","2","THEN"
"","","","offerFB","6400d9235287137e7b62fd29","bdp_td","Sun Apr 09 2023 16:40:19 GMT-0700 (Pacific Daylight Time)","92658","html-keyboard-response","24","44513","0.0-5.0-3.6","","null","","<div class='trialBorder'><div class='vertical-center'><img style='vertical-align:center; align:center' src=img/fixation3.jpg></div><div class='cl'><div class='vertical-center'><font style='color:orange'>$80<br>in<br>2 weeks</font></div></div><div class='cr'><div class='vertical-center'>$33<br><br>now</div></div><div class='respDivL'><div class='vertical-center'><font style='color:orange'>(E)</font></div></div><div class='respDivR'><div class='vertical-center'>(I)</div></div></div>","null","$33<br><br>now","$80<br>in<br>2 weeks","1","33","80","2",""
"","","","FIX","6400d9235287137e7b62fd29","bdp_td","Sun Apr 09 2023 16:40:19 GMT-0700 (Pacific Daylight Time)","92658","html-keyboard-response","25","45018","0.0-5.0-1.7","","null","","<div class='trialBorder'><div class='vertical-center'><img style='vertical-align:center; align:center' src=img/fixation3.jpg></div></div>","null","","","","","","",""
"","","","offer","6400d9235287137e7b62fd29","bdp_td","Sun Apr 09 2023 16:40:19 GMT-0700 (Pacific Daylight Time)","92658","html-keyboard-response","26","47056","0.0-5.0-2.7","","2036","","<div class='trialBorder'><div class='vertical-center'><img style='vertical-align:center; align:center' src=img/fixation3.jpg></div><div class='cl'><div class='vertical-center'>$35<br>in<br>2 weeks</div></div><div class='cr'><div class='vertical-center'>$15<br><br>now</div></div><div class='respDivL'><div class='vertical-center'>(E)</div></div><div class='respDivR'><div class='vertical-center'>(I)</div></div></div>","E","$15<br><br>now","$35<br>in<br>2 weeks","1","15","35","2","THEN"
"","","","offerFB","6400d9235287137e7b62fd29","bdp_td","Sun Apr 09 2023 16:40:19 GMT-0700 (Pacific Daylight Time)","92658","html-keyboard-response","27","47314","0.0-5.0-3.7","","null","","<div class='trialBorder'><div class='vertical-center'><img style='vertical-align:center; align:center' src=img/fixation3.jpg></div><div class='cl'><div class='vertical-center'><font style='color:orange'>$35<br>in<br>2 weeks</font></div></div><div class='cr'><div class='vertical-center'>$15<br><br>now</div></div><div class='respDivL'><div class='vertical-center'><font style='color:orange'>(E)</font></div></div><div class='respDivR'><div class='vertical-center'>(I)</div></div></div>","null","$15<br><br>now","$35<br>in<br>2 weeks","1","15","35","2",""
"","","","FIX","6400d9235287137e7b62fd29","bdp_td","Sun Apr 09 2023 16:40:19 GMT-0700 (Pacific Daylight Time)","92658","html-keyboard-response","28","47820","0.0-5.0-1.8","","null","","<div class='trialBorder'><div class='vertical-center'><img style='vertical-align:center; align:center' src=img/fixation3.jpg></div></div>","null","","","","","","",""
"","","","offer","6400d9235287137e7b62fd29","bdp_td","Sun Apr 09 2023 16:40:19 GMT-0700 (Pacific Daylight Time)","92658","html-keyboard-response","29","48812","0.0-5.0-2.8","","990","","<div class='trialBorder'><div class='vertical-center'><img style='vertical-align:center; align:center' src=img/fixation3.jpg></div><div class='cl'><div class='vertical-center'>$25<br><br>now</div></div><div class='cr'><div class='vertical-center'>$60<br>in<br>3 weeks</div></div><div class='respDivL'><div class='vertical-center'>(E)</div></div><div class='respDivR'><div class='vertical-center'>(I)</div></div></div>","I","$25<br><br>now","$60<br>in<br>3 weeks","0","25","60","3","THEN"
"","","","offerFB","6400d9235287137e7b62fd29","bdp_td","Sun Apr 09 2023 16:40:19 GMT-0700 (Pacific Daylight Time)","92658","html-keyboard-response","30","49065","0.0-5.0-3.8","","null","","<div class='trialBorder'><div class='vertical-center'><img style='vertical-align:center; align:center' src=img/fixation3.jpg></div><div class='cl'><div class='vertical-center'>$25<br><br>now</div></div><div class='cr'><div class='vertical-center'><font style='color:orange'>$60<br>in<br>3 weeks</font></div></div><div class='respDivL'><div class='vertical-center'>(E)</div></div><div class='respDivR'><div class='vertical-center'><font style='color:orange'>(I)</font></div></div></div>","null","$25<br><br>now","$60<br>in<br>3 weeks","0","25","60","3",""
"","","","FIX","6400d9235287137e7b62fd29","bdp_td","Sun Apr 09 2023 16:40:19 GMT-0700 (Pacific Daylight Time)","92658","html-keyboard-response","31","49578","0.0-5.0-1.9","","null","","<div class='trialBorder'><div class='vertical-center'><img style='vertical-align:center; align:center' src=img/fixation3.jpg></div></div>","null","","","","","","",""
"","","","offer","6400d9235287137e7b62fd29","bdp_td","Sun Apr 09 2023 16:40:19 GMT-0700 (Pacific Daylight Time)","92658","html-keyboard-response","32","51051","0.0-5.0-2.9","","1471","","<div class='trialBorder'><div class='vertical-center'><img style='vertical-align:center; align:center' src=img/fixation3.jpg></div><div class='cl'><div class='vertical-center'>$55<br>in<br>12 weeks</div></div><div class='cr'><div class='vertical-center'>$54<br><br>now</div></div><div class='respDivL'><div class='vertical-center'>(E)</div></div><div class='respDivR'><div class='vertical-center'>(I)</div></div></div>","I","$54<br><br>now","$55<br>in<br>12 weeks","1","54","55","12","NOW"
"","","","offerFB","6400d9235287137e7b62fd29","bdp_td","Sun Apr 09 2023 16:40:19 GMT-0700 (Pacific Daylight Time)","92658","html-keyboard-response","33","51309","0.0-5.0-3.9","","null","","<div class='trialBorder'><div class='vertical-center'><img style='vertical-align:center; align:center' src=img/fixation3.jpg></div><div class='cl'><div class='vertical-center'>$55<br>in<br>12 weeks</div></div><div class='cr'><div class='vertical-center'><font style='color:orange'>$54<br><br>now</font></div></div><div class='respDivL'><div class='vertical-center'>(E)</div></div><div class='respDivR'><div class='vertical-center'><font style='color:orange'>(I)</font></div></div></div>","null","$54<br><br>now","$55<br>in<br>12 weeks","1","54","55","12",""
"","","","FIX","6400d9235287137e7b62fd29","bdp_td","Sun Apr 09 2023 16:40:19 GMT-0700 (Pacific Daylight Time)","92658","html-keyboard-response","34","51814","0.0-5.0-1.10","","null","","<div class='trialBorder'><div class='vertical-center'><img style='vertical-align:center; align:center' src=img/fixation3.jpg></div></div>","null","","","","","","",""
"","","","offer","6400d9235287137e7b62fd29","bdp_td","Sun Apr 09 2023 16:40:19 GMT-0700 (Pacific Daylight Time)","92658","html-keyboard-response","35","53636","0.0-5.0-2.10","","1819","","<div class='trialBorder'><div class='vertical-center'><img style='vertical-align:center; align:center' src=img/fixation3.jpg></div><div class='cl'><div class='vertical-center'>$22<br><br>now</div></div><div class='cr'><div class='vertical-center'>$25<br>in<br>12 weeks</div></div><div class='respDivL'><div class='vertical-center'>(E)</div></div><div class='respDivR'><div class='vertical-center'>(I)</div></div></div>","E","$22<br><br>now","$25<br>in<br>12 weeks","0","22","25","12","NOW"
"","","","offerFB","6400d9235287137e7b62fd29","bdp_td","Sun Apr 09 2023 16:40:19 GMT-0700 (Pacific Daylight Time)","92658","html-keyboard-response","36","53889","0.0-5.0-3.10","","null","","<div class='trialBorder'><div class='vertical-center'><img style='vertical-align:center; align:center' src=img/fixation3.jpg></div><div class='cl'><div class='vertical-center'><font style='color:orange'>$22<br><br>now</font></div></div><div class='cr'><div class='vertical-center'>$25<br>in<br>12 weeks</div></div><div class='respDivL'><div class='vertical-center'><font style='color:orange'>(E)</font></div></div><div class='respDivR'><div class='vertical-center'>(I)</div></div></div>","null","$22<br><br>now","$25<br>in<br>12 weeks","0","22","25","12",""
"","","","FIX","6400d9235287137e7b62fd29","bdp_td","Sun Apr 09 2023 16:40:19 GMT-0700 (Pacific Daylight Time)","92658","html-keyboard-response","37","54393","0.0-5.0-1.11","","null","","<div class='trialBorder'><div class='vertical-center'><img style='vertical-align:center; align:center' src=img/fixation3.jpg></div></div>","null","","","","","","",""
"","","","offer","6400d9235287137e7b62fd29","bdp_td","Sun Apr 09 2023 16:40:19 GMT-0700 (Pacific Daylight Time)","92658","html-keyboard-response","38","56098","0.0-5.0-2.11","","1703","","<div class='trialBorder'><div class='vertical-center'><img style='vertical-align:center; align:center' src=img/fixation3.jpg></div><div class='cl'><div class='vertical-center'>$34<br><br>now</div></div><div class='cr'><div class='vertical-center'>$35<br>in<br>12 weeks</div></div><div class='respDivL'><div class='vertical-center'>(E)</div></div><div class='respDivR'><div class='vertical-center'>(I)</div></div></div>","E","$34<br><br>now","$35<br>in<br>12 weeks","0","34","35","12","NOW"
"","","","offerFB","6400d9235287137e7b62fd29","bdp_td","Sun Apr 09 2023 16:40:19 GMT-0700 (Pacific Daylight Time)","92658","html-keyboard-response","39","56352","0.0-5.0-3.11","","null","","<div class='trialBorder'><div class='vertical-center'><img style='vertical-align:center; align:center' src=img/fixation3.jpg></div><div class='cl'><div class='vertical-center'><font style='color:orange'>$34<br><br>now</font></div></div><div class='cr'><div class='vertical-center'>$35<br>in<br>12 weeks</div></div><div class='respDivL'><div class='vertical-center'><font style='color:orange'>(E)</font></div></div><div class='respDivR'><div class='vertical-center'>(I)</div></div></div>","null","$34<br><br>now","$35<br>in<br>12 weeks","0","34","35","12",""
"","","","FIX","6400d9235287137e7b62fd29","bdp_td","Sun Apr 09 2023 16:40:19 GMT-0700 (Pacific Daylight Time)","92658","html-keyboard-response","40","56858","0.0-5.0-1.12","","null","","<div class='trialBorder'><div class='vertical-center'><img style='vertical-align:center; align:center' src=img/fixation3.jpg></div></div>","null","","","","","","",""
"","","","offer","6400d9235287137e7b62fd29","bdp_td","Sun Apr 09 2023 16:40:19 GMT-0700 (Pacific Daylight Time)","92658","html-keyboard-response","41","59143","0.0-5.0-2.12","","2283","","<div class='trialBorder'><div class='vertical-center'><img style='vertical-align:center; align:center' src=img/fixation3.jpg></div><div class='cl'><div class='vertical-center'>$14<br><br>now</div></div><div class='cr'><div class='vertical-center'>$25<br>in<br>3 weeks</div></div><div class='respDivL'><div class='vertical-center'>(E)</div></div><div class='respDivR'><div class='vertical-center'>(I)</div></div></div>","I","$14<br><br>now","$25<br>in<br>3 weeks","0","14","25","3","THEN"
"","","","offerFB","6400d9235287137e7b62fd29","bdp_td","Sun Apr 09 2023 16:40:19 GMT-0700 (Pacific Daylight Time)","92658","html-keyboard-response","42","59402","0.0-5.0-3.12","","null","","<div class='trialBorder'><div class='vertical-center'><img style='vertical-align:center; align:center' src=img/fixation3.jpg></div><div class='cl'><div class='vertical-center'>$14<br><br>now</div></div><div class='cr'><div class='vertical-center'><font style='color:orange'>$25<br>in<br>3 weeks</font></div></div><div class='respDivL'><div class='vertical-center'>(E)</div></div><div class='respDivR'><div class='vertical-center'><font style='color:orange'>(I)</font></div></div></div>","null","$14<br><br>now","$25<br>in<br>3 weeks","0","14","25","3",""
"","","","FIX","6400d9235287137e7b62fd29","bdp_td","Sun Apr 09 2023 16:40:19 GMT-0700 (Pacific Daylight Time)","92658","html-keyboard-response","43","59912","0.0-5.0-1.13","","null","","<div class='trialBorder'><div class='vertical-center'><img style='vertical-align:center; align:center' src=img/fixation3.jpg></div></div>","null","","","","","","",""
"","","","offer","6400d9235287137e7b62fd29","bdp_td","Sun Apr 09 2023 16:40:19 GMT-0700 (Pacific Daylight Time)","92658","html-keyboard-response","44","61225","0.0-5.0-2.13","","1310","","<div class='trialBorder'><div class='vertical-center'><img style='vertical-align:center; align:center' src=img/fixation3.jpg></div><div class='cl'><div class='vertical-center'>$20<br><br>now</div></div><div class='cr'><div class='vertical-center'>$55<br>in<br>1 week</div></div><div class='respDivL'><div class='vertical-center'>(E)</div></div><div class='respDivR'><div class='vertical-center'>(I)</div></div></div>","I","$20<br><br>now","$55<br>in<br>1 week","0","20","55","1","THEN"
"","","","offerFB","6400d9235287137e7b62fd29","bdp_td","Sun Apr 09 2023 16:40:19 GMT-0700 (Pacific Daylight Time)","92658","html-keyboard-response","45","61480","0.0-5.0-3.13","","null","","<div class='trialBorder'><div class='vertical-center'><img style='vertical-align:center; align:center' src=img/fixation3.jpg></div><div class='cl'><div class='vertical-center'>$20<br><br>now</div></div><div class='cr'><div class='vertical-center'><font style='color:orange'>$55<br>in<br>1 week</font></div></div><div class='respDivL'><div class='vertical-center'>(E)</div></div><div class='respDivR'><div class='vertical-center'><font style='color:orange'>(I)</font></div></div></div>","null","$20<br><br>now","$55<br>in<br>1 week","0","20","55","1",""
"","","","FIX","6400d9235287137e7b62fd29","bdp_td","Sun Apr 09 2023 16:40:19 GMT-0700 (Pacific Daylight Time)","92658","html-keyboard-response","46","61987","0.0-5.0-1.14","","null","","<div class='trialBorder'><div class='vertical-center'><img style='vertical-align:center; align:center' src=img/fixation3.jpg></div></div>","null","","","","","","",""
"","","","offer","6400d9235287137e7b62fd29","bdp_td","Sun Apr 09 2023 16:40:19 GMT-0700 (Pacific Daylight Time)","92658","html-keyboard-response","47","63015","0.0-5.0-2.14","","1026","","<div class='trialBorder'><div class='vertical-center'><img style='vertical-align:center; align:center' src=img/fixation3.jpg></div><div class='cl'><div class='vertical-center'>$75<br>in<br>3 weeks</div></div><div class='cr'><div class='vertical-center'>$41<br><br>now</div></div><div class='respDivL'><div class='vertical-center'>(E)</div></div><div class='respDivR'><div class='vertical-center'>(I)</div></div></div>","E","$41<br><br>now","$75<br>in<br>3 weeks","1","41","75","3","THEN"
"","","","offerFB","6400d9235287137e7b62fd29","bdp_td","Sun Apr 09 2023 16:40:19 GMT-0700 (Pacific Daylight Time)","92658","html-keyboard-response","48","63269","0.0-5.0-3.14","","null","","<div class='trialBorder'><div class='vertical-center'><img style='vertical-align:center; align:center' src=img/fixation3.jpg></div><div class='cl'><div class='vertical-center'><font style='color:orange'>$75<br>in<br>3 weeks</font></div></div><div class='cr'><div class='vertical-center'>$41<br><br>now</div></div><div class='respDivL'><div class='vertical-center'><font style='color:orange'>(E)</font></div></div><div class='respDivR'><div class='vertical-center'>(I)</div></div></div>","null","$41<br><br>now","$75<br>in<br>3 weeks","1","41","75","3",""
"","","","FIX","6400d9235287137e7b62fd29","bdp_td","Sun Apr 09 2023 16:40:19 GMT-0700 (Pacific Daylight Time)","92658","html-keyboard-response","49","63772","0.0-5.0-1.15","","null","","<div class='trialBorder'><div class='vertical-center'><img style='vertical-align:center; align:center' src=img/fixation3.jpg></div></div>","null","","","","","","",""
"","","","offer","6400d9235287137e7b62fd29","bdp_td","Sun Apr 09 2023 16:40:19 GMT-0700 (Pacific Daylight Time)","92658","html-keyboard-response","50","64805","0.0-5.0-2.15","","1030","","<div class='trialBorder'><div class='vertical-center'><img style='vertical-align:center; align:center' src=img/fixation3.jpg></div><div class='cl'><div class='vertical-center'>$30<br>in<br>2 weeks</div></div><div class='cr'><div class='vertical-center'>$11<br><br>now</div></div><div class='respDivL'><div class='vertical-center'>(E)</div></div><div class='respDivR'><div class='vertical-center'>(I)</div></div></div>","E","$11<br><br>now","$30<br>in<br>2 weeks","1","11","30","2","THEN"
"","","","offerFB","6400d9235287137e7b62fd29","bdp_td","Sun Apr 09 2023 16:40:19 GMT-0700 (Pacific Daylight Time)","92658","html-keyboard-response","51","65060","0.0-5.0-3.15","","null","","<div class='trialBorder'><div class='vertical-center'><img style='vertical-align:center; align:center' src=img/fixation3.jpg></div><div class='cl'><div class='vertical-center'><font style='color:orange'>$30<br>in<br>2 weeks</font></div></div><div class='cr'><div class='vertical-center'>$11<br><br>now</div></div><div class='respDivL'><div class='vertical-center'><font style='color:orange'>(E)</font></div></div><div class='respDivR'><div class='vertical-center'>(I)</div></div></div>","null","$11<br><br>now","$30<br>in<br>2 weeks","1","11","30","2",""
"","","","FIX","6400d9235287137e7b62fd29","bdp_td","Sun Apr 09 2023 16:40:19 GMT-0700 (Pacific Daylight Time)","92658","html-keyboard-response","52","65569","0.0-5.0-1.16","","null","","<div class='trialBorder'><div class='vertical-center'><img style='vertical-align:center; align:center' src=img/fixation3.jpg></div></div>","null","","","","","","",""
"","","","offer","6400d9235287137e7b62fd29","bdp_td","Sun Apr 09 2023 16:40:19 GMT-0700 (Pacific Daylight Time)","92658","html-keyboard-response","53","67329","0.0-5.0-2.16","","1758","","<div class='trialBorder'><div class='vertical-center'><img style='vertical-align:center; align:center' src=img/fixation3.jpg></div><div class='cl'><div class='vertical-center'>$47<br><br>now</div></div><div class='cr'><div class='vertical-center'>$50<br>in<br>12 weeks</div></div><div class='respDivL'><div class='vertical-center'>(E)</div></div><div class='respDivR'><div class='vertical-center'>(I)</div></div></div>","E","$47<br><br>now","$50<br>in<br>12 weeks","0","47","50","12","NOW"
"","","","offerFB","6400d9235287137e7b62fd29","bdp_td","Sun Apr 09 2023 16:40:19 GMT-0700 (Pacific Daylight Time)","92658","html-keyboard-response","54","67584","0.0-5.0-3.16","","null","","<div class='trialBorder'><div class='vertical-center'><img style='vertical-align:center; align:center' src=img/fixation3.jpg></div><div class='cl'><div class='vertical-center'><font style='color:orange'>$47<br><br>now</font></div></div><div class='cr'><div class='vertical-center'>$50<br>in<br>12 weeks</div></div><div class='respDivL'><div class='vertical-center'><font style='color:orange'>(E)</font></div></div><div class='respDivR'><div class='vertical-center'>(I)</div></div></div>","null","$47<br><br>now","$50<br>in<br>12 weeks","0","47","50","12",""
"","","","FIX","6400d9235287137e7b62fd29","bdp_td","Sun Apr 09 2023 16:40:19 GMT-0700 (Pacific Daylight Time)","92658","html-keyboard-response","55","68090","0.0-5.0-1.17","","null","","<div class='trialBorder'><div class='vertical-center'><img style='vertical-align:center; align:center' src=img/fixation3.jpg></div></div>","null","","","","","","",""
"","","","offer","6400d9235287137e7b62fd29","bdp_td","Sun Apr 09 2023 16:40:19 GMT-0700 (Pacific Daylight Time)","92658","html-keyboard-response","56","69233","0.0-5.0-2.17","","1141","","<div class='trialBorder'><div class='vertical-center'><img style='vertical-align:center; align:center' src=img/fixation3.jpg></div><div class='cl'><div class='vertical-center'>$85<br>in<br>1 week</div></div><div class='cr'><div class='vertical-center'>$31<br><br>now</div></div><div class='respDivL'><div class='vertical-center'>(E)</div></div><div class='respDivR'><div class='vertical-center'>(I)</div></div></div>","E","$31<br><br>now","$85<br>in<br>1 week","1","31","85","1","THEN"
"","","","offerFB","6400d9235287137e7b62fd29","bdp_td","Sun Apr 09 2023 16:40:19 GMT-0700 (Pacific Daylight Time)","92658","html-keyboard-response","57","69500","0.0-5.0-3.17","","null","","<div class='trialBorder'><div class='vertical-center'><img style='vertical-align:center; align:center' src=img/fixation3.jpg></div><div class='cl'><div class='vertical-center'><font style='color:orange'>$85<br>in<br>1 week</font></div></div><div class='cr'><div class='vertical-center'>$31<br><br>now</div></div><div class='respDivL'><div class='vertical-center'><font style='color:orange'>(E)</font></div></div><div class='respDivR'><div class='vertical-center'>(I)</div></div></div>","null","$31<br><br>now","$85<br>in<br>1 week","1","31","85","1",""
"","","","FIX","6400d9235287137e7b62fd29","bdp_td","Sun Apr 09 2023 16:40:19 GMT-0700 (Pacific Daylight Time)","92658","html-keyboard-response","58","70010","0.0-5.0-1.18","","null","","<div class='trialBorder'><div class='vertical-center'><img style='vertical-align:center; align:center' src=img/fixation3.jpg></div></div>","null","","","","","","",""
"","","","offer","6400d9235287137e7b62fd29","bdp_td","Sun Apr 09 2023 16:40:19 GMT-0700 (Pacific Daylight Time)","92658","html-keyboard-response","59","71503","0.0-5.0-2.18","","1491","","<div class='trialBorder'><div class='vertical-center'><img style='vertical-align:center; align:center' src=img/fixation3.jpg></div><div class='cl'><div class='vertical-center'>$27<br><br>now</div></div><div class='cr'><div class='vertical-center'>$50<br>in<br>3 weeks</div></div><div class='respDivL'><div class='vertical-center'>(E)</div></div><div class='respDivR'><div class='vertical-center'>(I)</div></div></div>","I","$27<br><br>now","$50<br>in<br>3 weeks","0","27","50","3","THEN"
"","","","offerFB","6400d9235287137e7b62fd29","bdp_td","Sun Apr 09 2023 16:40:19 GMT-0700 (Pacific Daylight Time)","92658","html-keyboard-response","60","71762","0.0-5.0-3.18","","null","","<div class='trialBorder'><div class='vertical-center'><img style='vertical-align:center; align:center' src=img/fixation3.jpg></div><div class='cl'><div class='vertical-center'>$27<br><br>now</div></div><div class='cr'><div class='vertical-center'><font style='color:orange'>$50<br>in<br>3 weeks</font></div></div><div class='respDivL'><div class='vertical-center'>(E)</div></div><div class='respDivR'><div class='vertical-center'><font style='color:orange'>(I)</font></div></div></div>","null","$27<br><br>now","$50<br>in<br>3 weeks","0","27","50","3",""
"","","","FIX","6400d9235287137e7b62fd29","bdp_td","Sun Apr 09 2023 16:40:19 GMT-0700 (Pacific Daylight Time)","92658","html-keyboard-response","61","72266","0.0-5.0-1.19","","null","","<div class='trialBorder'><div class='vertical-center'><img style='vertical-align:center; align:center' src=img/fixation3.jpg></div></div>","null","","","","","","",""
"","","","offer","6400d9235287137e7b62fd29","bdp_td","Sun Apr 09 2023 16:40:19 GMT-0700 (Pacific Daylight Time)","92658","html-keyboard-response","62","73396","0.0-5.0-2.19","","1128","","<div class='trialBorder'><div class='vertical-center'><img style='vertical-align:center; align:center' src=img/fixation3.jpg></div><div class='cl'><div class='vertical-center'>$75<br>in<br>12 weeks</div></div><div class='cr'><div class='vertical-center'>$67<br><br>now</div></div><div class='respDivL'><div class='vertical-center'>(E)</div></div><div class='respDivR'><div class='vertical-center'>(I)</div></div></div>","I","$67<br><br>now","$75<br>in<br>12 weeks","1","67","75","12","NOW"
"","","","offerFB","6400d9235287137e7b62fd29","bdp_td","Sun Apr 09 2023 16:40:19 GMT-0700 (Pacific Daylight Time)","92658","html-keyboard-response","63","73650","0.0-5.0-3.19","","null","","<div class='trialBorder'><div class='vertical-center'><img style='vertical-align:center; align:center' src=img/fixation3.jpg></div><div class='cl'><div class='vertical-center'>$75<br>in<br>12 weeks</div></div><div class='cr'><div class='vertical-center'><font style='color:orange'>$67<br><br>now</font></div></div><div class='respDivL'><div class='vertical-center'>(E)</div></div><div class='respDivR'><div class='vertical-center'><font style='color:orange'>(I)</font></div></div></div>","null","$67<br><br>now","$75<br>in<br>12 weeks","1","67","75","12",""
"","","","FIX","6400d9235287137e7b62fd29","bdp_td","Sun Apr 09 2023 16:40:19 GMT-0700 (Pacific Daylight Time)","92658","html-keyboard-response","64","74154","0.0-5.0-1.20","","null","","<div class='trialBorder'><div class='vertical-center'><img style='vertical-align:center; align:center' src=img/fixation3.jpg></div></div>","null","","","","","","",""
"","","","offer","6400d9235287137e7b62fd29","bdp_td","Sun Apr 09 2023 16:40:19 GMT-0700 (Pacific Daylight Time)","92658","html-keyboard-response","65","75858","0.0-5.0-2.20","","1702","","<div class='trialBorder'><div class='vertical-center'><img style='vertical-align:center; align:center' src=img/fixation3.jpg></div><div class='cl'><div class='vertical-center'>$34<br><br>now</div></div><div class='cr'><div class='vertical-center'>$50<br>in<br>6 weeks</div></div><div class='respDivL'><div class='vertical-center'>(E)</div></div><div class='respDivR'><div class='vertical-center'>(I)</div></div></div>","E","$34<br><br>now","$50<br>in<br>6 weeks","0","34","50","6","NOW"
"","","","offerFB","6400d9235287137e7b62fd29","bdp_td","Sun Apr 09 2023 16:40:19 GMT-0700 (Pacific Daylight Time)","92658","html-keyboard-response","66","76114","0.0-5.0-3.20","","null","","<div class='trialBorder'><div class='vertical-center'><img style='vertical-align:center; align:center' src=img/fixation3.jpg></div><div class='cl'><div class='vertical-center'><font style='color:orange'>$34<br><br>now</font></div></div><div class='cr'><div class='vertical-center'>$50<br>in<br>6 weeks</div></div><div class='respDivL'><div class='vertical-center'><font style='color:orange'>(E)</font></div></div><div class='respDivR'><div class='vertical-center'>(I)</div></div></div>","null","$34<br><br>now","$50<br>in<br>6 weeks","0","34","50","6",""
"","","","FIX","6400d9235287137e7b62fd29","bdp_td","Sun Apr 09 2023 16:40:19 GMT-0700 (Pacific Daylight Time)","92658","html-keyboard-response","67","76625","0.0-5.0-1.21","","null","","<div class='trialBorder'><div class='vertical-center'><img style='vertical-align:center; align:center' src=img/fixation3.jpg></div></div>","null","","","","","","",""
"","","","offer","6400d9235287137e7b62fd29","bdp_td","Sun Apr 09 2023 16:40:19 GMT-0700 (Pacific Daylight Time)","92658","html-keyboard-response","68","78044","0.0-5.0-2.21","","1417","","<div class='trialBorder'><div class='vertical-center'><img style='vertical-align:center; align:center' src=img/fixation3.jpg></div><div class='cl'><div class='vertical-center'>$69<br><br>now</div></div><div class='cr'><div class='vertical-center'>$85<br>in<br>6 weeks</div></div><div class='respDivL'><div class='vertical-center'>(E)</div></div><div class='respDivR'><div class='vertical-center'>(I)</div></div></div>","I","$69<br><br>now","$85<br>in<br>6 weeks","0","69","85","6","THEN"
"","","","offerFB","6400d9235287137e7b62fd29","bdp_td","Sun Apr 09 2023 16:40:19 GMT-0700 (Pacific Daylight Time)","92658","html-keyboard-response","69","78302","0.0-5.0-3.21","","null","","<div class='trialBorder'><div class='vertical-center'><img style='vertical-align:center; align:center' src=img/fixation3.jpg></div><div class='cl'><div class='vertical-center'>$69<br><br>now</div></div><div class='cr'><div class='vertical-center'><font style='color:orange'>$85<br>in<br>6 weeks</font></div></div><div class='respDivL'><div class='vertical-center'>(E)</div></div><div class='respDivR'><div class='vertical-center'><font style='color:orange'>(I)</font></div></div></div>","null","$69<br><br>now","$85<br>in<br>6 weeks","0","69","85","6",""
"","","","FIX","6400d9235287137e7b62fd29","bdp_td","Sun Apr 09 2023 16:40:19 GMT-0700 (Pacific Daylight Time)","92658","html-keyboard-response","70","78812","0.0-5.0-1.22","","null","","<div class='trialBorder'><div class='vertical-center'><img style='vertical-align:center; align:center' src=img/fixation3.jpg></div></div>","null","","","","","","",""
"","","","offer","6400d9235287137e7b62fd29","bdp_td","Sun Apr 09 2023 16:40:19 GMT-0700 (Pacific Daylight Time)","92658","html-keyboard-response","71","80599","0.0-5.0-2.22","","1785","","<div class='trialBorder'><div class='vertical-center'><img style='vertical-align:center; align:center' src=img/fixation3.jpg></div><div class='cl'><div class='vertical-center'>$54<br><br>now</div></div><div class='cr'><div class='vertical-center'>$60<br>in<br>12 weeks</div></div><div class='respDivL'><div class='vertical-center'>(E)</div></div><div class='respDivR'><div class='vertical-center'>(I)</div></div></div>","E","$54<br><br>now","$60<br>in<br>12 weeks","0","54","60","12","NOW"
"","","","offerFB","6400d9235287137e7b62fd29","bdp_td","Sun Apr 09 2023 16:40:19 GMT-0700 (Pacific Daylight Time)","92658","html-keyboard-response","72","80854","0.0-5.0-3.22","","null","","<div class='trialBorder'><div class='vertical-center'><img style='vertical-align:center; align:center' src=img/fixation3.jpg></div><div class='cl'><div class='vertical-center'><font style='color:orange'>$54<br><br>now</font></div></div><div class='cr'><div class='vertical-center'>$60<br>in<br>12 weeks</div></div><div class='respDivL'><div class='vertical-center'><font style='color:orange'>(E)</font></div></div><div class='respDivR'><div class='vertical-center'>(I)</div></div></div>","null","$54<br><br>now","$60<br>in<br>12 weeks","0","54","60","12",""
"","","","FIX","6400d9235287137e7b62fd29","bdp_td","Sun Apr 09 2023 16:40:19 GMT-0700 (Pacific Daylight Time)","92658","html-keyboard-response","73","81370","0.0-5.0-1.23","","null","","<div class='trialBorder'><div class='vertical-center'><img style='vertical-align:center; align:center' src=img/fixation3.jpg></div></div>","null","","","","","","",""
"","","","offer","6400d9235287137e7b62fd29","bdp_td","Sun Apr 09 2023 16:40:19 GMT-0700 (Pacific Daylight Time)","92658","html-keyboard-response","74","82503","0.0-5.0-2.23","","1130","","<div class='trialBorder'><div class='vertical-center'><img style='vertical-align:center; align:center' src=img/fixation3.jpg></div><div class='cl'><div class='vertical-center'>$80<br>in<br>12 weeks</div></div><div class='cr'><div class='vertical-center'>$78<br><br>now</div></div><div class='respDivL'><div class='vertical-center'>(E)</div></div><div class='respDivR'><div class='vertical-center'>(I)</div></div></div>","I","$78<br><br>now","$80<br>in<br>12 weeks","1","78","80","12","NOW"
"","","","offerFB","6400d9235287137e7b62fd29","bdp_td","Sun Apr 09 2023 16:40:19 GMT-0700 (Pacific Daylight Time)","92658","html-keyboard-response","75","82758","0.0-5.0-3.23","","null","","<div class='trialBorder'><div class='vertical-center'><img style='vertical-align:center; align:center' src=img/fixation3.jpg></div><div class='cl'><div class='vertical-center'>$80<br>in<br>12 weeks</div></div><div class='cr'><div class='vertical-center'><font style='color:orange'>$78<br><br>now</font></div></div><div class='respDivL'><div class='vertical-center'>(E)</div></div><div class='respDivR'><div class='vertical-center'><font style='color:orange'>(I)</font></div></div></div>","null","$78<br><br>now","$80<br>in<br>12 weeks","1","78","80","12",""
"","","","FIX","6400d9235287137e7b62fd29","bdp_td","Sun Apr 09 2023 16:40:19 GMT-0700 (Pacific Daylight Time)","92658","html-keyboard-response","76","83262","0.0-5.0-1.24","","null","","<div class='trialBorder'><div class='vertical-center'><img style='vertical-align:center; align:center' src=img/fixation3.jpg></div></div>","null","","","","","","",""
"","","","offer","6400d9235287137e7b62fd29","bdp_td","Sun Apr 09 2023 16:40:19 GMT-0700 (Pacific Daylight Time)","92658","html-keyboard-response","77","85020","0.0-5.0-2.24","","1756","","<div class='trialBorder'><div class='vertical-center'><img style='vertical-align:center; align:center' src=img/fixation3.jpg></div><div class='cl'><div class='vertical-center'>$28<br><br>now</div></div><div class='cr'><div class='vertical-center'>$30<br>in<br>12 weeks</div></div><div class='respDivL'><div class='vertical-center'>(E)</div></div><div class='respDivR'><div class='vertical-center'>(I)</div></div></div>","E","$28<br><br>now","$30<br>in<br>12 weeks","0","28","30","12","NOW"
"","","","offerFB","6400d9235287137e7b62fd29","bdp_td","Sun Apr 09 2023 16:40:19 GMT-0700 (Pacific Daylight Time)","92658","html-keyboard-response","78","85273","0.0-5.0-3.24","","null","","<div class='trialBorder'><div class='vertical-center'><img style='vertical-align:center; align:center' src=img/fixation3.jpg></div><div class='cl'><div class='vertical-center'><font style='color:orange'>$28<br><br>now</font></div></div><div class='cr'><div class='vertical-center'>$30<br>in<br>12 weeks</div></div><div class='respDivL'><div class='vertical-center'><font style='color:orange'>(E)</font></div></div><div class='respDivR'><div class='vertical-center'>(I)</div></div></div>","null","$28<br><br>now","$30<br>in<br>12 weeks","0","28","30","12",""
"","","","FIX","6400d9235287137e7b62fd29","bdp_td","Sun Apr 09 2023 16:40:19 GMT-0700 (Pacific Daylight Time)","92658","html-keyboard-response","79","85775","0.0-5.0-1.25","","null","","<div class='trialBorder'><div class='vertical-center'><img style='vertical-align:center; align:center' src=img/fixation3.jpg></div></div>","null","","","","","","",""
"","","","offer","6400d9235287137e7b62fd29","bdp_td","Sun Apr 09 2023 16:40:19 GMT-0700 (Pacific Daylight Time)","92658","html-keyboard-response","80","88525","0.0-5.0-2.25","","2749","","<div class='trialBorder'><div class='vertical-center'><img style='vertical-align:center; align:center' src=img/fixation3.jpg></div><div class='cl'><div class='vertical-center'>$60<br>in<br>6 weeks</div></div><div class='cr'><div class='vertical-center'>$49<br><br>now</div></div><div class='respDivL'><div class='vertical-center'>(E)</div></div><div class='respDivR'><div class='vertical-center'>(I)</div></div></div>","I","$49<br><br>now","$60<br>in<br>6 weeks","1","49","60","6","NOW"
"","","","offerFB","6400d9235287137e7b62fd29","bdp_td","Sun Apr 09 2023 16:40:19 GMT-0700 (Pacific Daylight Time)","92658","html-keyboard-response","81","88785","0.0-5.0-3.25","","null","","<div class='trialBorder'><div class='vertical-center'><img style='vertical-align:center; align:center' src=img/fixation3.jpg></div><div class='cl'><div class='vertical-center'>$60<br>in<br>6 weeks</div></div><div class='cr'><div class='vertical-center'><font style='color:orange'>$49<br><br>now</font></div></div><div class='respDivL'><div class='vertical-center'>(E)</div></div><div class='respDivR'><div class='vertical-center'><font style='color:orange'>(I)</font></div></div></div>","null","$49<br><br>now","$60<br>in<br>6 weeks","1","49","60","6",""
"","","","FIX","6400d9235287137e7b62fd29","bdp_td","Sun Apr 09 2023 16:40:19 GMT-0700 (Pacific Daylight Time)","92658","html-keyboard-response","82","89295","0.0-5.0-1.26","","null","","<div class='trialBorder'><div class='vertical-center'><img style='vertical-align:center; align:center' src=img/fixation3.jpg></div></div>","null","","","","","","",""
"","","","offer","6400d9235287137e7b62fd29","bdp_td","Sun Apr 09 2023 16:40:19 GMT-0700 (Pacific Daylight Time)","92658","html-keyboard-response","83","91396","0.0-5.0-2.26","","2099","","<div class='trialBorder'><div class='vertical-center'><img style='vertical-align:center; align:center' src=img/fixation3.jpg></div><div class='cl'><div class='vertical-center'>$55<br><br>now</div></div><div class='cr'><div class='vertical-center'>$75<br>in<br>6 weeks</div></div><div class='respDivL'><div class='vertical-center'>(E)</div></div><div class='respDivR'><div class='vertical-center'>(I)</div></div></div>","I","$55<br><br>now","$75<br>in<br>6 weeks","0","55","75","6","THEN"
"","","","offerFB","6400d9235287137e7b62fd29","bdp_td","Sun Apr 09 2023 16:40:19 GMT-0700 (Pacific Daylight Time)","92658","html-keyboard-response","84","91655","0.0-5.0-3.26","","null","","<div class='trialBorder'><div class='vertical-center'><img style='vertical-align:center; align:center' src=img/fixation3.jpg></div><div class='cl'><div class='vertical-center'>$55<br><br>now</div></div><div class='cr'><div class='vertical-center'><font style='color:orange'>$75<br>in<br>6 weeks</font></div></div><div class='respDivL'><div class='vertical-center'>(E)</div></div><div class='respDivR'><div class='vertical-center'><font style='color:orange'>(I)</font></div></div></div>","null","$55<br><br>now","$75<br>in<br>6 weeks","0","55","75","6",""
"fullscreenexit","85","91716","fullscreenexit","6400d9235287137e7b62fd29","bdp_td","Sun Apr 09 2023 16:40:19 GMT-0700 (Pacific Daylight Time)","92658","","","","","","","","","","","","","","","",""
"","","","","6400d9235287137e7b62fd29","bdp_td","Sun Apr 09 2023 16:40:19 GMT-0700 (Pacific Daylight Time)","92658","fullscreen","85","92657","0.0-6.0","","","true","","","","","","","","",""
"","","","","","","","","html-keyboard-response","86","93159","0.0-7.0","","null","","","null","","","","","","",""
