"trial_type","trial_index","time_elapsed","internal_node_id","subject_id","task","startTime","totalTime","view_history","rt","event","trial","time","trialtype","success","stimulus","key_press","nowOffer","thenOffer","thenLeft","nowAmt","thenAmt","thenWeeks","chosen"
"pavlovia","0","8","0.0-0.0","5f2f86864fd821374b4367bc","bdp_td","Mon Mar 27 2023 12:01:03 GMT-0700 (Pacific Daylight Time)","168002","","","","","","","","","","","","","","","",""
"instructions","1","2207","0.0-1.0","5f2f86864fd821374b4367bc","bdp_td","Mon Mar 27 2023 12:01:03 GMT-0700 (Pacific Daylight Time)","168002","[{""page_index"":0,""viewing_time"":2198}]","2198","","","","","","","","","","","","","",""
"","","","","5f2f86864fd821374b4367bc","bdp_td","Mon Mar 27 2023 12:01:03 GMT-0700 (Pacific Daylight Time)","168002","","","fullscreenenter","2","8508","fullscreenenter","","","","","","","","","",""
"","","","","5f2f86864fd821374b4367bc","bdp_td","Mon Mar 27 2023 12:01:03 GMT-0700 (Pacific Daylight Time)","168002","","","fullscreenexit","2","9006","fullscreenexit","","","","","","","","","",""
"fullscreen","2","9506","0.0-2.0","5f2f86864fd821374b4367bc","bdp_td","Mon Mar 27 2023 12:01:03 GMT-0700 (Pacific Daylight Time)","168002","","","","","","","true","","","","","","","","",""
"image-keyboard-response","3","16474","0.0-3.0-0.0","5f2f86864fd821374b4367bc","bdp_td","Mon Mar 27 2023 12:01:03 GMT-0700 (Pacific Daylight Time)","168002","","6964","","","","fullscreenfail","","","32","","","","","","",""
"instructions","4","81729","0.0-4.0","5f2f86864fd821374b4367bc","bdp_td","Mon Mar 27 2023 12:01:03 GMT-0700 (Pacific Daylight Time)","168002","[{""page_index"":0,""viewing_time"":11621},{""page_index"":1,""viewing_time"":41036},{""page_index"":2,""viewing_time"":12347}]","65004","","","","","","","","","","","","","",""
"html-keyboard-response","5","82231","0.0-5.0-1.0","5f2f86864fd821374b4367bc","bdp_td","Mon Mar 27 2023 12:01:03 GMT-0700 (Pacific Daylight Time)","168002","","null","","","","FIX","","<div class='trialBorder'><div class='vertical-center'><img style='vertical-align:center; align:center' src=img/fixation3.jpg></div></div>","null","","","","","","",""
"html-keyboard-response","6","86237","0.0-5.0-2.0","5f2f86864fd821374b4367bc","bdp_td","Mon Mar 27 2023 12:01:03 GMT-0700 (Pacific Daylight Time)","168002","","4005","","","","offer","","<div class='trialBorder'><div class='vertical-center'><img style='vertical-align:center; align:center' src=img/fixation3.jpg></div><div class='cl'><div class='vertical-center'>$50<br>in<br>6 weeks</div></div><div class='cr'><div class='vertical-center'>$34<br><br>now</div></div><div class='respDivL'><div class='vertical-center'>(E)</div></div><div class='respDivR'><div class='vertical-center'>(I)</div></div></div>","I","$34<br><br>now","$50<br>in<br>6 weeks","1","34","50","6","NOW"
"html-keyboard-response","7","86489","0.0-5.0-3.0","5f2f86864fd821374b4367bc","bdp_td","Mon Mar 27 2023 12:01:03 GMT-0700 (Pacific Daylight Time)","168002","","null","","","","offerFB","","<div class='trialBorder'><div class='vertical-center'><img style='vertical-align:center; align:center' src=img/fixation3.jpg></div><div class='cl'><div class='vertical-center'>$50<br>in<br>6 weeks</div></div><div class='cr'><div class='vertical-center'><font style='color:orange'>$34<br><br>now</font></div></div><div class='respDivL'><div class='vertical-center'>(E)</div></div><div class='respDivR'><div class='vertical-center'><font style='color:orange'>(I)</font></div></div></div>","null","$34<br><br>now","$50<br>in<br>6 weeks","1","34","50","6",""
"html-keyboard-response","8","86992","0.0-5.0-1.1","5f2f86864fd821374b4367bc","bdp_td","Mon Mar 27 2023 12:01:03 GMT-0700 (Pacific Daylight Time)","168002","","null","","","","FIX","","<div class='trialBorder'><div class='vertical-center'><img style='vertical-align:center; align:center' src=img/fixation3.jpg></div></div>","null","","","","","","",""
"html-keyboard-response","9","89055","0.0-5.0-2.1","5f2f86864fd821374b4367bc","bdp_td","Mon Mar 27 2023 12:01:03 GMT-0700 (Pacific Daylight Time)","168002","","2062","","","","offer","","<div class='trialBorder'><div class='vertical-center'><img style='vertical-align:center; align:center' src=img/fixation3.jpg></div><div class='cl'><div class='vertical-center'>$85<br>in<br>6 weeks</div></div><div class='cr'><div class='vertical-center'>$69<br><br>now</div></div><div class='respDivL'><div class='vertical-center'>(E)</div></div><div class='respDivR'><div class='vertical-center'>(I)</div></div></div>","I","$69<br><br>now","$85<br>in<br>6 weeks","1","69","85","6","NOW"
"html-keyboard-response","10","89307","0.0-5.0-3.1","5f2f86864fd821374b4367bc","bdp_td","Mon Mar 27 2023 12:01:03 GMT-0700 (Pacific Daylight Time)","168002","","null","","","","offerFB","","<div class='trialBorder'><div class='vertical-center'><img style='vertical-align:center; align:center' src=img/fixation3.jpg></div><div class='cl'><div class='vertical-center'>$85<br>in<br>6 weeks</div></div><div class='cr'><div class='vertical-center'><font style='color:orange'>$69<br><br>now</font></div></div><div class='respDivL'><div class='vertical-center'>(E)</div></div><div class='respDivR'><div class='vertical-center'><font style='color:orange'>(I)</font></div></div></div>","null","$69<br><br>now","$85<br>in<br>6 weeks","1","69","85","6",""
"html-keyboard-response","11","89809","0.0-5.0-1.2","5f2f86864fd821374b4367bc","bdp_td","Mon Mar 27 2023 12:01:03 GMT-0700 (Pacific Daylight Time)","168002","","null","","","","FIX","","<div class='trialBorder'><div class='vertical-center'><img style='vertical-align:center; align:center' src=img/fixation3.jpg></div></div>","null","","","","","","",""
"html-keyboard-response","12","94505","0.0-5.0-2.2","5f2f86864fd821374b4367bc","bdp_td","Mon Mar 27 2023 12:01:03 GMT-0700 (Pacific Daylight Time)","168002","","4695","","","","offer","","<div class='trialBorder'><div class='vertical-center'><img style='vertical-align:center; align:center' src=img/fixation3.jpg></div><div class='cl'><div class='vertical-center'>$22<br><br>now</div></div><div class='cr'><div class='vertical-center'>$25<br>in<br>12 weeks</div></div><div class='respDivL'><div class='vertical-center'>(E)</div></div><div class='respDivR'><div class='vertical-center'>(I)</div></div></div>","E","$22<br><br>now","$25<br>in<br>12 weeks","0","22","25","12","NOW"
"html-keyboard-response","13","94759","0.0-5.0-3.2","5f2f86864fd821374b4367bc","bdp_td","Mon Mar 27 2023 12:01:03 GMT-0700 (Pacific Daylight Time)","168002","","null","","","","offerFB","","<div class='trialBorder'><div class='vertical-center'><img style='vertical-align:center; align:center' src=img/fixation3.jpg></div><div class='cl'><div class='vertical-center'><font style='color:orange'>$22<br><br>now</font></div></div><div class='cr'><div class='vertical-center'>$25<br>in<br>12 weeks</div></div><div class='respDivL'><div class='vertical-center'><font style='color:orange'>(E)</font></div></div><div class='respDivR'><div class='vertical-center'>(I)</div></div></div>","null","$22<br><br>now","$25<br>in<br>12 weeks","0","22","25","12",""
"html-keyboard-response","14","95261","0.0-5.0-1.3","5f2f86864fd821374b4367bc","bdp_td","Mon Mar 27 2023 12:01:03 GMT-0700 (Pacific Daylight Time)","168002","","null","","","","FIX","","<div class='trialBorder'><div class='vertical-center'><img style='vertical-align:center; align:center' src=img/fixation3.jpg></div></div>","null","","","","","","",""
"html-keyboard-response","15","97998","0.0-5.0-2.3","5f2f86864fd821374b4367bc","bdp_td","Mon Mar 27 2023 12:01:03 GMT-0700 (Pacific Daylight Time)","168002","","2736","","","","offer","","<div class='trialBorder'><div class='vertical-center'><img style='vertical-align:center; align:center' src=img/fixation3.jpg></div><div class='cl'><div class='vertical-center'>$55<br>in<br>6 weeks</div></div><div class='cr'><div class='vertical-center'>$40<br><br>now</div></div><div class='respDivL'><div class='vertical-center'>(E)</div></div><div class='respDivR'><div class='vertical-center'>(I)</div></div></div>","I","$40<br><br>now","$55<br>in<br>6 weeks","1","40","55","6","NOW"
"html-keyboard-response","16","98251","0.0-5.0-3.3","5f2f86864fd821374b4367bc","bdp_td","Mon Mar 27 2023 12:01:03 GMT-0700 (Pacific Daylight Time)","168002","","null","","","","offerFB","","<div class='trialBorder'><div class='vertical-center'><img style='vertical-align:center; align:center' src=img/fixation3.jpg></div><div class='cl'><div class='vertical-center'>$55<br>in<br>6 weeks</div></div><div class='cr'><div class='vertical-center'><font style='color:orange'>$40<br><br>now</font></div></div><div class='respDivL'><div class='vertical-center'>(E)</div></div><div class='respDivR'><div class='vertical-center'><font style='color:orange'>(I)</font></div></div></div>","null","$40<br><br>now","$55<br>in<br>6 weeks","1","40","55","6",""
"html-keyboard-response","17","98753","0.0-5.0-1.4","5f2f86864fd821374b4367bc","bdp_td","Mon Mar 27 2023 12:01:03 GMT-0700 (Pacific Daylight Time)","168002","","null","","","","FIX","","<div class='trialBorder'><div class='vertical-center'><img style='vertical-align:center; align:center' src=img/fixation3.jpg></div></div>","null","","","","","","",""
"html-keyboard-response","18","101415","0.0-5.0-2.4","5f2f86864fd821374b4367bc","bdp_td","Mon Mar 27 2023 12:01:03 GMT-0700 (Pacific Daylight Time)","168002","","2660","","","","offer","","<div class='trialBorder'><div class='vertical-center'><img style='vertical-align:center; align:center' src=img/fixation3.jpg></div><div class='cl'><div class='vertical-center'>$54<br><br>now</div></div><div class='cr'><div class='vertical-center'>$80<br>in<br>3 weeks</div></div><div class='respDivL'><div class='vertical-center'>(E)</div></div><div class='respDivR'><div class='vertical-center'>(I)</div></div></div>","E","$54<br><br>now","$80<br>in<br>3 weeks","0","54","80","3","NOW"
"html-keyboard-response","19","101666","0.0-5.0-3.4","5f2f86864fd821374b4367bc","bdp_td","Mon Mar 27 2023 12:01:03 GMT-0700 (Pacific Daylight Time)","168002","","null","","","","offerFB","","<div class='trialBorder'><div class='vertical-center'><img style='vertical-align:center; align:center' src=img/fixation3.jpg></div><div class='cl'><div class='vertical-center'><font style='color:orange'>$54<br><br>now</font></div></div><div class='cr'><div class='vertical-center'>$80<br>in<br>3 weeks</div></div><div class='respDivL'><div class='vertical-center'><font style='color:orange'>(E)</font></div></div><div class='respDivR'><div class='vertical-center'>(I)</div></div></div>","null","$54<br><br>now","$80<br>in<br>3 weeks","0","54","80","3",""
"html-keyboard-response","20","102168","0.0-5.0-1.5","5f2f86864fd821374b4367bc","bdp_td","Mon Mar 27 2023 12:01:03 GMT-0700 (Pacific Daylight Time)","168002","","null","","","","FIX","","<div class='trialBorder'><div class='vertical-center'><img style='vertical-align:center; align:center' src=img/fixation3.jpg></div></div>","null","","","","","","",""
"html-keyboard-response","21","104887","0.0-5.0-2.5","5f2f86864fd821374b4367bc","bdp_td","Mon Mar 27 2023 12:01:03 GMT-0700 (Pacific Daylight Time)","168002","","2718","","","","offer","","<div class='trialBorder'><div class='vertical-center'><img style='vertical-align:center; align:center' src=img/fixation3.jpg></div><div class='cl'><div class='vertical-center'>$11<br><br>now</div></div><div class='cr'><div class='vertical-center'>$30<br>in<br>2 weeks</div></div><div class='respDivL'><div class='vertical-center'>(E)</div></div><div class='respDivR'><div class='vertical-center'>(I)</div></div></div>","I","$11<br><br>now","$30<br>in<br>2 weeks","0","11","30","2","THEN"
"html-keyboard-response","22","105138","0.0-5.0-3.5","5f2f86864fd821374b4367bc","bdp_td","Mon Mar 27 2023 12:01:03 GMT-0700 (Pacific Daylight Time)","168002","","null","","","","offerFB","","<div class='trialBorder'><div class='vertical-center'><img style='vertical-align:center; align:center' src=img/fixation3.jpg></div><div class='cl'><div class='vertical-center'>$11<br><br>now</div></div><div class='cr'><div class='vertical-center'><font style='color:orange'>$30<br>in<br>2 weeks</font></div></div><div class='respDivL'><div class='vertical-center'>(E)</div></div><div class='respDivR'><div class='vertical-center'><font style='color:orange'>(I)</font></div></div></div>","null","$11<br><br>now","$30<br>in<br>2 weeks","0","11","30","2",""
"html-keyboard-response","23","105639","0.0-5.0-1.6","5f2f86864fd821374b4367bc","bdp_td","Mon Mar 27 2023 12:01:03 GMT-0700 (Pacific Daylight Time)","168002","","null","","","","FIX","","<div class='trialBorder'><div class='vertical-center'><img style='vertical-align:center; align:center' src=img/fixation3.jpg></div></div>","null","","","","","","",""
"html-keyboard-response","24","107926","0.0-5.0-2.6","5f2f86864fd821374b4367bc","bdp_td","Mon Mar 27 2023 12:01:03 GMT-0700 (Pacific Daylight Time)","168002","","2286","","","","offer","","<div class='trialBorder'><div class='vertical-center'><img style='vertical-align:center; align:center' src=img/fixation3.jpg></div><div class='cl'><div class='vertical-center'>$15<br><br>now</div></div><div class='cr'><div class='vertical-center'>$35<br>in<br>2 weeks</div></div><div class='respDivL'><div class='vertical-center'>(E)</div></div><div class='respDivR'><div class='vertical-center'>(I)</div></div></div>","I","$15<br><br>now","$35<br>in<br>2 weeks","0","15","35","2","THEN"
"html-keyboard-response","25","108179","0.0-5.0-3.6","5f2f86864fd821374b4367bc","bdp_td","Mon Mar 27 2023 12:01:03 GMT-0700 (Pacific Daylight Time)","168002","","null","","","","offerFB","","<div class='trialBorder'><div class='vertical-center'><img style='vertical-align:center; align:center' src=img/fixation3.jpg></div><div class='cl'><div class='vertical-center'>$15<br><br>now</div></div><div class='cr'><div class='vertical-center'><font style='color:orange'>$35<br>in<br>2 weeks</font></div></div><div class='respDivL'><div class='vertical-center'>(E)</div></div><div class='respDivR'><div class='vertical-center'><font style='color:orange'>(I)</font></div></div></div>","null","$15<br><br>now","$35<br>in<br>2 weeks","0","15","35","2",""
"html-keyboard-response","26","108681","0.0-5.0-1.7","5f2f86864fd821374b4367bc","bdp_td","Mon Mar 27 2023 12:01:03 GMT-0700 (Pacific Daylight Time)","168002","","null","","","","FIX","","<div class='trialBorder'><div class='vertical-center'><img style='vertical-align:center; align:center' src=img/fixation3.jpg></div></div>","null","","","","","","",""
"html-keyboard-response","27","110247","0.0-5.0-2.7","5f2f86864fd821374b4367bc","bdp_td","Mon Mar 27 2023 12:01:03 GMT-0700 (Pacific Daylight Time)","168002","","1564","","","","offer","","<div class='trialBorder'><div class='vertical-center'><img style='vertical-align:center; align:center' src=img/fixation3.jpg></div><div class='cl'><div class='vertical-center'>$33<br><br>now</div></div><div class='cr'><div class='vertical-center'>$80<br>in<br>2 weeks</div></div><div class='respDivL'><div class='vertical-center'>(E)</div></div><div class='respDivR'><div class='vertical-center'>(I)</div></div></div>","I","$33<br><br>now","$80<br>in<br>2 weeks","0","33","80","2","THEN"
"html-keyboard-response","28","110499","0.0-5.0-3.7","5f2f86864fd821374b4367bc","bdp_td","Mon Mar 27 2023 12:01:03 GMT-0700 (Pacific Daylight Time)","168002","","null","","","","offerFB","","<div class='trialBorder'><div class='vertical-center'><img style='vertical-align:center; align:center' src=img/fixation3.jpg></div><div class='cl'><div class='vertical-center'>$33<br><br>now</div></div><div class='cr'><div class='vertical-center'><font style='color:orange'>$80<br>in<br>2 weeks</font></div></div><div class='respDivL'><div class='vertical-center'>(E)</div></div><div class='respDivR'><div class='vertical-center'><font style='color:orange'>(I)</font></div></div></div>","null","$33<br><br>now","$80<br>in<br>2 weeks","0","33","80","2",""
"html-keyboard-response","29","111001","0.0-5.0-1.8","5f2f86864fd821374b4367bc","bdp_td","Mon Mar 27 2023 12:01:03 GMT-0700 (Pacific Daylight Time)","168002","","null","","","","FIX","","<div class='trialBorder'><div class='vertical-center'><img style='vertical-align:center; align:center' src=img/fixation3.jpg></div></div>","null","","","","","","",""
"html-keyboard-response","30","113743","0.0-5.0-2.8","5f2f86864fd821374b4367bc","bdp_td","Mon Mar 27 2023 12:01:03 GMT-0700 (Pacific Daylight Time)","168002","","2742","","","","offer","","<div class='trialBorder'><div class='vertical-center'><img style='vertical-align:center; align:center' src=img/fixation3.jpg></div><div class='cl'><div class='vertical-center'>$49<br><br>now</div></div><div class='cr'><div class='vertical-center'>$60<br>in<br>6 weeks</div></div><div class='respDivL'><div class='vertical-center'>(E)</div></div><div class='respDivR'><div class='vertical-center'>(I)</div></div></div>","E","$49<br><br>now","$60<br>in<br>6 weeks","0","49","60","6","NOW"
"html-keyboard-response","31","113996","0.0-5.0-3.8","5f2f86864fd821374b4367bc","bdp_td","Mon Mar 27 2023 12:01:03 GMT-0700 (Pacific Daylight Time)","168002","","null","","","","offerFB","","<div class='trialBorder'><div class='vertical-center'><img style='vertical-align:center; align:center' src=img/fixation3.jpg></div><div class='cl'><div class='vertical-center'><font style='color:orange'>$49<br><br>now</font></div></div><div class='cr'><div class='vertical-center'>$60<br>in<br>6 weeks</div></div><div class='respDivL'><div class='vertical-center'><font style='color:orange'>(E)</font></div></div><div class='respDivR'><div class='vertical-center'>(I)</div></div></div>","null","$49<br><br>now","$60<br>in<br>6 weeks","0","49","60","6",""
"html-keyboard-response","32","114498","0.0-5.0-1.9","5f2f86864fd821374b4367bc","bdp_td","Mon Mar 27 2023 12:01:03 GMT-0700 (Pacific Daylight Time)","168002","","null","","","","FIX","","<div class='trialBorder'><div class='vertical-center'><img style='vertical-align:center; align:center' src=img/fixation3.jpg></div></div>","null","","","","","","",""
"html-keyboard-response","33","117916","0.0-5.0-2.9","5f2f86864fd821374b4367bc","bdp_td","Mon Mar 27 2023 12:01:03 GMT-0700 (Pacific Daylight Time)","168002","","3417","","","","offer","","<div class='trialBorder'><div class='vertical-center'><img style='vertical-align:center; align:center' src=img/fixation3.jpg></div><div class='cl'><div class='vertical-center'>$25<br>in<br>3 weeks</div></div><div class='cr'><div class='vertical-center'>$14<br><br>now</div></div><div class='respDivL'><div class='vertical-center'>(E)</div></div><div class='respDivR'><div class='vertical-center'>(I)</div></div></div>","I","$14<br><br>now","$25<br>in<br>3 weeks","1","14","25","3","NOW"
"html-keyboard-response","34","118169","0.0-5.0-3.9","5f2f86864fd821374b4367bc","bdp_td","Mon Mar 27 2023 12:01:03 GMT-0700 (Pacific Daylight Time)","168002","","null","","","","offerFB","","<div class='trialBorder'><div class='vertical-center'><img style='vertical-align:center; align:center' src=img/fixation3.jpg></div><div class='cl'><div class='vertical-center'>$25<br>in<br>3 weeks</div></div><div class='cr'><div class='vertical-center'><font style='color:orange'>$14<br><br>now</font></div></div><div class='respDivL'><div class='vertical-center'>(E)</div></div><div class='respDivR'><div class='vertical-center'><font style='color:orange'>(I)</font></div></div></div>","null","$14<br><br>now","$25<br>in<br>3 weeks","1","14","25","3",""
"html-keyboard-response","35","118670","0.0-5.0-1.10","5f2f86864fd821374b4367bc","bdp_td","Mon Mar 27 2023 12:01:03 GMT-0700 (Pacific Daylight Time)","168002","","null","","","","FIX","","<div class='trialBorder'><div class='vertical-center'><img style='vertical-align:center; align:center' src=img/fixation3.jpg></div></div>","null","","","","","","",""
"html-keyboard-response","36","121117","0.0-5.0-2.10","5f2f86864fd821374b4367bc","bdp_td","Mon Mar 27 2023 12:01:03 GMT-0700 (Pacific Daylight Time)","168002","","2446","","","","offer","","<div class='trialBorder'><div class='vertical-center'><img style='vertical-align:center; align:center' src=img/fixation3.jpg></div><div class='cl'><div class='vertical-center'>$55<br><br>now</div></div><div class='cr'><div class='vertical-center'>$75<br>in<br>6 weeks</div></div><div class='respDivL'><div class='vertical-center'>(E)</div></div><div class='respDivR'><div class='vertical-center'>(I)</div></div></div>","E","$55<br><br>now","$75<br>in<br>6 weeks","0","55","75","6","NOW"
"html-keyboard-response","37","121369","0.0-5.0-3.10","5f2f86864fd821374b4367bc","bdp_td","Mon Mar 27 2023 12:01:03 GMT-0700 (Pacific Daylight Time)","168002","","null","","","","offerFB","","<div class='trialBorder'><div class='vertical-center'><img style='vertical-align:center; align:center' src=img/fixation3.jpg></div><div class='cl'><div class='vertical-center'><font style='color:orange'>$55<br><br>now</font></div></div><div class='cr'><div class='vertical-center'>$75<br>in<br>6 weeks</div></div><div class='respDivL'><div class='vertical-center'><font style='color:orange'>(E)</font></div></div><div class='respDivR'><div class='vertical-center'>(I)</div></div></div>","null","$55<br><br>now","$75<br>in<br>6 weeks","0","55","75","6",""
"html-keyboard-response","38","121871","0.0-5.0-1.11","5f2f86864fd821374b4367bc","bdp_td","Mon Mar 27 2023 12:01:03 GMT-0700 (Pacific Daylight Time)","168002","","null","","","","FIX","","<div class='trialBorder'><div class='vertical-center'><img style='vertical-align:center; align:center' src=img/fixation3.jpg></div></div>","null","","","","","","",""
"html-keyboard-response","39","124358","0.0-5.0-2.11","5f2f86864fd821374b4367bc","bdp_td","Mon Mar 27 2023 12:01:03 GMT-0700 (Pacific Daylight Time)","168002","","2485","","","","offer","","<div class='trialBorder'><div class='vertical-center'><img style='vertical-align:center; align:center' src=img/fixation3.jpg></div><div class='cl'><div class='vertical-center'>$34<br><br>now</div></div><div class='cr'><div class='vertical-center'>$35<br>in<br>12 weeks</div></div><div class='respDivL'><div class='vertical-center'>(E)</div></div><div class='respDivR'><div class='vertical-center'>(I)</div></div></div>","I","$34<br><br>now","$35<br>in<br>12 weeks","0","34","35","12","THEN"
"html-keyboard-response","40","124610","0.0-5.0-3.11","5f2f86864fd821374b4367bc","bdp_td","Mon Mar 27 2023 12:01:03 GMT-0700 (Pacific Daylight Time)","168002","","null","","","","offerFB","","<div class='trialBorder'><div class='vertical-center'><img style='vertical-align:center; align:center' src=img/fixation3.jpg></div><div class='cl'><div class='vertical-center'>$34<br><br>now</div></div><div class='cr'><div class='vertical-center'><font style='color:orange'>$35<br>in<br>12 weeks</font></div></div><div class='respDivL'><div class='vertical-center'>(E)</div></div><div class='respDivR'><div class='vertical-center'><font style='color:orange'>(I)</font></div></div></div>","null","$34<br><br>now","$35<br>in<br>12 weeks","0","34","35","12",""
"html-keyboard-response","41","125112","0.0-5.0-1.12","5f2f86864fd821374b4367bc","bdp_td","Mon Mar 27 2023 12:01:03 GMT-0700 (Pacific Daylight Time)","168002","","null","","","","FIX","","<div class='trialBorder'><div class='vertical-center'><img style='vertical-align:center; align:center' src=img/fixation3.jpg></div></div>","null","","","","","","",""
"html-keyboard-response","42","128682","0.0-5.0-2.12","5f2f86864fd821374b4367bc","bdp_td","Mon Mar 27 2023 12:01:03 GMT-0700 (Pacific Daylight Time)","168002","","3568","","","","offer","","<div class='trialBorder'><div class='vertical-center'><img style='vertical-align:center; align:center' src=img/fixation3.jpg></div><div class='cl'><div class='vertical-center'>$41<br><br>now</div></div><div class='cr'><div class='vertical-center'>$75<br>in<br>3 weeks</div></div><div class='respDivL'><div class='vertical-center'>(E)</div></div><div class='respDivR'><div class='vertical-center'>(I)</div></div></div>","I","$41<br><br>now","$75<br>in<br>3 weeks","0","41","75","3","THEN"
"html-keyboard-response","43","128935","0.0-5.0-3.12","5f2f86864fd821374b4367bc","bdp_td","Mon Mar 27 2023 12:01:03 GMT-0700 (Pacific Daylight Time)","168002","","null","","","","offerFB","","<div class='trialBorder'><div class='vertical-center'><img style='vertical-align:center; align:center' src=img/fixation3.jpg></div><div class='cl'><div class='vertical-center'>$41<br><br>now</div></div><div class='cr'><div class='vertical-center'><font style='color:orange'>$75<br>in<br>3 weeks</font></div></div><div class='respDivL'><div class='vertical-center'>(E)</div></div><div class='respDivR'><div class='vertical-center'><font style='color:orange'>(I)</font></div></div></div>","null","$41<br><br>now","$75<br>in<br>3 weeks","0","41","75","3",""
"html-keyboard-response","44","129437","0.0-5.0-1.13","5f2f86864fd821374b4367bc","bdp_td","Mon Mar 27 2023 12:01:03 GMT-0700 (Pacific Daylight Time)","168002","","null","","","","FIX","","<div class='trialBorder'><div class='vertical-center'><img style='vertical-align:center; align:center' src=img/fixation3.jpg></div></div>","null","","","","","","",""
"html-keyboard-response","45","131743","0.0-5.0-2.13","5f2f86864fd821374b4367bc","bdp_td","Mon Mar 27 2023 12:01:03 GMT-0700 (Pacific Daylight Time)","168002","","2306","","","","offer","","<div class='trialBorder'><div class='vertical-center'><img style='vertical-align:center; align:center' src=img/fixation3.jpg></div><div class='cl'><div class='vertical-center'>$30<br>in<br>6 weeks</div></div><div class='cr'><div class='vertical-center'>$25<br><br>now</div></div><div class='respDivL'><div class='vertical-center'>(E)</div></div><div class='respDivR'><div class='vertical-center'>(I)</div></div></div>","E","$25<br><br>now","$30<br>in<br>6 weeks","1","25","30","6","THEN"
"html-keyboard-response","46","131996","0.0-5.0-3.13","5f2f86864fd821374b4367bc","bdp_td","Mon Mar 27 2023 12:01:03 GMT-0700 (Pacific Daylight Time)","168002","","null","","","","offerFB","","<div class='trialBorder'><div class='vertical-center'><img style='vertical-align:center; align:center' src=img/fixation3.jpg></div><div class='cl'><div class='vertical-center'><font style='color:orange'>$30<br>in<br>6 weeks</font></div></div><div class='cr'><div class='vertical-center'>$25<br><br>now</div></div><div class='respDivL'><div class='vertical-center'><font style='color:orange'>(E)</font></div></div><div class='respDivR'><div class='vertical-center'>(I)</div></div></div>","null","$25<br><br>now","$30<br>in<br>6 weeks","1","25","30","6",""
"html-keyboard-response","47","132497","0.0-5.0-1.14","5f2f86864fd821374b4367bc","bdp_td","Mon Mar 27 2023 12:01:03 GMT-0700 (Pacific Daylight Time)","168002","","null","","","","FIX","","<div class='trialBorder'><div class='vertical-center'><img style='vertical-align:center; align:center' src=img/fixation3.jpg></div></div>","null","","","","","","",""
"html-keyboard-response","48","134719","0.0-5.0-2.14","5f2f86864fd821374b4367bc","bdp_td","Mon Mar 27 2023 12:01:03 GMT-0700 (Pacific Daylight Time)","168002","","2220","","","","offer","","<div class='trialBorder'><div class='vertical-center'><img style='vertical-align:center; align:center' src=img/fixation3.jpg></div><div class='cl'><div class='vertical-center'>$78<br><br>now</div></div><div class='cr'><div class='vertical-center'>$80<br>in<br>12 weeks</div></div><div class='respDivL'><div class='vertical-center'>(E)</div></div><div class='respDivR'><div class='vertical-center'>(I)</div></div></div>","E","$78<br><br>now","$80<br>in<br>12 weeks","0","78","80","12","NOW"
"html-keyboard-response","49","134971","0.0-5.0-3.14","5f2f86864fd821374b4367bc","bdp_td","Mon Mar 27 2023 12:01:03 GMT-0700 (Pacific Daylight Time)","168002","","null","","","","offerFB","","<div class='trialBorder'><div class='vertical-center'><img style='vertical-align:center; align:center' src=img/fixation3.jpg></div><div class='cl'><div class='vertical-center'><font style='color:orange'>$78<br><br>now</font></div></div><div class='cr'><div class='vertical-center'>$80<br>in<br>12 weeks</div></div><div class='respDivL'><div class='vertical-center'><font style='color:orange'>(E)</font></div></div><div class='respDivR'><div class='vertical-center'>(I)</div></div></div>","null","$78<br><br>now","$80<br>in<br>12 weeks","0","78","80","12",""
"html-keyboard-response","50","135473","0.0-5.0-1.15","5f2f86864fd821374b4367bc","bdp_td","Mon Mar 27 2023 12:01:03 GMT-0700 (Pacific Daylight Time)","168002","","null","","","","FIX","","<div class='trialBorder'><div class='vertical-center'><img style='vertical-align:center; align:center' src=img/fixation3.jpg></div></div>","null","","","","","","",""
"html-keyboard-response","51","138037","0.0-5.0-2.15","5f2f86864fd821374b4367bc","bdp_td","Mon Mar 27 2023 12:01:03 GMT-0700 (Pacific Daylight Time)","168002","","2563","","","","offer","","<div class='trialBorder'><div class='vertical-center'><img style='vertical-align:center; align:center' src=img/fixation3.jpg></div><div class='cl'><div class='vertical-center'>$19<br><br>now</div></div><div class='cr'><div class='vertical-center'>$25<br>in<br>6 weeks</div></div><div class='respDivL'><div class='vertical-center'>(E)</div></div><div class='respDivR'><div class='vertical-center'>(I)</div></div></div>","E","$19<br><br>now","$25<br>in<br>6 weeks","0","19","25","6","NOW"
"html-keyboard-response","52","138288","0.0-5.0-3.15","5f2f86864fd821374b4367bc","bdp_td","Mon Mar 27 2023 12:01:03 GMT-0700 (Pacific Daylight Time)","168002","","null","","","","offerFB","","<div class='trialBorder'><div class='vertical-center'><img style='vertical-align:center; align:center' src=img/fixation3.jpg></div><div class='cl'><div class='vertical-center'><font style='color:orange'>$19<br><br>now</font></div></div><div class='cr'><div class='vertical-center'>$25<br>in<br>6 weeks</div></div><div class='respDivL'><div class='vertical-center'><font style='color:orange'>(E)</font></div></div><div class='respDivR'><div class='vertical-center'>(I)</div></div></div>","null","$19<br><br>now","$25<br>in<br>6 weeks","0","19","25","6",""
"html-keyboard-response","53","138790","0.0-5.0-1.16","5f2f86864fd821374b4367bc","bdp_td","Mon Mar 27 2023 12:01:03 GMT-0700 (Pacific Daylight Time)","168002","","null","","","","FIX","","<div class='trialBorder'><div class='vertical-center'><img style='vertical-align:center; align:center' src=img/fixation3.jpg></div></div>","null","","","","","","",""
"html-keyboard-response","54","142526","0.0-5.0-2.16","5f2f86864fd821374b4367bc","bdp_td","Mon Mar 27 2023 12:01:03 GMT-0700 (Pacific Daylight Time)","168002","","3735","","","","offer","","<div class='trialBorder'><div class='vertical-center'><img style='vertical-align:center; align:center' src=img/fixation3.jpg></div><div class='cl'><div class='vertical-center'>$85<br>in<br>12 weeks</div></div><div class='cr'><div class='vertical-center'>$80<br><br>now</div></div><div class='respDivL'><div class='vertical-center'>(E)</div></div><div class='respDivR'><div class='vertical-center'>(I)</div></div></div>","I","$80<br><br>now","$85<br>in<br>12 weeks","1","80","85","12","NOW"
"html-keyboard-response","55","142778","0.0-5.0-3.16","5f2f86864fd821374b4367bc","bdp_td","Mon Mar 27 2023 12:01:03 GMT-0700 (Pacific Daylight Time)","168002","","null","","","","offerFB","","<div class='trialBorder'><div class='vertical-center'><img style='vertical-align:center; align:center' src=img/fixation3.jpg></div><div class='cl'><div class='vertical-center'>$85<br>in<br>12 weeks</div></div><div class='cr'><div class='vertical-center'><font style='color:orange'>$80<br><br>now</font></div></div><div class='respDivL'><div class='vertical-center'>(E)</div></div><div class='respDivR'><div class='vertical-center'><font style='color:orange'>(I)</font></div></div></div>","null","$80<br><br>now","$85<br>in<br>12 weeks","1","80","85","12",""
"html-keyboard-response","56","143280","0.0-5.0-1.17","5f2f86864fd821374b4367bc","bdp_td","Mon Mar 27 2023 12:01:03 GMT-0700 (Pacific Daylight Time)","168002","","null","","","","FIX","","<div class='trialBorder'><div class='vertical-center'><img style='vertical-align:center; align:center' src=img/fixation3.jpg></div></div>","null","","","","","","",""
"html-keyboard-response","57","145414","0.0-5.0-2.17","5f2f86864fd821374b4367bc","bdp_td","Mon Mar 27 2023 12:01:03 GMT-0700 (Pacific Daylight Time)","168002","","2132","","","","offer","","<div class='trialBorder'><div class='vertical-center'><img style='vertical-align:center; align:center' src=img/fixation3.jpg></div><div class='cl'><div class='vertical-center'>$60<br>in<br>12 weeks</div></div><div class='cr'><div class='vertical-center'>$54<br><br>now</div></div><div class='respDivL'><div class='vertical-center'>(E)</div></div><div class='respDivR'><div class='vertical-center'>(I)</div></div></div>","I","$54<br><br>now","$60<br>in<br>12 weeks","1","54","60","12","NOW"
"html-keyboard-response","58","145666","0.0-5.0-3.17","5f2f86864fd821374b4367bc","bdp_td","Mon Mar 27 2023 12:01:03 GMT-0700 (Pacific Daylight Time)","168002","","null","","","","offerFB","","<div class='trialBorder'><div class='vertical-center'><img style='vertical-align:center; align:center' src=img/fixation3.jpg></div><div class='cl'><div class='vertical-center'>$60<br>in<br>12 weeks</div></div><div class='cr'><div class='vertical-center'><font style='color:orange'>$54<br><br>now</font></div></div><div class='respDivL'><div class='vertical-center'>(E)</div></div><div class='respDivR'><div class='vertical-center'><font style='color:orange'>(I)</font></div></div></div>","null","$54<br><br>now","$60<br>in<br>12 weeks","1","54","60","12",""
"html-keyboard-response","59","146168","0.0-5.0-1.18","5f2f86864fd821374b4367bc","bdp_td","Mon Mar 27 2023 12:01:03 GMT-0700 (Pacific Daylight Time)","168002","","null","","","","FIX","","<div class='trialBorder'><div class='vertical-center'><img style='vertical-align:center; align:center' src=img/fixation3.jpg></div></div>","null","","","","","","",""
"html-keyboard-response","60","148678","0.0-5.0-2.18","5f2f86864fd821374b4367bc","bdp_td","Mon Mar 27 2023 12:01:03 GMT-0700 (Pacific Daylight Time)","168002","","2509","","","","offer","","<div class='trialBorder'><div class='vertical-center'><img style='vertical-align:center; align:center' src=img/fixation3.jpg></div><div class='cl'><div class='vertical-center'>$50<br>in<br>3 weeks</div></div><div class='cr'><div class='vertical-center'>$27<br><br>now</div></div><div class='respDivL'><div class='vertical-center'>(E)</div></div><div class='respDivR'><div class='vertical-center'>(I)</div></div></div>","E","$27<br><br>now","$50<br>in<br>3 weeks","1","27","50","3","THEN"
"html-keyboard-response","61","148931","0.0-5.0-3.18","5f2f86864fd821374b4367bc","bdp_td","Mon Mar 27 2023 12:01:03 GMT-0700 (Pacific Daylight Time)","168002","","null","","","","offerFB","","<div class='trialBorder'><div class='vertical-center'><img style='vertical-align:center; align:center' src=img/fixation3.jpg></div><div class='cl'><div class='vertical-center'><font style='color:orange'>$50<br>in<br>3 weeks</font></div></div><div class='cr'><div class='vertical-center'>$27<br><br>now</div></div><div class='respDivL'><div class='vertical-center'><font style='color:orange'>(E)</font></div></div><div class='respDivR'><div class='vertical-center'>(I)</div></div></div>","null","$27<br><br>now","$50<br>in<br>3 weeks","1","27","50","3",""
"html-keyboard-response","62","149433","0.0-5.0-1.19","5f2f86864fd821374b4367bc","bdp_td","Mon Mar 27 2023 12:01:03 GMT-0700 (Pacific Daylight Time)","168002","","null","","","","FIX","","<div class='trialBorder'><div class='vertical-center'><img style='vertical-align:center; align:center' src=img/fixation3.jpg></div></div>","null","","","","","","",""
"html-keyboard-response","63","152054","0.0-5.0-2.19","5f2f86864fd821374b4367bc","bdp_td","Mon Mar 27 2023 12:01:03 GMT-0700 (Pacific Daylight Time)","168002","","2620","","","","offer","","<div class='trialBorder'><div class='vertical-center'><img style='vertical-align:center; align:center' src=img/fixation3.jpg></div><div class='cl'><div class='vertical-center'>$85<br>in<br>1 week</div></div><div class='cr'><div class='vertical-center'>$31<br><br>now</div></div><div class='respDivL'><div class='vertical-center'>(E)</div></div><div class='respDivR'><div class='vertical-center'>(I)</div></div></div>","E","$31<br><br>now","$85<br>in<br>1 week","1","31","85","1","THEN"
"html-keyboard-response","64","152307","0.0-5.0-3.19","5f2f86864fd821374b4367bc","bdp_td","Mon Mar 27 2023 12:01:03 GMT-0700 (Pacific Daylight Time)","168002","","null","","","","offerFB","","<div class='trialBorder'><div class='vertical-center'><img style='vertical-align:center; align:center' src=img/fixation3.jpg></div><div class='cl'><div class='vertical-center'><font style='color:orange'>$85<br>in<br>1 week</font></div></div><div class='cr'><div class='vertical-center'>$31<br><br>now</div></div><div class='respDivL'><div class='vertical-center'><font style='color:orange'>(E)</font></div></div><div class='respDivR'><div class='vertical-center'>(I)</div></div></div>","null","$31<br><br>now","$85<br>in<br>1 week","1","31","85","1",""
"html-keyboard-response","65","152809","0.0-5.0-1.20","5f2f86864fd821374b4367bc","bdp_td","Mon Mar 27 2023 12:01:03 GMT-0700 (Pacific Daylight Time)","168002","","null","","","","FIX","","<div class='trialBorder'><div class='vertical-center'><img style='vertical-align:center; align:center' src=img/fixation3.jpg></div></div>","null","","","","","","",""
"html-keyboard-response","66","153857","0.0-5.0-2.20","5f2f86864fd821374b4367bc","bdp_td","Mon Mar 27 2023 12:01:03 GMT-0700 (Pacific Daylight Time)","168002","","1047","","","","offer","","<div class='trialBorder'><div class='vertical-center'><img style='vertical-align:center; align:center' src=img/fixation3.jpg></div><div class='cl'><div class='vertical-center'>$55<br>in<br>1 week</div></div><div class='cr'><div class='vertical-center'>$20<br><br>now</div></div><div class='respDivL'><div class='vertical-center'>(E)</div></div><div class='respDivR'><div class='vertical-center'>(I)</div></div></div>","E","$20<br><br>now","$55<br>in<br>1 week","1","20","55","1","THEN"
"html-keyboard-response","67","154109","0.0-5.0-3.20","5f2f86864fd821374b4367bc","bdp_td","Mon Mar 27 2023 12:01:03 GMT-0700 (Pacific Daylight Time)","168002","","null","","","","offerFB","","<div class='trialBorder'><div class='vertical-center'><img style='vertical-align:center; align:center' src=img/fixation3.jpg></div><div class='cl'><div class='vertical-center'><font style='color:orange'>$55<br>in<br>1 week</font></div></div><div class='cr'><div class='vertical-center'>$20<br><br>now</div></div><div class='respDivL'><div class='vertical-center'><font style='color:orange'>(E)</font></div></div><div class='respDivR'><div class='vertical-center'>(I)</div></div></div>","null","$20<br><br>now","$55<br>in<br>1 week","1","20","55","1",""
"html-keyboard-response","68","154611","0.0-5.0-1.21","5f2f86864fd821374b4367bc","bdp_td","Mon Mar 27 2023 12:01:03 GMT-0700 (Pacific Daylight Time)","168002","","null","","","","FIX","","<div class='trialBorder'><div class='vertical-center'><img style='vertical-align:center; align:center' src=img/fixation3.jpg></div></div>","null","","","","","","",""
"html-keyboard-response","69","156029","0.0-5.0-2.21","5f2f86864fd821374b4367bc","bdp_td","Mon Mar 27 2023 12:01:03 GMT-0700 (Pacific Daylight Time)","168002","","1415","","","","offer","","<div class='trialBorder'><div class='vertical-center'><img style='vertical-align:center; align:center' src=img/fixation3.jpg></div><div class='cl'><div class='vertical-center'>$35<br>in<br>3 weeks</div></div><div class='cr'><div class='vertical-center'>$24<br><br>now</div></div><div class='respDivL'><div class='vertical-center'>(E)</div></div><div class='respDivR'><div class='vertical-center'>(I)</div></div></div>","E","$24<br><br>now","$35<br>in<br>3 weeks","1","24","35","3","THEN"
"html-keyboard-response","70","156280","0.0-5.0-3.21","5f2f86864fd821374b4367bc","bdp_td","Mon Mar 27 2023 12:01:03 GMT-0700 (Pacific Daylight Time)","168002","","null","","","","offerFB","","<div class='trialBorder'><div class='vertical-center'><img style='vertical-align:center; align:center' src=img/fixation3.jpg></div><div class='cl'><div class='vertical-center'><font style='color:orange'>$35<br>in<br>3 weeks</font></div></div><div class='cr'><div class='vertical-center'>$24<br><br>now</div></div><div class='respDivL'><div class='vertical-center'><font style='color:orange'>(E)</font></div></div><div class='respDivR'><div class='vertical-center'>(I)</div></div></div>","null","$24<br><br>now","$35<br>in<br>3 weeks","1","24","35","3",""
"html-keyboard-response","71","156783","0.0-5.0-1.22","5f2f86864fd821374b4367bc","bdp_td","Mon Mar 27 2023 12:01:03 GMT-0700 (Pacific Daylight Time)","168002","","null","","","","FIX","","<div class='trialBorder'><div class='vertical-center'><img style='vertical-align:center; align:center' src=img/fixation3.jpg></div></div>","null","","","","","","",""
"html-keyboard-response","72","158078","0.0-5.0-2.22","5f2f86864fd821374b4367bc","bdp_td","Mon Mar 27 2023 12:01:03 GMT-0700 (Pacific Daylight Time)","168002","","1295","","","","offer","","<div class='trialBorder'><div class='vertical-center'><img style='vertical-align:center; align:center' src=img/fixation3.jpg></div><div class='cl'><div class='vertical-center'>$28<br><br>now</div></div><div class='cr'><div class='vertical-center'>$30<br>in<br>12 weeks</div></div><div class='respDivL'><div class='vertical-center'>(E)</div></div><div class='respDivR'><div class='vertical-center'>(I)</div></div></div>","I","$28<br><br>now","$30<br>in<br>12 weeks","0","28","30","12","THEN"
"html-keyboard-response","73","158330","0.0-5.0-3.22","5f2f86864fd821374b4367bc","bdp_td","Mon Mar 27 2023 12:01:03 GMT-0700 (Pacific Daylight Time)","168002","","null","","","","offerFB","","<div class='trialBorder'><div class='vertical-center'><img style='vertical-align:center; align:center' src=img/fixation3.jpg></div><div class='cl'><div class='vertical-center'>$28<br><br>now</div></div><div class='cr'><div class='vertical-center'><font style='color:orange'>$30<br>in<br>12 weeks</font></div></div><div class='respDivL'><div class='vertical-center'>(E)</div></div><div class='respDivR'><div class='vertical-center'><font style='color:orange'>(I)</font></div></div></div>","null","$28<br><br>now","$30<br>in<br>12 weeks","0","28","30","12",""
"html-keyboard-response","74","158832","0.0-5.0-1.23","5f2f86864fd821374b4367bc","bdp_td","Mon Mar 27 2023 12:01:03 GMT-0700 (Pacific Daylight Time)","168002","","null","","","","FIX","","<div class='trialBorder'><div class='vertical-center'><img style='vertical-align:center; align:center' src=img/fixation3.jpg></div></div>","null","","","","","","",""
"html-keyboard-response","75","160214","0.0-5.0-2.23","5f2f86864fd821374b4367bc","bdp_td","Mon Mar 27 2023 12:01:03 GMT-0700 (Pacific Daylight Time)","168002","","1382","","","","offer","","<div class='trialBorder'><div class='vertical-center'><img style='vertical-align:center; align:center' src=img/fixation3.jpg></div><div class='cl'><div class='vertical-center'>$55<br>in<br>12 weeks</div></div><div class='cr'><div class='vertical-center'>$54<br><br>now</div></div><div class='respDivL'><div class='vertical-center'>(E)</div></div><div class='respDivR'><div class='vertical-center'>(I)</div></div></div>","I","$54<br><br>now","$55<br>in<br>12 weeks","1","54","55","12","NOW"
"html-keyboard-response","76","160466","0.0-5.0-3.23","5f2f86864fd821374b4367bc","bdp_td","Mon Mar 27 2023 12:01:03 GMT-0700 (Pacific Daylight Time)","168002","","null","","","","offerFB","","<div class='trialBorder'><div class='vertical-center'><img style='vertical-align:center; align:center' src=img/fixation3.jpg></div><div class='cl'><div class='vertical-center'>$55<br>in<br>12 weeks</div></div><div class='cr'><div class='vertical-center'><font style='color:orange'>$54<br><br>now</font></div></div><div class='respDivL'><div class='vertical-center'>(E)</div></div><div class='respDivR'><div class='vertical-center'><font style='color:orange'>(I)</font></div></div></div>","null","$54<br><br>now","$55<br>in<br>12 weeks","1","54","55","12",""
"html-keyboard-response","77","160968","0.0-5.0-1.24","5f2f86864fd821374b4367bc","bdp_td","Mon Mar 27 2023 12:01:03 GMT-0700 (Pacific Daylight Time)","168002","","null","","","","FIX","","<div class='trialBorder'><div class='vertical-center'><img style='vertical-align:center; align:center' src=img/fixation3.jpg></div></div>","null","","","","","","",""
"html-keyboard-response","78","162157","0.0-5.0-2.24","5f2f86864fd821374b4367bc","bdp_td","Mon Mar 27 2023 12:01:03 GMT-0700 (Pacific Daylight Time)","168002","","1188","","","","offer","","<div class='trialBorder'><div class='vertical-center'><img style='vertical-align:center; align:center' src=img/fixation3.jpg></div><div class='cl'><div class='vertical-center'>$25<br><br>now</div></div><div class='cr'><div class='vertical-center'>$60<br>in<br>3 weeks</div></div><div class='respDivL'><div class='vertical-center'>(E)</div></div><div class='respDivR'><div class='vertical-center'>(I)</div></div></div>","I","$25<br><br>now","$60<br>in<br>3 weeks","0","25","60","3","THEN"
"html-keyboard-response","79","162409","0.0-5.0-3.24","5f2f86864fd821374b4367bc","bdp_td","Mon Mar 27 2023 12:01:03 GMT-0700 (Pacific Daylight Time)","168002","","null","","","","offerFB","","<div class='trialBorder'><div class='vertical-center'><img style='vertical-align:center; align:center' src=img/fixation3.jpg></div><div class='cl'><div class='vertical-center'>$25<br><br>now</div></div><div class='cr'><div class='vertical-center'><font style='color:orange'>$60<br>in<br>3 weeks</font></div></div><div class='respDivL'><div class='vertical-center'>(E)</div></div><div class='respDivR'><div class='vertical-center'><font style='color:orange'>(I)</font></div></div></div>","null","$25<br><br>now","$60<br>in<br>3 weeks","0","25","60","3",""
"html-keyboard-response","80","162912","0.0-5.0-1.25","5f2f86864fd821374b4367bc","bdp_td","Mon Mar 27 2023 12:01:03 GMT-0700 (Pacific Daylight Time)","168002","","null","","","","FIX","","<div class='trialBorder'><div class='vertical-center'><img style='vertical-align:center; align:center' src=img/fixation3.jpg></div></div>","null","","","","","","",""
"html-keyboard-response","81","164530","0.0-5.0-2.25","5f2f86864fd821374b4367bc","bdp_td","Mon Mar 27 2023 12:01:03 GMT-0700 (Pacific Daylight Time)","168002","","1616","","","","offer","","<div class='trialBorder'><div class='vertical-center'><img style='vertical-align:center; align:center' src=img/fixation3.jpg></div><div class='cl'><div class='vertical-center'>$75<br>in<br>12 weeks</div></div><div class='cr'><div class='vertical-center'>$67<br><br>now</div></div><div class='respDivL'><div class='vertical-center'>(E)</div></div><div class='respDivR'><div class='vertical-center'>(I)</div></div></div>","E","$67<br><br>now","$75<br>in<br>12 weeks","1","67","75","12","THEN"
"html-keyboard-response","82","164782","0.0-5.0-3.25","5f2f86864fd821374b4367bc","bdp_td","Mon Mar 27 2023 12:01:03 GMT-0700 (Pacific Daylight Time)","168002","","null","","","","offerFB","","<div class='trialBorder'><div class='vertical-center'><img style='vertical-align:center; align:center' src=img/fixation3.jpg></div><div class='cl'><div class='vertical-center'><font style='color:orange'>$75<br>in<br>12 weeks</font></div></div><div class='cr'><div class='vertical-center'>$67<br><br>now</div></div><div class='respDivL'><div class='vertical-center'><font style='color:orange'>(E)</font></div></div><div class='respDivR'><div class='vertical-center'>(I)</div></div></div>","null","$67<br><br>now","$75<br>in<br>12 weeks","1","67","75","12",""
"html-keyboard-response","83","165283","0.0-5.0-1.26","5f2f86864fd821374b4367bc","bdp_td","Mon Mar 27 2023 12:01:03 GMT-0700 (Pacific Daylight Time)","168002","","null","","","","FIX","","<div class='trialBorder'><div class='vertical-center'><img style='vertical-align:center; align:center' src=img/fixation3.jpg></div></div>","null","","","","","","",""
"html-keyboard-response","84","166745","0.0-5.0-2.26","5f2f86864fd821374b4367bc","bdp_td","Mon Mar 27 2023 12:01:03 GMT-0700 (Pacific Daylight Time)","168002","","1461","","","","offer","","<div class='trialBorder'><div class='vertical-center'><img style='vertical-align:center; align:center' src=img/fixation3.jpg></div><div class='cl'><div class='vertical-center'>$47<br><br>now</div></div><div class='cr'><div class='vertical-center'>$50<br>in<br>12 weeks</div></div><div class='respDivL'><div class='vertical-center'>(E)</div></div><div class='respDivR'><div class='vertical-center'>(I)</div></div></div>","I","$47<br><br>now","$50<br>in<br>12 weeks","0","47","50","12","THEN"
"html-keyboard-response","85","166998","0.0-5.0-3.26","5f2f86864fd821374b4367bc","bdp_td","Mon Mar 27 2023 12:01:03 GMT-0700 (Pacific Daylight Time)","168002","","null","","","","offerFB","","<div class='trialBorder'><div class='vertical-center'><img style='vertical-align:center; align:center' src=img/fixation3.jpg></div><div class='cl'><div class='vertical-center'>$47<br><br>now</div></div><div class='cr'><div class='vertical-center'><font style='color:orange'>$50<br>in<br>12 weeks</font></div></div><div class='respDivL'><div class='vertical-center'>(E)</div></div><div class='respDivR'><div class='vertical-center'><font style='color:orange'>(I)</font></div></div></div>","null","$47<br><br>now","$50<br>in<br>12 weeks","0","47","50","12",""
"fullscreen","86","168001","0.0-6.0","5f2f86864fd821374b4367bc","bdp_td","Mon Mar 27 2023 12:01:03 GMT-0700 (Pacific Daylight Time)","168002","","","","","","","true","","","","","","","","",""
"html-keyboard-response","87","168503","0.0-7.0","","","","","","null","","","","","","","null","","","","","","",""
