"trial_type","trial_index","time_elapsed","internal_node_id","subject_id","task","startTime","totalTime","view_history","rt","event","trial","time","trialtype","success","stimulus","key_press","nowOffer","thenOffer","thenLeft","nowAmt","thenAmt","thenWeeks","chosen"
"pavlovia","0","9","0.0-0.0","636182d3f52ff78fc3f7de50","bdp_td","Sun Mar 26 2023 16:04:41 GMT-0500 (Central Daylight Time)","122257","","","","","","","","","","","","","","","",""
"instructions","1","3130","0.0-1.0","636182d3f52ff78fc3f7de50","bdp_td","Sun Mar 26 2023 16:04:41 GMT-0500 (Central Daylight Time)","122257","[{""page_index"":0,""viewing_time"":3120}]","3120","","","","","","","","","","","","","",""
"","","","","636182d3f52ff78fc3f7de50","bdp_td","Sun Mar 26 2023 16:04:41 GMT-0500 (Central Daylight Time)","122257","","","fullscreenenter","2","5272","fullscreenenter","","","","","","","","","",""
"fullscreen","2","6264","0.0-2.0","636182d3f52ff78fc3f7de50","bdp_td","Sun Mar 26 2023 16:04:41 GMT-0500 (Central Daylight Time)","122257","","","","","","","true","","","","","","","","",""
"instructions","3","52833","0.0-4.0","636182d3f52ff78fc3f7de50","bdp_td","Sun Mar 26 2023 16:04:41 GMT-0500 (Central Daylight Time)","122257","[{""page_index"":0,""viewing_time"":11363},{""page_index"":1,""viewing_time"":27218},{""page_index"":2,""viewing_time"":7987}]","46568","","","","","","","","","","","","","",""
"html-keyboard-response","4","53338","0.0-5.0-1.0","636182d3f52ff78fc3f7de50","bdp_td","Sun Mar 26 2023 16:04:41 GMT-0500 (Central Daylight Time)","122257","","null","","","","FIX","","<div class='trialBorder'><div class='vertical-center'><img style='vertical-align:center; align:center' src=img/fixation3.jpg></div></div>","null","","","","","","",""
"html-keyboard-response","5","55475","0.0-5.0-2.0","636182d3f52ff78fc3f7de50","bdp_td","Sun Mar 26 2023 16:04:41 GMT-0500 (Central Daylight Time)","122257","","2135","","","","offer","","<div class='trialBorder'><div class='vertical-center'><img style='vertical-align:center; align:center' src=img/fixation3.jpg></div><div class='cl'><div class='vertical-center'>$67<br><br>now</div></div><div class='cr'><div class='vertical-center'>$75<br>in<br>12 weeks</div></div><div class='respDivL'><div class='vertical-center'>(E)</div></div><div class='respDivR'><div class='vertical-center'>(I)</div></div></div>","E","$67<br><br>now","$75<br>in<br>12 weeks","0","67","75","12","NOW"
"html-keyboard-response","6","55729","0.0-5.0-3.0","636182d3f52ff78fc3f7de50","bdp_td","Sun Mar 26 2023 16:04:41 GMT-0500 (Central Daylight Time)","122257","","null","","","","offerFB","","<div class='trialBorder'><div class='vertical-center'><img style='vertical-align:center; align:center' src=img/fixation3.jpg></div><div class='cl'><div class='vertical-center'><font style='color:orange'>$67<br><br>now</font></div></div><div class='cr'><div class='vertical-center'>$75<br>in<br>12 weeks</div></div><div class='respDivL'><div class='vertical-center'><font style='color:orange'>(E)</font></div></div><div class='respDivR'><div class='vertical-center'>(I)</div></div></div>","null","$67<br><br>now","$75<br>in<br>12 weeks","0","67","75","12",""
"html-keyboard-response","7","56230","0.0-5.0-1.1","636182d3f52ff78fc3f7de50","bdp_td","Sun Mar 26 2023 16:04:41 GMT-0500 (Central Daylight Time)","122257","","null","","","","FIX","","<div class='trialBorder'><div class='vertical-center'><img style='vertical-align:center; align:center' src=img/fixation3.jpg></div></div>","null","","","","","","",""
"html-keyboard-response","8","57920","0.0-5.0-2.1","636182d3f52ff78fc3f7de50","bdp_td","Sun Mar 26 2023 16:04:41 GMT-0500 (Central Daylight Time)","122257","","1688","","","","offer","","<div class='trialBorder'><div class='vertical-center'><img style='vertical-align:center; align:center' src=img/fixation3.jpg></div><div class='cl'><div class='vertical-center'>$19<br><br>now</div></div><div class='cr'><div class='vertical-center'>$25<br>in<br>6 weeks</div></div><div class='respDivL'><div class='vertical-center'>(E)</div></div><div class='respDivR'><div class='vertical-center'>(I)</div></div></div>","I","$19<br><br>now","$25<br>in<br>6 weeks","0","19","25","6","THEN"
"html-keyboard-response","9","58197","0.0-5.0-3.1","636182d3f52ff78fc3f7de50","bdp_td","Sun Mar 26 2023 16:04:41 GMT-0500 (Central Daylight Time)","122257","","null","","","","offerFB","","<div class='trialBorder'><div class='vertical-center'><img style='vertical-align:center; align:center' src=img/fixation3.jpg></div><div class='cl'><div class='vertical-center'>$19<br><br>now</div></div><div class='cr'><div class='vertical-center'><font style='color:orange'>$25<br>in<br>6 weeks</font></div></div><div class='respDivL'><div class='vertical-center'>(E)</div></div><div class='respDivR'><div class='vertical-center'><font style='color:orange'>(I)</font></div></div></div>","null","$19<br><br>now","$25<br>in<br>6 weeks","0","19","25","6",""
"html-keyboard-response","10","58699","0.0-5.0-1.2","636182d3f52ff78fc3f7de50","bdp_td","Sun Mar 26 2023 16:04:41 GMT-0500 (Central Daylight Time)","122257","","null","","","","FIX","","<div class='trialBorder'><div class='vertical-center'><img style='vertical-align:center; align:center' src=img/fixation3.jpg></div></div>","null","","","","","","",""
"html-keyboard-response","11","60665","0.0-5.0-2.2","636182d3f52ff78fc3f7de50","bdp_td","Sun Mar 26 2023 16:04:41 GMT-0500 (Central Daylight Time)","122257","","1963","","","","offer","","<div class='trialBorder'><div class='vertical-center'><img style='vertical-align:center; align:center' src=img/fixation3.jpg></div><div class='cl'><div class='vertical-center'>$75<br>in<br>6 weeks</div></div><div class='cr'><div class='vertical-center'>$55<br><br>now</div></div><div class='respDivL'><div class='vertical-center'>(E)</div></div><div class='respDivR'><div class='vertical-center'>(I)</div></div></div>","E","$55<br><br>now","$75<br>in<br>6 weeks","1","55","75","6","THEN"
"html-keyboard-response","12","60917","0.0-5.0-3.2","636182d3f52ff78fc3f7de50","bdp_td","Sun Mar 26 2023 16:04:41 GMT-0500 (Central Daylight Time)","122257","","null","","","","offerFB","","<div class='trialBorder'><div class='vertical-center'><img style='vertical-align:center; align:center' src=img/fixation3.jpg></div><div class='cl'><div class='vertical-center'><font style='color:orange'>$75<br>in<br>6 weeks</font></div></div><div class='cr'><div class='vertical-center'>$55<br><br>now</div></div><div class='respDivL'><div class='vertical-center'><font style='color:orange'>(E)</font></div></div><div class='respDivR'><div class='vertical-center'>(I)</div></div></div>","null","$55<br><br>now","$75<br>in<br>6 weeks","1","55","75","6",""
"html-keyboard-response","13","61419","0.0-5.0-1.3","636182d3f52ff78fc3f7de50","bdp_td","Sun Mar 26 2023 16:04:41 GMT-0500 (Central Daylight Time)","122257","","null","","","","FIX","","<div class='trialBorder'><div class='vertical-center'><img style='vertical-align:center; align:center' src=img/fixation3.jpg></div></div>","null","","","","","","",""
"html-keyboard-response","14","62623","0.0-5.0-2.3","636182d3f52ff78fc3f7de50","bdp_td","Sun Mar 26 2023 16:04:41 GMT-0500 (Central Daylight Time)","122257","","1202","","","","offer","","<div class='trialBorder'><div class='vertical-center'><img style='vertical-align:center; align:center' src=img/fixation3.jpg></div><div class='cl'><div class='vertical-center'>$20<br><br>now</div></div><div class='cr'><div class='vertical-center'>$55<br>in<br>1 week</div></div><div class='respDivL'><div class='vertical-center'>(E)</div></div><div class='respDivR'><div class='vertical-center'>(I)</div></div></div>","I","$20<br><br>now","$55<br>in<br>1 week","0","20","55","1","THEN"
"html-keyboard-response","15","62876","0.0-5.0-3.3","636182d3f52ff78fc3f7de50","bdp_td","Sun Mar 26 2023 16:04:41 GMT-0500 (Central Daylight Time)","122257","","null","","","","offerFB","","<div class='trialBorder'><div class='vertical-center'><img style='vertical-align:center; align:center' src=img/fixation3.jpg></div><div class='cl'><div class='vertical-center'>$20<br><br>now</div></div><div class='cr'><div class='vertical-center'><font style='color:orange'>$55<br>in<br>1 week</font></div></div><div class='respDivL'><div class='vertical-center'>(E)</div></div><div class='respDivR'><div class='vertical-center'><font style='color:orange'>(I)</font></div></div></div>","null","$20<br><br>now","$55<br>in<br>1 week","0","20","55","1",""
"html-keyboard-response","16","63390","0.0-5.0-1.4","636182d3f52ff78fc3f7de50","bdp_td","Sun Mar 26 2023 16:04:41 GMT-0500 (Central Daylight Time)","122257","","null","","","","FIX","","<div class='trialBorder'><div class='vertical-center'><img style='vertical-align:center; align:center' src=img/fixation3.jpg></div></div>","null","","","","","","",""
"html-keyboard-response","17","65135","0.0-5.0-2.4","636182d3f52ff78fc3f7de50","bdp_td","Sun Mar 26 2023 16:04:41 GMT-0500 (Central Daylight Time)","122257","","1742","","","","offer","","<div class='trialBorder'><div class='vertical-center'><img style='vertical-align:center; align:center' src=img/fixation3.jpg></div><div class='cl'><div class='vertical-center'>$55<br>in<br>6 weeks</div></div><div class='cr'><div class='vertical-center'>$40<br><br>now</div></div><div class='respDivL'><div class='vertical-center'>(E)</div></div><div class='respDivR'><div class='vertical-center'>(I)</div></div></div>","E","$40<br><br>now","$55<br>in<br>6 weeks","1","40","55","6","THEN"
"html-keyboard-response","18","65387","0.0-5.0-3.4","636182d3f52ff78fc3f7de50","bdp_td","Sun Mar 26 2023 16:04:41 GMT-0500 (Central Daylight Time)","122257","","null","","","","offerFB","","<div class='trialBorder'><div class='vertical-center'><img style='vertical-align:center; align:center' src=img/fixation3.jpg></div><div class='cl'><div class='vertical-center'><font style='color:orange'>$55<br>in<br>6 weeks</font></div></div><div class='cr'><div class='vertical-center'>$40<br><br>now</div></div><div class='respDivL'><div class='vertical-center'><font style='color:orange'>(E)</font></div></div><div class='respDivR'><div class='vertical-center'>(I)</div></div></div>","null","$40<br><br>now","$55<br>in<br>6 weeks","1","40","55","6",""
"html-keyboard-response","19","65889","0.0-5.0-1.5","636182d3f52ff78fc3f7de50","bdp_td","Sun Mar 26 2023 16:04:41 GMT-0500 (Central Daylight Time)","122257","","null","","","","FIX","","<div class='trialBorder'><div class='vertical-center'><img style='vertical-align:center; align:center' src=img/fixation3.jpg></div></div>","null","","","","","","",""
"html-keyboard-response","20","67125","0.0-5.0-2.5","636182d3f52ff78fc3f7de50","bdp_td","Sun Mar 26 2023 16:04:41 GMT-0500 (Central Daylight Time)","122257","","1234","","","","offer","","<div class='trialBorder'><div class='vertical-center'><img style='vertical-align:center; align:center' src=img/fixation3.jpg></div><div class='cl'><div class='vertical-center'>$55<br>in<br>12 weeks</div></div><div class='cr'><div class='vertical-center'>$54<br><br>now</div></div><div class='respDivL'><div class='vertical-center'>(E)</div></div><div class='respDivR'><div class='vertical-center'>(I)</div></div></div>","I","$54<br><br>now","$55<br>in<br>12 weeks","1","54","55","12","NOW"
"html-keyboard-response","21","67377","0.0-5.0-3.5","636182d3f52ff78fc3f7de50","bdp_td","Sun Mar 26 2023 16:04:41 GMT-0500 (Central Daylight Time)","122257","","null","","","","offerFB","","<div class='trialBorder'><div class='vertical-center'><img style='vertical-align:center; align:center' src=img/fixation3.jpg></div><div class='cl'><div class='vertical-center'>$55<br>in<br>12 weeks</div></div><div class='cr'><div class='vertical-center'><font style='color:orange'>$54<br><br>now</font></div></div><div class='respDivL'><div class='vertical-center'>(E)</div></div><div class='respDivR'><div class='vertical-center'><font style='color:orange'>(I)</font></div></div></div>","null","$54<br><br>now","$55<br>in<br>12 weeks","1","54","55","12",""
"html-keyboard-response","22","67879","0.0-5.0-1.6","636182d3f52ff78fc3f7de50","bdp_td","Sun Mar 26 2023 16:04:41 GMT-0500 (Central Daylight Time)","122257","","null","","","","FIX","","<div class='trialBorder'><div class='vertical-center'><img style='vertical-align:center; align:center' src=img/fixation3.jpg></div></div>","null","","","","","","",""
"html-keyboard-response","23","68968","0.0-5.0-2.6","636182d3f52ff78fc3f7de50","bdp_td","Sun Mar 26 2023 16:04:41 GMT-0500 (Central Daylight Time)","122257","","1086","","","","offer","","<div class='trialBorder'><div class='vertical-center'><img style='vertical-align:center; align:center' src=img/fixation3.jpg></div><div class='cl'><div class='vertical-center'>$35<br>in<br>2 weeks</div></div><div class='cr'><div class='vertical-center'>$15<br><br>now</div></div><div class='respDivL'><div class='vertical-center'>(E)</div></div><div class='respDivR'><div class='vertical-center'>(I)</div></div></div>","E","$15<br><br>now","$35<br>in<br>2 weeks","1","15","35","2","THEN"
"html-keyboard-response","24","69222","0.0-5.0-3.6","636182d3f52ff78fc3f7de50","bdp_td","Sun Mar 26 2023 16:04:41 GMT-0500 (Central Daylight Time)","122257","","null","","","","offerFB","","<div class='trialBorder'><div class='vertical-center'><img style='vertical-align:center; align:center' src=img/fixation3.jpg></div><div class='cl'><div class='vertical-center'><font style='color:orange'>$35<br>in<br>2 weeks</font></div></div><div class='cr'><div class='vertical-center'>$15<br><br>now</div></div><div class='respDivL'><div class='vertical-center'><font style='color:orange'>(E)</font></div></div><div class='respDivR'><div class='vertical-center'>(I)</div></div></div>","null","$15<br><br>now","$35<br>in<br>2 weeks","1","15","35","2",""
"html-keyboard-response","25","69725","0.0-5.0-1.7","636182d3f52ff78fc3f7de50","bdp_td","Sun Mar 26 2023 16:04:41 GMT-0500 (Central Daylight Time)","122257","","null","","","","FIX","","<div class='trialBorder'><div class='vertical-center'><img style='vertical-align:center; align:center' src=img/fixation3.jpg></div></div>","null","","","","","","",""
"html-keyboard-response","26","71435","0.0-5.0-2.7","636182d3f52ff78fc3f7de50","bdp_td","Sun Mar 26 2023 16:04:41 GMT-0500 (Central Daylight Time)","122257","","1708","","","","offer","","<div class='trialBorder'><div class='vertical-center'><img style='vertical-align:center; align:center' src=img/fixation3.jpg></div><div class='cl'><div class='vertical-center'>$49<br><br>now</div></div><div class='cr'><div class='vertical-center'>$60<br>in<br>6 weeks</div></div><div class='respDivL'><div class='vertical-center'>(E)</div></div><div class='respDivR'><div class='vertical-center'>(I)</div></div></div>","E","$49<br><br>now","$60<br>in<br>6 weeks","0","49","60","6","NOW"
"html-keyboard-response","27","71689","0.0-5.0-3.7","636182d3f52ff78fc3f7de50","bdp_td","Sun Mar 26 2023 16:04:41 GMT-0500 (Central Daylight Time)","122257","","null","","","","offerFB","","<div class='trialBorder'><div class='vertical-center'><img style='vertical-align:center; align:center' src=img/fixation3.jpg></div><div class='cl'><div class='vertical-center'><font style='color:orange'>$49<br><br>now</font></div></div><div class='cr'><div class='vertical-center'>$60<br>in<br>6 weeks</div></div><div class='respDivL'><div class='vertical-center'><font style='color:orange'>(E)</font></div></div><div class='respDivR'><div class='vertical-center'>(I)</div></div></div>","null","$49<br><br>now","$60<br>in<br>6 weeks","0","49","60","6",""
"html-keyboard-response","28","72192","0.0-5.0-1.8","636182d3f52ff78fc3f7de50","bdp_td","Sun Mar 26 2023 16:04:41 GMT-0500 (Central Daylight Time)","122257","","null","","","","FIX","","<div class='trialBorder'><div class='vertical-center'><img style='vertical-align:center; align:center' src=img/fixation3.jpg></div></div>","null","","","","","","",""
"html-keyboard-response","29","73300","0.0-5.0-2.8","636182d3f52ff78fc3f7de50","bdp_td","Sun Mar 26 2023 16:04:41 GMT-0500 (Central Daylight Time)","122257","","1106","","","","offer","","<div class='trialBorder'><div class='vertical-center'><img style='vertical-align:center; align:center' src=img/fixation3.jpg></div><div class='cl'><div class='vertical-center'>$25<br>in<br>12 weeks</div></div><div class='cr'><div class='vertical-center'>$22<br><br>now</div></div><div class='respDivL'><div class='vertical-center'>(E)</div></div><div class='respDivR'><div class='vertical-center'>(I)</div></div></div>","I","$22<br><br>now","$25<br>in<br>12 weeks","1","22","25","12","NOW"
"html-keyboard-response","30","73552","0.0-5.0-3.8","636182d3f52ff78fc3f7de50","bdp_td","Sun Mar 26 2023 16:04:41 GMT-0500 (Central Daylight Time)","122257","","null","","","","offerFB","","<div class='trialBorder'><div class='vertical-center'><img style='vertical-align:center; align:center' src=img/fixation3.jpg></div><div class='cl'><div class='vertical-center'>$25<br>in<br>12 weeks</div></div><div class='cr'><div class='vertical-center'><font style='color:orange'>$22<br><br>now</font></div></div><div class='respDivL'><div class='vertical-center'>(E)</div></div><div class='respDivR'><div class='vertical-center'><font style='color:orange'>(I)</font></div></div></div>","null","$22<br><br>now","$25<br>in<br>12 weeks","1","22","25","12",""
"html-keyboard-response","31","74054","0.0-5.0-1.9","636182d3f52ff78fc3f7de50","bdp_td","Sun Mar 26 2023 16:04:41 GMT-0500 (Central Daylight Time)","122257","","null","","","","FIX","","<div class='trialBorder'><div class='vertical-center'><img style='vertical-align:center; align:center' src=img/fixation3.jpg></div></div>","null","","","","","","",""
"html-keyboard-response","32","77897","0.0-5.0-2.9","636182d3f52ff78fc3f7de50","bdp_td","Sun Mar 26 2023 16:04:41 GMT-0500 (Central Daylight Time)","122257","","3842","","","","offer","","<div class='trialBorder'><div class='vertical-center'><img style='vertical-align:center; align:center' src=img/fixation3.jpg></div><div class='cl'><div class='vertical-center'>$50<br>in<br>6 weeks</div></div><div class='cr'><div class='vertical-center'>$34<br><br>now</div></div><div class='respDivL'><div class='vertical-center'>(E)</div></div><div class='respDivR'><div class='vertical-center'>(I)</div></div></div>","I","$34<br><br>now","$50<br>in<br>6 weeks","1","34","50","6","NOW"
"html-keyboard-response","33","78148","0.0-5.0-3.9","636182d3f52ff78fc3f7de50","bdp_td","Sun Mar 26 2023 16:04:41 GMT-0500 (Central Daylight Time)","122257","","null","","","","offerFB","","<div class='trialBorder'><div class='vertical-center'><img style='vertical-align:center; align:center' src=img/fixation3.jpg></div><div class='cl'><div class='vertical-center'>$50<br>in<br>6 weeks</div></div><div class='cr'><div class='vertical-center'><font style='color:orange'>$34<br><br>now</font></div></div><div class='respDivL'><div class='vertical-center'>(E)</div></div><div class='respDivR'><div class='vertical-center'><font style='color:orange'>(I)</font></div></div></div>","null","$34<br><br>now","$50<br>in<br>6 weeks","1","34","50","6",""
"html-keyboard-response","34","78650","0.0-5.0-1.10","636182d3f52ff78fc3f7de50","bdp_td","Sun Mar 26 2023 16:04:41 GMT-0500 (Central Daylight Time)","122257","","null","","","","FIX","","<div class='trialBorder'><div class='vertical-center'><img style='vertical-align:center; align:center' src=img/fixation3.jpg></div></div>","null","","","","","","",""
"html-keyboard-response","35","79633","0.0-5.0-2.10","636182d3f52ff78fc3f7de50","bdp_td","Sun Mar 26 2023 16:04:41 GMT-0500 (Central Daylight Time)","122257","","981","","","","offer","","<div class='trialBorder'><div class='vertical-center'><img style='vertical-align:center; align:center' src=img/fixation3.jpg></div><div class='cl'><div class='vertical-center'>$35<br>in<br>12 weeks</div></div><div class='cr'><div class='vertical-center'>$34<br><br>now</div></div><div class='respDivL'><div class='vertical-center'>(E)</div></div><div class='respDivR'><div class='vertical-center'>(I)</div></div></div>","I","$34<br><br>now","$35<br>in<br>12 weeks","1","34","35","12","NOW"
"html-keyboard-response","36","79886","0.0-5.0-3.10","636182d3f52ff78fc3f7de50","bdp_td","Sun Mar 26 2023 16:04:41 GMT-0500 (Central Daylight Time)","122257","","null","","","","offerFB","","<div class='trialBorder'><div class='vertical-center'><img style='vertical-align:center; align:center' src=img/fixation3.jpg></div><div class='cl'><div class='vertical-center'>$35<br>in<br>12 weeks</div></div><div class='cr'><div class='vertical-center'><font style='color:orange'>$34<br><br>now</font></div></div><div class='respDivL'><div class='vertical-center'>(E)</div></div><div class='respDivR'><div class='vertical-center'><font style='color:orange'>(I)</font></div></div></div>","null","$34<br><br>now","$35<br>in<br>12 weeks","1","34","35","12",""
"html-keyboard-response","37","80388","0.0-5.0-1.11","636182d3f52ff78fc3f7de50","bdp_td","Sun Mar 26 2023 16:04:41 GMT-0500 (Central Daylight Time)","122257","","null","","","","FIX","","<div class='trialBorder'><div class='vertical-center'><img style='vertical-align:center; align:center' src=img/fixation3.jpg></div></div>","null","","","","","","",""
"html-keyboard-response","38","81463","0.0-5.0-2.11","636182d3f52ff78fc3f7de50","bdp_td","Sun Mar 26 2023 16:04:41 GMT-0500 (Central Daylight Time)","122257","","1072","","","","offer","","<div class='trialBorder'><div class='vertical-center'><img style='vertical-align:center; align:center' src=img/fixation3.jpg></div><div class='cl'><div class='vertical-center'>$50<br>in<br>3 weeks</div></div><div class='cr'><div class='vertical-center'>$27<br><br>now</div></div><div class='respDivL'><div class='vertical-center'>(E)</div></div><div class='respDivR'><div class='vertical-center'>(I)</div></div></div>","E","$27<br><br>now","$50<br>in<br>3 weeks","1","27","50","3","THEN"
"html-keyboard-response","39","81716","0.0-5.0-3.11","636182d3f52ff78fc3f7de50","bdp_td","Sun Mar 26 2023 16:04:41 GMT-0500 (Central Daylight Time)","122257","","null","","","","offerFB","","<div class='trialBorder'><div class='vertical-center'><img style='vertical-align:center; align:center' src=img/fixation3.jpg></div><div class='cl'><div class='vertical-center'><font style='color:orange'>$50<br>in<br>3 weeks</font></div></div><div class='cr'><div class='vertical-center'>$27<br><br>now</div></div><div class='respDivL'><div class='vertical-center'><font style='color:orange'>(E)</font></div></div><div class='respDivR'><div class='vertical-center'>(I)</div></div></div>","null","$27<br><br>now","$50<br>in<br>3 weeks","1","27","50","3",""
"html-keyboard-response","40","82217","0.0-5.0-1.12","636182d3f52ff78fc3f7de50","bdp_td","Sun Mar 26 2023 16:04:41 GMT-0500 (Central Daylight Time)","122257","","null","","","","FIX","","<div class='trialBorder'><div class='vertical-center'><img style='vertical-align:center; align:center' src=img/fixation3.jpg></div></div>","null","","","","","","",""
"html-keyboard-response","41","84529","0.0-5.0-2.12","636182d3f52ff78fc3f7de50","bdp_td","Sun Mar 26 2023 16:04:41 GMT-0500 (Central Daylight Time)","122257","","2310","","","","offer","","<div class='trialBorder'><div class='vertical-center'><img style='vertical-align:center; align:center' src=img/fixation3.jpg></div><div class='cl'><div class='vertical-center'>$33<br><br>now</div></div><div class='cr'><div class='vertical-center'>$80<br>in<br>2 weeks</div></div><div class='respDivL'><div class='vertical-center'>(E)</div></div><div class='respDivR'><div class='vertical-center'>(I)</div></div></div>","I","$33<br><br>now","$80<br>in<br>2 weeks","0","33","80","2","THEN"
"html-keyboard-response","42","84781","0.0-5.0-3.12","636182d3f52ff78fc3f7de50","bdp_td","Sun Mar 26 2023 16:04:41 GMT-0500 (Central Daylight Time)","122257","","null","","","","offerFB","","<div class='trialBorder'><div class='vertical-center'><img style='vertical-align:center; align:center' src=img/fixation3.jpg></div><div class='cl'><div class='vertical-center'>$33<br><br>now</div></div><div class='cr'><div class='vertical-center'><font style='color:orange'>$80<br>in<br>2 weeks</font></div></div><div class='respDivL'><div class='vertical-center'>(E)</div></div><div class='respDivR'><div class='vertical-center'><font style='color:orange'>(I)</font></div></div></div>","null","$33<br><br>now","$80<br>in<br>2 weeks","0","33","80","2",""
"html-keyboard-response","43","85284","0.0-5.0-1.13","636182d3f52ff78fc3f7de50","bdp_td","Sun Mar 26 2023 16:04:41 GMT-0500 (Central Daylight Time)","122257","","null","","","","FIX","","<div class='trialBorder'><div class='vertical-center'><img style='vertical-align:center; align:center' src=img/fixation3.jpg></div></div>","null","","","","","","",""
"html-keyboard-response","44","87318","0.0-5.0-2.13","636182d3f52ff78fc3f7de50","bdp_td","Sun Mar 26 2023 16:04:41 GMT-0500 (Central Daylight Time)","122257","","2033","","","","offer","","<div class='trialBorder'><div class='vertical-center'><img style='vertical-align:center; align:center' src=img/fixation3.jpg></div><div class='cl'><div class='vertical-center'>$54<br><br>now</div></div><div class='cr'><div class='vertical-center'>$60<br>in<br>12 weeks</div></div><div class='respDivL'><div class='vertical-center'>(E)</div></div><div class='respDivR'><div class='vertical-center'>(I)</div></div></div>","E","$54<br><br>now","$60<br>in<br>12 weeks","0","54","60","12","NOW"
"html-keyboard-response","45","87571","0.0-5.0-3.13","636182d3f52ff78fc3f7de50","bdp_td","Sun Mar 26 2023 16:04:41 GMT-0500 (Central Daylight Time)","122257","","null","","","","offerFB","","<div class='trialBorder'><div class='vertical-center'><img style='vertical-align:center; align:center' src=img/fixation3.jpg></div><div class='cl'><div class='vertical-center'><font style='color:orange'>$54<br><br>now</font></div></div><div class='cr'><div class='vertical-center'>$60<br>in<br>12 weeks</div></div><div class='respDivL'><div class='vertical-center'><font style='color:orange'>(E)</font></div></div><div class='respDivR'><div class='vertical-center'>(I)</div></div></div>","null","$54<br><br>now","$60<br>in<br>12 weeks","0","54","60","12",""
"html-keyboard-response","46","88073","0.0-5.0-1.14","636182d3f52ff78fc3f7de50","bdp_td","Sun Mar 26 2023 16:04:41 GMT-0500 (Central Daylight Time)","122257","","null","","","","FIX","","<div class='trialBorder'><div class='vertical-center'><img style='vertical-align:center; align:center' src=img/fixation3.jpg></div></div>","null","","","","","","",""
"html-keyboard-response","47","95494","0.0-5.0-2.14","636182d3f52ff78fc3f7de50","bdp_td","Sun Mar 26 2023 16:04:41 GMT-0500 (Central Daylight Time)","122257","","7419","","","","offer","","<div class='trialBorder'><div class='vertical-center'><img style='vertical-align:center; align:center' src=img/fixation3.jpg></div><div class='cl'><div class='vertical-center'>$25<br><br>now</div></div><div class='cr'><div class='vertical-center'>$60<br>in<br>3 weeks</div></div><div class='respDivL'><div class='vertical-center'>(E)</div></div><div class='respDivR'><div class='vertical-center'>(I)</div></div></div>","E","$25<br><br>now","$60<br>in<br>3 weeks","0","25","60","3","NOW"
"html-keyboard-response","48","95747","0.0-5.0-3.14","636182d3f52ff78fc3f7de50","bdp_td","Sun Mar 26 2023 16:04:41 GMT-0500 (Central Daylight Time)","122257","","null","","","","offerFB","","<div class='trialBorder'><div class='vertical-center'><img style='vertical-align:center; align:center' src=img/fixation3.jpg></div><div class='cl'><div class='vertical-center'><font style='color:orange'>$25<br><br>now</font></div></div><div class='cr'><div class='vertical-center'>$60<br>in<br>3 weeks</div></div><div class='respDivL'><div class='vertical-center'><font style='color:orange'>(E)</font></div></div><div class='respDivR'><div class='vertical-center'>(I)</div></div></div>","null","$25<br><br>now","$60<br>in<br>3 weeks","0","25","60","3",""
"html-keyboard-response","49","96249","0.0-5.0-1.15","636182d3f52ff78fc3f7de50","bdp_td","Sun Mar 26 2023 16:04:41 GMT-0500 (Central Daylight Time)","122257","","null","","","","FIX","","<div class='trialBorder'><div class='vertical-center'><img style='vertical-align:center; align:center' src=img/fixation3.jpg></div></div>","null","","","","","","",""
"html-keyboard-response","50","98015","0.0-5.0-2.15","636182d3f52ff78fc3f7de50","bdp_td","Sun Mar 26 2023 16:04:41 GMT-0500 (Central Daylight Time)","122257","","1764","","","","offer","","<div class='trialBorder'><div class='vertical-center'><img style='vertical-align:center; align:center' src=img/fixation3.jpg></div><div class='cl'><div class='vertical-center'>$80<br><br>now</div></div><div class='cr'><div class='vertical-center'>$85<br>in<br>12 weeks</div></div><div class='respDivL'><div class='vertical-center'>(E)</div></div><div class='respDivR'><div class='vertical-center'>(I)</div></div></div>","E","$80<br><br>now","$85<br>in<br>12 weeks","0","80","85","12","NOW"
"html-keyboard-response","51","98267","0.0-5.0-3.15","636182d3f52ff78fc3f7de50","bdp_td","Sun Mar 26 2023 16:04:41 GMT-0500 (Central Daylight Time)","122257","","null","","","","offerFB","","<div class='trialBorder'><div class='vertical-center'><img style='vertical-align:center; align:center' src=img/fixation3.jpg></div><div class='cl'><div class='vertical-center'><font style='color:orange'>$80<br><br>now</font></div></div><div class='cr'><div class='vertical-center'>$85<br>in<br>12 weeks</div></div><div class='respDivL'><div class='vertical-center'><font style='color:orange'>(E)</font></div></div><div class='respDivR'><div class='vertical-center'>(I)</div></div></div>","null","$80<br><br>now","$85<br>in<br>12 weeks","0","80","85","12",""
"html-keyboard-response","52","98768","0.0-5.0-1.16","636182d3f52ff78fc3f7de50","bdp_td","Sun Mar 26 2023 16:04:41 GMT-0500 (Central Daylight Time)","122257","","null","","","","FIX","","<div class='trialBorder'><div class='vertical-center'><img style='vertical-align:center; align:center' src=img/fixation3.jpg></div></div>","null","","","","","","",""
"html-keyboard-response","53","100429","0.0-5.0-2.16","636182d3f52ff78fc3f7de50","bdp_td","Sun Mar 26 2023 16:04:41 GMT-0500 (Central Daylight Time)","122257","","1660","","","","offer","","<div class='trialBorder'><div class='vertical-center'><img style='vertical-align:center; align:center' src=img/fixation3.jpg></div><div class='cl'><div class='vertical-center'>$80<br>in<br>12 weeks</div></div><div class='cr'><div class='vertical-center'>$78<br><br>now</div></div><div class='respDivL'><div class='vertical-center'>(E)</div></div><div class='respDivR'><div class='vertical-center'>(I)</div></div></div>","I","$78<br><br>now","$80<br>in<br>12 weeks","1","78","80","12","NOW"
"html-keyboard-response","54","100683","0.0-5.0-3.16","636182d3f52ff78fc3f7de50","bdp_td","Sun Mar 26 2023 16:04:41 GMT-0500 (Central Daylight Time)","122257","","null","","","","offerFB","","<div class='trialBorder'><div class='vertical-center'><img style='vertical-align:center; align:center' src=img/fixation3.jpg></div><div class='cl'><div class='vertical-center'>$80<br>in<br>12 weeks</div></div><div class='cr'><div class='vertical-center'><font style='color:orange'>$78<br><br>now</font></div></div><div class='respDivL'><div class='vertical-center'>(E)</div></div><div class='respDivR'><div class='vertical-center'><font style='color:orange'>(I)</font></div></div></div>","null","$78<br><br>now","$80<br>in<br>12 weeks","1","78","80","12",""
"html-keyboard-response","55","101185","0.0-5.0-1.17","636182d3f52ff78fc3f7de50","bdp_td","Sun Mar 26 2023 16:04:41 GMT-0500 (Central Daylight Time)","122257","","null","","","","FIX","","<div class='trialBorder'><div class='vertical-center'><img style='vertical-align:center; align:center' src=img/fixation3.jpg></div></div>","null","","","","","","",""
"html-keyboard-response","56","102344","0.0-5.0-2.17","636182d3f52ff78fc3f7de50","bdp_td","Sun Mar 26 2023 16:04:41 GMT-0500 (Central Daylight Time)","122257","","1156","","","","offer","","<div class='trialBorder'><div class='vertical-center'><img style='vertical-align:center; align:center' src=img/fixation3.jpg></div><div class='cl'><div class='vertical-center'>$50<br>in<br>12 weeks</div></div><div class='cr'><div class='vertical-center'>$47<br><br>now</div></div><div class='respDivL'><div class='vertical-center'>(E)</div></div><div class='respDivR'><div class='vertical-center'>(I)</div></div></div>","I","$47<br><br>now","$50<br>in<br>12 weeks","1","47","50","12","NOW"
"html-keyboard-response","57","102597","0.0-5.0-3.17","636182d3f52ff78fc3f7de50","bdp_td","Sun Mar 26 2023 16:04:41 GMT-0500 (Central Daylight Time)","122257","","null","","","","offerFB","","<div class='trialBorder'><div class='vertical-center'><img style='vertical-align:center; align:center' src=img/fixation3.jpg></div><div class='cl'><div class='vertical-center'>$50<br>in<br>12 weeks</div></div><div class='cr'><div class='vertical-center'><font style='color:orange'>$47<br><br>now</font></div></div><div class='respDivL'><div class='vertical-center'>(E)</div></div><div class='respDivR'><div class='vertical-center'><font style='color:orange'>(I)</font></div></div></div>","null","$47<br><br>now","$50<br>in<br>12 weeks","1","47","50","12",""
"html-keyboard-response","58","103099","0.0-5.0-1.18","636182d3f52ff78fc3f7de50","bdp_td","Sun Mar 26 2023 16:04:41 GMT-0500 (Central Daylight Time)","122257","","null","","","","FIX","","<div class='trialBorder'><div class='vertical-center'><img style='vertical-align:center; align:center' src=img/fixation3.jpg></div></div>","null","","","","","","",""
"html-keyboard-response","59","104053","0.0-5.0-2.18","636182d3f52ff78fc3f7de50","bdp_td","Sun Mar 26 2023 16:04:41 GMT-0500 (Central Daylight Time)","122257","","952","","","","offer","","<div class='trialBorder'><div class='vertical-center'><img style='vertical-align:center; align:center' src=img/fixation3.jpg></div><div class='cl'><div class='vertical-center'>$85<br>in<br>6 weeks</div></div><div class='cr'><div class='vertical-center'>$69<br><br>now</div></div><div class='respDivL'><div class='vertical-center'>(E)</div></div><div class='respDivR'><div class='vertical-center'>(I)</div></div></div>","I","$69<br><br>now","$85<br>in<br>6 weeks","1","69","85","6","NOW"
"html-keyboard-response","60","104306","0.0-5.0-3.18","636182d3f52ff78fc3f7de50","bdp_td","Sun Mar 26 2023 16:04:41 GMT-0500 (Central Daylight Time)","122257","","null","","","","offerFB","","<div class='trialBorder'><div class='vertical-center'><img style='vertical-align:center; align:center' src=img/fixation3.jpg></div><div class='cl'><div class='vertical-center'>$85<br>in<br>6 weeks</div></div><div class='cr'><div class='vertical-center'><font style='color:orange'>$69<br><br>now</font></div></div><div class='respDivL'><div class='vertical-center'>(E)</div></div><div class='respDivR'><div class='vertical-center'><font style='color:orange'>(I)</font></div></div></div>","null","$69<br><br>now","$85<br>in<br>6 weeks","1","69","85","6",""
"html-keyboard-response","61","104808","0.0-5.0-1.19","636182d3f52ff78fc3f7de50","bdp_td","Sun Mar 26 2023 16:04:41 GMT-0500 (Central Daylight Time)","122257","","null","","","","FIX","","<div class='trialBorder'><div class='vertical-center'><img style='vertical-align:center; align:center' src=img/fixation3.jpg></div></div>","null","","","","","","",""
"html-keyboard-response","62","107000","0.0-5.0-2.19","636182d3f52ff78fc3f7de50","bdp_td","Sun Mar 26 2023 16:04:41 GMT-0500 (Central Daylight Time)","122257","","2191","","","","offer","","<div class='trialBorder'><div class='vertical-center'><img style='vertical-align:center; align:center' src=img/fixation3.jpg></div><div class='cl'><div class='vertical-center'>$14<br><br>now</div></div><div class='cr'><div class='vertical-center'>$25<br>in<br>3 weeks</div></div><div class='respDivL'><div class='vertical-center'>(E)</div></div><div class='respDivR'><div class='vertical-center'>(I)</div></div></div>","E","$14<br><br>now","$25<br>in<br>3 weeks","0","14","25","3","NOW"
"html-keyboard-response","63","107252","0.0-5.0-3.19","636182d3f52ff78fc3f7de50","bdp_td","Sun Mar 26 2023 16:04:41 GMT-0500 (Central Daylight Time)","122257","","null","","","","offerFB","","<div class='trialBorder'><div class='vertical-center'><img style='vertical-align:center; align:center' src=img/fixation3.jpg></div><div class='cl'><div class='vertical-center'><font style='color:orange'>$14<br><br>now</font></div></div><div class='cr'><div class='vertical-center'>$25<br>in<br>3 weeks</div></div><div class='respDivL'><div class='vertical-center'><font style='color:orange'>(E)</font></div></div><div class='respDivR'><div class='vertical-center'>(I)</div></div></div>","null","$14<br><br>now","$25<br>in<br>3 weeks","0","14","25","3",""
"html-keyboard-response","64","107754","0.0-5.0-1.20","636182d3f52ff78fc3f7de50","bdp_td","Sun Mar 26 2023 16:04:41 GMT-0500 (Central Daylight Time)","122257","","null","","","","FIX","","<div class='trialBorder'><div class='vertical-center'><img style='vertical-align:center; align:center' src=img/fixation3.jpg></div></div>","null","","","","","","",""
"html-keyboard-response","65","108688","0.0-5.0-2.20","636182d3f52ff78fc3f7de50","bdp_td","Sun Mar 26 2023 16:04:41 GMT-0500 (Central Daylight Time)","122257","","933","","","","offer","","<div class='trialBorder'><div class='vertical-center'><img style='vertical-align:center; align:center' src=img/fixation3.jpg></div><div class='cl'><div class='vertical-center'>$30<br>in<br>2 weeks</div></div><div class='cr'><div class='vertical-center'>$11<br><br>now</div></div><div class='respDivL'><div class='vertical-center'>(E)</div></div><div class='respDivR'><div class='vertical-center'>(I)</div></div></div>","E","$11<br><br>now","$30<br>in<br>2 weeks","1","11","30","2","THEN"
"html-keyboard-response","66","108940","0.0-5.0-3.20","636182d3f52ff78fc3f7de50","bdp_td","Sun Mar 26 2023 16:04:41 GMT-0500 (Central Daylight Time)","122257","","null","","","","offerFB","","<div class='trialBorder'><div class='vertical-center'><img style='vertical-align:center; align:center' src=img/fixation3.jpg></div><div class='cl'><div class='vertical-center'><font style='color:orange'>$30<br>in<br>2 weeks</font></div></div><div class='cr'><div class='vertical-center'>$11<br><br>now</div></div><div class='respDivL'><div class='vertical-center'><font style='color:orange'>(E)</font></div></div><div class='respDivR'><div class='vertical-center'>(I)</div></div></div>","null","$11<br><br>now","$30<br>in<br>2 weeks","1","11","30","2",""
"html-keyboard-response","67","109442","0.0-5.0-1.21","636182d3f52ff78fc3f7de50","bdp_td","Sun Mar 26 2023 16:04:41 GMT-0500 (Central Daylight Time)","122257","","null","","","","FIX","","<div class='trialBorder'><div class='vertical-center'><img style='vertical-align:center; align:center' src=img/fixation3.jpg></div></div>","null","","","","","","",""
"html-keyboard-response","68","110607","0.0-5.0-2.21","636182d3f52ff78fc3f7de50","bdp_td","Sun Mar 26 2023 16:04:41 GMT-0500 (Central Daylight Time)","122257","","1164","","","","offer","","<div class='trialBorder'><div class='vertical-center'><img style='vertical-align:center; align:center' src=img/fixation3.jpg></div><div class='cl'><div class='vertical-center'>$54<br><br>now</div></div><div class='cr'><div class='vertical-center'>$80<br>in<br>3 weeks</div></div><div class='respDivL'><div class='vertical-center'>(E)</div></div><div class='respDivR'><div class='vertical-center'>(I)</div></div></div>","I","$54<br><br>now","$80<br>in<br>3 weeks","0","54","80","3","THEN"
"html-keyboard-response","69","110859","0.0-5.0-3.21","636182d3f52ff78fc3f7de50","bdp_td","Sun Mar 26 2023 16:04:41 GMT-0500 (Central Daylight Time)","122257","","null","","","","offerFB","","<div class='trialBorder'><div class='vertical-center'><img style='vertical-align:center; align:center' src=img/fixation3.jpg></div><div class='cl'><div class='vertical-center'>$54<br><br>now</div></div><div class='cr'><div class='vertical-center'><font style='color:orange'>$80<br>in<br>3 weeks</font></div></div><div class='respDivL'><div class='vertical-center'>(E)</div></div><div class='respDivR'><div class='vertical-center'><font style='color:orange'>(I)</font></div></div></div>","null","$54<br><br>now","$80<br>in<br>3 weeks","0","54","80","3",""
"html-keyboard-response","70","111362","0.0-5.0-1.22","636182d3f52ff78fc3f7de50","bdp_td","Sun Mar 26 2023 16:04:41 GMT-0500 (Central Daylight Time)","122257","","null","","","","FIX","","<div class='trialBorder'><div class='vertical-center'><img style='vertical-align:center; align:center' src=img/fixation3.jpg></div></div>","null","","","","","","",""
"html-keyboard-response","71","112588","0.0-5.0-2.22","636182d3f52ff78fc3f7de50","bdp_td","Sun Mar 26 2023 16:04:41 GMT-0500 (Central Daylight Time)","122257","","1223","","","","offer","","<div class='trialBorder'><div class='vertical-center'><img style='vertical-align:center; align:center' src=img/fixation3.jpg></div><div class='cl'><div class='vertical-center'>$30<br>in<br>6 weeks</div></div><div class='cr'><div class='vertical-center'>$25<br><br>now</div></div><div class='respDivL'><div class='vertical-center'>(E)</div></div><div class='respDivR'><div class='vertical-center'>(I)</div></div></div>","I","$25<br><br>now","$30<br>in<br>6 weeks","1","25","30","6","NOW"
"html-keyboard-response","72","112841","0.0-5.0-3.22","636182d3f52ff78fc3f7de50","bdp_td","Sun Mar 26 2023 16:04:41 GMT-0500 (Central Daylight Time)","122257","","null","","","","offerFB","","<div class='trialBorder'><div class='vertical-center'><img style='vertical-align:center; align:center' src=img/fixation3.jpg></div><div class='cl'><div class='vertical-center'>$30<br>in<br>6 weeks</div></div><div class='cr'><div class='vertical-center'><font style='color:orange'>$25<br><br>now</font></div></div><div class='respDivL'><div class='vertical-center'>(E)</div></div><div class='respDivR'><div class='vertical-center'><font style='color:orange'>(I)</font></div></div></div>","null","$25<br><br>now","$30<br>in<br>6 weeks","1","25","30","6",""
"html-keyboard-response","73","113343","0.0-5.0-1.23","636182d3f52ff78fc3f7de50","bdp_td","Sun Mar 26 2023 16:04:41 GMT-0500 (Central Daylight Time)","122257","","null","","","","FIX","","<div class='trialBorder'><div class='vertical-center'><img style='vertical-align:center; align:center' src=img/fixation3.jpg></div></div>","null","","","","","","",""
"html-keyboard-response","74","115084","0.0-5.0-2.23","636182d3f52ff78fc3f7de50","bdp_td","Sun Mar 26 2023 16:04:41 GMT-0500 (Central Daylight Time)","122257","","1739","","","","offer","","<div class='trialBorder'><div class='vertical-center'><img style='vertical-align:center; align:center' src=img/fixation3.jpg></div><div class='cl'><div class='vertical-center'>$24<br><br>now</div></div><div class='cr'><div class='vertical-center'>$35<br>in<br>3 weeks</div></div><div class='respDivL'><div class='vertical-center'>(E)</div></div><div class='respDivR'><div class='vertical-center'>(I)</div></div></div>","E","$24<br><br>now","$35<br>in<br>3 weeks","0","24","35","3","NOW"
"html-keyboard-response","75","115337","0.0-5.0-3.23","636182d3f52ff78fc3f7de50","bdp_td","Sun Mar 26 2023 16:04:41 GMT-0500 (Central Daylight Time)","122257","","null","","","","offerFB","","<div class='trialBorder'><div class='vertical-center'><img style='vertical-align:center; align:center' src=img/fixation3.jpg></div><div class='cl'><div class='vertical-center'><font style='color:orange'>$24<br><br>now</font></div></div><div class='cr'><div class='vertical-center'>$35<br>in<br>3 weeks</div></div><div class='respDivL'><div class='vertical-center'><font style='color:orange'>(E)</font></div></div><div class='respDivR'><div class='vertical-center'>(I)</div></div></div>","null","$24<br><br>now","$35<br>in<br>3 weeks","0","24","35","3",""
"html-keyboard-response","76","115839","0.0-5.0-1.24","636182d3f52ff78fc3f7de50","bdp_td","Sun Mar 26 2023 16:04:41 GMT-0500 (Central Daylight Time)","122257","","null","","","","FIX","","<div class='trialBorder'><div class='vertical-center'><img style='vertical-align:center; align:center' src=img/fixation3.jpg></div></div>","null","","","","","","",""
"html-keyboard-response","77","117544","0.0-5.0-2.24","636182d3f52ff78fc3f7de50","bdp_td","Sun Mar 26 2023 16:04:41 GMT-0500 (Central Daylight Time)","122257","","1704","","","","offer","","<div class='trialBorder'><div class='vertical-center'><img style='vertical-align:center; align:center' src=img/fixation3.jpg></div><div class='cl'><div class='vertical-center'>$85<br>in<br>1 week</div></div><div class='cr'><div class='vertical-center'>$31<br><br>now</div></div><div class='respDivL'><div class='vertical-center'>(E)</div></div><div class='respDivR'><div class='vertical-center'>(I)</div></div></div>","E","$31<br><br>now","$85<br>in<br>1 week","1","31","85","1","THEN"
"html-keyboard-response","78","117796","0.0-5.0-3.24","636182d3f52ff78fc3f7de50","bdp_td","Sun Mar 26 2023 16:04:41 GMT-0500 (Central Daylight Time)","122257","","null","","","","offerFB","","<div class='trialBorder'><div class='vertical-center'><img style='vertical-align:center; align:center' src=img/fixation3.jpg></div><div class='cl'><div class='vertical-center'><font style='color:orange'>$85<br>in<br>1 week</font></div></div><div class='cr'><div class='vertical-center'>$31<br><br>now</div></div><div class='respDivL'><div class='vertical-center'><font style='color:orange'>(E)</font></div></div><div class='respDivR'><div class='vertical-center'>(I)</div></div></div>","null","$31<br><br>now","$85<br>in<br>1 week","1","31","85","1",""
"html-keyboard-response","79","118298","0.0-5.0-1.25","636182d3f52ff78fc3f7de50","bdp_td","Sun Mar 26 2023 16:04:41 GMT-0500 (Central Daylight Time)","122257","","null","","","","FIX","","<div class='trialBorder'><div class='vertical-center'><img style='vertical-align:center; align:center' src=img/fixation3.jpg></div></div>","null","","","","","","",""
"html-keyboard-response","80","119308","0.0-5.0-2.25","636182d3f52ff78fc3f7de50","bdp_td","Sun Mar 26 2023 16:04:41 GMT-0500 (Central Daylight Time)","122257","","1008","","","","offer","","<div class='trialBorder'><div class='vertical-center'><img style='vertical-align:center; align:center' src=img/fixation3.jpg></div><div class='cl'><div class='vertical-center'>$28<br><br>now</div></div><div class='cr'><div class='vertical-center'>$30<br>in<br>12 weeks</div></div><div class='respDivL'><div class='vertical-center'>(E)</div></div><div class='respDivR'><div class='vertical-center'>(I)</div></div></div>","E","$28<br><br>now","$30<br>in<br>12 weeks","0","28","30","12","NOW"
"html-keyboard-response","81","119568","0.0-5.0-3.25","636182d3f52ff78fc3f7de50","bdp_td","Sun Mar 26 2023 16:04:41 GMT-0500 (Central Daylight Time)","122257","","null","","","","offerFB","","<div class='trialBorder'><div class='vertical-center'><img style='vertical-align:center; align:center' src=img/fixation3.jpg></div><div class='cl'><div class='vertical-center'><font style='color:orange'>$28<br><br>now</font></div></div><div class='cr'><div class='vertical-center'>$30<br>in<br>12 weeks</div></div><div class='respDivL'><div class='vertical-center'><font style='color:orange'>(E)</font></div></div><div class='respDivR'><div class='vertical-center'>(I)</div></div></div>","null","$28<br><br>now","$30<br>in<br>12 weeks","0","28","30","12",""
"html-keyboard-response","82","120071","0.0-5.0-1.26","636182d3f52ff78fc3f7de50","bdp_td","Sun Mar 26 2023 16:04:41 GMT-0500 (Central Daylight Time)","122257","","null","","","","FIX","","<div class='trialBorder'><div class='vertical-center'><img style='vertical-align:center; align:center' src=img/fixation3.jpg></div></div>","null","","","","","","",""
"html-keyboard-response","83","121003","0.0-5.0-2.26","636182d3f52ff78fc3f7de50","bdp_td","Sun Mar 26 2023 16:04:41 GMT-0500 (Central Daylight Time)","122257","","931","","","","offer","","<div class='trialBorder'><div class='vertical-center'><img style='vertical-align:center; align:center' src=img/fixation3.jpg></div><div class='cl'><div class='vertical-center'>$41<br><br>now</div></div><div class='cr'><div class='vertical-center'>$75<br>in<br>3 weeks</div></div><div class='respDivL'><div class='vertical-center'>(E)</div></div><div class='respDivR'><div class='vertical-center'>(I)</div></div></div>","I","$41<br><br>now","$75<br>in<br>3 weeks","0","41","75","3","THEN"
"html-keyboard-response","84","121255","0.0-5.0-3.26","636182d3f52ff78fc3f7de50","bdp_td","Sun Mar 26 2023 16:04:41 GMT-0500 (Central Daylight Time)","122257","","null","","","","offerFB","","<div class='trialBorder'><div class='vertical-center'><img style='vertical-align:center; align:center' src=img/fixation3.jpg></div><div class='cl'><div class='vertical-center'>$41<br><br>now</div></div><div class='cr'><div class='vertical-center'><font style='color:orange'>$75<br>in<br>3 weeks</font></div></div><div class='respDivL'><div class='vertical-center'>(E)</div></div><div class='respDivR'><div class='vertical-center'><font style='color:orange'>(I)</font></div></div></div>","null","$41<br><br>now","$75<br>in<br>3 weeks","0","41","75","3",""
"","","","","636182d3f52ff78fc3f7de50","bdp_td","Sun Mar 26 2023 16:04:41 GMT-0500 (Central Daylight Time)","122257","","","fullscreenexit","85","121289","fullscreenexit","","","","","","","","","",""
"fullscreen","85","122257","0.0-6.0","636182d3f52ff78fc3f7de50","bdp_td","Sun Mar 26 2023 16:04:41 GMT-0500 (Central Daylight Time)","122257","","","","","","","true","","","","","","","","",""
"html-keyboard-response","86","122759","0.0-7.0","","","","","","null","","","","","","","null","","","","","","",""
