"trial_type","trial_index","time_elapsed","internal_node_id","subject_id","task","startTime","totalTime","view_history","rt","success","stimulus","key_press","trialtype","nowOffer","thenOffer","thenLeft","nowAmt","thenAmt","thenWeeks","chosen"
"pavlovia","0","7","0.0-0.0","63e51ddb19fccd05514c629c","bdp_td","Tue Mar 28 2023 18:29:54 GMT-0700 (Pacific Daylight Time)","79242","","","","","","","","","","","","",""
"instructions","1","3234","0.0-1.0","63e51ddb19fccd05514c629c","bdp_td","Tue Mar 28 2023 18:29:54 GMT-0700 (Pacific Daylight Time)","79242","[{""page_index"":0,""viewing_time"":3227}]","3227","","","","","","","","","","",""
"fullscreen","2","6010","0.0-2.0","63e51ddb19fccd05514c629c","bdp_td","Tue Mar 28 2023 18:29:54 GMT-0700 (Pacific Daylight Time)","79242","","","true","","","","","","","","","",""
"image-keyboard-response","3","7950","0.0-3.0-0.0","63e51ddb19fccd05514c629c","bdp_td","Tue Mar 28 2023 18:29:54 GMT-0700 (Pacific Daylight Time)","79242","","1938","","","32","fullscreenfail","","","","","","",""
"instructions","4","18818","0.0-4.0","63e51ddb19fccd05514c629c","bdp_td","Tue Mar 28 2023 18:29:54 GMT-0700 (Pacific Daylight Time)","79242","[{""page_index"":0,""viewing_time"":4902},{""page_index"":1,""viewing_time"":4692},{""page_index"":2,""viewing_time"":1022}]","10617","","","","","","","","","","",""
"html-keyboard-response","5","19320","0.0-5.0-1.0","63e51ddb19fccd05514c629c","bdp_td","Tue Mar 28 2023 18:29:54 GMT-0700 (Pacific Daylight Time)","79242","","null","","<div class='trialBorder'><div class='vertical-center'><img style='vertical-align:center; align:center' src=img/fixation3.jpg></div></div>","null","FIX","","","","","","",""
"html-keyboard-response","6","21792","0.0-5.0-2.0","63e51ddb19fccd05514c629c","bdp_td","Tue Mar 28 2023 18:29:54 GMT-0700 (Pacific Daylight Time)","79242","","2469","","<div class='trialBorder'><div class='vertical-center'><img style='vertical-align:center; align:center' src=img/fixation3.jpg></div><div class='cl'><div class='vertical-center'>$19<br><br>now</div></div><div class='cr'><div class='vertical-center'>$25<br>in<br>6 weeks</div></div><div class='respDivL'><div class='vertical-center'>(E)</div></div><div class='respDivR'><div class='vertical-center'>(I)</div></div></div>","I","offer","$19<br><br>now","$25<br>in<br>6 weeks","0","19","25","6","THEN"
"html-keyboard-response","7","22045","0.0-5.0-3.0","63e51ddb19fccd05514c629c","bdp_td","Tue Mar 28 2023 18:29:54 GMT-0700 (Pacific Daylight Time)","79242","","null","","<div class='trialBorder'><div class='vertical-center'><img style='vertical-align:center; align:center' src=img/fixation3.jpg></div><div class='cl'><div class='vertical-center'>$19<br><br>now</div></div><div class='cr'><div class='vertical-center'><font style='color:orange'>$25<br>in<br>6 weeks</font></div></div><div class='respDivL'><div class='vertical-center'>(E)</div></div><div class='respDivR'><div class='vertical-center'><font style='color:orange'>(I)</font></div></div></div>","null","offerFB","$19<br><br>now","$25<br>in<br>6 weeks","0","19","25","6",""
"html-keyboard-response","8","22548","0.0-5.0-1.1","63e51ddb19fccd05514c629c","bdp_td","Tue Mar 28 2023 18:29:54 GMT-0700 (Pacific Daylight Time)","79242","","null","","<div class='trialBorder'><div class='vertical-center'><img style='vertical-align:center; align:center' src=img/fixation3.jpg></div></div>","null","FIX","","","","","","",""
"html-keyboard-response","9","23390","0.0-5.0-2.1","63e51ddb19fccd05514c629c","bdp_td","Tue Mar 28 2023 18:29:54 GMT-0700 (Pacific Daylight Time)","79242","","840","","<div class='trialBorder'><div class='vertical-center'><img style='vertical-align:center; align:center' src=img/fixation3.jpg></div><div class='cl'><div class='vertical-center'>$15<br><br>now</div></div><div class='cr'><div class='vertical-center'>$35<br>in<br>2 weeks</div></div><div class='respDivL'><div class='vertical-center'>(E)</div></div><div class='respDivR'><div class='vertical-center'>(I)</div></div></div>","I","offer","$15<br><br>now","$35<br>in<br>2 weeks","0","15","35","2","THEN"
"html-keyboard-response","10","23643","0.0-5.0-3.1","63e51ddb19fccd05514c629c","bdp_td","Tue Mar 28 2023 18:29:54 GMT-0700 (Pacific Daylight Time)","79242","","null","","<div class='trialBorder'><div class='vertical-center'><img style='vertical-align:center; align:center' src=img/fixation3.jpg></div><div class='cl'><div class='vertical-center'>$15<br><br>now</div></div><div class='cr'><div class='vertical-center'><font style='color:orange'>$35<br>in<br>2 weeks</font></div></div><div class='respDivL'><div class='vertical-center'>(E)</div></div><div class='respDivR'><div class='vertical-center'><font style='color:orange'>(I)</font></div></div></div>","null","offerFB","$15<br><br>now","$35<br>in<br>2 weeks","0","15","35","2",""
"html-keyboard-response","11","24146","0.0-5.0-1.2","63e51ddb19fccd05514c629c","bdp_td","Tue Mar 28 2023 18:29:54 GMT-0700 (Pacific Daylight Time)","79242","","null","","<div class='trialBorder'><div class='vertical-center'><img style='vertical-align:center; align:center' src=img/fixation3.jpg></div></div>","null","FIX","","","","","","",""
"html-keyboard-response","12","25403","0.0-5.0-2.2","63e51ddb19fccd05514c629c","bdp_td","Tue Mar 28 2023 18:29:54 GMT-0700 (Pacific Daylight Time)","79242","","1256","","<div class='trialBorder'><div class='vertical-center'><img style='vertical-align:center; align:center' src=img/fixation3.jpg></div><div class='cl'><div class='vertical-center'>$25<br>in<br>3 weeks</div></div><div class='cr'><div class='vertical-center'>$14<br><br>now</div></div><div class='respDivL'><div class='vertical-center'>(E)</div></div><div class='respDivR'><div class='vertical-center'>(I)</div></div></div>","E","offer","$14<br><br>now","$25<br>in<br>3 weeks","1","14","25","3","THEN"
"html-keyboard-response","13","25656","0.0-5.0-3.2","63e51ddb19fccd05514c629c","bdp_td","Tue Mar 28 2023 18:29:54 GMT-0700 (Pacific Daylight Time)","79242","","null","","<div class='trialBorder'><div class='vertical-center'><img style='vertical-align:center; align:center' src=img/fixation3.jpg></div><div class='cl'><div class='vertical-center'><font style='color:orange'>$25<br>in<br>3 weeks</font></div></div><div class='cr'><div class='vertical-center'>$14<br><br>now</div></div><div class='respDivL'><div class='vertical-center'><font style='color:orange'>(E)</font></div></div><div class='respDivR'><div class='vertical-center'>(I)</div></div></div>","null","offerFB","$14<br><br>now","$25<br>in<br>3 weeks","1","14","25","3",""
"html-keyboard-response","14","26157","0.0-5.0-1.3","63e51ddb19fccd05514c629c","bdp_td","Tue Mar 28 2023 18:29:54 GMT-0700 (Pacific Daylight Time)","79242","","null","","<div class='trialBorder'><div class='vertical-center'><img style='vertical-align:center; align:center' src=img/fixation3.jpg></div></div>","null","FIX","","","","","","",""
"html-keyboard-response","15","28166","0.0-5.0-2.3","63e51ddb19fccd05514c629c","bdp_td","Tue Mar 28 2023 18:29:54 GMT-0700 (Pacific Daylight Time)","79242","","2006","","<div class='trialBorder'><div class='vertical-center'><img style='vertical-align:center; align:center' src=img/fixation3.jpg></div><div class='cl'><div class='vertical-center'>$78<br><br>now</div></div><div class='cr'><div class='vertical-center'>$80<br>in<br>12 weeks</div></div><div class='respDivL'><div class='vertical-center'>(E)</div></div><div class='respDivR'><div class='vertical-center'>(I)</div></div></div>","E","offer","$78<br><br>now","$80<br>in<br>12 weeks","0","78","80","12","NOW"
"html-keyboard-response","16","28419","0.0-5.0-3.3","63e51ddb19fccd05514c629c","bdp_td","Tue Mar 28 2023 18:29:54 GMT-0700 (Pacific Daylight Time)","79242","","null","","<div class='trialBorder'><div class='vertical-center'><img style='vertical-align:center; align:center' src=img/fixation3.jpg></div><div class='cl'><div class='vertical-center'><font style='color:orange'>$78<br><br>now</font></div></div><div class='cr'><div class='vertical-center'>$80<br>in<br>12 weeks</div></div><div class='respDivL'><div class='vertical-center'><font style='color:orange'>(E)</font></div></div><div class='respDivR'><div class='vertical-center'>(I)</div></div></div>","null","offerFB","$78<br><br>now","$80<br>in<br>12 weeks","0","78","80","12",""
"html-keyboard-response","17","28921","0.0-5.0-1.4","63e51ddb19fccd05514c629c","bdp_td","Tue Mar 28 2023 18:29:54 GMT-0700 (Pacific Daylight Time)","79242","","null","","<div class='trialBorder'><div class='vertical-center'><img style='vertical-align:center; align:center' src=img/fixation3.jpg></div></div>","null","FIX","","","","","","",""
"html-keyboard-response","18","30955","0.0-5.0-2.4","63e51ddb19fccd05514c629c","bdp_td","Tue Mar 28 2023 18:29:54 GMT-0700 (Pacific Daylight Time)","79242","","2032","","<div class='trialBorder'><div class='vertical-center'><img style='vertical-align:center; align:center' src=img/fixation3.jpg></div><div class='cl'><div class='vertical-center'>$35<br>in<br>3 weeks</div></div><div class='cr'><div class='vertical-center'>$24<br><br>now</div></div><div class='respDivL'><div class='vertical-center'>(E)</div></div><div class='respDivR'><div class='vertical-center'>(I)</div></div></div>","E","offer","$24<br><br>now","$35<br>in<br>3 weeks","1","24","35","3","THEN"
"html-keyboard-response","19","31208","0.0-5.0-3.4","63e51ddb19fccd05514c629c","bdp_td","Tue Mar 28 2023 18:29:54 GMT-0700 (Pacific Daylight Time)","79242","","null","","<div class='trialBorder'><div class='vertical-center'><img style='vertical-align:center; align:center' src=img/fixation3.jpg></div><div class='cl'><div class='vertical-center'><font style='color:orange'>$35<br>in<br>3 weeks</font></div></div><div class='cr'><div class='vertical-center'>$24<br><br>now</div></div><div class='respDivL'><div class='vertical-center'><font style='color:orange'>(E)</font></div></div><div class='respDivR'><div class='vertical-center'>(I)</div></div></div>","null","offerFB","$24<br><br>now","$35<br>in<br>3 weeks","1","24","35","3",""
"html-keyboard-response","20","31710","0.0-5.0-1.5","63e51ddb19fccd05514c629c","bdp_td","Tue Mar 28 2023 18:29:54 GMT-0700 (Pacific Daylight Time)","79242","","null","","<div class='trialBorder'><div class='vertical-center'><img style='vertical-align:center; align:center' src=img/fixation3.jpg></div></div>","null","FIX","","","","","","",""
"html-keyboard-response","21","34011","0.0-5.0-2.5","63e51ddb19fccd05514c629c","bdp_td","Tue Mar 28 2023 18:29:54 GMT-0700 (Pacific Daylight Time)","79242","","2299","","<div class='trialBorder'><div class='vertical-center'><img style='vertical-align:center; align:center' src=img/fixation3.jpg></div><div class='cl'><div class='vertical-center'>$85<br>in<br>12 weeks</div></div><div class='cr'><div class='vertical-center'>$80<br><br>now</div></div><div class='respDivL'><div class='vertical-center'>(E)</div></div><div class='respDivR'><div class='vertical-center'>(I)</div></div></div>","I","offer","$80<br><br>now","$85<br>in<br>12 weeks","1","80","85","12","NOW"
"html-keyboard-response","22","34265","0.0-5.0-3.5","63e51ddb19fccd05514c629c","bdp_td","Tue Mar 28 2023 18:29:54 GMT-0700 (Pacific Daylight Time)","79242","","null","","<div class='trialBorder'><div class='vertical-center'><img style='vertical-align:center; align:center' src=img/fixation3.jpg></div><div class='cl'><div class='vertical-center'>$85<br>in<br>12 weeks</div></div><div class='cr'><div class='vertical-center'><font style='color:orange'>$80<br><br>now</font></div></div><div class='respDivL'><div class='vertical-center'>(E)</div></div><div class='respDivR'><div class='vertical-center'><font style='color:orange'>(I)</font></div></div></div>","null","offerFB","$80<br><br>now","$85<br>in<br>12 weeks","1","80","85","12",""
"html-keyboard-response","23","34766","0.0-5.0-1.6","63e51ddb19fccd05514c629c","bdp_td","Tue Mar 28 2023 18:29:54 GMT-0700 (Pacific Daylight Time)","79242","","null","","<div class='trialBorder'><div class='vertical-center'><img style='vertical-align:center; align:center' src=img/fixation3.jpg></div></div>","null","FIX","","","","","","",""
"html-keyboard-response","24","36813","0.0-5.0-2.6","63e51ddb19fccd05514c629c","bdp_td","Tue Mar 28 2023 18:29:54 GMT-0700 (Pacific Daylight Time)","79242","","2044","","<div class='trialBorder'><div class='vertical-center'><img style='vertical-align:center; align:center' src=img/fixation3.jpg></div><div class='cl'><div class='vertical-center'>$55<br>in<br>6 weeks</div></div><div class='cr'><div class='vertical-center'>$40<br><br>now</div></div><div class='respDivL'><div class='vertical-center'>(E)</div></div><div class='respDivR'><div class='vertical-center'>(I)</div></div></div>","E","offer","$40<br><br>now","$55<br>in<br>6 weeks","1","40","55","6","THEN"
"html-keyboard-response","25","37066","0.0-5.0-3.6","63e51ddb19fccd05514c629c","bdp_td","Tue Mar 28 2023 18:29:54 GMT-0700 (Pacific Daylight Time)","79242","","null","","<div class='trialBorder'><div class='vertical-center'><img style='vertical-align:center; align:center' src=img/fixation3.jpg></div><div class='cl'><div class='vertical-center'><font style='color:orange'>$55<br>in<br>6 weeks</font></div></div><div class='cr'><div class='vertical-center'>$40<br><br>now</div></div><div class='respDivL'><div class='vertical-center'><font style='color:orange'>(E)</font></div></div><div class='respDivR'><div class='vertical-center'>(I)</div></div></div>","null","offerFB","$40<br><br>now","$55<br>in<br>6 weeks","1","40","55","6",""
"html-keyboard-response","26","37567","0.0-5.0-1.7","63e51ddb19fccd05514c629c","bdp_td","Tue Mar 28 2023 18:29:54 GMT-0700 (Pacific Daylight Time)","79242","","null","","<div class='trialBorder'><div class='vertical-center'><img style='vertical-align:center; align:center' src=img/fixation3.jpg></div></div>","null","FIX","","","","","","",""
"html-keyboard-response","27","38795","0.0-5.0-2.7","63e51ddb19fccd05514c629c","bdp_td","Tue Mar 28 2023 18:29:54 GMT-0700 (Pacific Daylight Time)","79242","","1226","","<div class='trialBorder'><div class='vertical-center'><img style='vertical-align:center; align:center' src=img/fixation3.jpg></div><div class='cl'><div class='vertical-center'>$50<br>in<br>3 weeks</div></div><div class='cr'><div class='vertical-center'>$27<br><br>now</div></div><div class='respDivL'><div class='vertical-center'>(E)</div></div><div class='respDivR'><div class='vertical-center'>(I)</div></div></div>","E","offer","$27<br><br>now","$50<br>in<br>3 weeks","1","27","50","3","THEN"
"html-keyboard-response","28","39048","0.0-5.0-3.7","63e51ddb19fccd05514c629c","bdp_td","Tue Mar 28 2023 18:29:54 GMT-0700 (Pacific Daylight Time)","79242","","null","","<div class='trialBorder'><div class='vertical-center'><img style='vertical-align:center; align:center' src=img/fixation3.jpg></div><div class='cl'><div class='vertical-center'><font style='color:orange'>$50<br>in<br>3 weeks</font></div></div><div class='cr'><div class='vertical-center'>$27<br><br>now</div></div><div class='respDivL'><div class='vertical-center'><font style='color:orange'>(E)</font></div></div><div class='respDivR'><div class='vertical-center'>(I)</div></div></div>","null","offerFB","$27<br><br>now","$50<br>in<br>3 weeks","1","27","50","3",""
"html-keyboard-response","29","39550","0.0-5.0-1.8","63e51ddb19fccd05514c629c","bdp_td","Tue Mar 28 2023 18:29:54 GMT-0700 (Pacific Daylight Time)","79242","","null","","<div class='trialBorder'><div class='vertical-center'><img style='vertical-align:center; align:center' src=img/fixation3.jpg></div></div>","null","FIX","","","","","","",""
"html-keyboard-response","30","40969","0.0-5.0-2.8","63e51ddb19fccd05514c629c","bdp_td","Tue Mar 28 2023 18:29:54 GMT-0700 (Pacific Daylight Time)","79242","","1417","","<div class='trialBorder'><div class='vertical-center'><img style='vertical-align:center; align:center' src=img/fixation3.jpg></div><div class='cl'><div class='vertical-center'>$85<br>in<br>6 weeks</div></div><div class='cr'><div class='vertical-center'>$69<br><br>now</div></div><div class='respDivL'><div class='vertical-center'>(E)</div></div><div class='respDivR'><div class='vertical-center'>(I)</div></div></div>","E","offer","$69<br><br>now","$85<br>in<br>6 weeks","1","69","85","6","THEN"
"html-keyboard-response","31","41222","0.0-5.0-3.8","63e51ddb19fccd05514c629c","bdp_td","Tue Mar 28 2023 18:29:54 GMT-0700 (Pacific Daylight Time)","79242","","null","","<div class='trialBorder'><div class='vertical-center'><img style='vertical-align:center; align:center' src=img/fixation3.jpg></div><div class='cl'><div class='vertical-center'><font style='color:orange'>$85<br>in<br>6 weeks</font></div></div><div class='cr'><div class='vertical-center'>$69<br><br>now</div></div><div class='respDivL'><div class='vertical-center'><font style='color:orange'>(E)</font></div></div><div class='respDivR'><div class='vertical-center'>(I)</div></div></div>","null","offerFB","$69<br><br>now","$85<br>in<br>6 weeks","1","69","85","6",""
"html-keyboard-response","32","41725","0.0-5.0-1.9","63e51ddb19fccd05514c629c","bdp_td","Tue Mar 28 2023 18:29:54 GMT-0700 (Pacific Daylight Time)","79242","","null","","<div class='trialBorder'><div class='vertical-center'><img style='vertical-align:center; align:center' src=img/fixation3.jpg></div></div>","null","FIX","","","","","","",""
"html-keyboard-response","33","42856","0.0-5.0-2.9","63e51ddb19fccd05514c629c","bdp_td","Tue Mar 28 2023 18:29:54 GMT-0700 (Pacific Daylight Time)","79242","","1129","","<div class='trialBorder'><div class='vertical-center'><img style='vertical-align:center; align:center' src=img/fixation3.jpg></div><div class='cl'><div class='vertical-center'>$34<br><br>now</div></div><div class='cr'><div class='vertical-center'>$35<br>in<br>12 weeks</div></div><div class='respDivL'><div class='vertical-center'>(E)</div></div><div class='respDivR'><div class='vertical-center'>(I)</div></div></div>","E","offer","$34<br><br>now","$35<br>in<br>12 weeks","0","34","35","12","NOW"
"html-keyboard-response","34","43109","0.0-5.0-3.9","63e51ddb19fccd05514c629c","bdp_td","Tue Mar 28 2023 18:29:54 GMT-0700 (Pacific Daylight Time)","79242","","null","","<div class='trialBorder'><div class='vertical-center'><img style='vertical-align:center; align:center' src=img/fixation3.jpg></div><div class='cl'><div class='vertical-center'><font style='color:orange'>$34<br><br>now</font></div></div><div class='cr'><div class='vertical-center'>$35<br>in<br>12 weeks</div></div><div class='respDivL'><div class='vertical-center'><font style='color:orange'>(E)</font></div></div><div class='respDivR'><div class='vertical-center'>(I)</div></div></div>","null","offerFB","$34<br><br>now","$35<br>in<br>12 weeks","0","34","35","12",""
"html-keyboard-response","35","43612","0.0-5.0-1.10","63e51ddb19fccd05514c629c","bdp_td","Tue Mar 28 2023 18:29:54 GMT-0700 (Pacific Daylight Time)","79242","","null","","<div class='trialBorder'><div class='vertical-center'><img style='vertical-align:center; align:center' src=img/fixation3.jpg></div></div>","null","FIX","","","","","","",""
"html-keyboard-response","36","45865","0.0-5.0-2.10","63e51ddb19fccd05514c629c","bdp_td","Tue Mar 28 2023 18:29:54 GMT-0700 (Pacific Daylight Time)","79242","","2251","","<div class='trialBorder'><div class='vertical-center'><img style='vertical-align:center; align:center' src=img/fixation3.jpg></div><div class='cl'><div class='vertical-center'>$49<br><br>now</div></div><div class='cr'><div class='vertical-center'>$60<br>in<br>6 weeks</div></div><div class='respDivL'><div class='vertical-center'>(E)</div></div><div class='respDivR'><div class='vertical-center'>(I)</div></div></div>","I","offer","$49<br><br>now","$60<br>in<br>6 weeks","0","49","60","6","THEN"
"html-keyboard-response","37","46118","0.0-5.0-3.10","63e51ddb19fccd05514c629c","bdp_td","Tue Mar 28 2023 18:29:54 GMT-0700 (Pacific Daylight Time)","79242","","null","","<div class='trialBorder'><div class='vertical-center'><img style='vertical-align:center; align:center' src=img/fixation3.jpg></div><div class='cl'><div class='vertical-center'>$49<br><br>now</div></div><div class='cr'><div class='vertical-center'><font style='color:orange'>$60<br>in<br>6 weeks</font></div></div><div class='respDivL'><div class='vertical-center'>(E)</div></div><div class='respDivR'><div class='vertical-center'><font style='color:orange'>(I)</font></div></div></div>","null","offerFB","$49<br><br>now","$60<br>in<br>6 weeks","0","49","60","6",""
"html-keyboard-response","38","46620","0.0-5.0-1.11","63e51ddb19fccd05514c629c","bdp_td","Tue Mar 28 2023 18:29:54 GMT-0700 (Pacific Daylight Time)","79242","","null","","<div class='trialBorder'><div class='vertical-center'><img style='vertical-align:center; align:center' src=img/fixation3.jpg></div></div>","null","FIX","","","","","","",""
"html-keyboard-response","39","48217","0.0-5.0-2.11","63e51ddb19fccd05514c629c","bdp_td","Tue Mar 28 2023 18:29:54 GMT-0700 (Pacific Daylight Time)","79242","","1595","","<div class='trialBorder'><div class='vertical-center'><img style='vertical-align:center; align:center' src=img/fixation3.jpg></div><div class='cl'><div class='vertical-center'>$25<br><br>now</div></div><div class='cr'><div class='vertical-center'>$30<br>in<br>6 weeks</div></div><div class='respDivL'><div class='vertical-center'>(E)</div></div><div class='respDivR'><div class='vertical-center'>(I)</div></div></div>","I","offer","$25<br><br>now","$30<br>in<br>6 weeks","0","25","30","6","THEN"
"html-keyboard-response","40","48470","0.0-5.0-3.11","63e51ddb19fccd05514c629c","bdp_td","Tue Mar 28 2023 18:29:54 GMT-0700 (Pacific Daylight Time)","79242","","null","","<div class='trialBorder'><div class='vertical-center'><img style='vertical-align:center; align:center' src=img/fixation3.jpg></div><div class='cl'><div class='vertical-center'>$25<br><br>now</div></div><div class='cr'><div class='vertical-center'><font style='color:orange'>$30<br>in<br>6 weeks</font></div></div><div class='respDivL'><div class='vertical-center'>(E)</div></div><div class='respDivR'><div class='vertical-center'><font style='color:orange'>(I)</font></div></div></div>","null","offerFB","$25<br><br>now","$30<br>in<br>6 weeks","0","25","30","6",""
"html-keyboard-response","41","48971","0.0-5.0-1.12","63e51ddb19fccd05514c629c","bdp_td","Tue Mar 28 2023 18:29:54 GMT-0700 (Pacific Daylight Time)","79242","","null","","<div class='trialBorder'><div class='vertical-center'><img style='vertical-align:center; align:center' src=img/fixation3.jpg></div></div>","null","FIX","","","","","","",""
"html-keyboard-response","42","50065","0.0-5.0-2.12","63e51ddb19fccd05514c629c","bdp_td","Tue Mar 28 2023 18:29:54 GMT-0700 (Pacific Daylight Time)","79242","","1092","","<div class='trialBorder'><div class='vertical-center'><img style='vertical-align:center; align:center' src=img/fixation3.jpg></div><div class='cl'><div class='vertical-center'>$25<br><br>now</div></div><div class='cr'><div class='vertical-center'>$60<br>in<br>3 weeks</div></div><div class='respDivL'><div class='vertical-center'>(E)</div></div><div class='respDivR'><div class='vertical-center'>(I)</div></div></div>","I","offer","$25<br><br>now","$60<br>in<br>3 weeks","0","25","60","3","THEN"
"html-keyboard-response","43","50319","0.0-5.0-3.12","63e51ddb19fccd05514c629c","bdp_td","Tue Mar 28 2023 18:29:54 GMT-0700 (Pacific Daylight Time)","79242","","null","","<div class='trialBorder'><div class='vertical-center'><img style='vertical-align:center; align:center' src=img/fixation3.jpg></div><div class='cl'><div class='vertical-center'>$25<br><br>now</div></div><div class='cr'><div class='vertical-center'><font style='color:orange'>$60<br>in<br>3 weeks</font></div></div><div class='respDivL'><div class='vertical-center'>(E)</div></div><div class='respDivR'><div class='vertical-center'><font style='color:orange'>(I)</font></div></div></div>","null","offerFB","$25<br><br>now","$60<br>in<br>3 weeks","0","25","60","3",""
"html-keyboard-response","44","50821","0.0-5.0-1.13","63e51ddb19fccd05514c629c","bdp_td","Tue Mar 28 2023 18:29:54 GMT-0700 (Pacific Daylight Time)","79242","","null","","<div class='trialBorder'><div class='vertical-center'><img style='vertical-align:center; align:center' src=img/fixation3.jpg></div></div>","null","FIX","","","","","","",""
"html-keyboard-response","45","52464","0.0-5.0-2.13","63e51ddb19fccd05514c629c","bdp_td","Tue Mar 28 2023 18:29:54 GMT-0700 (Pacific Daylight Time)","79242","","1640","","<div class='trialBorder'><div class='vertical-center'><img style='vertical-align:center; align:center' src=img/fixation3.jpg></div><div class='cl'><div class='vertical-center'>$75<br>in<br>12 weeks</div></div><div class='cr'><div class='vertical-center'>$67<br><br>now</div></div><div class='respDivL'><div class='vertical-center'>(E)</div></div><div class='respDivR'><div class='vertical-center'>(I)</div></div></div>","E","offer","$67<br><br>now","$75<br>in<br>12 weeks","1","67","75","12","THEN"
"html-keyboard-response","46","52719","0.0-5.0-3.13","63e51ddb19fccd05514c629c","bdp_td","Tue Mar 28 2023 18:29:54 GMT-0700 (Pacific Daylight Time)","79242","","null","","<div class='trialBorder'><div class='vertical-center'><img style='vertical-align:center; align:center' src=img/fixation3.jpg></div><div class='cl'><div class='vertical-center'><font style='color:orange'>$75<br>in<br>12 weeks</font></div></div><div class='cr'><div class='vertical-center'>$67<br><br>now</div></div><div class='respDivL'><div class='vertical-center'><font style='color:orange'>(E)</font></div></div><div class='respDivR'><div class='vertical-center'>(I)</div></div></div>","null","offerFB","$67<br><br>now","$75<br>in<br>12 weeks","1","67","75","12",""
"html-keyboard-response","47","53220","0.0-5.0-1.14","63e51ddb19fccd05514c629c","bdp_td","Tue Mar 28 2023 18:29:54 GMT-0700 (Pacific Daylight Time)","79242","","null","","<div class='trialBorder'><div class='vertical-center'><img style='vertical-align:center; align:center' src=img/fixation3.jpg></div></div>","null","FIX","","","","","","",""
"html-keyboard-response","48","54317","0.0-5.0-2.14","63e51ddb19fccd05514c629c","bdp_td","Tue Mar 28 2023 18:29:54 GMT-0700 (Pacific Daylight Time)","79242","","1095","","<div class='trialBorder'><div class='vertical-center'><img style='vertical-align:center; align:center' src=img/fixation3.jpg></div><div class='cl'><div class='vertical-center'>$75<br>in<br>3 weeks</div></div><div class='cr'><div class='vertical-center'>$41<br><br>now</div></div><div class='respDivL'><div class='vertical-center'>(E)</div></div><div class='respDivR'><div class='vertical-center'>(I)</div></div></div>","E","offer","$41<br><br>now","$75<br>in<br>3 weeks","1","41","75","3","THEN"
"html-keyboard-response","49","54570","0.0-5.0-3.14","63e51ddb19fccd05514c629c","bdp_td","Tue Mar 28 2023 18:29:54 GMT-0700 (Pacific Daylight Time)","79242","","null","","<div class='trialBorder'><div class='vertical-center'><img style='vertical-align:center; align:center' src=img/fixation3.jpg></div><div class='cl'><div class='vertical-center'><font style='color:orange'>$75<br>in<br>3 weeks</font></div></div><div class='cr'><div class='vertical-center'>$41<br><br>now</div></div><div class='respDivL'><div class='vertical-center'><font style='color:orange'>(E)</font></div></div><div class='respDivR'><div class='vertical-center'>(I)</div></div></div>","null","offerFB","$41<br><br>now","$75<br>in<br>3 weeks","1","41","75","3",""
"html-keyboard-response","50","55072","0.0-5.0-1.15","63e51ddb19fccd05514c629c","bdp_td","Tue Mar 28 2023 18:29:54 GMT-0700 (Pacific Daylight Time)","79242","","null","","<div class='trialBorder'><div class='vertical-center'><img style='vertical-align:center; align:center' src=img/fixation3.jpg></div></div>","null","FIX","","","","","","",""
"html-keyboard-response","51","55857","0.0-5.0-2.15","63e51ddb19fccd05514c629c","bdp_td","Tue Mar 28 2023 18:29:54 GMT-0700 (Pacific Daylight Time)","79242","","783","","<div class='trialBorder'><div class='vertical-center'><img style='vertical-align:center; align:center' src=img/fixation3.jpg></div><div class='cl'><div class='vertical-center'>$34<br><br>now</div></div><div class='cr'><div class='vertical-center'>$50<br>in<br>6 weeks</div></div><div class='respDivL'><div class='vertical-center'>(E)</div></div><div class='respDivR'><div class='vertical-center'>(I)</div></div></div>","I","offer","$34<br><br>now","$50<br>in<br>6 weeks","0","34","50","6","THEN"
"html-keyboard-response","52","56108","0.0-5.0-3.15","63e51ddb19fccd05514c629c","bdp_td","Tue Mar 28 2023 18:29:54 GMT-0700 (Pacific Daylight Time)","79242","","null","","<div class='trialBorder'><div class='vertical-center'><img style='vertical-align:center; align:center' src=img/fixation3.jpg></div><div class='cl'><div class='vertical-center'>$34<br><br>now</div></div><div class='cr'><div class='vertical-center'><font style='color:orange'>$50<br>in<br>6 weeks</font></div></div><div class='respDivL'><div class='vertical-center'>(E)</div></div><div class='respDivR'><div class='vertical-center'><font style='color:orange'>(I)</font></div></div></div>","null","offerFB","$34<br><br>now","$50<br>in<br>6 weeks","0","34","50","6",""
"html-keyboard-response","53","56610","0.0-5.0-1.16","63e51ddb19fccd05514c629c","bdp_td","Tue Mar 28 2023 18:29:54 GMT-0700 (Pacific Daylight Time)","79242","","null","","<div class='trialBorder'><div class='vertical-center'><img style='vertical-align:center; align:center' src=img/fixation3.jpg></div></div>","null","FIX","","","","","","",""
"html-keyboard-response","54","57393","0.0-5.0-2.16","63e51ddb19fccd05514c629c","bdp_td","Tue Mar 28 2023 18:29:54 GMT-0700 (Pacific Daylight Time)","79242","","781","","<div class='trialBorder'><div class='vertical-center'><img style='vertical-align:center; align:center' src=img/fixation3.jpg></div><div class='cl'><div class='vertical-center'>$55<br>in<br>1 week</div></div><div class='cr'><div class='vertical-center'>$20<br><br>now</div></div><div class='respDivL'><div class='vertical-center'>(E)</div></div><div class='respDivR'><div class='vertical-center'>(I)</div></div></div>","E","offer","$20<br><br>now","$55<br>in<br>1 week","1","20","55","1","THEN"
"html-keyboard-response","55","57645","0.0-5.0-3.16","63e51ddb19fccd05514c629c","bdp_td","Tue Mar 28 2023 18:29:54 GMT-0700 (Pacific Daylight Time)","79242","","null","","<div class='trialBorder'><div class='vertical-center'><img style='vertical-align:center; align:center' src=img/fixation3.jpg></div><div class='cl'><div class='vertical-center'><font style='color:orange'>$55<br>in<br>1 week</font></div></div><div class='cr'><div class='vertical-center'>$20<br><br>now</div></div><div class='respDivL'><div class='vertical-center'><font style='color:orange'>(E)</font></div></div><div class='respDivR'><div class='vertical-center'>(I)</div></div></div>","null","offerFB","$20<br><br>now","$55<br>in<br>1 week","1","20","55","1",""
"html-keyboard-response","56","58148","0.0-5.0-1.17","63e51ddb19fccd05514c629c","bdp_td","Tue Mar 28 2023 18:29:54 GMT-0700 (Pacific Daylight Time)","79242","","null","","<div class='trialBorder'><div class='vertical-center'><img style='vertical-align:center; align:center' src=img/fixation3.jpg></div></div>","null","FIX","","","","","","",""
"html-keyboard-response","57","59144","0.0-5.0-2.17","63e51ddb19fccd05514c629c","bdp_td","Tue Mar 28 2023 18:29:54 GMT-0700 (Pacific Daylight Time)","79242","","993","","<div class='trialBorder'><div class='vertical-center'><img style='vertical-align:center; align:center' src=img/fixation3.jpg></div><div class='cl'><div class='vertical-center'>$30<br>in<br>2 weeks</div></div><div class='cr'><div class='vertical-center'>$11<br><br>now</div></div><div class='respDivL'><div class='vertical-center'>(E)</div></div><div class='respDivR'><div class='vertical-center'>(I)</div></div></div>","E","offer","$11<br><br>now","$30<br>in<br>2 weeks","1","11","30","2","THEN"
"html-keyboard-response","58","59396","0.0-5.0-3.17","63e51ddb19fccd05514c629c","bdp_td","Tue Mar 28 2023 18:29:54 GMT-0700 (Pacific Daylight Time)","79242","","null","","<div class='trialBorder'><div class='vertical-center'><img style='vertical-align:center; align:center' src=img/fixation3.jpg></div><div class='cl'><div class='vertical-center'><font style='color:orange'>$30<br>in<br>2 weeks</font></div></div><div class='cr'><div class='vertical-center'>$11<br><br>now</div></div><div class='respDivL'><div class='vertical-center'><font style='color:orange'>(E)</font></div></div><div class='respDivR'><div class='vertical-center'>(I)</div></div></div>","null","offerFB","$11<br><br>now","$30<br>in<br>2 weeks","1","11","30","2",""
"html-keyboard-response","59","59899","0.0-5.0-1.18","63e51ddb19fccd05514c629c","bdp_td","Tue Mar 28 2023 18:29:54 GMT-0700 (Pacific Daylight Time)","79242","","null","","<div class='trialBorder'><div class='vertical-center'><img style='vertical-align:center; align:center' src=img/fixation3.jpg></div></div>","null","FIX","","","","","","",""
"html-keyboard-response","60","61287","0.0-5.0-2.18","63e51ddb19fccd05514c629c","bdp_td","Tue Mar 28 2023 18:29:54 GMT-0700 (Pacific Daylight Time)","79242","","1386","","<div class='trialBorder'><div class='vertical-center'><img style='vertical-align:center; align:center' src=img/fixation3.jpg></div><div class='cl'><div class='vertical-center'>$60<br>in<br>12 weeks</div></div><div class='cr'><div class='vertical-center'>$54<br><br>now</div></div><div class='respDivL'><div class='vertical-center'>(E)</div></div><div class='respDivR'><div class='vertical-center'>(I)</div></div></div>","E","offer","$54<br><br>now","$60<br>in<br>12 weeks","1","54","60","12","THEN"
"html-keyboard-response","61","61541","0.0-5.0-3.18","63e51ddb19fccd05514c629c","bdp_td","Tue Mar 28 2023 18:29:54 GMT-0700 (Pacific Daylight Time)","79242","","null","","<div class='trialBorder'><div class='vertical-center'><img style='vertical-align:center; align:center' src=img/fixation3.jpg></div><div class='cl'><div class='vertical-center'><font style='color:orange'>$60<br>in<br>12 weeks</font></div></div><div class='cr'><div class='vertical-center'>$54<br><br>now</div></div><div class='respDivL'><div class='vertical-center'><font style='color:orange'>(E)</font></div></div><div class='respDivR'><div class='vertical-center'>(I)</div></div></div>","null","offerFB","$54<br><br>now","$60<br>in<br>12 weeks","1","54","60","12",""
"html-keyboard-response","62","62043","0.0-5.0-1.19","63e51ddb19fccd05514c629c","bdp_td","Tue Mar 28 2023 18:29:54 GMT-0700 (Pacific Daylight Time)","79242","","null","","<div class='trialBorder'><div class='vertical-center'><img style='vertical-align:center; align:center' src=img/fixation3.jpg></div></div>","null","FIX","","","","","","",""
"html-keyboard-response","63","63757","0.0-5.0-2.19","63e51ddb19fccd05514c629c","bdp_td","Tue Mar 28 2023 18:29:54 GMT-0700 (Pacific Daylight Time)","79242","","1713","","<div class='trialBorder'><div class='vertical-center'><img style='vertical-align:center; align:center' src=img/fixation3.jpg></div><div class='cl'><div class='vertical-center'>$28<br><br>now</div></div><div class='cr'><div class='vertical-center'>$30<br>in<br>12 weeks</div></div><div class='respDivL'><div class='vertical-center'>(E)</div></div><div class='respDivR'><div class='vertical-center'>(I)</div></div></div>","E","offer","$28<br><br>now","$30<br>in<br>12 weeks","0","28","30","12","NOW"
"html-keyboard-response","64","64011","0.0-5.0-3.19","63e51ddb19fccd05514c629c","bdp_td","Tue Mar 28 2023 18:29:54 GMT-0700 (Pacific Daylight Time)","79242","","null","","<div class='trialBorder'><div class='vertical-center'><img style='vertical-align:center; align:center' src=img/fixation3.jpg></div><div class='cl'><div class='vertical-center'><font style='color:orange'>$28<br><br>now</font></div></div><div class='cr'><div class='vertical-center'>$30<br>in<br>12 weeks</div></div><div class='respDivL'><div class='vertical-center'><font style='color:orange'>(E)</font></div></div><div class='respDivR'><div class='vertical-center'>(I)</div></div></div>","null","offerFB","$28<br><br>now","$30<br>in<br>12 weeks","0","28","30","12",""
"html-keyboard-response","65","64513","0.0-5.0-1.20","63e51ddb19fccd05514c629c","bdp_td","Tue Mar 28 2023 18:29:54 GMT-0700 (Pacific Daylight Time)","79242","","null","","<div class='trialBorder'><div class='vertical-center'><img style='vertical-align:center; align:center' src=img/fixation3.jpg></div></div>","null","FIX","","","","","","",""
"html-keyboard-response","66","65864","0.0-5.0-2.20","63e51ddb19fccd05514c629c","bdp_td","Tue Mar 28 2023 18:29:54 GMT-0700 (Pacific Daylight Time)","79242","","1349","","<div class='trialBorder'><div class='vertical-center'><img style='vertical-align:center; align:center' src=img/fixation3.jpg></div><div class='cl'><div class='vertical-center'>$54<br><br>now</div></div><div class='cr'><div class='vertical-center'>$80<br>in<br>3 weeks</div></div><div class='respDivL'><div class='vertical-center'>(E)</div></div><div class='respDivR'><div class='vertical-center'>(I)</div></div></div>","I","offer","$54<br><br>now","$80<br>in<br>3 weeks","0","54","80","3","THEN"
"html-keyboard-response","67","66117","0.0-5.0-3.20","63e51ddb19fccd05514c629c","bdp_td","Tue Mar 28 2023 18:29:54 GMT-0700 (Pacific Daylight Time)","79242","","null","","<div class='trialBorder'><div class='vertical-center'><img style='vertical-align:center; align:center' src=img/fixation3.jpg></div><div class='cl'><div class='vertical-center'>$54<br><br>now</div></div><div class='cr'><div class='vertical-center'><font style='color:orange'>$80<br>in<br>3 weeks</font></div></div><div class='respDivL'><div class='vertical-center'>(E)</div></div><div class='respDivR'><div class='vertical-center'><font style='color:orange'>(I)</font></div></div></div>","null","offerFB","$54<br><br>now","$80<br>in<br>3 weeks","0","54","80","3",""
"html-keyboard-response","68","66620","0.0-5.0-1.21","63e51ddb19fccd05514c629c","bdp_td","Tue Mar 28 2023 18:29:54 GMT-0700 (Pacific Daylight Time)","79242","","null","","<div class='trialBorder'><div class='vertical-center'><img style='vertical-align:center; align:center' src=img/fixation3.jpg></div></div>","null","FIX","","","","","","",""
"html-keyboard-response","69","68076","0.0-5.0-2.21","63e51ddb19fccd05514c629c","bdp_td","Tue Mar 28 2023 18:29:54 GMT-0700 (Pacific Daylight Time)","79242","","1454","","<div class='trialBorder'><div class='vertical-center'><img style='vertical-align:center; align:center' src=img/fixation3.jpg></div><div class='cl'><div class='vertical-center'>$54<br><br>now</div></div><div class='cr'><div class='vertical-center'>$55<br>in<br>12 weeks</div></div><div class='respDivL'><div class='vertical-center'>(E)</div></div><div class='respDivR'><div class='vertical-center'>(I)</div></div></div>","E","offer","$54<br><br>now","$55<br>in<br>12 weeks","0","54","55","12","NOW"
"html-keyboard-response","70","68329","0.0-5.0-3.21","63e51ddb19fccd05514c629c","bdp_td","Tue Mar 28 2023 18:29:54 GMT-0700 (Pacific Daylight Time)","79242","","null","","<div class='trialBorder'><div class='vertical-center'><img style='vertical-align:center; align:center' src=img/fixation3.jpg></div><div class='cl'><div class='vertical-center'><font style='color:orange'>$54<br><br>now</font></div></div><div class='cr'><div class='vertical-center'>$55<br>in<br>12 weeks</div></div><div class='respDivL'><div class='vertical-center'><font style='color:orange'>(E)</font></div></div><div class='respDivR'><div class='vertical-center'>(I)</div></div></div>","null","offerFB","$54<br><br>now","$55<br>in<br>12 weeks","0","54","55","12",""
"html-keyboard-response","71","68831","0.0-5.0-1.22","63e51ddb19fccd05514c629c","bdp_td","Tue Mar 28 2023 18:29:54 GMT-0700 (Pacific Daylight Time)","79242","","null","","<div class='trialBorder'><div class='vertical-center'><img style='vertical-align:center; align:center' src=img/fixation3.jpg></div></div>","null","FIX","","","","","","",""
"html-keyboard-response","72","70254","0.0-5.0-2.22","63e51ddb19fccd05514c629c","bdp_td","Tue Mar 28 2023 18:29:54 GMT-0700 (Pacific Daylight Time)","79242","","1422","","<div class='trialBorder'><div class='vertical-center'><img style='vertical-align:center; align:center' src=img/fixation3.jpg></div><div class='cl'><div class='vertical-center'>$25<br>in<br>12 weeks</div></div><div class='cr'><div class='vertical-center'>$22<br><br>now</div></div><div class='respDivL'><div class='vertical-center'>(E)</div></div><div class='respDivR'><div class='vertical-center'>(I)</div></div></div>","I","offer","$22<br><br>now","$25<br>in<br>12 weeks","1","22","25","12","NOW"
"html-keyboard-response","73","70508","0.0-5.0-3.22","63e51ddb19fccd05514c629c","bdp_td","Tue Mar 28 2023 18:29:54 GMT-0700 (Pacific Daylight Time)","79242","","null","","<div class='trialBorder'><div class='vertical-center'><img style='vertical-align:center; align:center' src=img/fixation3.jpg></div><div class='cl'><div class='vertical-center'>$25<br>in<br>12 weeks</div></div><div class='cr'><div class='vertical-center'><font style='color:orange'>$22<br><br>now</font></div></div><div class='respDivL'><div class='vertical-center'>(E)</div></div><div class='respDivR'><div class='vertical-center'><font style='color:orange'>(I)</font></div></div></div>","null","offerFB","$22<br><br>now","$25<br>in<br>12 weeks","1","22","25","12",""
"html-keyboard-response","74","71010","0.0-5.0-1.23","63e51ddb19fccd05514c629c","bdp_td","Tue Mar 28 2023 18:29:54 GMT-0700 (Pacific Daylight Time)","79242","","null","","<div class='trialBorder'><div class='vertical-center'><img style='vertical-align:center; align:center' src=img/fixation3.jpg></div></div>","null","FIX","","","","","","",""
"html-keyboard-response","75","72160","0.0-5.0-2.23","63e51ddb19fccd05514c629c","bdp_td","Tue Mar 28 2023 18:29:54 GMT-0700 (Pacific Daylight Time)","79242","","1149","","<div class='trialBorder'><div class='vertical-center'><img style='vertical-align:center; align:center' src=img/fixation3.jpg></div><div class='cl'><div class='vertical-center'>$33<br><br>now</div></div><div class='cr'><div class='vertical-center'>$80<br>in<br>2 weeks</div></div><div class='respDivL'><div class='vertical-center'>(E)</div></div><div class='respDivR'><div class='vertical-center'>(I)</div></div></div>","I","offer","$33<br><br>now","$80<br>in<br>2 weeks","0","33","80","2","THEN"
"html-keyboard-response","76","72411","0.0-5.0-3.23","63e51ddb19fccd05514c629c","bdp_td","Tue Mar 28 2023 18:29:54 GMT-0700 (Pacific Daylight Time)","79242","","null","","<div class='trialBorder'><div class='vertical-center'><img style='vertical-align:center; align:center' src=img/fixation3.jpg></div><div class='cl'><div class='vertical-center'>$33<br><br>now</div></div><div class='cr'><div class='vertical-center'><font style='color:orange'>$80<br>in<br>2 weeks</font></div></div><div class='respDivL'><div class='vertical-center'>(E)</div></div><div class='respDivR'><div class='vertical-center'><font style='color:orange'>(I)</font></div></div></div>","null","offerFB","$33<br><br>now","$80<br>in<br>2 weeks","0","33","80","2",""
"html-keyboard-response","77","72913","0.0-5.0-1.24","63e51ddb19fccd05514c629c","bdp_td","Tue Mar 28 2023 18:29:54 GMT-0700 (Pacific Daylight Time)","79242","","null","","<div class='trialBorder'><div class='vertical-center'><img style='vertical-align:center; align:center' src=img/fixation3.jpg></div></div>","null","FIX","","","","","","",""
"html-keyboard-response","78","74136","0.0-5.0-2.24","63e51ddb19fccd05514c629c","bdp_td","Tue Mar 28 2023 18:29:54 GMT-0700 (Pacific Daylight Time)","79242","","1220","","<div class='trialBorder'><div class='vertical-center'><img style='vertical-align:center; align:center' src=img/fixation3.jpg></div><div class='cl'><div class='vertical-center'>$47<br><br>now</div></div><div class='cr'><div class='vertical-center'>$50<br>in<br>12 weeks</div></div><div class='respDivL'><div class='vertical-center'>(E)</div></div><div class='respDivR'><div class='vertical-center'>(I)</div></div></div>","E","offer","$47<br><br>now","$50<br>in<br>12 weeks","0","47","50","12","NOW"
"html-keyboard-response","79","74389","0.0-5.0-3.24","63e51ddb19fccd05514c629c","bdp_td","Tue Mar 28 2023 18:29:54 GMT-0700 (Pacific Daylight Time)","79242","","null","","<div class='trialBorder'><div class='vertical-center'><img style='vertical-align:center; align:center' src=img/fixation3.jpg></div><div class='cl'><div class='vertical-center'><font style='color:orange'>$47<br><br>now</font></div></div><div class='cr'><div class='vertical-center'>$50<br>in<br>12 weeks</div></div><div class='respDivL'><div class='vertical-center'><font style='color:orange'>(E)</font></div></div><div class='respDivR'><div class='vertical-center'>(I)</div></div></div>","null","offerFB","$47<br><br>now","$50<br>in<br>12 weeks","0","47","50","12",""
"html-keyboard-response","80","74892","0.0-5.0-1.25","63e51ddb19fccd05514c629c","bdp_td","Tue Mar 28 2023 18:29:54 GMT-0700 (Pacific Daylight Time)","79242","","null","","<div class='trialBorder'><div class='vertical-center'><img style='vertical-align:center; align:center' src=img/fixation3.jpg></div></div>","null","FIX","","","","","","",""
"html-keyboard-response","81","75977","0.0-5.0-2.25","63e51ddb19fccd05514c629c","bdp_td","Tue Mar 28 2023 18:29:54 GMT-0700 (Pacific Daylight Time)","79242","","1081","","<div class='trialBorder'><div class='vertical-center'><img style='vertical-align:center; align:center' src=img/fixation3.jpg></div><div class='cl'><div class='vertical-center'>$31<br><br>now</div></div><div class='cr'><div class='vertical-center'>$85<br>in<br>1 week</div></div><div class='respDivL'><div class='vertical-center'>(E)</div></div><div class='respDivR'><div class='vertical-center'>(I)</div></div></div>","I","offer","$31<br><br>now","$85<br>in<br>1 week","0","31","85","1","THEN"
"html-keyboard-response","82","76229","0.0-5.0-3.25","63e51ddb19fccd05514c629c","bdp_td","Tue Mar 28 2023 18:29:54 GMT-0700 (Pacific Daylight Time)","79242","","null","","<div class='trialBorder'><div class='vertical-center'><img style='vertical-align:center; align:center' src=img/fixation3.jpg></div><div class='cl'><div class='vertical-center'>$31<br><br>now</div></div><div class='cr'><div class='vertical-center'><font style='color:orange'>$85<br>in<br>1 week</font></div></div><div class='respDivL'><div class='vertical-center'>(E)</div></div><div class='respDivR'><div class='vertical-center'><font style='color:orange'>(I)</font></div></div></div>","null","offerFB","$31<br><br>now","$85<br>in<br>1 week","0","31","85","1",""
"html-keyboard-response","83","76732","0.0-5.0-1.26","63e51ddb19fccd05514c629c","bdp_td","Tue Mar 28 2023 18:29:54 GMT-0700 (Pacific Daylight Time)","79242","","null","","<div class='trialBorder'><div class='vertical-center'><img style='vertical-align:center; align:center' src=img/fixation3.jpg></div></div>","null","FIX","","","","","","",""
"html-keyboard-response","84","77987","0.0-5.0-2.26","63e51ddb19fccd05514c629c","bdp_td","Tue Mar 28 2023 18:29:54 GMT-0700 (Pacific Daylight Time)","79242","","1253","","<div class='trialBorder'><div class='vertical-center'><img style='vertical-align:center; align:center' src=img/fixation3.jpg></div><div class='cl'><div class='vertical-center'>$75<br>in<br>6 weeks</div></div><div class='cr'><div class='vertical-center'>$55<br><br>now</div></div><div class='respDivL'><div class='vertical-center'>(E)</div></div><div class='respDivR'><div class='vertical-center'>(I)</div></div></div>","E","offer","$55<br><br>now","$75<br>in<br>6 weeks","1","55","75","6","THEN"
"html-keyboard-response","85","78240","0.0-5.0-3.26","63e51ddb19fccd05514c629c","bdp_td","Tue Mar 28 2023 18:29:54 GMT-0700 (Pacific Daylight Time)","79242","","null","","<div class='trialBorder'><div class='vertical-center'><img style='vertical-align:center; align:center' src=img/fixation3.jpg></div><div class='cl'><div class='vertical-center'><font style='color:orange'>$75<br>in<br>6 weeks</font></div></div><div class='cr'><div class='vertical-center'>$55<br><br>now</div></div><div class='respDivL'><div class='vertical-center'><font style='color:orange'>(E)</font></div></div><div class='respDivR'><div class='vertical-center'>(I)</div></div></div>","null","offerFB","$55<br><br>now","$75<br>in<br>6 weeks","1","55","75","6",""
"fullscreen","86","79241","0.0-6.0","63e51ddb19fccd05514c629c","bdp_td","Tue Mar 28 2023 18:29:54 GMT-0700 (Pacific Daylight Time)","79242","","","true","","","","","","","","","",""
"html-keyboard-response","87","79742","0.0-7.0","","","","","","null","","","null","","","","","","","",""
