"trial_type","trial_index","time_elapsed","internal_node_id","subject_id","task","startTime","totalTime","view_history","rt","event","trial","time","trialtype","success","stimulus","key_press","nowOffer","thenOffer","thenLeft","nowAmt","thenAmt","thenWeeks","chosen"
"pavlovia","0","8","0.0-0.0","63614cab87b22b72231c66e0","bdp_td","Sat Mar 25 2023 21:11:16 GMT-0400 (Eastern Daylight Time)","95151","","","","","","","","","","","","","","","",""
"instructions","1","786","0.0-1.0","63614cab87b22b72231c66e0","bdp_td","Sat Mar 25 2023 21:11:16 GMT-0400 (Eastern Daylight Time)","95151","[{""page_index"":0,""viewing_time"":775}]","776","","","","","","","","","","","","","",""
"","","","","63614cab87b22b72231c66e0","bdp_td","Sat Mar 25 2023 21:11:16 GMT-0400 (Eastern Daylight Time)","95151","","","fullscreenenter","2","3034","fullscreenenter","","","","","","","","","",""
"fullscreen","2","4021","0.0-2.0","63614cab87b22b72231c66e0","bdp_td","Sat Mar 25 2023 21:11:16 GMT-0400 (Eastern Daylight Time)","95151","","","","","","","true","","","","","","","","",""
"instructions","3","36740","0.0-4.0","63614cab87b22b72231c66e0","bdp_td","Sat Mar 25 2023 21:11:16 GMT-0400 (Eastern Daylight Time)","95151","[{""page_index"":0,""viewing_time"":27604},{""page_index"":1,""viewing_time"":3080},{""page_index"":2,""viewing_time"":2023}]","32709","","","","","","","","","","","","","",""
"html-keyboard-response","4","37247","0.0-5.0-1.0","63614cab87b22b72231c66e0","bdp_td","Sat Mar 25 2023 21:11:16 GMT-0400 (Eastern Daylight Time)","95151","","null","","","","FIX","","<div class='trialBorder'><div class='vertical-center'><img style='vertical-align:center; align:center' src=img/fixation3.jpg></div></div>","null","","","","","","",""
"html-keyboard-response","5","38953","0.0-5.0-2.0","63614cab87b22b72231c66e0","bdp_td","Sat Mar 25 2023 21:11:16 GMT-0400 (Eastern Daylight Time)","95151","","1700","","","","offer","","<div class='trialBorder'><div class='vertical-center'><img style='vertical-align:center; align:center' src=img/fixation3.jpg></div><div class='cl'><div class='vertical-center'>$25<br>in<br>3 weeks</div></div><div class='cr'><div class='vertical-center'>$14<br><br>now</div></div><div class='respDivL'><div class='vertical-center'>(E)</div></div><div class='respDivR'><div class='vertical-center'>(I)</div></div></div>","I","$14<br><br>now","$25<br>in<br>3 weeks","1","14","25","3","NOW"
"html-keyboard-response","6","39213","0.0-5.0-3.0","63614cab87b22b72231c66e0","bdp_td","Sat Mar 25 2023 21:11:16 GMT-0400 (Eastern Daylight Time)","95151","","null","","","","offerFB","","<div class='trialBorder'><div class='vertical-center'><img style='vertical-align:center; align:center' src=img/fixation3.jpg></div><div class='cl'><div class='vertical-center'>$25<br>in<br>3 weeks</div></div><div class='cr'><div class='vertical-center'><font style='color:orange'>$14<br><br>now</font></div></div><div class='respDivL'><div class='vertical-center'>(E)</div></div><div class='respDivR'><div class='vertical-center'><font style='color:orange'>(I)</font></div></div></div>","null","$14<br><br>now","$25<br>in<br>3 weeks","1","14","25","3",""
"html-keyboard-response","7","39717","0.0-5.0-1.1","63614cab87b22b72231c66e0","bdp_td","Sat Mar 25 2023 21:11:16 GMT-0400 (Eastern Daylight Time)","95151","","null","","","","FIX","","<div class='trialBorder'><div class='vertical-center'><img style='vertical-align:center; align:center' src=img/fixation3.jpg></div></div>","null","","","","","","",""
"html-keyboard-response","8","41253","0.0-5.0-2.1","63614cab87b22b72231c66e0","bdp_td","Sat Mar 25 2023 21:11:16 GMT-0400 (Eastern Daylight Time)","95151","","1532","","","","offer","","<div class='trialBorder'><div class='vertical-center'><img style='vertical-align:center; align:center' src=img/fixation3.jpg></div><div class='cl'><div class='vertical-center'>$15<br><br>now</div></div><div class='cr'><div class='vertical-center'>$35<br>in<br>2 weeks</div></div><div class='respDivL'><div class='vertical-center'>(E)</div></div><div class='respDivR'><div class='vertical-center'>(I)</div></div></div>","E","$15<br><br>now","$35<br>in<br>2 weeks","0","15","35","2","NOW"
"html-keyboard-response","9","41509","0.0-5.0-3.1","63614cab87b22b72231c66e0","bdp_td","Sat Mar 25 2023 21:11:16 GMT-0400 (Eastern Daylight Time)","95151","","null","","","","offerFB","","<div class='trialBorder'><div class='vertical-center'><img style='vertical-align:center; align:center' src=img/fixation3.jpg></div><div class='cl'><div class='vertical-center'><font style='color:orange'>$15<br><br>now</font></div></div><div class='cr'><div class='vertical-center'>$35<br>in<br>2 weeks</div></div><div class='respDivL'><div class='vertical-center'><font style='color:orange'>(E)</font></div></div><div class='respDivR'><div class='vertical-center'>(I)</div></div></div>","null","$15<br><br>now","$35<br>in<br>2 weeks","0","15","35","2",""
"html-keyboard-response","10","42013","0.0-5.0-1.2","63614cab87b22b72231c66e0","bdp_td","Sat Mar 25 2023 21:11:16 GMT-0400 (Eastern Daylight Time)","95151","","null","","","","FIX","","<div class='trialBorder'><div class='vertical-center'><img style='vertical-align:center; align:center' src=img/fixation3.jpg></div></div>","null","","","","","","",""
"html-keyboard-response","11","43904","0.0-5.0-2.2","63614cab87b22b72231c66e0","bdp_td","Sat Mar 25 2023 21:11:16 GMT-0400 (Eastern Daylight Time)","95151","","1887","","","","offer","","<div class='trialBorder'><div class='vertical-center'><img style='vertical-align:center; align:center' src=img/fixation3.jpg></div><div class='cl'><div class='vertical-center'>$30<br>in<br>6 weeks</div></div><div class='cr'><div class='vertical-center'>$25<br><br>now</div></div><div class='respDivL'><div class='vertical-center'>(E)</div></div><div class='respDivR'><div class='vertical-center'>(I)</div></div></div>","I","$25<br><br>now","$30<br>in<br>6 weeks","1","25","30","6","NOW"
"html-keyboard-response","12","44165","0.0-5.0-3.2","63614cab87b22b72231c66e0","bdp_td","Sat Mar 25 2023 21:11:16 GMT-0400 (Eastern Daylight Time)","95151","","null","","","","offerFB","","<div class='trialBorder'><div class='vertical-center'><img style='vertical-align:center; align:center' src=img/fixation3.jpg></div><div class='cl'><div class='vertical-center'>$30<br>in<br>6 weeks</div></div><div class='cr'><div class='vertical-center'><font style='color:orange'>$25<br><br>now</font></div></div><div class='respDivL'><div class='vertical-center'>(E)</div></div><div class='respDivR'><div class='vertical-center'><font style='color:orange'>(I)</font></div></div></div>","null","$25<br><br>now","$30<br>in<br>6 weeks","1","25","30","6",""
"html-keyboard-response","13","44669","0.0-5.0-1.3","63614cab87b22b72231c66e0","bdp_td","Sat Mar 25 2023 21:11:16 GMT-0400 (Eastern Daylight Time)","95151","","null","","","","FIX","","<div class='trialBorder'><div class='vertical-center'><img style='vertical-align:center; align:center' src=img/fixation3.jpg></div></div>","null","","","","","","",""
"html-keyboard-response","14","45990","0.0-5.0-2.3","63614cab87b22b72231c66e0","bdp_td","Sat Mar 25 2023 21:11:16 GMT-0400 (Eastern Daylight Time)","95151","","1315","","","","offer","","<div class='trialBorder'><div class='vertical-center'><img style='vertical-align:center; align:center' src=img/fixation3.jpg></div><div class='cl'><div class='vertical-center'>$55<br>in<br>12 weeks</div></div><div class='cr'><div class='vertical-center'>$54<br><br>now</div></div><div class='respDivL'><div class='vertical-center'>(E)</div></div><div class='respDivR'><div class='vertical-center'>(I)</div></div></div>","I","$54<br><br>now","$55<br>in<br>12 weeks","1","54","55","12","NOW"
"html-keyboard-response","15","46245","0.0-5.0-3.3","63614cab87b22b72231c66e0","bdp_td","Sat Mar 25 2023 21:11:16 GMT-0400 (Eastern Daylight Time)","95151","","null","","","","offerFB","","<div class='trialBorder'><div class='vertical-center'><img style='vertical-align:center; align:center' src=img/fixation3.jpg></div><div class='cl'><div class='vertical-center'>$55<br>in<br>12 weeks</div></div><div class='cr'><div class='vertical-center'><font style='color:orange'>$54<br><br>now</font></div></div><div class='respDivL'><div class='vertical-center'>(E)</div></div><div class='respDivR'><div class='vertical-center'><font style='color:orange'>(I)</font></div></div></div>","null","$54<br><br>now","$55<br>in<br>12 weeks","1","54","55","12",""
"html-keyboard-response","16","46749","0.0-5.0-1.4","63614cab87b22b72231c66e0","bdp_td","Sat Mar 25 2023 21:11:16 GMT-0400 (Eastern Daylight Time)","95151","","null","","","","FIX","","<div class='trialBorder'><div class='vertical-center'><img style='vertical-align:center; align:center' src=img/fixation3.jpg></div></div>","null","","","","","","",""
"html-keyboard-response","17","48658","0.0-5.0-2.4","63614cab87b22b72231c66e0","bdp_td","Sat Mar 25 2023 21:11:16 GMT-0400 (Eastern Daylight Time)","95151","","1905","","","","offer","","<div class='trialBorder'><div class='vertical-center'><img style='vertical-align:center; align:center' src=img/fixation3.jpg></div><div class='cl'><div class='vertical-center'>$31<br><br>now</div></div><div class='cr'><div class='vertical-center'>$85<br>in<br>1 week</div></div><div class='respDivL'><div class='vertical-center'>(E)</div></div><div class='respDivR'><div class='vertical-center'>(I)</div></div></div>","I","$31<br><br>now","$85<br>in<br>1 week","0","31","85","1","THEN"
"html-keyboard-response","18","48917","0.0-5.0-3.4","63614cab87b22b72231c66e0","bdp_td","Sat Mar 25 2023 21:11:16 GMT-0400 (Eastern Daylight Time)","95151","","null","","","","offerFB","","<div class='trialBorder'><div class='vertical-center'><img style='vertical-align:center; align:center' src=img/fixation3.jpg></div><div class='cl'><div class='vertical-center'>$31<br><br>now</div></div><div class='cr'><div class='vertical-center'><font style='color:orange'>$85<br>in<br>1 week</font></div></div><div class='respDivL'><div class='vertical-center'>(E)</div></div><div class='respDivR'><div class='vertical-center'><font style='color:orange'>(I)</font></div></div></div>","null","$31<br><br>now","$85<br>in<br>1 week","0","31","85","1",""
"html-keyboard-response","19","49421","0.0-5.0-1.5","63614cab87b22b72231c66e0","bdp_td","Sat Mar 25 2023 21:11:16 GMT-0400 (Eastern Daylight Time)","95151","","null","","","","FIX","","<div class='trialBorder'><div class='vertical-center'><img style='vertical-align:center; align:center' src=img/fixation3.jpg></div></div>","null","","","","","","",""
"html-keyboard-response","20","50507","0.0-5.0-2.5","63614cab87b22b72231c66e0","bdp_td","Sat Mar 25 2023 21:11:16 GMT-0400 (Eastern Daylight Time)","95151","","1083","","","","offer","","<div class='trialBorder'><div class='vertical-center'><img style='vertical-align:center; align:center' src=img/fixation3.jpg></div><div class='cl'><div class='vertical-center'>$55<br><br>now</div></div><div class='cr'><div class='vertical-center'>$75<br>in<br>6 weeks</div></div><div class='respDivL'><div class='vertical-center'>(E)</div></div><div class='respDivR'><div class='vertical-center'>(I)</div></div></div>","E","$55<br><br>now","$75<br>in<br>6 weeks","0","55","75","6","NOW"
"html-keyboard-response","21","50765","0.0-5.0-3.5","63614cab87b22b72231c66e0","bdp_td","Sat Mar 25 2023 21:11:16 GMT-0400 (Eastern Daylight Time)","95151","","null","","","","offerFB","","<div class='trialBorder'><div class='vertical-center'><img style='vertical-align:center; align:center' src=img/fixation3.jpg></div><div class='cl'><div class='vertical-center'><font style='color:orange'>$55<br><br>now</font></div></div><div class='cr'><div class='vertical-center'>$75<br>in<br>6 weeks</div></div><div class='respDivL'><div class='vertical-center'><font style='color:orange'>(E)</font></div></div><div class='respDivR'><div class='vertical-center'>(I)</div></div></div>","null","$55<br><br>now","$75<br>in<br>6 weeks","0","55","75","6",""
"html-keyboard-response","22","51269","0.0-5.0-1.6","63614cab87b22b72231c66e0","bdp_td","Sat Mar 25 2023 21:11:16 GMT-0400 (Eastern Daylight Time)","95151","","null","","","","FIX","","<div class='trialBorder'><div class='vertical-center'><img style='vertical-align:center; align:center' src=img/fixation3.jpg></div></div>","null","","","","","","",""
"html-keyboard-response","23","53025","0.0-5.0-2.6","63614cab87b22b72231c66e0","bdp_td","Sat Mar 25 2023 21:11:16 GMT-0400 (Eastern Daylight Time)","95151","","1752","","","","offer","","<div class='trialBorder'><div class='vertical-center'><img style='vertical-align:center; align:center' src=img/fixation3.jpg></div><div class='cl'><div class='vertical-center'>$60<br>in<br>3 weeks</div></div><div class='cr'><div class='vertical-center'>$25<br><br>now</div></div><div class='respDivL'><div class='vertical-center'>(E)</div></div><div class='respDivR'><div class='vertical-center'>(I)</div></div></div>","I","$25<br><br>now","$60<br>in<br>3 weeks","1","25","60","3","NOW"
"html-keyboard-response","24","53285","0.0-5.0-3.6","63614cab87b22b72231c66e0","bdp_td","Sat Mar 25 2023 21:11:16 GMT-0400 (Eastern Daylight Time)","95151","","null","","","","offerFB","","<div class='trialBorder'><div class='vertical-center'><img style='vertical-align:center; align:center' src=img/fixation3.jpg></div><div class='cl'><div class='vertical-center'>$60<br>in<br>3 weeks</div></div><div class='cr'><div class='vertical-center'><font style='color:orange'>$25<br><br>now</font></div></div><div class='respDivL'><div class='vertical-center'>(E)</div></div><div class='respDivR'><div class='vertical-center'><font style='color:orange'>(I)</font></div></div></div>","null","$25<br><br>now","$60<br>in<br>3 weeks","1","25","60","3",""
"html-keyboard-response","25","53789","0.0-5.0-1.7","63614cab87b22b72231c66e0","bdp_td","Sat Mar 25 2023 21:11:16 GMT-0400 (Eastern Daylight Time)","95151","","null","","","","FIX","","<div class='trialBorder'><div class='vertical-center'><img style='vertical-align:center; align:center' src=img/fixation3.jpg></div></div>","null","","","","","","",""
"html-keyboard-response","26","56218","0.0-5.0-2.7","63614cab87b22b72231c66e0","bdp_td","Sat Mar 25 2023 21:11:16 GMT-0400 (Eastern Daylight Time)","95151","","2426","","","","offer","","<div class='trialBorder'><div class='vertical-center'><img style='vertical-align:center; align:center' src=img/fixation3.jpg></div><div class='cl'><div class='vertical-center'>$54<br><br>now</div></div><div class='cr'><div class='vertical-center'>$60<br>in<br>12 weeks</div></div><div class='respDivL'><div class='vertical-center'>(E)</div></div><div class='respDivR'><div class='vertical-center'>(I)</div></div></div>","E","$54<br><br>now","$60<br>in<br>12 weeks","0","54","60","12","NOW"
"html-keyboard-response","27","56478","0.0-5.0-3.7","63614cab87b22b72231c66e0","bdp_td","Sat Mar 25 2023 21:11:16 GMT-0400 (Eastern Daylight Time)","95151","","null","","","","offerFB","","<div class='trialBorder'><div class='vertical-center'><img style='vertical-align:center; align:center' src=img/fixation3.jpg></div><div class='cl'><div class='vertical-center'><font style='color:orange'>$54<br><br>now</font></div></div><div class='cr'><div class='vertical-center'>$60<br>in<br>12 weeks</div></div><div class='respDivL'><div class='vertical-center'><font style='color:orange'>(E)</font></div></div><div class='respDivR'><div class='vertical-center'>(I)</div></div></div>","null","$54<br><br>now","$60<br>in<br>12 weeks","0","54","60","12",""
"html-keyboard-response","28","56981","0.0-5.0-1.8","63614cab87b22b72231c66e0","bdp_td","Sat Mar 25 2023 21:11:16 GMT-0400 (Eastern Daylight Time)","95151","","null","","","","FIX","","<div class='trialBorder'><div class='vertical-center'><img style='vertical-align:center; align:center' src=img/fixation3.jpg></div></div>","null","","","","","","",""
"html-keyboard-response","29","58831","0.0-5.0-2.8","63614cab87b22b72231c66e0","bdp_td","Sat Mar 25 2023 21:11:16 GMT-0400 (Eastern Daylight Time)","95151","","1846","","","","offer","","<div class='trialBorder'><div class='vertical-center'><img style='vertical-align:center; align:center' src=img/fixation3.jpg></div><div class='cl'><div class='vertical-center'>$85<br>in<br>6 weeks</div></div><div class='cr'><div class='vertical-center'>$69<br><br>now</div></div><div class='respDivL'><div class='vertical-center'>(E)</div></div><div class='respDivR'><div class='vertical-center'>(I)</div></div></div>","I","$69<br><br>now","$85<br>in<br>6 weeks","1","69","85","6","NOW"
"html-keyboard-response","30","59085","0.0-5.0-3.8","63614cab87b22b72231c66e0","bdp_td","Sat Mar 25 2023 21:11:16 GMT-0400 (Eastern Daylight Time)","95151","","null","","","","offerFB","","<div class='trialBorder'><div class='vertical-center'><img style='vertical-align:center; align:center' src=img/fixation3.jpg></div><div class='cl'><div class='vertical-center'>$85<br>in<br>6 weeks</div></div><div class='cr'><div class='vertical-center'><font style='color:orange'>$69<br><br>now</font></div></div><div class='respDivL'><div class='vertical-center'>(E)</div></div><div class='respDivR'><div class='vertical-center'><font style='color:orange'>(I)</font></div></div></div>","null","$69<br><br>now","$85<br>in<br>6 weeks","1","69","85","6",""
"html-keyboard-response","31","59589","0.0-5.0-1.9","63614cab87b22b72231c66e0","bdp_td","Sat Mar 25 2023 21:11:16 GMT-0400 (Eastern Daylight Time)","95151","","null","","","","FIX","","<div class='trialBorder'><div class='vertical-center'><img style='vertical-align:center; align:center' src=img/fixation3.jpg></div></div>","null","","","","","","",""
"html-keyboard-response","32","61048","0.0-5.0-2.9","63614cab87b22b72231c66e0","bdp_td","Sat Mar 25 2023 21:11:16 GMT-0400 (Eastern Daylight Time)","95151","","1455","","","","offer","","<div class='trialBorder'><div class='vertical-center'><img style='vertical-align:center; align:center' src=img/fixation3.jpg></div><div class='cl'><div class='vertical-center'>$60<br>in<br>6 weeks</div></div><div class='cr'><div class='vertical-center'>$49<br><br>now</div></div><div class='respDivL'><div class='vertical-center'>(E)</div></div><div class='respDivR'><div class='vertical-center'>(I)</div></div></div>","I","$49<br><br>now","$60<br>in<br>6 weeks","1","49","60","6","NOW"
"html-keyboard-response","33","61310","0.0-5.0-3.9","63614cab87b22b72231c66e0","bdp_td","Sat Mar 25 2023 21:11:16 GMT-0400 (Eastern Daylight Time)","95151","","null","","","","offerFB","","<div class='trialBorder'><div class='vertical-center'><img style='vertical-align:center; align:center' src=img/fixation3.jpg></div><div class='cl'><div class='vertical-center'>$60<br>in<br>6 weeks</div></div><div class='cr'><div class='vertical-center'><font style='color:orange'>$49<br><br>now</font></div></div><div class='respDivL'><div class='vertical-center'>(E)</div></div><div class='respDivR'><div class='vertical-center'><font style='color:orange'>(I)</font></div></div></div>","null","$49<br><br>now","$60<br>in<br>6 weeks","1","49","60","6",""
"html-keyboard-response","34","61813","0.0-5.0-1.10","63614cab87b22b72231c66e0","bdp_td","Sat Mar 25 2023 21:11:16 GMT-0400 (Eastern Daylight Time)","95151","","null","","","","FIX","","<div class='trialBorder'><div class='vertical-center'><img style='vertical-align:center; align:center' src=img/fixation3.jpg></div></div>","null","","","","","","",""
"html-keyboard-response","35","63005","0.0-5.0-2.10","63614cab87b22b72231c66e0","bdp_td","Sat Mar 25 2023 21:11:16 GMT-0400 (Eastern Daylight Time)","95151","","1188","","","","offer","","<div class='trialBorder'><div class='vertical-center'><img style='vertical-align:center; align:center' src=img/fixation3.jpg></div><div class='cl'><div class='vertical-center'>$80<br>in<br>3 weeks</div></div><div class='cr'><div class='vertical-center'>$54<br><br>now</div></div><div class='respDivL'><div class='vertical-center'>(E)</div></div><div class='respDivR'><div class='vertical-center'>(I)</div></div></div>","I","$54<br><br>now","$80<br>in<br>3 weeks","1","54","80","3","NOW"
"html-keyboard-response","36","63270","0.0-5.0-3.10","63614cab87b22b72231c66e0","bdp_td","Sat Mar 25 2023 21:11:16 GMT-0400 (Eastern Daylight Time)","95151","","null","","","","offerFB","","<div class='trialBorder'><div class='vertical-center'><img style='vertical-align:center; align:center' src=img/fixation3.jpg></div><div class='cl'><div class='vertical-center'>$80<br>in<br>3 weeks</div></div><div class='cr'><div class='vertical-center'><font style='color:orange'>$54<br><br>now</font></div></div><div class='respDivL'><div class='vertical-center'>(E)</div></div><div class='respDivR'><div class='vertical-center'><font style='color:orange'>(I)</font></div></div></div>","null","$54<br><br>now","$80<br>in<br>3 weeks","1","54","80","3",""
"html-keyboard-response","37","63773","0.0-5.0-1.11","63614cab87b22b72231c66e0","bdp_td","Sat Mar 25 2023 21:11:16 GMT-0400 (Eastern Daylight Time)","95151","","null","","","","FIX","","<div class='trialBorder'><div class='vertical-center'><img style='vertical-align:center; align:center' src=img/fixation3.jpg></div></div>","null","","","","","","",""
"html-keyboard-response","38","65265","0.0-5.0-2.11","63614cab87b22b72231c66e0","bdp_td","Sat Mar 25 2023 21:11:16 GMT-0400 (Eastern Daylight Time)","95151","","1487","","","","offer","","<div class='trialBorder'><div class='vertical-center'><img style='vertical-align:center; align:center' src=img/fixation3.jpg></div><div class='cl'><div class='vertical-center'>$30<br>in<br>12 weeks</div></div><div class='cr'><div class='vertical-center'>$28<br><br>now</div></div><div class='respDivL'><div class='vertical-center'>(E)</div></div><div class='respDivR'><div class='vertical-center'>(I)</div></div></div>","I","$28<br><br>now","$30<br>in<br>12 weeks","1","28","30","12","NOW"
"html-keyboard-response","39","65526","0.0-5.0-3.11","63614cab87b22b72231c66e0","bdp_td","Sat Mar 25 2023 21:11:16 GMT-0400 (Eastern Daylight Time)","95151","","null","","","","offerFB","","<div class='trialBorder'><div class='vertical-center'><img style='vertical-align:center; align:center' src=img/fixation3.jpg></div><div class='cl'><div class='vertical-center'>$30<br>in<br>12 weeks</div></div><div class='cr'><div class='vertical-center'><font style='color:orange'>$28<br><br>now</font></div></div><div class='respDivL'><div class='vertical-center'>(E)</div></div><div class='respDivR'><div class='vertical-center'><font style='color:orange'>(I)</font></div></div></div>","null","$28<br><br>now","$30<br>in<br>12 weeks","1","28","30","12",""
"html-keyboard-response","40","66029","0.0-5.0-1.12","63614cab87b22b72231c66e0","bdp_td","Sat Mar 25 2023 21:11:16 GMT-0400 (Eastern Daylight Time)","95151","","null","","","","FIX","","<div class='trialBorder'><div class='vertical-center'><img style='vertical-align:center; align:center' src=img/fixation3.jpg></div></div>","null","","","","","","",""
"html-keyboard-response","41","67631","0.0-5.0-2.12","63614cab87b22b72231c66e0","bdp_td","Sat Mar 25 2023 21:11:16 GMT-0400 (Eastern Daylight Time)","95151","","1600","","","","offer","","<div class='trialBorder'><div class='vertical-center'><img style='vertical-align:center; align:center' src=img/fixation3.jpg></div><div class='cl'><div class='vertical-center'>$22<br><br>now</div></div><div class='cr'><div class='vertical-center'>$25<br>in<br>12 weeks</div></div><div class='respDivL'><div class='vertical-center'>(E)</div></div><div class='respDivR'><div class='vertical-center'>(I)</div></div></div>","E","$22<br><br>now","$25<br>in<br>12 weeks","0","22","25","12","NOW"
"html-keyboard-response","42","67894","0.0-5.0-3.12","63614cab87b22b72231c66e0","bdp_td","Sat Mar 25 2023 21:11:16 GMT-0400 (Eastern Daylight Time)","95151","","null","","","","offerFB","","<div class='trialBorder'><div class='vertical-center'><img style='vertical-align:center; align:center' src=img/fixation3.jpg></div><div class='cl'><div class='vertical-center'><font style='color:orange'>$22<br><br>now</font></div></div><div class='cr'><div class='vertical-center'>$25<br>in<br>12 weeks</div></div><div class='respDivL'><div class='vertical-center'><font style='color:orange'>(E)</font></div></div><div class='respDivR'><div class='vertical-center'>(I)</div></div></div>","null","$22<br><br>now","$25<br>in<br>12 weeks","0","22","25","12",""
"html-keyboard-response","43","68397","0.0-5.0-1.13","63614cab87b22b72231c66e0","bdp_td","Sat Mar 25 2023 21:11:16 GMT-0400 (Eastern Daylight Time)","95151","","null","","","","FIX","","<div class='trialBorder'><div class='vertical-center'><img style='vertical-align:center; align:center' src=img/fixation3.jpg></div></div>","null","","","","","","",""
"html-keyboard-response","44","69675","0.0-5.0-2.13","63614cab87b22b72231c66e0","bdp_td","Sat Mar 25 2023 21:11:16 GMT-0400 (Eastern Daylight Time)","95151","","1272","","","","offer","","<div class='trialBorder'><div class='vertical-center'><img style='vertical-align:center; align:center' src=img/fixation3.jpg></div><div class='cl'><div class='vertical-center'>$67<br><br>now</div></div><div class='cr'><div class='vertical-center'>$75<br>in<br>12 weeks</div></div><div class='respDivL'><div class='vertical-center'>(E)</div></div><div class='respDivR'><div class='vertical-center'>(I)</div></div></div>","E","$67<br><br>now","$75<br>in<br>12 weeks","0","67","75","12","NOW"
"html-keyboard-response","45","69934","0.0-5.0-3.13","63614cab87b22b72231c66e0","bdp_td","Sat Mar 25 2023 21:11:16 GMT-0400 (Eastern Daylight Time)","95151","","null","","","","offerFB","","<div class='trialBorder'><div class='vertical-center'><img style='vertical-align:center; align:center' src=img/fixation3.jpg></div><div class='cl'><div class='vertical-center'><font style='color:orange'>$67<br><br>now</font></div></div><div class='cr'><div class='vertical-center'>$75<br>in<br>12 weeks</div></div><div class='respDivL'><div class='vertical-center'><font style='color:orange'>(E)</font></div></div><div class='respDivR'><div class='vertical-center'>(I)</div></div></div>","null","$67<br><br>now","$75<br>in<br>12 weeks","0","67","75","12",""
"html-keyboard-response","46","70437","0.0-5.0-1.14","63614cab87b22b72231c66e0","bdp_td","Sat Mar 25 2023 21:11:16 GMT-0400 (Eastern Daylight Time)","95151","","null","","","","FIX","","<div class='trialBorder'><div class='vertical-center'><img style='vertical-align:center; align:center' src=img/fixation3.jpg></div></div>","null","","","","","","",""
"html-keyboard-response","47","71533","0.0-5.0-2.14","63614cab87b22b72231c66e0","bdp_td","Sat Mar 25 2023 21:11:16 GMT-0400 (Eastern Daylight Time)","95151","","1091","","","","offer","","<div class='trialBorder'><div class='vertical-center'><img style='vertical-align:center; align:center' src=img/fixation3.jpg></div><div class='cl'><div class='vertical-center'>$50<br>in<br>12 weeks</div></div><div class='cr'><div class='vertical-center'>$47<br><br>now</div></div><div class='respDivL'><div class='vertical-center'>(E)</div></div><div class='respDivR'><div class='vertical-center'>(I)</div></div></div>","I","$47<br><br>now","$50<br>in<br>12 weeks","1","47","50","12","NOW"
"html-keyboard-response","48","71789","0.0-5.0-3.14","63614cab87b22b72231c66e0","bdp_td","Sat Mar 25 2023 21:11:16 GMT-0400 (Eastern Daylight Time)","95151","","null","","","","offerFB","","<div class='trialBorder'><div class='vertical-center'><img style='vertical-align:center; align:center' src=img/fixation3.jpg></div><div class='cl'><div class='vertical-center'>$50<br>in<br>12 weeks</div></div><div class='cr'><div class='vertical-center'><font style='color:orange'>$47<br><br>now</font></div></div><div class='respDivL'><div class='vertical-center'>(E)</div></div><div class='respDivR'><div class='vertical-center'><font style='color:orange'>(I)</font></div></div></div>","null","$47<br><br>now","$50<br>in<br>12 weeks","1","47","50","12",""
"html-keyboard-response","49","72293","0.0-5.0-1.15","63614cab87b22b72231c66e0","bdp_td","Sat Mar 25 2023 21:11:16 GMT-0400 (Eastern Daylight Time)","95151","","null","","","","FIX","","<div class='trialBorder'><div class='vertical-center'><img style='vertical-align:center; align:center' src=img/fixation3.jpg></div></div>","null","","","","","","",""
"html-keyboard-response","50","73108","0.0-5.0-2.15","63614cab87b22b72231c66e0","bdp_td","Sat Mar 25 2023 21:11:16 GMT-0400 (Eastern Daylight Time)","95151","","811","","","","offer","","<div class='trialBorder'><div class='vertical-center'><img style='vertical-align:center; align:center' src=img/fixation3.jpg></div><div class='cl'><div class='vertical-center'>$80<br>in<br>12 weeks</div></div><div class='cr'><div class='vertical-center'>$78<br><br>now</div></div><div class='respDivL'><div class='vertical-center'>(E)</div></div><div class='respDivR'><div class='vertical-center'>(I)</div></div></div>","I","$78<br><br>now","$80<br>in<br>12 weeks","1","78","80","12","NOW"
"html-keyboard-response","51","73365","0.0-5.0-3.15","63614cab87b22b72231c66e0","bdp_td","Sat Mar 25 2023 21:11:16 GMT-0400 (Eastern Daylight Time)","95151","","null","","","","offerFB","","<div class='trialBorder'><div class='vertical-center'><img style='vertical-align:center; align:center' src=img/fixation3.jpg></div><div class='cl'><div class='vertical-center'>$80<br>in<br>12 weeks</div></div><div class='cr'><div class='vertical-center'><font style='color:orange'>$78<br><br>now</font></div></div><div class='respDivL'><div class='vertical-center'>(E)</div></div><div class='respDivR'><div class='vertical-center'><font style='color:orange'>(I)</font></div></div></div>","null","$78<br><br>now","$80<br>in<br>12 weeks","1","78","80","12",""
"html-keyboard-response","52","73869","0.0-5.0-1.16","63614cab87b22b72231c66e0","bdp_td","Sat Mar 25 2023 21:11:16 GMT-0400 (Eastern Daylight Time)","95151","","null","","","","FIX","","<div class='trialBorder'><div class='vertical-center'><img style='vertical-align:center; align:center' src=img/fixation3.jpg></div></div>","null","","","","","","",""
"html-keyboard-response","53","75355","0.0-5.0-2.16","63614cab87b22b72231c66e0","bdp_td","Sat Mar 25 2023 21:11:16 GMT-0400 (Eastern Daylight Time)","95151","","1483","","","","offer","","<div class='trialBorder'><div class='vertical-center'><img style='vertical-align:center; align:center' src=img/fixation3.jpg></div><div class='cl'><div class='vertical-center'>$25<br>in<br>6 weeks</div></div><div class='cr'><div class='vertical-center'>$19<br><br>now</div></div><div class='respDivL'><div class='vertical-center'>(E)</div></div><div class='respDivR'><div class='vertical-center'>(I)</div></div></div>","I","$19<br><br>now","$25<br>in<br>6 weeks","1","19","25","6","NOW"
"html-keyboard-response","54","75613","0.0-5.0-3.16","63614cab87b22b72231c66e0","bdp_td","Sat Mar 25 2023 21:11:16 GMT-0400 (Eastern Daylight Time)","95151","","null","","","","offerFB","","<div class='trialBorder'><div class='vertical-center'><img style='vertical-align:center; align:center' src=img/fixation3.jpg></div><div class='cl'><div class='vertical-center'>$25<br>in<br>6 weeks</div></div><div class='cr'><div class='vertical-center'><font style='color:orange'>$19<br><br>now</font></div></div><div class='respDivL'><div class='vertical-center'>(E)</div></div><div class='respDivR'><div class='vertical-center'><font style='color:orange'>(I)</font></div></div></div>","null","$19<br><br>now","$25<br>in<br>6 weeks","1","19","25","6",""
"html-keyboard-response","55","76117","0.0-5.0-1.17","63614cab87b22b72231c66e0","bdp_td","Sat Mar 25 2023 21:11:16 GMT-0400 (Eastern Daylight Time)","95151","","null","","","","FIX","","<div class='trialBorder'><div class='vertical-center'><img style='vertical-align:center; align:center' src=img/fixation3.jpg></div></div>","null","","","","","","",""
"html-keyboard-response","56","76970","0.0-5.0-2.17","63614cab87b22b72231c66e0","bdp_td","Sat Mar 25 2023 21:11:16 GMT-0400 (Eastern Daylight Time)","95151","","849","","","","offer","","<div class='trialBorder'><div class='vertical-center'><img style='vertical-align:center; align:center' src=img/fixation3.jpg></div><div class='cl'><div class='vertical-center'>$24<br><br>now</div></div><div class='cr'><div class='vertical-center'>$35<br>in<br>3 weeks</div></div><div class='respDivL'><div class='vertical-center'>(E)</div></div><div class='respDivR'><div class='vertical-center'>(I)</div></div></div>","E","$24<br><br>now","$35<br>in<br>3 weeks","0","24","35","3","NOW"
"html-keyboard-response","57","77229","0.0-5.0-3.17","63614cab87b22b72231c66e0","bdp_td","Sat Mar 25 2023 21:11:16 GMT-0400 (Eastern Daylight Time)","95151","","null","","","","offerFB","","<div class='trialBorder'><div class='vertical-center'><img style='vertical-align:center; align:center' src=img/fixation3.jpg></div><div class='cl'><div class='vertical-center'><font style='color:orange'>$24<br><br>now</font></div></div><div class='cr'><div class='vertical-center'>$35<br>in<br>3 weeks</div></div><div class='respDivL'><div class='vertical-center'><font style='color:orange'>(E)</font></div></div><div class='respDivR'><div class='vertical-center'>(I)</div></div></div>","null","$24<br><br>now","$35<br>in<br>3 weeks","0","24","35","3",""
"html-keyboard-response","58","77733","0.0-5.0-1.18","63614cab87b22b72231c66e0","bdp_td","Sat Mar 25 2023 21:11:16 GMT-0400 (Eastern Daylight Time)","95151","","null","","","","FIX","","<div class='trialBorder'><div class='vertical-center'><img style='vertical-align:center; align:center' src=img/fixation3.jpg></div></div>","null","","","","","","",""
"html-keyboard-response","59","78589","0.0-5.0-2.18","63614cab87b22b72231c66e0","bdp_td","Sat Mar 25 2023 21:11:16 GMT-0400 (Eastern Daylight Time)","95151","","853","","","","offer","","<div class='trialBorder'><div class='vertical-center'><img style='vertical-align:center; align:center' src=img/fixation3.jpg></div><div class='cl'><div class='vertical-center'>$40<br><br>now</div></div><div class='cr'><div class='vertical-center'>$55<br>in<br>6 weeks</div></div><div class='respDivL'><div class='vertical-center'>(E)</div></div><div class='respDivR'><div class='vertical-center'>(I)</div></div></div>","E","$40<br><br>now","$55<br>in<br>6 weeks","0","40","55","6","NOW"
"html-keyboard-response","60","78846","0.0-5.0-3.18","63614cab87b22b72231c66e0","bdp_td","Sat Mar 25 2023 21:11:16 GMT-0400 (Eastern Daylight Time)","95151","","null","","","","offerFB","","<div class='trialBorder'><div class='vertical-center'><img style='vertical-align:center; align:center' src=img/fixation3.jpg></div><div class='cl'><div class='vertical-center'><font style='color:orange'>$40<br><br>now</font></div></div><div class='cr'><div class='vertical-center'>$55<br>in<br>6 weeks</div></div><div class='respDivL'><div class='vertical-center'><font style='color:orange'>(E)</font></div></div><div class='respDivR'><div class='vertical-center'>(I)</div></div></div>","null","$40<br><br>now","$55<br>in<br>6 weeks","0","40","55","6",""
"html-keyboard-response","61","79349","0.0-5.0-1.19","63614cab87b22b72231c66e0","bdp_td","Sat Mar 25 2023 21:11:16 GMT-0400 (Eastern Daylight Time)","95151","","null","","","","FIX","","<div class='trialBorder'><div class='vertical-center'><img style='vertical-align:center; align:center' src=img/fixation3.jpg></div></div>","null","","","","","","",""
"html-keyboard-response","62","80089","0.0-5.0-2.19","63614cab87b22b72231c66e0","bdp_td","Sat Mar 25 2023 21:11:16 GMT-0400 (Eastern Daylight Time)","95151","","737","","","","offer","","<div class='trialBorder'><div class='vertical-center'><img style='vertical-align:center; align:center' src=img/fixation3.jpg></div><div class='cl'><div class='vertical-center'>$41<br><br>now</div></div><div class='cr'><div class='vertical-center'>$75<br>in<br>3 weeks</div></div><div class='respDivL'><div class='vertical-center'>(E)</div></div><div class='respDivR'><div class='vertical-center'>(I)</div></div></div>","E","$41<br><br>now","$75<br>in<br>3 weeks","0","41","75","3","NOW"
"html-keyboard-response","63","80349","0.0-5.0-3.19","63614cab87b22b72231c66e0","bdp_td","Sat Mar 25 2023 21:11:16 GMT-0400 (Eastern Daylight Time)","95151","","null","","","","offerFB","","<div class='trialBorder'><div class='vertical-center'><img style='vertical-align:center; align:center' src=img/fixation3.jpg></div><div class='cl'><div class='vertical-center'><font style='color:orange'>$41<br><br>now</font></div></div><div class='cr'><div class='vertical-center'>$75<br>in<br>3 weeks</div></div><div class='respDivL'><div class='vertical-center'><font style='color:orange'>(E)</font></div></div><div class='respDivR'><div class='vertical-center'>(I)</div></div></div>","null","$41<br><br>now","$75<br>in<br>3 weeks","0","41","75","3",""
"html-keyboard-response","64","80853","0.0-5.0-1.20","63614cab87b22b72231c66e0","bdp_td","Sat Mar 25 2023 21:11:16 GMT-0400 (Eastern Daylight Time)","95151","","null","","","","FIX","","<div class='trialBorder'><div class='vertical-center'><img style='vertical-align:center; align:center' src=img/fixation3.jpg></div></div>","null","","","","","","",""
"html-keyboard-response","65","81354","0.0-5.0-2.20","63614cab87b22b72231c66e0","bdp_td","Sat Mar 25 2023 21:11:16 GMT-0400 (Eastern Daylight Time)","95151","","497","","","","offer","","<div class='trialBorder'><div class='vertical-center'><img style='vertical-align:center; align:center' src=img/fixation3.jpg></div><div class='cl'><div class='vertical-center'>$80<br><br>now</div></div><div class='cr'><div class='vertical-center'>$85<br>in<br>12 weeks</div></div><div class='respDivL'><div class='vertical-center'>(E)</div></div><div class='respDivR'><div class='vertical-center'>(I)</div></div></div>","E","$80<br><br>now","$85<br>in<br>12 weeks","0","80","85","12","NOW"
"html-keyboard-response","66","81614","0.0-5.0-3.20","63614cab87b22b72231c66e0","bdp_td","Sat Mar 25 2023 21:11:16 GMT-0400 (Eastern Daylight Time)","95151","","null","","","","offerFB","","<div class='trialBorder'><div class='vertical-center'><img style='vertical-align:center; align:center' src=img/fixation3.jpg></div><div class='cl'><div class='vertical-center'><font style='color:orange'>$80<br><br>now</font></div></div><div class='cr'><div class='vertical-center'>$85<br>in<br>12 weeks</div></div><div class='respDivL'><div class='vertical-center'><font style='color:orange'>(E)</font></div></div><div class='respDivR'><div class='vertical-center'>(I)</div></div></div>","null","$80<br><br>now","$85<br>in<br>12 weeks","0","80","85","12",""
"html-keyboard-response","67","82117","0.0-5.0-1.21","63614cab87b22b72231c66e0","bdp_td","Sat Mar 25 2023 21:11:16 GMT-0400 (Eastern Daylight Time)","95151","","null","","","","FIX","","<div class='trialBorder'><div class='vertical-center'><img style='vertical-align:center; align:center' src=img/fixation3.jpg></div></div>","null","","","","","","",""
"html-keyboard-response","68","82543","0.0-5.0-2.21","63614cab87b22b72231c66e0","bdp_td","Sat Mar 25 2023 21:11:16 GMT-0400 (Eastern Daylight Time)","95151","","424","","","","offer","","<div class='trialBorder'><div class='vertical-center'><img style='vertical-align:center; align:center' src=img/fixation3.jpg></div><div class='cl'><div class='vertical-center'>$80<br>in<br>2 weeks</div></div><div class='cr'><div class='vertical-center'>$33<br><br>now</div></div><div class='respDivL'><div class='vertical-center'>(E)</div></div><div class='respDivR'><div class='vertical-center'>(I)</div></div></div>","I","$33<br><br>now","$80<br>in<br>2 weeks","1","33","80","2","NOW"
"html-keyboard-response","69","82807","0.0-5.0-3.21","63614cab87b22b72231c66e0","bdp_td","Sat Mar 25 2023 21:11:16 GMT-0400 (Eastern Daylight Time)","95151","","null","","","","offerFB","","<div class='trialBorder'><div class='vertical-center'><img style='vertical-align:center; align:center' src=img/fixation3.jpg></div><div class='cl'><div class='vertical-center'>$80<br>in<br>2 weeks</div></div><div class='cr'><div class='vertical-center'><font style='color:orange'>$33<br><br>now</font></div></div><div class='respDivL'><div class='vertical-center'>(E)</div></div><div class='respDivR'><div class='vertical-center'><font style='color:orange'>(I)</font></div></div></div>","null","$33<br><br>now","$80<br>in<br>2 weeks","1","33","80","2",""
"html-keyboard-response","70","83317","0.0-5.0-1.22","63614cab87b22b72231c66e0","bdp_td","Sat Mar 25 2023 21:11:16 GMT-0400 (Eastern Daylight Time)","95151","","null","","","","FIX","","<div class='trialBorder'><div class='vertical-center'><img style='vertical-align:center; align:center' src=img/fixation3.jpg></div></div>","null","","","","","","",""
"html-keyboard-response","71","83959","0.0-5.0-2.22","63614cab87b22b72231c66e0","bdp_td","Sat Mar 25 2023 21:11:16 GMT-0400 (Eastern Daylight Time)","95151","","637","","","","offer","","<div class='trialBorder'><div class='vertical-center'><img style='vertical-align:center; align:center' src=img/fixation3.jpg></div><div class='cl'><div class='vertical-center'>$34<br><br>now</div></div><div class='cr'><div class='vertical-center'>$35<br>in<br>12 weeks</div></div><div class='respDivL'><div class='vertical-center'>(E)</div></div><div class='respDivR'><div class='vertical-center'>(I)</div></div></div>","E","$34<br><br>now","$35<br>in<br>12 weeks","0","34","35","12","NOW"
"html-keyboard-response","72","84213","0.0-5.0-3.22","63614cab87b22b72231c66e0","bdp_td","Sat Mar 25 2023 21:11:16 GMT-0400 (Eastern Daylight Time)","95151","","null","","","","offerFB","","<div class='trialBorder'><div class='vertical-center'><img style='vertical-align:center; align:center' src=img/fixation3.jpg></div><div class='cl'><div class='vertical-center'><font style='color:orange'>$34<br><br>now</font></div></div><div class='cr'><div class='vertical-center'>$35<br>in<br>12 weeks</div></div><div class='respDivL'><div class='vertical-center'><font style='color:orange'>(E)</font></div></div><div class='respDivR'><div class='vertical-center'>(I)</div></div></div>","null","$34<br><br>now","$35<br>in<br>12 weeks","0","34","35","12",""
"html-keyboard-response","73","84717","0.0-5.0-1.23","63614cab87b22b72231c66e0","bdp_td","Sat Mar 25 2023 21:11:16 GMT-0400 (Eastern Daylight Time)","95151","","null","","","","FIX","","<div class='trialBorder'><div class='vertical-center'><img style='vertical-align:center; align:center' src=img/fixation3.jpg></div></div>","null","","","","","","",""
"html-keyboard-response","74","85341","0.0-5.0-2.23","63614cab87b22b72231c66e0","bdp_td","Sat Mar 25 2023 21:11:16 GMT-0400 (Eastern Daylight Time)","95151","","619","","","","offer","","<div class='trialBorder'><div class='vertical-center'><img style='vertical-align:center; align:center' src=img/fixation3.jpg></div><div class='cl'><div class='vertical-center'>$55<br>in<br>1 week</div></div><div class='cr'><div class='vertical-center'>$20<br><br>now</div></div><div class='respDivL'><div class='vertical-center'>(E)</div></div><div class='respDivR'><div class='vertical-center'>(I)</div></div></div>","I","$20<br><br>now","$55<br>in<br>1 week","1","20","55","1","NOW"
"html-keyboard-response","75","85597","0.0-5.0-3.23","63614cab87b22b72231c66e0","bdp_td","Sat Mar 25 2023 21:11:16 GMT-0400 (Eastern Daylight Time)","95151","","null","","","","offerFB","","<div class='trialBorder'><div class='vertical-center'><img style='vertical-align:center; align:center' src=img/fixation3.jpg></div><div class='cl'><div class='vertical-center'>$55<br>in<br>1 week</div></div><div class='cr'><div class='vertical-center'><font style='color:orange'>$20<br><br>now</font></div></div><div class='respDivL'><div class='vertical-center'>(E)</div></div><div class='respDivR'><div class='vertical-center'><font style='color:orange'>(I)</font></div></div></div>","null","$20<br><br>now","$55<br>in<br>1 week","1","20","55","1",""
"html-keyboard-response","76","86101","0.0-5.0-1.24","63614cab87b22b72231c66e0","bdp_td","Sat Mar 25 2023 21:11:16 GMT-0400 (Eastern Daylight Time)","95151","","null","","","","FIX","","<div class='trialBorder'><div class='vertical-center'><img style='vertical-align:center; align:center' src=img/fixation3.jpg></div></div>","null","","","","","","",""
"html-keyboard-response","77","87338","0.0-5.0-2.24","63614cab87b22b72231c66e0","bdp_td","Sat Mar 25 2023 21:11:16 GMT-0400 (Eastern Daylight Time)","95151","","1232","","","","offer","","<div class='trialBorder'><div class='vertical-center'><img style='vertical-align:center; align:center' src=img/fixation3.jpg></div><div class='cl'><div class='vertical-center'>$34<br><br>now</div></div><div class='cr'><div class='vertical-center'>$50<br>in<br>6 weeks</div></div><div class='respDivL'><div class='vertical-center'>(E)</div></div><div class='respDivR'><div class='vertical-center'>(I)</div></div></div>","E","$34<br><br>now","$50<br>in<br>6 weeks","0","34","50","6","NOW"
"html-keyboard-response","78","87597","0.0-5.0-3.24","63614cab87b22b72231c66e0","bdp_td","Sat Mar 25 2023 21:11:16 GMT-0400 (Eastern Daylight Time)","95151","","null","","","","offerFB","","<div class='trialBorder'><div class='vertical-center'><img style='vertical-align:center; align:center' src=img/fixation3.jpg></div><div class='cl'><div class='vertical-center'><font style='color:orange'>$34<br><br>now</font></div></div><div class='cr'><div class='vertical-center'>$50<br>in<br>6 weeks</div></div><div class='respDivL'><div class='vertical-center'><font style='color:orange'>(E)</font></div></div><div class='respDivR'><div class='vertical-center'>(I)</div></div></div>","null","$34<br><br>now","$50<br>in<br>6 weeks","0","34","50","6",""
"html-keyboard-response","79","88101","0.0-5.0-1.25","63614cab87b22b72231c66e0","bdp_td","Sat Mar 25 2023 21:11:16 GMT-0400 (Eastern Daylight Time)","95151","","null","","","","FIX","","<div class='trialBorder'><div class='vertical-center'><img style='vertical-align:center; align:center' src=img/fixation3.jpg></div></div>","null","","","","","","",""
"html-keyboard-response","80","89255","0.0-5.0-2.25","63614cab87b22b72231c66e0","bdp_td","Sat Mar 25 2023 21:11:16 GMT-0400 (Eastern Daylight Time)","95151","","1150","","","","offer","","<div class='trialBorder'><div class='vertical-center'><img style='vertical-align:center; align:center' src=img/fixation3.jpg></div><div class='cl'><div class='vertical-center'>$27<br><br>now</div></div><div class='cr'><div class='vertical-center'>$50<br>in<br>3 weeks</div></div><div class='respDivL'><div class='vertical-center'>(E)</div></div><div class='respDivR'><div class='vertical-center'>(I)</div></div></div>","E","$27<br><br>now","$50<br>in<br>3 weeks","0","27","50","3","NOW"
"html-keyboard-response","81","89510","0.0-5.0-3.25","63614cab87b22b72231c66e0","bdp_td","Sat Mar 25 2023 21:11:16 GMT-0400 (Eastern Daylight Time)","95151","","null","","","","offerFB","","<div class='trialBorder'><div class='vertical-center'><img style='vertical-align:center; align:center' src=img/fixation3.jpg></div><div class='cl'><div class='vertical-center'><font style='color:orange'>$27<br><br>now</font></div></div><div class='cr'><div class='vertical-center'>$50<br>in<br>3 weeks</div></div><div class='respDivL'><div class='vertical-center'><font style='color:orange'>(E)</font></div></div><div class='respDivR'><div class='vertical-center'>(I)</div></div></div>","null","$27<br><br>now","$50<br>in<br>3 weeks","0","27","50","3",""
"html-keyboard-response","82","90013","0.0-5.0-1.26","63614cab87b22b72231c66e0","bdp_td","Sat Mar 25 2023 21:11:16 GMT-0400 (Eastern Daylight Time)","95151","","null","","","","FIX","","<div class='trialBorder'><div class='vertical-center'><img style='vertical-align:center; align:center' src=img/fixation3.jpg></div></div>","null","","","","","","",""
"html-keyboard-response","83","93882","0.0-5.0-2.26","63614cab87b22b72231c66e0","bdp_td","Sat Mar 25 2023 21:11:16 GMT-0400 (Eastern Daylight Time)","95151","","3864","","","","offer","","<div class='trialBorder'><div class='vertical-center'><img style='vertical-align:center; align:center' src=img/fixation3.jpg></div><div class='cl'><div class='vertical-center'>$30<br>in<br>2 weeks</div></div><div class='cr'><div class='vertical-center'>$11<br><br>now</div></div><div class='respDivL'><div class='vertical-center'>(E)</div></div><div class='respDivR'><div class='vertical-center'>(I)</div></div></div>","I","$11<br><br>now","$30<br>in<br>2 weeks","1","11","30","2","NOW"
"html-keyboard-response","84","94141","0.0-5.0-3.26","63614cab87b22b72231c66e0","bdp_td","Sat Mar 25 2023 21:11:16 GMT-0400 (Eastern Daylight Time)","95151","","null","","","","offerFB","","<div class='trialBorder'><div class='vertical-center'><img style='vertical-align:center; align:center' src=img/fixation3.jpg></div><div class='cl'><div class='vertical-center'>$30<br>in<br>2 weeks</div></div><div class='cr'><div class='vertical-center'><font style='color:orange'>$11<br><br>now</font></div></div><div class='respDivL'><div class='vertical-center'>(E)</div></div><div class='respDivR'><div class='vertical-center'><font style='color:orange'>(I)</font></div></div></div>","null","$11<br><br>now","$30<br>in<br>2 weeks","1","11","30","2",""
"","","","","63614cab87b22b72231c66e0","bdp_td","Sat Mar 25 2023 21:11:16 GMT-0400 (Eastern Daylight Time)","95151","","","fullscreenexit","85","94194","fullscreenexit","","","","","","","","","",""
"fullscreen","85","95150","0.0-6.0","63614cab87b22b72231c66e0","bdp_td","Sat Mar 25 2023 21:11:16 GMT-0400 (Eastern Daylight Time)","95151","","","","","","","true","","","","","","","","",""
"html-keyboard-response","86","95661","0.0-7.0","","","","","","null","","","","","","","null","","","","","","",""
