"trial_type","trial_index","time_elapsed","internal_node_id","subject_id","task","startTime","totalTime","view_history","rt","event","trial","time","trialtype","success","stimulus","key_press","nowOffer","thenOffer","thenLeft","nowAmt","thenAmt","thenWeeks","chosen"
"pavlovia","0","3","0.0-0.0","63d413840c9c512ac3dfc533","bdp_td","Mon Mar 27 2023 13:01:07 GMT-0700 (Mountain Standard Time)","88635","","","","","","","","","","","","","","","",""
"instructions","1","3821","0.0-1.0","63d413840c9c512ac3dfc533","bdp_td","Mon Mar 27 2023 13:01:07 GMT-0700 (Mountain Standard Time)","88635","[{""page_index"":0,""viewing_time"":3817}]","3817","","","","","","","","","","","","","",""
"","","","","63d413840c9c512ac3dfc533","bdp_td","Mon Mar 27 2023 13:01:07 GMT-0700 (Mountain Standard Time)","88635","","","fullscreenenter","2","6515","fullscreenenter","","","","","","","","","",""
"fullscreen","2","7487","0.0-2.0","63d413840c9c512ac3dfc533","bdp_td","Mon Mar 27 2023 13:01:07 GMT-0700 (Mountain Standard Time)","88635","","","","","","","true","","","","","","","","",""
"instructions","3","31642","0.0-4.0","63d413840c9c512ac3dfc533","bdp_td","Mon Mar 27 2023 13:01:07 GMT-0700 (Mountain Standard Time)","88635","[{""page_index"":0,""viewing_time"":10452},{""page_index"":1,""viewing_time"":11356},{""page_index"":2,""viewing_time"":2347}]","24155","","","","","","","","","","","","","",""
"html-keyboard-response","4","32144","0.0-5.0-1.0","63d413840c9c512ac3dfc533","bdp_td","Mon Mar 27 2023 13:01:07 GMT-0700 (Mountain Standard Time)","88635","","null","","","","FIX","","<div class='trialBorder'><div class='vertical-center'><img style='vertical-align:center; align:center' src=img/fixation3.jpg></div></div>","null","","","","","","",""
"html-keyboard-response","5","33448","0.0-5.0-2.0","63d413840c9c512ac3dfc533","bdp_td","Mon Mar 27 2023 13:01:07 GMT-0700 (Mountain Standard Time)","88635","","1302","","","","offer","","<div class='trialBorder'><div class='vertical-center'><img style='vertical-align:center; align:center' src=img/fixation3.jpg></div><div class='cl'><div class='vertical-center'>$80<br><br>now</div></div><div class='cr'><div class='vertical-center'>$85<br>in<br>12 weeks</div></div><div class='respDivL'><div class='vertical-center'>(E)</div></div><div class='respDivR'><div class='vertical-center'>(I)</div></div></div>","E","$80<br><br>now","$85<br>in<br>12 weeks","0","80","85","12","NOW"
"html-keyboard-response","6","33699","0.0-5.0-3.0","63d413840c9c512ac3dfc533","bdp_td","Mon Mar 27 2023 13:01:07 GMT-0700 (Mountain Standard Time)","88635","","null","","","","offerFB","","<div class='trialBorder'><div class='vertical-center'><img style='vertical-align:center; align:center' src=img/fixation3.jpg></div><div class='cl'><div class='vertical-center'><font style='color:orange'>$80<br><br>now</font></div></div><div class='cr'><div class='vertical-center'>$85<br>in<br>12 weeks</div></div><div class='respDivL'><div class='vertical-center'><font style='color:orange'>(E)</font></div></div><div class='respDivR'><div class='vertical-center'>(I)</div></div></div>","null","$80<br><br>now","$85<br>in<br>12 weeks","0","80","85","12",""
"html-keyboard-response","7","34200","0.0-5.0-1.1","63d413840c9c512ac3dfc533","bdp_td","Mon Mar 27 2023 13:01:07 GMT-0700 (Mountain Standard Time)","88635","","null","","","","FIX","","<div class='trialBorder'><div class='vertical-center'><img style='vertical-align:center; align:center' src=img/fixation3.jpg></div></div>","null","","","","","","",""
"html-keyboard-response","8","35519","0.0-5.0-2.1","63d413840c9c512ac3dfc533","bdp_td","Mon Mar 27 2023 13:01:07 GMT-0700 (Mountain Standard Time)","88635","","1317","","","","offer","","<div class='trialBorder'><div class='vertical-center'><img style='vertical-align:center; align:center' src=img/fixation3.jpg></div><div class='cl'><div class='vertical-center'>$34<br><br>now</div></div><div class='cr'><div class='vertical-center'>$50<br>in<br>6 weeks</div></div><div class='respDivL'><div class='vertical-center'>(E)</div></div><div class='respDivR'><div class='vertical-center'>(I)</div></div></div>","E","$34<br><br>now","$50<br>in<br>6 weeks","0","34","50","6","NOW"
"html-keyboard-response","9","35769","0.0-5.0-3.1","63d413840c9c512ac3dfc533","bdp_td","Mon Mar 27 2023 13:01:07 GMT-0700 (Mountain Standard Time)","88635","","null","","","","offerFB","","<div class='trialBorder'><div class='vertical-center'><img style='vertical-align:center; align:center' src=img/fixation3.jpg></div><div class='cl'><div class='vertical-center'><font style='color:orange'>$34<br><br>now</font></div></div><div class='cr'><div class='vertical-center'>$50<br>in<br>6 weeks</div></div><div class='respDivL'><div class='vertical-center'><font style='color:orange'>(E)</font></div></div><div class='respDivR'><div class='vertical-center'>(I)</div></div></div>","null","$34<br><br>now","$50<br>in<br>6 weeks","0","34","50","6",""
"html-keyboard-response","10","36270","0.0-5.0-1.2","63d413840c9c512ac3dfc533","bdp_td","Mon Mar 27 2023 13:01:07 GMT-0700 (Mountain Standard Time)","88635","","null","","","","FIX","","<div class='trialBorder'><div class='vertical-center'><img style='vertical-align:center; align:center' src=img/fixation3.jpg></div></div>","null","","","","","","",""
"html-keyboard-response","11","37594","0.0-5.0-2.2","63d413840c9c512ac3dfc533","bdp_td","Mon Mar 27 2023 13:01:07 GMT-0700 (Mountain Standard Time)","88635","","1322","","","","offer","","<div class='trialBorder'><div class='vertical-center'><img style='vertical-align:center; align:center' src=img/fixation3.jpg></div><div class='cl'><div class='vertical-center'>$55<br>in<br>12 weeks</div></div><div class='cr'><div class='vertical-center'>$54<br><br>now</div></div><div class='respDivL'><div class='vertical-center'>(E)</div></div><div class='respDivR'><div class='vertical-center'>(I)</div></div></div>","I","$54<br><br>now","$55<br>in<br>12 weeks","1","54","55","12","NOW"
"html-keyboard-response","12","37845","0.0-5.0-3.2","63d413840c9c512ac3dfc533","bdp_td","Mon Mar 27 2023 13:01:07 GMT-0700 (Mountain Standard Time)","88635","","null","","","","offerFB","","<div class='trialBorder'><div class='vertical-center'><img style='vertical-align:center; align:center' src=img/fixation3.jpg></div><div class='cl'><div class='vertical-center'>$55<br>in<br>12 weeks</div></div><div class='cr'><div class='vertical-center'><font style='color:orange'>$54<br><br>now</font></div></div><div class='respDivL'><div class='vertical-center'>(E)</div></div><div class='respDivR'><div class='vertical-center'><font style='color:orange'>(I)</font></div></div></div>","null","$54<br><br>now","$55<br>in<br>12 weeks","1","54","55","12",""
"html-keyboard-response","13","38347","0.0-5.0-1.3","63d413840c9c512ac3dfc533","bdp_td","Mon Mar 27 2023 13:01:07 GMT-0700 (Mountain Standard Time)","88635","","null","","","","FIX","","<div class='trialBorder'><div class='vertical-center'><img style='vertical-align:center; align:center' src=img/fixation3.jpg></div></div>","null","","","","","","",""
"html-keyboard-response","14","39751","0.0-5.0-2.3","63d413840c9c512ac3dfc533","bdp_td","Mon Mar 27 2023 13:01:07 GMT-0700 (Mountain Standard Time)","88635","","1404","","","","offer","","<div class='trialBorder'><div class='vertical-center'><img style='vertical-align:center; align:center' src=img/fixation3.jpg></div><div class='cl'><div class='vertical-center'>$50<br>in<br>12 weeks</div></div><div class='cr'><div class='vertical-center'>$47<br><br>now</div></div><div class='respDivL'><div class='vertical-center'>(E)</div></div><div class='respDivR'><div class='vertical-center'>(I)</div></div></div>","I","$47<br><br>now","$50<br>in<br>12 weeks","1","47","50","12","NOW"
"html-keyboard-response","15","40003","0.0-5.0-3.3","63d413840c9c512ac3dfc533","bdp_td","Mon Mar 27 2023 13:01:07 GMT-0700 (Mountain Standard Time)","88635","","null","","","","offerFB","","<div class='trialBorder'><div class='vertical-center'><img style='vertical-align:center; align:center' src=img/fixation3.jpg></div><div class='cl'><div class='vertical-center'>$50<br>in<br>12 weeks</div></div><div class='cr'><div class='vertical-center'><font style='color:orange'>$47<br><br>now</font></div></div><div class='respDivL'><div class='vertical-center'>(E)</div></div><div class='respDivR'><div class='vertical-center'><font style='color:orange'>(I)</font></div></div></div>","null","$47<br><br>now","$50<br>in<br>12 weeks","1","47","50","12",""
"html-keyboard-response","16","40504","0.0-5.0-1.4","63d413840c9c512ac3dfc533","bdp_td","Mon Mar 27 2023 13:01:07 GMT-0700 (Mountain Standard Time)","88635","","null","","","","FIX","","<div class='trialBorder'><div class='vertical-center'><img style='vertical-align:center; align:center' src=img/fixation3.jpg></div></div>","null","","","","","","",""
"html-keyboard-response","17","41863","0.0-5.0-2.4","63d413840c9c512ac3dfc533","bdp_td","Mon Mar 27 2023 13:01:07 GMT-0700 (Mountain Standard Time)","88635","","1359","","","","offer","","<div class='trialBorder'><div class='vertical-center'><img style='vertical-align:center; align:center' src=img/fixation3.jpg></div><div class='cl'><div class='vertical-center'>$41<br><br>now</div></div><div class='cr'><div class='vertical-center'>$75<br>in<br>3 weeks</div></div><div class='respDivL'><div class='vertical-center'>(E)</div></div><div class='respDivR'><div class='vertical-center'>(I)</div></div></div>","I","$41<br><br>now","$75<br>in<br>3 weeks","0","41","75","3","THEN"
"html-keyboard-response","18","42114","0.0-5.0-3.4","63d413840c9c512ac3dfc533","bdp_td","Mon Mar 27 2023 13:01:07 GMT-0700 (Mountain Standard Time)","88635","","null","","","","offerFB","","<div class='trialBorder'><div class='vertical-center'><img style='vertical-align:center; align:center' src=img/fixation3.jpg></div><div class='cl'><div class='vertical-center'>$41<br><br>now</div></div><div class='cr'><div class='vertical-center'><font style='color:orange'>$75<br>in<br>3 weeks</font></div></div><div class='respDivL'><div class='vertical-center'>(E)</div></div><div class='respDivR'><div class='vertical-center'><font style='color:orange'>(I)</font></div></div></div>","null","$41<br><br>now","$75<br>in<br>3 weeks","0","41","75","3",""
"html-keyboard-response","19","42615","0.0-5.0-1.5","63d413840c9c512ac3dfc533","bdp_td","Mon Mar 27 2023 13:01:07 GMT-0700 (Mountain Standard Time)","88635","","null","","","","FIX","","<div class='trialBorder'><div class='vertical-center'><img style='vertical-align:center; align:center' src=img/fixation3.jpg></div></div>","null","","","","","","",""
"html-keyboard-response","20","44008","0.0-5.0-2.5","63d413840c9c512ac3dfc533","bdp_td","Mon Mar 27 2023 13:01:07 GMT-0700 (Mountain Standard Time)","88635","","1393","","","","offer","","<div class='trialBorder'><div class='vertical-center'><img style='vertical-align:center; align:center' src=img/fixation3.jpg></div><div class='cl'><div class='vertical-center'>$30<br>in<br>2 weeks</div></div><div class='cr'><div class='vertical-center'>$11<br><br>now</div></div><div class='respDivL'><div class='vertical-center'>(E)</div></div><div class='respDivR'><div class='vertical-center'>(I)</div></div></div>","E","$11<br><br>now","$30<br>in<br>2 weeks","1","11","30","2","THEN"
"html-keyboard-response","21","44259","0.0-5.0-3.5","63d413840c9c512ac3dfc533","bdp_td","Mon Mar 27 2023 13:01:07 GMT-0700 (Mountain Standard Time)","88635","","null","","","","offerFB","","<div class='trialBorder'><div class='vertical-center'><img style='vertical-align:center; align:center' src=img/fixation3.jpg></div><div class='cl'><div class='vertical-center'><font style='color:orange'>$30<br>in<br>2 weeks</font></div></div><div class='cr'><div class='vertical-center'>$11<br><br>now</div></div><div class='respDivL'><div class='vertical-center'><font style='color:orange'>(E)</font></div></div><div class='respDivR'><div class='vertical-center'>(I)</div></div></div>","null","$11<br><br>now","$30<br>in<br>2 weeks","1","11","30","2",""
"html-keyboard-response","22","44760","0.0-5.0-1.6","63d413840c9c512ac3dfc533","bdp_td","Mon Mar 27 2023 13:01:07 GMT-0700 (Mountain Standard Time)","88635","","null","","","","FIX","","<div class='trialBorder'><div class='vertical-center'><img style='vertical-align:center; align:center' src=img/fixation3.jpg></div></div>","null","","","","","","",""
"html-keyboard-response","23","46276","0.0-5.0-2.6","63d413840c9c512ac3dfc533","bdp_td","Mon Mar 27 2023 13:01:07 GMT-0700 (Mountain Standard Time)","88635","","1515","","","","offer","","<div class='trialBorder'><div class='vertical-center'><img style='vertical-align:center; align:center' src=img/fixation3.jpg></div><div class='cl'><div class='vertical-center'>$54<br><br>now</div></div><div class='cr'><div class='vertical-center'>$80<br>in<br>3 weeks</div></div><div class='respDivL'><div class='vertical-center'>(E)</div></div><div class='respDivR'><div class='vertical-center'>(I)</div></div></div>","E","$54<br><br>now","$80<br>in<br>3 weeks","0","54","80","3","NOW"
"html-keyboard-response","24","46527","0.0-5.0-3.6","63d413840c9c512ac3dfc533","bdp_td","Mon Mar 27 2023 13:01:07 GMT-0700 (Mountain Standard Time)","88635","","null","","","","offerFB","","<div class='trialBorder'><div class='vertical-center'><img style='vertical-align:center; align:center' src=img/fixation3.jpg></div><div class='cl'><div class='vertical-center'><font style='color:orange'>$54<br><br>now</font></div></div><div class='cr'><div class='vertical-center'>$80<br>in<br>3 weeks</div></div><div class='respDivL'><div class='vertical-center'><font style='color:orange'>(E)</font></div></div><div class='respDivR'><div class='vertical-center'>(I)</div></div></div>","null","$54<br><br>now","$80<br>in<br>3 weeks","0","54","80","3",""
"html-keyboard-response","25","47028","0.0-5.0-1.7","63d413840c9c512ac3dfc533","bdp_td","Mon Mar 27 2023 13:01:07 GMT-0700 (Mountain Standard Time)","88635","","null","","","","FIX","","<div class='trialBorder'><div class='vertical-center'><img style='vertical-align:center; align:center' src=img/fixation3.jpg></div></div>","null","","","","","","",""
"html-keyboard-response","26","48547","0.0-5.0-2.7","63d413840c9c512ac3dfc533","bdp_td","Mon Mar 27 2023 13:01:07 GMT-0700 (Mountain Standard Time)","88635","","1519","","","","offer","","<div class='trialBorder'><div class='vertical-center'><img style='vertical-align:center; align:center' src=img/fixation3.jpg></div><div class='cl'><div class='vertical-center'>$25<br>in<br>3 weeks</div></div><div class='cr'><div class='vertical-center'>$14<br><br>now</div></div><div class='respDivL'><div class='vertical-center'>(E)</div></div><div class='respDivR'><div class='vertical-center'>(I)</div></div></div>","I","$14<br><br>now","$25<br>in<br>3 weeks","1","14","25","3","NOW"
"html-keyboard-response","27","48798","0.0-5.0-3.7","63d413840c9c512ac3dfc533","bdp_td","Mon Mar 27 2023 13:01:07 GMT-0700 (Mountain Standard Time)","88635","","null","","","","offerFB","","<div class='trialBorder'><div class='vertical-center'><img style='vertical-align:center; align:center' src=img/fixation3.jpg></div><div class='cl'><div class='vertical-center'>$25<br>in<br>3 weeks</div></div><div class='cr'><div class='vertical-center'><font style='color:orange'>$14<br><br>now</font></div></div><div class='respDivL'><div class='vertical-center'>(E)</div></div><div class='respDivR'><div class='vertical-center'><font style='color:orange'>(I)</font></div></div></div>","null","$14<br><br>now","$25<br>in<br>3 weeks","1","14","25","3",""
"html-keyboard-response","28","49299","0.0-5.0-1.8","63d413840c9c512ac3dfc533","bdp_td","Mon Mar 27 2023 13:01:07 GMT-0700 (Mountain Standard Time)","88635","","null","","","","FIX","","<div class='trialBorder'><div class='vertical-center'><img style='vertical-align:center; align:center' src=img/fixation3.jpg></div></div>","null","","","","","","",""
"html-keyboard-response","29","50612","0.0-5.0-2.8","63d413840c9c512ac3dfc533","bdp_td","Mon Mar 27 2023 13:01:07 GMT-0700 (Mountain Standard Time)","88635","","1311","","","","offer","","<div class='trialBorder'><div class='vertical-center'><img style='vertical-align:center; align:center' src=img/fixation3.jpg></div><div class='cl'><div class='vertical-center'>$15<br><br>now</div></div><div class='cr'><div class='vertical-center'>$35<br>in<br>2 weeks</div></div><div class='respDivL'><div class='vertical-center'>(E)</div></div><div class='respDivR'><div class='vertical-center'>(I)</div></div></div>","E","$15<br><br>now","$35<br>in<br>2 weeks","0","15","35","2","NOW"
"html-keyboard-response","30","50863","0.0-5.0-3.8","63d413840c9c512ac3dfc533","bdp_td","Mon Mar 27 2023 13:01:07 GMT-0700 (Mountain Standard Time)","88635","","null","","","","offerFB","","<div class='trialBorder'><div class='vertical-center'><img style='vertical-align:center; align:center' src=img/fixation3.jpg></div><div class='cl'><div class='vertical-center'><font style='color:orange'>$15<br><br>now</font></div></div><div class='cr'><div class='vertical-center'>$35<br>in<br>2 weeks</div></div><div class='respDivL'><div class='vertical-center'><font style='color:orange'>(E)</font></div></div><div class='respDivR'><div class='vertical-center'>(I)</div></div></div>","null","$15<br><br>now","$35<br>in<br>2 weeks","0","15","35","2",""
"html-keyboard-response","31","51364","0.0-5.0-1.9","63d413840c9c512ac3dfc533","bdp_td","Mon Mar 27 2023 13:01:07 GMT-0700 (Mountain Standard Time)","88635","","null","","","","FIX","","<div class='trialBorder'><div class='vertical-center'><img style='vertical-align:center; align:center' src=img/fixation3.jpg></div></div>","null","","","","","","",""
"html-keyboard-response","32","52843","0.0-5.0-2.9","63d413840c9c512ac3dfc533","bdp_td","Mon Mar 27 2023 13:01:07 GMT-0700 (Mountain Standard Time)","88635","","1478","","","","offer","","<div class='trialBorder'><div class='vertical-center'><img style='vertical-align:center; align:center' src=img/fixation3.jpg></div><div class='cl'><div class='vertical-center'>$75<br>in<br>6 weeks</div></div><div class='cr'><div class='vertical-center'>$55<br><br>now</div></div><div class='respDivL'><div class='vertical-center'>(E)</div></div><div class='respDivR'><div class='vertical-center'>(I)</div></div></div>","I","$55<br><br>now","$75<br>in<br>6 weeks","1","55","75","6","NOW"
"html-keyboard-response","33","53095","0.0-5.0-3.9","63d413840c9c512ac3dfc533","bdp_td","Mon Mar 27 2023 13:01:07 GMT-0700 (Mountain Standard Time)","88635","","null","","","","offerFB","","<div class='trialBorder'><div class='vertical-center'><img style='vertical-align:center; align:center' src=img/fixation3.jpg></div><div class='cl'><div class='vertical-center'>$75<br>in<br>6 weeks</div></div><div class='cr'><div class='vertical-center'><font style='color:orange'>$55<br><br>now</font></div></div><div class='respDivL'><div class='vertical-center'>(E)</div></div><div class='respDivR'><div class='vertical-center'><font style='color:orange'>(I)</font></div></div></div>","null","$55<br><br>now","$75<br>in<br>6 weeks","1","55","75","6",""
"html-keyboard-response","34","53596","0.0-5.0-1.10","63d413840c9c512ac3dfc533","bdp_td","Mon Mar 27 2023 13:01:07 GMT-0700 (Mountain Standard Time)","88635","","null","","","","FIX","","<div class='trialBorder'><div class='vertical-center'><img style='vertical-align:center; align:center' src=img/fixation3.jpg></div></div>","null","","","","","","",""
"html-keyboard-response","35","54699","0.0-5.0-2.10","63d413840c9c512ac3dfc533","bdp_td","Mon Mar 27 2023 13:01:07 GMT-0700 (Mountain Standard Time)","88635","","1103","","","","offer","","<div class='trialBorder'><div class='vertical-center'><img style='vertical-align:center; align:center' src=img/fixation3.jpg></div><div class='cl'><div class='vertical-center'>$60<br>in<br>12 weeks</div></div><div class='cr'><div class='vertical-center'>$54<br><br>now</div></div><div class='respDivL'><div class='vertical-center'>(E)</div></div><div class='respDivR'><div class='vertical-center'>(I)</div></div></div>","I","$54<br><br>now","$60<br>in<br>12 weeks","1","54","60","12","NOW"
"html-keyboard-response","36","54951","0.0-5.0-3.10","63d413840c9c512ac3dfc533","bdp_td","Mon Mar 27 2023 13:01:07 GMT-0700 (Mountain Standard Time)","88635","","null","","","","offerFB","","<div class='trialBorder'><div class='vertical-center'><img style='vertical-align:center; align:center' src=img/fixation3.jpg></div><div class='cl'><div class='vertical-center'>$60<br>in<br>12 weeks</div></div><div class='cr'><div class='vertical-center'><font style='color:orange'>$54<br><br>now</font></div></div><div class='respDivL'><div class='vertical-center'>(E)</div></div><div class='respDivR'><div class='vertical-center'><font style='color:orange'>(I)</font></div></div></div>","null","$54<br><br>now","$60<br>in<br>12 weeks","1","54","60","12",""
"html-keyboard-response","37","55452","0.0-5.0-1.11","63d413840c9c512ac3dfc533","bdp_td","Mon Mar 27 2023 13:01:07 GMT-0700 (Mountain Standard Time)","88635","","null","","","","FIX","","<div class='trialBorder'><div class='vertical-center'><img style='vertical-align:center; align:center' src=img/fixation3.jpg></div></div>","null","","","","","","",""
"html-keyboard-response","38","56683","0.0-5.0-2.11","63d413840c9c512ac3dfc533","bdp_td","Mon Mar 27 2023 13:01:07 GMT-0700 (Mountain Standard Time)","88635","","1231","","","","offer","","<div class='trialBorder'><div class='vertical-center'><img style='vertical-align:center; align:center' src=img/fixation3.jpg></div><div class='cl'><div class='vertical-center'>$35<br>in<br>12 weeks</div></div><div class='cr'><div class='vertical-center'>$34<br><br>now</div></div><div class='respDivL'><div class='vertical-center'>(E)</div></div><div class='respDivR'><div class='vertical-center'>(I)</div></div></div>","I","$34<br><br>now","$35<br>in<br>12 weeks","1","34","35","12","NOW"
"html-keyboard-response","39","56934","0.0-5.0-3.11","63d413840c9c512ac3dfc533","bdp_td","Mon Mar 27 2023 13:01:07 GMT-0700 (Mountain Standard Time)","88635","","null","","","","offerFB","","<div class='trialBorder'><div class='vertical-center'><img style='vertical-align:center; align:center' src=img/fixation3.jpg></div><div class='cl'><div class='vertical-center'>$35<br>in<br>12 weeks</div></div><div class='cr'><div class='vertical-center'><font style='color:orange'>$34<br><br>now</font></div></div><div class='respDivL'><div class='vertical-center'>(E)</div></div><div class='respDivR'><div class='vertical-center'><font style='color:orange'>(I)</font></div></div></div>","null","$34<br><br>now","$35<br>in<br>12 weeks","1","34","35","12",""
"html-keyboard-response","40","57435","0.0-5.0-1.12","63d413840c9c512ac3dfc533","bdp_td","Mon Mar 27 2023 13:01:07 GMT-0700 (Mountain Standard Time)","88635","","null","","","","FIX","","<div class='trialBorder'><div class='vertical-center'><img style='vertical-align:center; align:center' src=img/fixation3.jpg></div></div>","null","","","","","","",""
"html-keyboard-response","41","58839","0.0-5.0-2.12","63d413840c9c512ac3dfc533","bdp_td","Mon Mar 27 2023 13:01:07 GMT-0700 (Mountain Standard Time)","88635","","1402","","","","offer","","<div class='trialBorder'><div class='vertical-center'><img style='vertical-align:center; align:center' src=img/fixation3.jpg></div><div class='cl'><div class='vertical-center'>$20<br><br>now</div></div><div class='cr'><div class='vertical-center'>$55<br>in<br>1 week</div></div><div class='respDivL'><div class='vertical-center'>(E)</div></div><div class='respDivR'><div class='vertical-center'>(I)</div></div></div>","I","$20<br><br>now","$55<br>in<br>1 week","0","20","55","1","THEN"
"html-keyboard-response","42","59090","0.0-5.0-3.12","63d413840c9c512ac3dfc533","bdp_td","Mon Mar 27 2023 13:01:07 GMT-0700 (Mountain Standard Time)","88635","","null","","","","offerFB","","<div class='trialBorder'><div class='vertical-center'><img style='vertical-align:center; align:center' src=img/fixation3.jpg></div><div class='cl'><div class='vertical-center'>$20<br><br>now</div></div><div class='cr'><div class='vertical-center'><font style='color:orange'>$55<br>in<br>1 week</font></div></div><div class='respDivL'><div class='vertical-center'>(E)</div></div><div class='respDivR'><div class='vertical-center'><font style='color:orange'>(I)</font></div></div></div>","null","$20<br><br>now","$55<br>in<br>1 week","0","20","55","1",""
"html-keyboard-response","43","59590","0.0-5.0-1.13","63d413840c9c512ac3dfc533","bdp_td","Mon Mar 27 2023 13:01:07 GMT-0700 (Mountain Standard Time)","88635","","null","","","","FIX","","<div class='trialBorder'><div class='vertical-center'><img style='vertical-align:center; align:center' src=img/fixation3.jpg></div></div>","null","","","","","","",""
"html-keyboard-response","44","60764","0.0-5.0-2.13","63d413840c9c512ac3dfc533","bdp_td","Mon Mar 27 2023 13:01:07 GMT-0700 (Mountain Standard Time)","88635","","1173","","","","offer","","<div class='trialBorder'><div class='vertical-center'><img style='vertical-align:center; align:center' src=img/fixation3.jpg></div><div class='cl'><div class='vertical-center'>$25<br>in<br>6 weeks</div></div><div class='cr'><div class='vertical-center'>$19<br><br>now</div></div><div class='respDivL'><div class='vertical-center'>(E)</div></div><div class='respDivR'><div class='vertical-center'>(I)</div></div></div>","I","$19<br><br>now","$25<br>in<br>6 weeks","1","19","25","6","NOW"
"html-keyboard-response","45","61016","0.0-5.0-3.13","63d413840c9c512ac3dfc533","bdp_td","Mon Mar 27 2023 13:01:07 GMT-0700 (Mountain Standard Time)","88635","","null","","","","offerFB","","<div class='trialBorder'><div class='vertical-center'><img style='vertical-align:center; align:center' src=img/fixation3.jpg></div><div class='cl'><div class='vertical-center'>$25<br>in<br>6 weeks</div></div><div class='cr'><div class='vertical-center'><font style='color:orange'>$19<br><br>now</font></div></div><div class='respDivL'><div class='vertical-center'>(E)</div></div><div class='respDivR'><div class='vertical-center'><font style='color:orange'>(I)</font></div></div></div>","null","$19<br><br>now","$25<br>in<br>6 weeks","1","19","25","6",""
"html-keyboard-response","46","61517","0.0-5.0-1.14","63d413840c9c512ac3dfc533","bdp_td","Mon Mar 27 2023 13:01:07 GMT-0700 (Mountain Standard Time)","88635","","null","","","","FIX","","<div class='trialBorder'><div class='vertical-center'><img style='vertical-align:center; align:center' src=img/fixation3.jpg></div></div>","null","","","","","","",""
"html-keyboard-response","47","62546","0.0-5.0-2.14","63d413840c9c512ac3dfc533","bdp_td","Mon Mar 27 2023 13:01:07 GMT-0700 (Mountain Standard Time)","88635","","1029","","","","offer","","<div class='trialBorder'><div class='vertical-center'><img style='vertical-align:center; align:center' src=img/fixation3.jpg></div><div class='cl'><div class='vertical-center'>$31<br><br>now</div></div><div class='cr'><div class='vertical-center'>$85<br>in<br>1 week</div></div><div class='respDivL'><div class='vertical-center'>(E)</div></div><div class='respDivR'><div class='vertical-center'>(I)</div></div></div>","I","$31<br><br>now","$85<br>in<br>1 week","0","31","85","1","THEN"
"html-keyboard-response","48","62798","0.0-5.0-3.14","63d413840c9c512ac3dfc533","bdp_td","Mon Mar 27 2023 13:01:07 GMT-0700 (Mountain Standard Time)","88635","","null","","","","offerFB","","<div class='trialBorder'><div class='vertical-center'><img style='vertical-align:center; align:center' src=img/fixation3.jpg></div><div class='cl'><div class='vertical-center'>$31<br><br>now</div></div><div class='cr'><div class='vertical-center'><font style='color:orange'>$85<br>in<br>1 week</font></div></div><div class='respDivL'><div class='vertical-center'>(E)</div></div><div class='respDivR'><div class='vertical-center'><font style='color:orange'>(I)</font></div></div></div>","null","$31<br><br>now","$85<br>in<br>1 week","0","31","85","1",""
"html-keyboard-response","49","63299","0.0-5.0-1.15","63d413840c9c512ac3dfc533","bdp_td","Mon Mar 27 2023 13:01:07 GMT-0700 (Mountain Standard Time)","88635","","null","","","","FIX","","<div class='trialBorder'><div class='vertical-center'><img style='vertical-align:center; align:center' src=img/fixation3.jpg></div></div>","null","","","","","","",""
"html-keyboard-response","50","64714","0.0-5.0-2.15","63d413840c9c512ac3dfc533","bdp_td","Mon Mar 27 2023 13:01:07 GMT-0700 (Mountain Standard Time)","88635","","1414","","","","offer","","<div class='trialBorder'><div class='vertical-center'><img style='vertical-align:center; align:center' src=img/fixation3.jpg></div><div class='cl'><div class='vertical-center'>$55<br>in<br>6 weeks</div></div><div class='cr'><div class='vertical-center'>$40<br><br>now</div></div><div class='respDivL'><div class='vertical-center'>(E)</div></div><div class='respDivR'><div class='vertical-center'>(I)</div></div></div>","I","$40<br><br>now","$55<br>in<br>6 weeks","1","40","55","6","NOW"
"html-keyboard-response","51","64965","0.0-5.0-3.15","63d413840c9c512ac3dfc533","bdp_td","Mon Mar 27 2023 13:01:07 GMT-0700 (Mountain Standard Time)","88635","","null","","","","offerFB","","<div class='trialBorder'><div class='vertical-center'><img style='vertical-align:center; align:center' src=img/fixation3.jpg></div><div class='cl'><div class='vertical-center'>$55<br>in<br>6 weeks</div></div><div class='cr'><div class='vertical-center'><font style='color:orange'>$40<br><br>now</font></div></div><div class='respDivL'><div class='vertical-center'>(E)</div></div><div class='respDivR'><div class='vertical-center'><font style='color:orange'>(I)</font></div></div></div>","null","$40<br><br>now","$55<br>in<br>6 weeks","1","40","55","6",""
"html-keyboard-response","52","65466","0.0-5.0-1.16","63d413840c9c512ac3dfc533","bdp_td","Mon Mar 27 2023 13:01:07 GMT-0700 (Mountain Standard Time)","88635","","null","","","","FIX","","<div class='trialBorder'><div class='vertical-center'><img style='vertical-align:center; align:center' src=img/fixation3.jpg></div></div>","null","","","","","","",""
"html-keyboard-response","53","66379","0.0-5.0-2.16","63d413840c9c512ac3dfc533","bdp_td","Mon Mar 27 2023 13:01:07 GMT-0700 (Mountain Standard Time)","88635","","912","","","","offer","","<div class='trialBorder'><div class='vertical-center'><img style='vertical-align:center; align:center' src=img/fixation3.jpg></div><div class='cl'><div class='vertical-center'>$80<br>in<br>12 weeks</div></div><div class='cr'><div class='vertical-center'>$78<br><br>now</div></div><div class='respDivL'><div class='vertical-center'>(E)</div></div><div class='respDivR'><div class='vertical-center'>(I)</div></div></div>","I","$78<br><br>now","$80<br>in<br>12 weeks","1","78","80","12","NOW"
"html-keyboard-response","54","66629","0.0-5.0-3.16","63d413840c9c512ac3dfc533","bdp_td","Mon Mar 27 2023 13:01:07 GMT-0700 (Mountain Standard Time)","88635","","null","","","","offerFB","","<div class='trialBorder'><div class='vertical-center'><img style='vertical-align:center; align:center' src=img/fixation3.jpg></div><div class='cl'><div class='vertical-center'>$80<br>in<br>12 weeks</div></div><div class='cr'><div class='vertical-center'><font style='color:orange'>$78<br><br>now</font></div></div><div class='respDivL'><div class='vertical-center'>(E)</div></div><div class='respDivR'><div class='vertical-center'><font style='color:orange'>(I)</font></div></div></div>","null","$78<br><br>now","$80<br>in<br>12 weeks","1","78","80","12",""
"html-keyboard-response","55","67130","0.0-5.0-1.17","63d413840c9c512ac3dfc533","bdp_td","Mon Mar 27 2023 13:01:07 GMT-0700 (Mountain Standard Time)","88635","","null","","","","FIX","","<div class='trialBorder'><div class='vertical-center'><img style='vertical-align:center; align:center' src=img/fixation3.jpg></div></div>","null","","","","","","",""
"html-keyboard-response","56","68362","0.0-5.0-2.17","63d413840c9c512ac3dfc533","bdp_td","Mon Mar 27 2023 13:01:07 GMT-0700 (Mountain Standard Time)","88635","","1230","","","","offer","","<div class='trialBorder'><div class='vertical-center'><img style='vertical-align:center; align:center' src=img/fixation3.jpg></div><div class='cl'><div class='vertical-center'>$69<br><br>now</div></div><div class='cr'><div class='vertical-center'>$85<br>in<br>6 weeks</div></div><div class='respDivL'><div class='vertical-center'>(E)</div></div><div class='respDivR'><div class='vertical-center'>(I)</div></div></div>","E","$69<br><br>now","$85<br>in<br>6 weeks","0","69","85","6","NOW"
"html-keyboard-response","57","68613","0.0-5.0-3.17","63d413840c9c512ac3dfc533","bdp_td","Mon Mar 27 2023 13:01:07 GMT-0700 (Mountain Standard Time)","88635","","null","","","","offerFB","","<div class='trialBorder'><div class='vertical-center'><img style='vertical-align:center; align:center' src=img/fixation3.jpg></div><div class='cl'><div class='vertical-center'><font style='color:orange'>$69<br><br>now</font></div></div><div class='cr'><div class='vertical-center'>$85<br>in<br>6 weeks</div></div><div class='respDivL'><div class='vertical-center'><font style='color:orange'>(E)</font></div></div><div class='respDivR'><div class='vertical-center'>(I)</div></div></div>","null","$69<br><br>now","$85<br>in<br>6 weeks","0","69","85","6",""
"html-keyboard-response","58","69114","0.0-5.0-1.18","63d413840c9c512ac3dfc533","bdp_td","Mon Mar 27 2023 13:01:07 GMT-0700 (Mountain Standard Time)","88635","","null","","","","FIX","","<div class='trialBorder'><div class='vertical-center'><img style='vertical-align:center; align:center' src=img/fixation3.jpg></div></div>","null","","","","","","",""
"html-keyboard-response","59","70091","0.0-5.0-2.18","63d413840c9c512ac3dfc533","bdp_td","Mon Mar 27 2023 13:01:07 GMT-0700 (Mountain Standard Time)","88635","","976","","","","offer","","<div class='trialBorder'><div class='vertical-center'><img style='vertical-align:center; align:center' src=img/fixation3.jpg></div><div class='cl'><div class='vertical-center'>$25<br><br>now</div></div><div class='cr'><div class='vertical-center'>$30<br>in<br>6 weeks</div></div><div class='respDivL'><div class='vertical-center'>(E)</div></div><div class='respDivR'><div class='vertical-center'>(I)</div></div></div>","E","$25<br><br>now","$30<br>in<br>6 weeks","0","25","30","6","NOW"
"html-keyboard-response","60","70341","0.0-5.0-3.18","63d413840c9c512ac3dfc533","bdp_td","Mon Mar 27 2023 13:01:07 GMT-0700 (Mountain Standard Time)","88635","","null","","","","offerFB","","<div class='trialBorder'><div class='vertical-center'><img style='vertical-align:center; align:center' src=img/fixation3.jpg></div><div class='cl'><div class='vertical-center'><font style='color:orange'>$25<br><br>now</font></div></div><div class='cr'><div class='vertical-center'>$30<br>in<br>6 weeks</div></div><div class='respDivL'><div class='vertical-center'><font style='color:orange'>(E)</font></div></div><div class='respDivR'><div class='vertical-center'>(I)</div></div></div>","null","$25<br><br>now","$30<br>in<br>6 weeks","0","25","30","6",""
"html-keyboard-response","61","70842","0.0-5.0-1.19","63d413840c9c512ac3dfc533","bdp_td","Mon Mar 27 2023 13:01:07 GMT-0700 (Mountain Standard Time)","88635","","null","","","","FIX","","<div class='trialBorder'><div class='vertical-center'><img style='vertical-align:center; align:center' src=img/fixation3.jpg></div></div>","null","","","","","","",""
"html-keyboard-response","62","71843","0.0-5.0-2.19","63d413840c9c512ac3dfc533","bdp_td","Mon Mar 27 2023 13:01:07 GMT-0700 (Mountain Standard Time)","88635","","1000","","","","offer","","<div class='trialBorder'><div class='vertical-center'><img style='vertical-align:center; align:center' src=img/fixation3.jpg></div><div class='cl'><div class='vertical-center'>$25<br><br>now</div></div><div class='cr'><div class='vertical-center'>$60<br>in<br>3 weeks</div></div><div class='respDivL'><div class='vertical-center'>(E)</div></div><div class='respDivR'><div class='vertical-center'>(I)</div></div></div>","E","$25<br><br>now","$60<br>in<br>3 weeks","0","25","60","3","NOW"
"html-keyboard-response","63","72095","0.0-5.0-3.19","63d413840c9c512ac3dfc533","bdp_td","Mon Mar 27 2023 13:01:07 GMT-0700 (Mountain Standard Time)","88635","","null","","","","offerFB","","<div class='trialBorder'><div class='vertical-center'><img style='vertical-align:center; align:center' src=img/fixation3.jpg></div><div class='cl'><div class='vertical-center'><font style='color:orange'>$25<br><br>now</font></div></div><div class='cr'><div class='vertical-center'>$60<br>in<br>3 weeks</div></div><div class='respDivL'><div class='vertical-center'><font style='color:orange'>(E)</font></div></div><div class='respDivR'><div class='vertical-center'>(I)</div></div></div>","null","$25<br><br>now","$60<br>in<br>3 weeks","0","25","60","3",""
"html-keyboard-response","64","72596","0.0-5.0-1.20","63d413840c9c512ac3dfc533","bdp_td","Mon Mar 27 2023 13:01:07 GMT-0700 (Mountain Standard Time)","88635","","null","","","","FIX","","<div class='trialBorder'><div class='vertical-center'><img style='vertical-align:center; align:center' src=img/fixation3.jpg></div></div>","null","","","","","","",""
"html-keyboard-response","65","74307","0.0-5.0-2.20","63d413840c9c512ac3dfc533","bdp_td","Mon Mar 27 2023 13:01:07 GMT-0700 (Mountain Standard Time)","88635","","1710","","","","offer","","<div class='trialBorder'><div class='vertical-center'><img style='vertical-align:center; align:center' src=img/fixation3.jpg></div><div class='cl'><div class='vertical-center'>$24<br><br>now</div></div><div class='cr'><div class='vertical-center'>$35<br>in<br>3 weeks</div></div><div class='respDivL'><div class='vertical-center'>(E)</div></div><div class='respDivR'><div class='vertical-center'>(I)</div></div></div>","E","$24<br><br>now","$35<br>in<br>3 weeks","0","24","35","3","NOW"
"html-keyboard-response","66","74559","0.0-5.0-3.20","63d413840c9c512ac3dfc533","bdp_td","Mon Mar 27 2023 13:01:07 GMT-0700 (Mountain Standard Time)","88635","","null","","","","offerFB","","<div class='trialBorder'><div class='vertical-center'><img style='vertical-align:center; align:center' src=img/fixation3.jpg></div><div class='cl'><div class='vertical-center'><font style='color:orange'>$24<br><br>now</font></div></div><div class='cr'><div class='vertical-center'>$35<br>in<br>3 weeks</div></div><div class='respDivL'><div class='vertical-center'><font style='color:orange'>(E)</font></div></div><div class='respDivR'><div class='vertical-center'>(I)</div></div></div>","null","$24<br><br>now","$35<br>in<br>3 weeks","0","24","35","3",""
"html-keyboard-response","67","75060","0.0-5.0-1.21","63d413840c9c512ac3dfc533","bdp_td","Mon Mar 27 2023 13:01:07 GMT-0700 (Mountain Standard Time)","88635","","null","","","","FIX","","<div class='trialBorder'><div class='vertical-center'><img style='vertical-align:center; align:center' src=img/fixation3.jpg></div></div>","null","","","","","","",""
"html-keyboard-response","68","76597","0.0-5.0-2.21","63d413840c9c512ac3dfc533","bdp_td","Mon Mar 27 2023 13:01:07 GMT-0700 (Mountain Standard Time)","88635","","1537","","","","offer","","<div class='trialBorder'><div class='vertical-center'><img style='vertical-align:center; align:center' src=img/fixation3.jpg></div><div class='cl'><div class='vertical-center'>$50<br>in<br>3 weeks</div></div><div class='cr'><div class='vertical-center'>$27<br><br>now</div></div><div class='respDivL'><div class='vertical-center'>(E)</div></div><div class='respDivR'><div class='vertical-center'>(I)</div></div></div>","I","$27<br><br>now","$50<br>in<br>3 weeks","1","27","50","3","NOW"
"html-keyboard-response","69","76848","0.0-5.0-3.21","63d413840c9c512ac3dfc533","bdp_td","Mon Mar 27 2023 13:01:07 GMT-0700 (Mountain Standard Time)","88635","","null","","","","offerFB","","<div class='trialBorder'><div class='vertical-center'><img style='vertical-align:center; align:center' src=img/fixation3.jpg></div><div class='cl'><div class='vertical-center'>$50<br>in<br>3 weeks</div></div><div class='cr'><div class='vertical-center'><font style='color:orange'>$27<br><br>now</font></div></div><div class='respDivL'><div class='vertical-center'>(E)</div></div><div class='respDivR'><div class='vertical-center'><font style='color:orange'>(I)</font></div></div></div>","null","$27<br><br>now","$50<br>in<br>3 weeks","1","27","50","3",""
"html-keyboard-response","70","77349","0.0-5.0-1.22","63d413840c9c512ac3dfc533","bdp_td","Mon Mar 27 2023 13:01:07 GMT-0700 (Mountain Standard Time)","88635","","null","","","","FIX","","<div class='trialBorder'><div class='vertical-center'><img style='vertical-align:center; align:center' src=img/fixation3.jpg></div></div>","null","","","","","","",""
"html-keyboard-response","71","78989","0.0-5.0-2.22","63d413840c9c512ac3dfc533","bdp_td","Mon Mar 27 2023 13:01:07 GMT-0700 (Mountain Standard Time)","88635","","1639","","","","offer","","<div class='trialBorder'><div class='vertical-center'><img style='vertical-align:center; align:center' src=img/fixation3.jpg></div><div class='cl'><div class='vertical-center'>$33<br><br>now</div></div><div class='cr'><div class='vertical-center'>$80<br>in<br>2 weeks</div></div><div class='respDivL'><div class='vertical-center'>(E)</div></div><div class='respDivR'><div class='vertical-center'>(I)</div></div></div>","I","$33<br><br>now","$80<br>in<br>2 weeks","0","33","80","2","THEN"
"html-keyboard-response","72","79240","0.0-5.0-3.22","63d413840c9c512ac3dfc533","bdp_td","Mon Mar 27 2023 13:01:07 GMT-0700 (Mountain Standard Time)","88635","","null","","","","offerFB","","<div class='trialBorder'><div class='vertical-center'><img style='vertical-align:center; align:center' src=img/fixation3.jpg></div><div class='cl'><div class='vertical-center'>$33<br><br>now</div></div><div class='cr'><div class='vertical-center'><font style='color:orange'>$80<br>in<br>2 weeks</font></div></div><div class='respDivL'><div class='vertical-center'>(E)</div></div><div class='respDivR'><div class='vertical-center'><font style='color:orange'>(I)</font></div></div></div>","null","$33<br><br>now","$80<br>in<br>2 weeks","0","33","80","2",""
"html-keyboard-response","73","79741","0.0-5.0-1.23","63d413840c9c512ac3dfc533","bdp_td","Mon Mar 27 2023 13:01:07 GMT-0700 (Mountain Standard Time)","88635","","null","","","","FIX","","<div class='trialBorder'><div class='vertical-center'><img style='vertical-align:center; align:center' src=img/fixation3.jpg></div></div>","null","","","","","","",""
"html-keyboard-response","74","81081","0.0-5.0-2.23","63d413840c9c512ac3dfc533","bdp_td","Mon Mar 27 2023 13:01:07 GMT-0700 (Mountain Standard Time)","88635","","1339","","","","offer","","<div class='trialBorder'><div class='vertical-center'><img style='vertical-align:center; align:center' src=img/fixation3.jpg></div><div class='cl'><div class='vertical-center'>$25<br>in<br>12 weeks</div></div><div class='cr'><div class='vertical-center'>$22<br><br>now</div></div><div class='respDivL'><div class='vertical-center'>(E)</div></div><div class='respDivR'><div class='vertical-center'>(I)</div></div></div>","E","$22<br><br>now","$25<br>in<br>12 weeks","1","22","25","12","THEN"
"html-keyboard-response","75","81332","0.0-5.0-3.23","63d413840c9c512ac3dfc533","bdp_td","Mon Mar 27 2023 13:01:07 GMT-0700 (Mountain Standard Time)","88635","","null","","","","offerFB","","<div class='trialBorder'><div class='vertical-center'><img style='vertical-align:center; align:center' src=img/fixation3.jpg></div><div class='cl'><div class='vertical-center'><font style='color:orange'>$25<br>in<br>12 weeks</font></div></div><div class='cr'><div class='vertical-center'>$22<br><br>now</div></div><div class='respDivL'><div class='vertical-center'><font style='color:orange'>(E)</font></div></div><div class='respDivR'><div class='vertical-center'>(I)</div></div></div>","null","$22<br><br>now","$25<br>in<br>12 weeks","1","22","25","12",""
"html-keyboard-response","76","81832","0.0-5.0-1.24","63d413840c9c512ac3dfc533","bdp_td","Mon Mar 27 2023 13:01:07 GMT-0700 (Mountain Standard Time)","88635","","null","","","","FIX","","<div class='trialBorder'><div class='vertical-center'><img style='vertical-align:center; align:center' src=img/fixation3.jpg></div></div>","null","","","","","","",""
"html-keyboard-response","77","82825","0.0-5.0-2.24","63d413840c9c512ac3dfc533","bdp_td","Mon Mar 27 2023 13:01:07 GMT-0700 (Mountain Standard Time)","88635","","992","","","","offer","","<div class='trialBorder'><div class='vertical-center'><img style='vertical-align:center; align:center' src=img/fixation3.jpg></div><div class='cl'><div class='vertical-center'>$75<br>in<br>12 weeks</div></div><div class='cr'><div class='vertical-center'>$67<br><br>now</div></div><div class='respDivL'><div class='vertical-center'>(E)</div></div><div class='respDivR'><div class='vertical-center'>(I)</div></div></div>","I","$67<br><br>now","$75<br>in<br>12 weeks","1","67","75","12","NOW"
"html-keyboard-response","78","83076","0.0-5.0-3.24","63d413840c9c512ac3dfc533","bdp_td","Mon Mar 27 2023 13:01:07 GMT-0700 (Mountain Standard Time)","88635","","null","","","","offerFB","","<div class='trialBorder'><div class='vertical-center'><img style='vertical-align:center; align:center' src=img/fixation3.jpg></div><div class='cl'><div class='vertical-center'>$75<br>in<br>12 weeks</div></div><div class='cr'><div class='vertical-center'><font style='color:orange'>$67<br><br>now</font></div></div><div class='respDivL'><div class='vertical-center'>(E)</div></div><div class='respDivR'><div class='vertical-center'><font style='color:orange'>(I)</font></div></div></div>","null","$67<br><br>now","$75<br>in<br>12 weeks","1","67","75","12",""
"html-keyboard-response","79","83578","0.0-5.0-1.25","63d413840c9c512ac3dfc533","bdp_td","Mon Mar 27 2023 13:01:07 GMT-0700 (Mountain Standard Time)","88635","","null","","","","FIX","","<div class='trialBorder'><div class='vertical-center'><img style='vertical-align:center; align:center' src=img/fixation3.jpg></div></div>","null","","","","","","",""
"html-keyboard-response","80","84724","0.0-5.0-2.25","63d413840c9c512ac3dfc533","bdp_td","Mon Mar 27 2023 13:01:07 GMT-0700 (Mountain Standard Time)","88635","","1146","","","","offer","","<div class='trialBorder'><div class='vertical-center'><img style='vertical-align:center; align:center' src=img/fixation3.jpg></div><div class='cl'><div class='vertical-center'>$28<br><br>now</div></div><div class='cr'><div class='vertical-center'>$30<br>in<br>12 weeks</div></div><div class='respDivL'><div class='vertical-center'>(E)</div></div><div class='respDivR'><div class='vertical-center'>(I)</div></div></div>","E","$28<br><br>now","$30<br>in<br>12 weeks","0","28","30","12","NOW"
"html-keyboard-response","81","84975","0.0-5.0-3.25","63d413840c9c512ac3dfc533","bdp_td","Mon Mar 27 2023 13:01:07 GMT-0700 (Mountain Standard Time)","88635","","null","","","","offerFB","","<div class='trialBorder'><div class='vertical-center'><img style='vertical-align:center; align:center' src=img/fixation3.jpg></div><div class='cl'><div class='vertical-center'><font style='color:orange'>$28<br><br>now</font></div></div><div class='cr'><div class='vertical-center'>$30<br>in<br>12 weeks</div></div><div class='respDivL'><div class='vertical-center'><font style='color:orange'>(E)</font></div></div><div class='respDivR'><div class='vertical-center'>(I)</div></div></div>","null","$28<br><br>now","$30<br>in<br>12 weeks","0","28","30","12",""
"html-keyboard-response","82","85476","0.0-5.0-1.26","63d413840c9c512ac3dfc533","bdp_td","Mon Mar 27 2023 13:01:07 GMT-0700 (Mountain Standard Time)","88635","","null","","","","FIX","","<div class='trialBorder'><div class='vertical-center'><img style='vertical-align:center; align:center' src=img/fixation3.jpg></div></div>","null","","","","","","",""
"html-keyboard-response","83","87382","0.0-5.0-2.26","63d413840c9c512ac3dfc533","bdp_td","Mon Mar 27 2023 13:01:07 GMT-0700 (Mountain Standard Time)","88635","","1905","","","","offer","","<div class='trialBorder'><div class='vertical-center'><img style='vertical-align:center; align:center' src=img/fixation3.jpg></div><div class='cl'><div class='vertical-center'>$49<br><br>now</div></div><div class='cr'><div class='vertical-center'>$60<br>in<br>6 weeks</div></div><div class='respDivL'><div class='vertical-center'>(E)</div></div><div class='respDivR'><div class='vertical-center'>(I)</div></div></div>","E","$49<br><br>now","$60<br>in<br>6 weeks","0","49","60","6","NOW"
"html-keyboard-response","84","87633","0.0-5.0-3.26","63d413840c9c512ac3dfc533","bdp_td","Mon Mar 27 2023 13:01:07 GMT-0700 (Mountain Standard Time)","88635","","null","","","","offerFB","","<div class='trialBorder'><div class='vertical-center'><img style='vertical-align:center; align:center' src=img/fixation3.jpg></div><div class='cl'><div class='vertical-center'><font style='color:orange'>$49<br><br>now</font></div></div><div class='cr'><div class='vertical-center'>$60<br>in<br>6 weeks</div></div><div class='respDivL'><div class='vertical-center'><font style='color:orange'>(E)</font></div></div><div class='respDivR'><div class='vertical-center'>(I)</div></div></div>","null","$49<br><br>now","$60<br>in<br>6 weeks","0","49","60","6",""
"","","","","63d413840c9c512ac3dfc533","bdp_td","Mon Mar 27 2023 13:01:07 GMT-0700 (Mountain Standard Time)","88635","","","fullscreenexit","85","87661","fullscreenexit","","","","","","","","","",""
"fullscreen","85","88635","0.0-6.0","63d413840c9c512ac3dfc533","bdp_td","Mon Mar 27 2023 13:01:07 GMT-0700 (Mountain Standard Time)","88635","","","","","","","true","","","","","","","","",""
"html-keyboard-response","86","89136","0.0-7.0","","","","","","null","","","","","","","null","","","","","","",""
