"trial_type","trial_index","time_elapsed","internal_node_id","subject_id","task","startTime","totalTime","view_history","rt","event","trial","time","trialtype","success","stimulus","key_press","nowOffer","thenOffer","thenLeft","nowAmt","thenAmt","thenWeeks","chosen"
"pavlovia","0","4","0.0-0.0","63ed0065eb23ac3ee1726453","bdp_td","Sat Mar 25 2023 20:14:24 GMT-0400 (Eastern Daylight Time)","80248","","","","","","","","","","","","","","","",""
"instructions","1","1369","0.0-1.0","63ed0065eb23ac3ee1726453","bdp_td","Sat Mar 25 2023 20:14:24 GMT-0400 (Eastern Daylight Time)","80248","[{""page_index"":0,""viewing_time"":1365}]","1365","","","","","","","","","","","","","",""
"","","","","63ed0065eb23ac3ee1726453","bdp_td","Sat Mar 25 2023 20:14:24 GMT-0400 (Eastern Daylight Time)","80248","","","fullscreenenter","2","3222","fullscreenenter","","","","","","","","","",""
"fullscreen","2","4176","0.0-2.0","63ed0065eb23ac3ee1726453","bdp_td","Sat Mar 25 2023 20:14:24 GMT-0400 (Eastern Daylight Time)","80248","","","","","","","true","","","","","","","","",""
"instructions","3","26377","0.0-4.0","63ed0065eb23ac3ee1726453","bdp_td","Sat Mar 25 2023 20:14:24 GMT-0400 (Eastern Daylight Time)","80248","[{""page_index"":0,""viewing_time"":18176},{""page_index"":1,""viewing_time"":3218},{""page_index"":2,""viewing_time"":800}]","22194","","","","","","","","","","","","","",""
"html-keyboard-response","4","26880","0.0-5.0-1.0","63ed0065eb23ac3ee1726453","bdp_td","Sat Mar 25 2023 20:14:24 GMT-0400 (Eastern Daylight Time)","80248","","null","","","","FIX","","<div class='trialBorder'><div class='vertical-center'><img style='vertical-align:center; align:center' src=img/fixation3.jpg></div></div>","null","","","","","","",""
"html-keyboard-response","5","28776","0.0-5.0-2.0","63ed0065eb23ac3ee1726453","bdp_td","Sat Mar 25 2023 20:14:24 GMT-0400 (Eastern Daylight Time)","80248","","1895","","","","offer","","<div class='trialBorder'><div class='vertical-center'><img style='vertical-align:center; align:center' src=img/fixation3.jpg></div><div class='cl'><div class='vertical-center'>$85<br>in<br>6 weeks</div></div><div class='cr'><div class='vertical-center'>$69<br><br>now</div></div><div class='respDivL'><div class='vertical-center'>(E)</div></div><div class='respDivR'><div class='vertical-center'>(I)</div></div></div>","I","$69<br><br>now","$85<br>in<br>6 weeks","1","69","85","6","NOW"
"html-keyboard-response","6","29028","0.0-5.0-3.0","63ed0065eb23ac3ee1726453","bdp_td","Sat Mar 25 2023 20:14:24 GMT-0400 (Eastern Daylight Time)","80248","","null","","","","offerFB","","<div class='trialBorder'><div class='vertical-center'><img style='vertical-align:center; align:center' src=img/fixation3.jpg></div><div class='cl'><div class='vertical-center'>$85<br>in<br>6 weeks</div></div><div class='cr'><div class='vertical-center'><font style='color:orange'>$69<br><br>now</font></div></div><div class='respDivL'><div class='vertical-center'>(E)</div></div><div class='respDivR'><div class='vertical-center'><font style='color:orange'>(I)</font></div></div></div>","null","$69<br><br>now","$85<br>in<br>6 weeks","1","69","85","6",""
"html-keyboard-response","7","29531","0.0-5.0-1.1","63ed0065eb23ac3ee1726453","bdp_td","Sat Mar 25 2023 20:14:24 GMT-0400 (Eastern Daylight Time)","80248","","null","","","","FIX","","<div class='trialBorder'><div class='vertical-center'><img style='vertical-align:center; align:center' src=img/fixation3.jpg></div></div>","null","","","","","","",""
"html-keyboard-response","8","32261","0.0-5.0-2.1","63ed0065eb23ac3ee1726453","bdp_td","Sat Mar 25 2023 20:14:24 GMT-0400 (Eastern Daylight Time)","80248","","2730","","","","offer","","<div class='trialBorder'><div class='vertical-center'><img style='vertical-align:center; align:center' src=img/fixation3.jpg></div><div class='cl'><div class='vertical-center'>$40<br><br>now</div></div><div class='cr'><div class='vertical-center'>$55<br>in<br>6 weeks</div></div><div class='respDivL'><div class='vertical-center'>(E)</div></div><div class='respDivR'><div class='vertical-center'>(I)</div></div></div>","E","$40<br><br>now","$55<br>in<br>6 weeks","0","40","55","6","NOW"
"html-keyboard-response","9","32513","0.0-5.0-3.1","63ed0065eb23ac3ee1726453","bdp_td","Sat Mar 25 2023 20:14:24 GMT-0400 (Eastern Daylight Time)","80248","","null","","","","offerFB","","<div class='trialBorder'><div class='vertical-center'><img style='vertical-align:center; align:center' src=img/fixation3.jpg></div><div class='cl'><div class='vertical-center'><font style='color:orange'>$40<br><br>now</font></div></div><div class='cr'><div class='vertical-center'>$55<br>in<br>6 weeks</div></div><div class='respDivL'><div class='vertical-center'><font style='color:orange'>(E)</font></div></div><div class='respDivR'><div class='vertical-center'>(I)</div></div></div>","null","$40<br><br>now","$55<br>in<br>6 weeks","0","40","55","6",""
"html-keyboard-response","10","33015","0.0-5.0-1.2","63ed0065eb23ac3ee1726453","bdp_td","Sat Mar 25 2023 20:14:24 GMT-0400 (Eastern Daylight Time)","80248","","null","","","","FIX","","<div class='trialBorder'><div class='vertical-center'><img style='vertical-align:center; align:center' src=img/fixation3.jpg></div></div>","null","","","","","","",""
"html-keyboard-response","11","34691","0.0-5.0-2.2","63ed0065eb23ac3ee1726453","bdp_td","Sat Mar 25 2023 20:14:24 GMT-0400 (Eastern Daylight Time)","80248","","1675","","","","offer","","<div class='trialBorder'><div class='vertical-center'><img style='vertical-align:center; align:center' src=img/fixation3.jpg></div><div class='cl'><div class='vertical-center'>$49<br><br>now</div></div><div class='cr'><div class='vertical-center'>$60<br>in<br>6 weeks</div></div><div class='respDivL'><div class='vertical-center'>(E)</div></div><div class='respDivR'><div class='vertical-center'>(I)</div></div></div>","E","$49<br><br>now","$60<br>in<br>6 weeks","0","49","60","6","NOW"
"html-keyboard-response","12","34943","0.0-5.0-3.2","63ed0065eb23ac3ee1726453","bdp_td","Sat Mar 25 2023 20:14:24 GMT-0400 (Eastern Daylight Time)","80248","","null","","","","offerFB","","<div class='trialBorder'><div class='vertical-center'><img style='vertical-align:center; align:center' src=img/fixation3.jpg></div><div class='cl'><div class='vertical-center'><font style='color:orange'>$49<br><br>now</font></div></div><div class='cr'><div class='vertical-center'>$60<br>in<br>6 weeks</div></div><div class='respDivL'><div class='vertical-center'><font style='color:orange'>(E)</font></div></div><div class='respDivR'><div class='vertical-center'>(I)</div></div></div>","null","$49<br><br>now","$60<br>in<br>6 weeks","0","49","60","6",""
"html-keyboard-response","13","35446","0.0-5.0-1.3","63ed0065eb23ac3ee1726453","bdp_td","Sat Mar 25 2023 20:14:24 GMT-0400 (Eastern Daylight Time)","80248","","null","","","","FIX","","<div class='trialBorder'><div class='vertical-center'><img style='vertical-align:center; align:center' src=img/fixation3.jpg></div></div>","null","","","","","","",""
"html-keyboard-response","14","36418","0.0-5.0-2.3","63ed0065eb23ac3ee1726453","bdp_td","Sat Mar 25 2023 20:14:24 GMT-0400 (Eastern Daylight Time)","80248","","972","","","","offer","","<div class='trialBorder'><div class='vertical-center'><img style='vertical-align:center; align:center' src=img/fixation3.jpg></div><div class='cl'><div class='vertical-center'>$28<br><br>now</div></div><div class='cr'><div class='vertical-center'>$30<br>in<br>12 weeks</div></div><div class='respDivL'><div class='vertical-center'>(E)</div></div><div class='respDivR'><div class='vertical-center'>(I)</div></div></div>","E","$28<br><br>now","$30<br>in<br>12 weeks","0","28","30","12","NOW"
"html-keyboard-response","15","36670","0.0-5.0-3.3","63ed0065eb23ac3ee1726453","bdp_td","Sat Mar 25 2023 20:14:24 GMT-0400 (Eastern Daylight Time)","80248","","null","","","","offerFB","","<div class='trialBorder'><div class='vertical-center'><img style='vertical-align:center; align:center' src=img/fixation3.jpg></div><div class='cl'><div class='vertical-center'><font style='color:orange'>$28<br><br>now</font></div></div><div class='cr'><div class='vertical-center'>$30<br>in<br>12 weeks</div></div><div class='respDivL'><div class='vertical-center'><font style='color:orange'>(E)</font></div></div><div class='respDivR'><div class='vertical-center'>(I)</div></div></div>","null","$28<br><br>now","$30<br>in<br>12 weeks","0","28","30","12",""
"html-keyboard-response","16","37171","0.0-5.0-1.4","63ed0065eb23ac3ee1726453","bdp_td","Sat Mar 25 2023 20:14:24 GMT-0400 (Eastern Daylight Time)","80248","","null","","","","FIX","","<div class='trialBorder'><div class='vertical-center'><img style='vertical-align:center; align:center' src=img/fixation3.jpg></div></div>","null","","","","","","",""
"html-keyboard-response","17","38077","0.0-5.0-2.4","63ed0065eb23ac3ee1726453","bdp_td","Sat Mar 25 2023 20:14:24 GMT-0400 (Eastern Daylight Time)","80248","","905","","","","offer","","<div class='trialBorder'><div class='vertical-center'><img style='vertical-align:center; align:center' src=img/fixation3.jpg></div><div class='cl'><div class='vertical-center'>$30<br>in<br>6 weeks</div></div><div class='cr'><div class='vertical-center'>$25<br><br>now</div></div><div class='respDivL'><div class='vertical-center'>(E)</div></div><div class='respDivR'><div class='vertical-center'>(I)</div></div></div>","I","$25<br><br>now","$30<br>in<br>6 weeks","1","25","30","6","NOW"
"html-keyboard-response","18","38329","0.0-5.0-3.4","63ed0065eb23ac3ee1726453","bdp_td","Sat Mar 25 2023 20:14:24 GMT-0400 (Eastern Daylight Time)","80248","","null","","","","offerFB","","<div class='trialBorder'><div class='vertical-center'><img style='vertical-align:center; align:center' src=img/fixation3.jpg></div><div class='cl'><div class='vertical-center'>$30<br>in<br>6 weeks</div></div><div class='cr'><div class='vertical-center'><font style='color:orange'>$25<br><br>now</font></div></div><div class='respDivL'><div class='vertical-center'>(E)</div></div><div class='respDivR'><div class='vertical-center'><font style='color:orange'>(I)</font></div></div></div>","null","$25<br><br>now","$30<br>in<br>6 weeks","1","25","30","6",""
"html-keyboard-response","19","38830","0.0-5.0-1.5","63ed0065eb23ac3ee1726453","bdp_td","Sat Mar 25 2023 20:14:24 GMT-0400 (Eastern Daylight Time)","80248","","null","","","","FIX","","<div class='trialBorder'><div class='vertical-center'><img style='vertical-align:center; align:center' src=img/fixation3.jpg></div></div>","null","","","","","","",""
"html-keyboard-response","20","41493","0.0-5.0-2.5","63ed0065eb23ac3ee1726453","bdp_td","Sat Mar 25 2023 20:14:24 GMT-0400 (Eastern Daylight Time)","80248","","2661","","","","offer","","<div class='trialBorder'><div class='vertical-center'><img style='vertical-align:center; align:center' src=img/fixation3.jpg></div><div class='cl'><div class='vertical-center'>$55<br>in<br>1 week</div></div><div class='cr'><div class='vertical-center'>$20<br><br>now</div></div><div class='respDivL'><div class='vertical-center'>(E)</div></div><div class='respDivR'><div class='vertical-center'>(I)</div></div></div>","E","$20<br><br>now","$55<br>in<br>1 week","1","20","55","1","THEN"
"html-keyboard-response","21","41744","0.0-5.0-3.5","63ed0065eb23ac3ee1726453","bdp_td","Sat Mar 25 2023 20:14:24 GMT-0400 (Eastern Daylight Time)","80248","","null","","","","offerFB","","<div class='trialBorder'><div class='vertical-center'><img style='vertical-align:center; align:center' src=img/fixation3.jpg></div><div class='cl'><div class='vertical-center'><font style='color:orange'>$55<br>in<br>1 week</font></div></div><div class='cr'><div class='vertical-center'>$20<br><br>now</div></div><div class='respDivL'><div class='vertical-center'><font style='color:orange'>(E)</font></div></div><div class='respDivR'><div class='vertical-center'>(I)</div></div></div>","null","$20<br><br>now","$55<br>in<br>1 week","1","20","55","1",""
"html-keyboard-response","22","42246","0.0-5.0-1.6","63ed0065eb23ac3ee1726453","bdp_td","Sat Mar 25 2023 20:14:24 GMT-0400 (Eastern Daylight Time)","80248","","null","","","","FIX","","<div class='trialBorder'><div class='vertical-center'><img style='vertical-align:center; align:center' src=img/fixation3.jpg></div></div>","null","","","","","","",""
"html-keyboard-response","23","44721","0.0-5.0-2.6","63ed0065eb23ac3ee1726453","bdp_td","Sat Mar 25 2023 20:14:24 GMT-0400 (Eastern Daylight Time)","80248","","2475","","","","offer","","<div class='trialBorder'><div class='vertical-center'><img style='vertical-align:center; align:center' src=img/fixation3.jpg></div><div class='cl'><div class='vertical-center'>$75<br>in<br>12 weeks</div></div><div class='cr'><div class='vertical-center'>$67<br><br>now</div></div><div class='respDivL'><div class='vertical-center'>(E)</div></div><div class='respDivR'><div class='vertical-center'>(I)</div></div></div>","I","$67<br><br>now","$75<br>in<br>12 weeks","1","67","75","12","NOW"
"html-keyboard-response","24","44973","0.0-5.0-3.6","63ed0065eb23ac3ee1726453","bdp_td","Sat Mar 25 2023 20:14:24 GMT-0400 (Eastern Daylight Time)","80248","","null","","","","offerFB","","<div class='trialBorder'><div class='vertical-center'><img style='vertical-align:center; align:center' src=img/fixation3.jpg></div><div class='cl'><div class='vertical-center'>$75<br>in<br>12 weeks</div></div><div class='cr'><div class='vertical-center'><font style='color:orange'>$67<br><br>now</font></div></div><div class='respDivL'><div class='vertical-center'>(E)</div></div><div class='respDivR'><div class='vertical-center'><font style='color:orange'>(I)</font></div></div></div>","null","$67<br><br>now","$75<br>in<br>12 weeks","1","67","75","12",""
"html-keyboard-response","25","45474","0.0-5.0-1.7","63ed0065eb23ac3ee1726453","bdp_td","Sat Mar 25 2023 20:14:24 GMT-0400 (Eastern Daylight Time)","80248","","null","","","","FIX","","<div class='trialBorder'><div class='vertical-center'><img style='vertical-align:center; align:center' src=img/fixation3.jpg></div></div>","null","","","","","","",""
"html-keyboard-response","26","47051","0.0-5.0-2.7","63ed0065eb23ac3ee1726453","bdp_td","Sat Mar 25 2023 20:14:24 GMT-0400 (Eastern Daylight Time)","80248","","1576","","","","offer","","<div class='trialBorder'><div class='vertical-center'><img style='vertical-align:center; align:center' src=img/fixation3.jpg></div><div class='cl'><div class='vertical-center'>$54<br><br>now</div></div><div class='cr'><div class='vertical-center'>$60<br>in<br>12 weeks</div></div><div class='respDivL'><div class='vertical-center'>(E)</div></div><div class='respDivR'><div class='vertical-center'>(I)</div></div></div>","E","$54<br><br>now","$60<br>in<br>12 weeks","0","54","60","12","NOW"
"html-keyboard-response","27","47303","0.0-5.0-3.7","63ed0065eb23ac3ee1726453","bdp_td","Sat Mar 25 2023 20:14:24 GMT-0400 (Eastern Daylight Time)","80248","","null","","","","offerFB","","<div class='trialBorder'><div class='vertical-center'><img style='vertical-align:center; align:center' src=img/fixation3.jpg></div><div class='cl'><div class='vertical-center'><font style='color:orange'>$54<br><br>now</font></div></div><div class='cr'><div class='vertical-center'>$60<br>in<br>12 weeks</div></div><div class='respDivL'><div class='vertical-center'><font style='color:orange'>(E)</font></div></div><div class='respDivR'><div class='vertical-center'>(I)</div></div></div>","null","$54<br><br>now","$60<br>in<br>12 weeks","0","54","60","12",""
"html-keyboard-response","28","47805","0.0-5.0-1.8","63ed0065eb23ac3ee1726453","bdp_td","Sat Mar 25 2023 20:14:24 GMT-0400 (Eastern Daylight Time)","80248","","null","","","","FIX","","<div class='trialBorder'><div class='vertical-center'><img style='vertical-align:center; align:center' src=img/fixation3.jpg></div></div>","null","","","","","","",""
"html-keyboard-response","29","50092","0.0-5.0-2.8","63ed0065eb23ac3ee1726453","bdp_td","Sat Mar 25 2023 20:14:24 GMT-0400 (Eastern Daylight Time)","80248","","2286","","","","offer","","<div class='trialBorder'><div class='vertical-center'><img style='vertical-align:center; align:center' src=img/fixation3.jpg></div><div class='cl'><div class='vertical-center'>$80<br>in<br>2 weeks</div></div><div class='cr'><div class='vertical-center'>$33<br><br>now</div></div><div class='respDivL'><div class='vertical-center'>(E)</div></div><div class='respDivR'><div class='vertical-center'>(I)</div></div></div>","I","$33<br><br>now","$80<br>in<br>2 weeks","1","33","80","2","NOW"
"html-keyboard-response","30","50344","0.0-5.0-3.8","63ed0065eb23ac3ee1726453","bdp_td","Sat Mar 25 2023 20:14:24 GMT-0400 (Eastern Daylight Time)","80248","","null","","","","offerFB","","<div class='trialBorder'><div class='vertical-center'><img style='vertical-align:center; align:center' src=img/fixation3.jpg></div><div class='cl'><div class='vertical-center'>$80<br>in<br>2 weeks</div></div><div class='cr'><div class='vertical-center'><font style='color:orange'>$33<br><br>now</font></div></div><div class='respDivL'><div class='vertical-center'>(E)</div></div><div class='respDivR'><div class='vertical-center'><font style='color:orange'>(I)</font></div></div></div>","null","$33<br><br>now","$80<br>in<br>2 weeks","1","33","80","2",""
"html-keyboard-response","31","50845","0.0-5.0-1.9","63ed0065eb23ac3ee1726453","bdp_td","Sat Mar 25 2023 20:14:24 GMT-0400 (Eastern Daylight Time)","80248","","null","","","","FIX","","<div class='trialBorder'><div class='vertical-center'><img style='vertical-align:center; align:center' src=img/fixation3.jpg></div></div>","null","","","","","","",""
"html-keyboard-response","32","52215","0.0-5.0-2.9","63ed0065eb23ac3ee1726453","bdp_td","Sat Mar 25 2023 20:14:24 GMT-0400 (Eastern Daylight Time)","80248","","1369","","","","offer","","<div class='trialBorder'><div class='vertical-center'><img style='vertical-align:center; align:center' src=img/fixation3.jpg></div><div class='cl'><div class='vertical-center'>$35<br>in<br>12 weeks</div></div><div class='cr'><div class='vertical-center'>$34<br><br>now</div></div><div class='respDivL'><div class='vertical-center'>(E)</div></div><div class='respDivR'><div class='vertical-center'>(I)</div></div></div>","I","$34<br><br>now","$35<br>in<br>12 weeks","1","34","35","12","NOW"
"html-keyboard-response","33","52466","0.0-5.0-3.9","63ed0065eb23ac3ee1726453","bdp_td","Sat Mar 25 2023 20:14:24 GMT-0400 (Eastern Daylight Time)","80248","","null","","","","offerFB","","<div class='trialBorder'><div class='vertical-center'><img style='vertical-align:center; align:center' src=img/fixation3.jpg></div><div class='cl'><div class='vertical-center'>$35<br>in<br>12 weeks</div></div><div class='cr'><div class='vertical-center'><font style='color:orange'>$34<br><br>now</font></div></div><div class='respDivL'><div class='vertical-center'>(E)</div></div><div class='respDivR'><div class='vertical-center'><font style='color:orange'>(I)</font></div></div></div>","null","$34<br><br>now","$35<br>in<br>12 weeks","1","34","35","12",""
"html-keyboard-response","34","52969","0.0-5.0-1.10","63ed0065eb23ac3ee1726453","bdp_td","Sat Mar 25 2023 20:14:24 GMT-0400 (Eastern Daylight Time)","80248","","null","","","","FIX","","<div class='trialBorder'><div class='vertical-center'><img style='vertical-align:center; align:center' src=img/fixation3.jpg></div></div>","null","","","","","","",""
"html-keyboard-response","35","55671","0.0-5.0-2.10","63ed0065eb23ac3ee1726453","bdp_td","Sat Mar 25 2023 20:14:24 GMT-0400 (Eastern Daylight Time)","80248","","2701","","","","offer","","<div class='trialBorder'><div class='vertical-center'><img style='vertical-align:center; align:center' src=img/fixation3.jpg></div><div class='cl'><div class='vertical-center'>$85<br>in<br>1 week</div></div><div class='cr'><div class='vertical-center'>$31<br><br>now</div></div><div class='respDivL'><div class='vertical-center'>(E)</div></div><div class='respDivR'><div class='vertical-center'>(I)</div></div></div>","I","$31<br><br>now","$85<br>in<br>1 week","1","31","85","1","NOW"
"html-keyboard-response","36","55923","0.0-5.0-3.10","63ed0065eb23ac3ee1726453","bdp_td","Sat Mar 25 2023 20:14:24 GMT-0400 (Eastern Daylight Time)","80248","","null","","","","offerFB","","<div class='trialBorder'><div class='vertical-center'><img style='vertical-align:center; align:center' src=img/fixation3.jpg></div><div class='cl'><div class='vertical-center'>$85<br>in<br>1 week</div></div><div class='cr'><div class='vertical-center'><font style='color:orange'>$31<br><br>now</font></div></div><div class='respDivL'><div class='vertical-center'>(E)</div></div><div class='respDivR'><div class='vertical-center'><font style='color:orange'>(I)</font></div></div></div>","null","$31<br><br>now","$85<br>in<br>1 week","1","31","85","1",""
"html-keyboard-response","37","56425","0.0-5.0-1.11","63ed0065eb23ac3ee1726453","bdp_td","Sat Mar 25 2023 20:14:24 GMT-0400 (Eastern Daylight Time)","80248","","null","","","","FIX","","<div class='trialBorder'><div class='vertical-center'><img style='vertical-align:center; align:center' src=img/fixation3.jpg></div></div>","null","","","","","","",""
"html-keyboard-response","38","57912","0.0-5.0-2.11","63ed0065eb23ac3ee1726453","bdp_td","Sat Mar 25 2023 20:14:24 GMT-0400 (Eastern Daylight Time)","80248","","1486","","","","offer","","<div class='trialBorder'><div class='vertical-center'><img style='vertical-align:center; align:center' src=img/fixation3.jpg></div><div class='cl'><div class='vertical-center'>$50<br>in<br>3 weeks</div></div><div class='cr'><div class='vertical-center'>$27<br><br>now</div></div><div class='respDivL'><div class='vertical-center'>(E)</div></div><div class='respDivR'><div class='vertical-center'>(I)</div></div></div>","I","$27<br><br>now","$50<br>in<br>3 weeks","1","27","50","3","NOW"
"html-keyboard-response","39","58164","0.0-5.0-3.11","63ed0065eb23ac3ee1726453","bdp_td","Sat Mar 25 2023 20:14:24 GMT-0400 (Eastern Daylight Time)","80248","","null","","","","offerFB","","<div class='trialBorder'><div class='vertical-center'><img style='vertical-align:center; align:center' src=img/fixation3.jpg></div><div class='cl'><div class='vertical-center'>$50<br>in<br>3 weeks</div></div><div class='cr'><div class='vertical-center'><font style='color:orange'>$27<br><br>now</font></div></div><div class='respDivL'><div class='vertical-center'>(E)</div></div><div class='respDivR'><div class='vertical-center'><font style='color:orange'>(I)</font></div></div></div>","null","$27<br><br>now","$50<br>in<br>3 weeks","1","27","50","3",""
"html-keyboard-response","40","58666","0.0-5.0-1.12","63ed0065eb23ac3ee1726453","bdp_td","Sat Mar 25 2023 20:14:24 GMT-0400 (Eastern Daylight Time)","80248","","null","","","","FIX","","<div class='trialBorder'><div class='vertical-center'><img style='vertical-align:center; align:center' src=img/fixation3.jpg></div></div>","null","","","","","","",""
"html-keyboard-response","41","59512","0.0-5.0-2.12","63ed0065eb23ac3ee1726453","bdp_td","Sat Mar 25 2023 20:14:24 GMT-0400 (Eastern Daylight Time)","80248","","844","","","","offer","","<div class='trialBorder'><div class='vertical-center'><img style='vertical-align:center; align:center' src=img/fixation3.jpg></div><div class='cl'><div class='vertical-center'>$25<br><br>now</div></div><div class='cr'><div class='vertical-center'>$60<br>in<br>3 weeks</div></div><div class='respDivL'><div class='vertical-center'>(E)</div></div><div class='respDivR'><div class='vertical-center'>(I)</div></div></div>","E","$25<br><br>now","$60<br>in<br>3 weeks","0","25","60","3","NOW"
"html-keyboard-response","42","59764","0.0-5.0-3.12","63ed0065eb23ac3ee1726453","bdp_td","Sat Mar 25 2023 20:14:24 GMT-0400 (Eastern Daylight Time)","80248","","null","","","","offerFB","","<div class='trialBorder'><div class='vertical-center'><img style='vertical-align:center; align:center' src=img/fixation3.jpg></div><div class='cl'><div class='vertical-center'><font style='color:orange'>$25<br><br>now</font></div></div><div class='cr'><div class='vertical-center'>$60<br>in<br>3 weeks</div></div><div class='respDivL'><div class='vertical-center'><font style='color:orange'>(E)</font></div></div><div class='respDivR'><div class='vertical-center'>(I)</div></div></div>","null","$25<br><br>now","$60<br>in<br>3 weeks","0","25","60","3",""
"html-keyboard-response","43","60266","0.0-5.0-1.13","63ed0065eb23ac3ee1726453","bdp_td","Sat Mar 25 2023 20:14:24 GMT-0400 (Eastern Daylight Time)","80248","","null","","","","FIX","","<div class='trialBorder'><div class='vertical-center'><img style='vertical-align:center; align:center' src=img/fixation3.jpg></div></div>","null","","","","","","",""
"html-keyboard-response","44","60845","0.0-5.0-2.13","63ed0065eb23ac3ee1726453","bdp_td","Sat Mar 25 2023 20:14:24 GMT-0400 (Eastern Daylight Time)","80248","","577","","","","offer","","<div class='trialBorder'><div class='vertical-center'><img style='vertical-align:center; align:center' src=img/fixation3.jpg></div><div class='cl'><div class='vertical-center'>$50<br>in<br>6 weeks</div></div><div class='cr'><div class='vertical-center'>$34<br><br>now</div></div><div class='respDivL'><div class='vertical-center'>(E)</div></div><div class='respDivR'><div class='vertical-center'>(I)</div></div></div>","I","$34<br><br>now","$50<br>in<br>6 weeks","1","34","50","6","NOW"
"html-keyboard-response","45","61097","0.0-5.0-3.13","63ed0065eb23ac3ee1726453","bdp_td","Sat Mar 25 2023 20:14:24 GMT-0400 (Eastern Daylight Time)","80248","","null","","","","offerFB","","<div class='trialBorder'><div class='vertical-center'><img style='vertical-align:center; align:center' src=img/fixation3.jpg></div><div class='cl'><div class='vertical-center'>$50<br>in<br>6 weeks</div></div><div class='cr'><div class='vertical-center'><font style='color:orange'>$34<br><br>now</font></div></div><div class='respDivL'><div class='vertical-center'>(E)</div></div><div class='respDivR'><div class='vertical-center'><font style='color:orange'>(I)</font></div></div></div>","null","$34<br><br>now","$50<br>in<br>6 weeks","1","34","50","6",""
"html-keyboard-response","46","61599","0.0-5.0-1.14","63ed0065eb23ac3ee1726453","bdp_td","Sat Mar 25 2023 20:14:24 GMT-0400 (Eastern Daylight Time)","80248","","null","","","","FIX","","<div class='trialBorder'><div class='vertical-center'><img style='vertical-align:center; align:center' src=img/fixation3.jpg></div></div>","null","","","","","","",""
"html-keyboard-response","47","62148","0.0-5.0-2.14","63ed0065eb23ac3ee1726453","bdp_td","Sat Mar 25 2023 20:14:24 GMT-0400 (Eastern Daylight Time)","80248","","548","","","","offer","","<div class='trialBorder'><div class='vertical-center'><img style='vertical-align:center; align:center' src=img/fixation3.jpg></div><div class='cl'><div class='vertical-center'>$19<br><br>now</div></div><div class='cr'><div class='vertical-center'>$25<br>in<br>6 weeks</div></div><div class='respDivL'><div class='vertical-center'>(E)</div></div><div class='respDivR'><div class='vertical-center'>(I)</div></div></div>","E","$19<br><br>now","$25<br>in<br>6 weeks","0","19","25","6","NOW"
"html-keyboard-response","48","62400","0.0-5.0-3.14","63ed0065eb23ac3ee1726453","bdp_td","Sat Mar 25 2023 20:14:24 GMT-0400 (Eastern Daylight Time)","80248","","null","","","","offerFB","","<div class='trialBorder'><div class='vertical-center'><img style='vertical-align:center; align:center' src=img/fixation3.jpg></div><div class='cl'><div class='vertical-center'><font style='color:orange'>$19<br><br>now</font></div></div><div class='cr'><div class='vertical-center'>$25<br>in<br>6 weeks</div></div><div class='respDivL'><div class='vertical-center'><font style='color:orange'>(E)</font></div></div><div class='respDivR'><div class='vertical-center'>(I)</div></div></div>","null","$19<br><br>now","$25<br>in<br>6 weeks","0","19","25","6",""
"html-keyboard-response","49","62902","0.0-5.0-1.15","63ed0065eb23ac3ee1726453","bdp_td","Sat Mar 25 2023 20:14:24 GMT-0400 (Eastern Daylight Time)","80248","","null","","","","FIX","","<div class='trialBorder'><div class='vertical-center'><img style='vertical-align:center; align:center' src=img/fixation3.jpg></div></div>","null","","","","","","",""
"html-keyboard-response","50","63689","0.0-5.0-2.15","63ed0065eb23ac3ee1726453","bdp_td","Sat Mar 25 2023 20:14:24 GMT-0400 (Eastern Daylight Time)","80248","","785","","","","offer","","<div class='trialBorder'><div class='vertical-center'><img style='vertical-align:center; align:center' src=img/fixation3.jpg></div><div class='cl'><div class='vertical-center'>$25<br>in<br>12 weeks</div></div><div class='cr'><div class='vertical-center'>$22<br><br>now</div></div><div class='respDivL'><div class='vertical-center'>(E)</div></div><div class='respDivR'><div class='vertical-center'>(I)</div></div></div>","I","$22<br><br>now","$25<br>in<br>12 weeks","1","22","25","12","NOW"
"html-keyboard-response","51","63941","0.0-5.0-3.15","63ed0065eb23ac3ee1726453","bdp_td","Sat Mar 25 2023 20:14:24 GMT-0400 (Eastern Daylight Time)","80248","","null","","","","offerFB","","<div class='trialBorder'><div class='vertical-center'><img style='vertical-align:center; align:center' src=img/fixation3.jpg></div><div class='cl'><div class='vertical-center'>$25<br>in<br>12 weeks</div></div><div class='cr'><div class='vertical-center'><font style='color:orange'>$22<br><br>now</font></div></div><div class='respDivL'><div class='vertical-center'>(E)</div></div><div class='respDivR'><div class='vertical-center'><font style='color:orange'>(I)</font></div></div></div>","null","$22<br><br>now","$25<br>in<br>12 weeks","1","22","25","12",""
"html-keyboard-response","52","64443","0.0-5.0-1.16","63ed0065eb23ac3ee1726453","bdp_td","Sat Mar 25 2023 20:14:24 GMT-0400 (Eastern Daylight Time)","80248","","null","","","","FIX","","<div class='trialBorder'><div class='vertical-center'><img style='vertical-align:center; align:center' src=img/fixation3.jpg></div></div>","null","","","","","","",""
"html-keyboard-response","53","65101","0.0-5.0-2.16","63ed0065eb23ac3ee1726453","bdp_td","Sat Mar 25 2023 20:14:24 GMT-0400 (Eastern Daylight Time)","80248","","656","","","","offer","","<div class='trialBorder'><div class='vertical-center'><img style='vertical-align:center; align:center' src=img/fixation3.jpg></div><div class='cl'><div class='vertical-center'>$41<br><br>now</div></div><div class='cr'><div class='vertical-center'>$75<br>in<br>3 weeks</div></div><div class='respDivL'><div class='vertical-center'>(E)</div></div><div class='respDivR'><div class='vertical-center'>(I)</div></div></div>","E","$41<br><br>now","$75<br>in<br>3 weeks","0","41","75","3","NOW"
"html-keyboard-response","54","65352","0.0-5.0-3.16","63ed0065eb23ac3ee1726453","bdp_td","Sat Mar 25 2023 20:14:24 GMT-0400 (Eastern Daylight Time)","80248","","null","","","","offerFB","","<div class='trialBorder'><div class='vertical-center'><img style='vertical-align:center; align:center' src=img/fixation3.jpg></div><div class='cl'><div class='vertical-center'><font style='color:orange'>$41<br><br>now</font></div></div><div class='cr'><div class='vertical-center'>$75<br>in<br>3 weeks</div></div><div class='respDivL'><div class='vertical-center'><font style='color:orange'>(E)</font></div></div><div class='respDivR'><div class='vertical-center'>(I)</div></div></div>","null","$41<br><br>now","$75<br>in<br>3 weeks","0","41","75","3",""
"html-keyboard-response","55","65853","0.0-5.0-1.17","63ed0065eb23ac3ee1726453","bdp_td","Sat Mar 25 2023 20:14:24 GMT-0400 (Eastern Daylight Time)","80248","","null","","","","FIX","","<div class='trialBorder'><div class='vertical-center'><img style='vertical-align:center; align:center' src=img/fixation3.jpg></div></div>","null","","","","","","",""
"html-keyboard-response","56","66408","0.0-5.0-2.17","63ed0065eb23ac3ee1726453","bdp_td","Sat Mar 25 2023 20:14:24 GMT-0400 (Eastern Daylight Time)","80248","","554","","","","offer","","<div class='trialBorder'><div class='vertical-center'><img style='vertical-align:center; align:center' src=img/fixation3.jpg></div><div class='cl'><div class='vertical-center'>$50<br>in<br>12 weeks</div></div><div class='cr'><div class='vertical-center'>$47<br><br>now</div></div><div class='respDivL'><div class='vertical-center'>(E)</div></div><div class='respDivR'><div class='vertical-center'>(I)</div></div></div>","I","$47<br><br>now","$50<br>in<br>12 weeks","1","47","50","12","NOW"
"html-keyboard-response","57","66660","0.0-5.0-3.17","63ed0065eb23ac3ee1726453","bdp_td","Sat Mar 25 2023 20:14:24 GMT-0400 (Eastern Daylight Time)","80248","","null","","","","offerFB","","<div class='trialBorder'><div class='vertical-center'><img style='vertical-align:center; align:center' src=img/fixation3.jpg></div><div class='cl'><div class='vertical-center'>$50<br>in<br>12 weeks</div></div><div class='cr'><div class='vertical-center'><font style='color:orange'>$47<br><br>now</font></div></div><div class='respDivL'><div class='vertical-center'>(E)</div></div><div class='respDivR'><div class='vertical-center'><font style='color:orange'>(I)</font></div></div></div>","null","$47<br><br>now","$50<br>in<br>12 weeks","1","47","50","12",""
"html-keyboard-response","58","67162","0.0-5.0-1.18","63ed0065eb23ac3ee1726453","bdp_td","Sat Mar 25 2023 20:14:24 GMT-0400 (Eastern Daylight Time)","80248","","null","","","","FIX","","<div class='trialBorder'><div class='vertical-center'><img style='vertical-align:center; align:center' src=img/fixation3.jpg></div></div>","null","","","","","","",""
"html-keyboard-response","59","67816","0.0-5.0-2.18","63ed0065eb23ac3ee1726453","bdp_td","Sat Mar 25 2023 20:14:24 GMT-0400 (Eastern Daylight Time)","80248","","654","","","","offer","","<div class='trialBorder'><div class='vertical-center'><img style='vertical-align:center; align:center' src=img/fixation3.jpg></div><div class='cl'><div class='vertical-center'>$85<br>in<br>12 weeks</div></div><div class='cr'><div class='vertical-center'>$80<br><br>now</div></div><div class='respDivL'><div class='vertical-center'>(E)</div></div><div class='respDivR'><div class='vertical-center'>(I)</div></div></div>","I","$80<br><br>now","$85<br>in<br>12 weeks","1","80","85","12","NOW"
"html-keyboard-response","60","68069","0.0-5.0-3.18","63ed0065eb23ac3ee1726453","bdp_td","Sat Mar 25 2023 20:14:24 GMT-0400 (Eastern Daylight Time)","80248","","null","","","","offerFB","","<div class='trialBorder'><div class='vertical-center'><img style='vertical-align:center; align:center' src=img/fixation3.jpg></div><div class='cl'><div class='vertical-center'>$85<br>in<br>12 weeks</div></div><div class='cr'><div class='vertical-center'><font style='color:orange'>$80<br><br>now</font></div></div><div class='respDivL'><div class='vertical-center'>(E)</div></div><div class='respDivR'><div class='vertical-center'><font style='color:orange'>(I)</font></div></div></div>","null","$80<br><br>now","$85<br>in<br>12 weeks","1","80","85","12",""
"html-keyboard-response","61","68571","0.0-5.0-1.19","63ed0065eb23ac3ee1726453","bdp_td","Sat Mar 25 2023 20:14:24 GMT-0400 (Eastern Daylight Time)","80248","","null","","","","FIX","","<div class='trialBorder'><div class='vertical-center'><img style='vertical-align:center; align:center' src=img/fixation3.jpg></div></div>","null","","","","","","",""
"html-keyboard-response","62","68971","0.0-5.0-2.19","63ed0065eb23ac3ee1726453","bdp_td","Sat Mar 25 2023 20:14:24 GMT-0400 (Eastern Daylight Time)","80248","","399","","","","offer","","<div class='trialBorder'><div class='vertical-center'><img style='vertical-align:center; align:center' src=img/fixation3.jpg></div><div class='cl'><div class='vertical-center'>$24<br><br>now</div></div><div class='cr'><div class='vertical-center'>$35<br>in<br>3 weeks</div></div><div class='respDivL'><div class='vertical-center'>(E)</div></div><div class='respDivR'><div class='vertical-center'>(I)</div></div></div>","E","$24<br><br>now","$35<br>in<br>3 weeks","0","24","35","3","NOW"
"html-keyboard-response","63","69223","0.0-5.0-3.19","63ed0065eb23ac3ee1726453","bdp_td","Sat Mar 25 2023 20:14:24 GMT-0400 (Eastern Daylight Time)","80248","","null","","","","offerFB","","<div class='trialBorder'><div class='vertical-center'><img style='vertical-align:center; align:center' src=img/fixation3.jpg></div><div class='cl'><div class='vertical-center'><font style='color:orange'>$24<br><br>now</font></div></div><div class='cr'><div class='vertical-center'>$35<br>in<br>3 weeks</div></div><div class='respDivL'><div class='vertical-center'><font style='color:orange'>(E)</font></div></div><div class='respDivR'><div class='vertical-center'>(I)</div></div></div>","null","$24<br><br>now","$35<br>in<br>3 weeks","0","24","35","3",""
"html-keyboard-response","64","69726","0.0-5.0-1.20","63ed0065eb23ac3ee1726453","bdp_td","Sat Mar 25 2023 20:14:24 GMT-0400 (Eastern Daylight Time)","80248","","null","","","","FIX","","<div class='trialBorder'><div class='vertical-center'><img style='vertical-align:center; align:center' src=img/fixation3.jpg></div></div>","null","","","","","","",""
"html-keyboard-response","65","70344","0.0-5.0-2.20","63ed0065eb23ac3ee1726453","bdp_td","Sat Mar 25 2023 20:14:24 GMT-0400 (Eastern Daylight Time)","80248","","617","","","","offer","","<div class='trialBorder'><div class='vertical-center'><img style='vertical-align:center; align:center' src=img/fixation3.jpg></div><div class='cl'><div class='vertical-center'>$54<br><br>now</div></div><div class='cr'><div class='vertical-center'>$55<br>in<br>12 weeks</div></div><div class='respDivL'><div class='vertical-center'>(E)</div></div><div class='respDivR'><div class='vertical-center'>(I)</div></div></div>","E","$54<br><br>now","$55<br>in<br>12 weeks","0","54","55","12","NOW"
"html-keyboard-response","66","70596","0.0-5.0-3.20","63ed0065eb23ac3ee1726453","bdp_td","Sat Mar 25 2023 20:14:24 GMT-0400 (Eastern Daylight Time)","80248","","null","","","","offerFB","","<div class='trialBorder'><div class='vertical-center'><img style='vertical-align:center; align:center' src=img/fixation3.jpg></div><div class='cl'><div class='vertical-center'><font style='color:orange'>$54<br><br>now</font></div></div><div class='cr'><div class='vertical-center'>$55<br>in<br>12 weeks</div></div><div class='respDivL'><div class='vertical-center'><font style='color:orange'>(E)</font></div></div><div class='respDivR'><div class='vertical-center'>(I)</div></div></div>","null","$54<br><br>now","$55<br>in<br>12 weeks","0","54","55","12",""
"html-keyboard-response","67","71098","0.0-5.0-1.21","63ed0065eb23ac3ee1726453","bdp_td","Sat Mar 25 2023 20:14:24 GMT-0400 (Eastern Daylight Time)","80248","","null","","","","FIX","","<div class='trialBorder'><div class='vertical-center'><img style='vertical-align:center; align:center' src=img/fixation3.jpg></div></div>","null","","","","","","",""
"html-keyboard-response","68","71786","0.0-5.0-2.21","63ed0065eb23ac3ee1726453","bdp_td","Sat Mar 25 2023 20:14:24 GMT-0400 (Eastern Daylight Time)","80248","","687","","","","offer","","<div class='trialBorder'><div class='vertical-center'><img style='vertical-align:center; align:center' src=img/fixation3.jpg></div><div class='cl'><div class='vertical-center'>$55<br><br>now</div></div><div class='cr'><div class='vertical-center'>$75<br>in<br>6 weeks</div></div><div class='respDivL'><div class='vertical-center'>(E)</div></div><div class='respDivR'><div class='vertical-center'>(I)</div></div></div>","E","$55<br><br>now","$75<br>in<br>6 weeks","0","55","75","6","NOW"
"html-keyboard-response","69","72038","0.0-5.0-3.21","63ed0065eb23ac3ee1726453","bdp_td","Sat Mar 25 2023 20:14:24 GMT-0400 (Eastern Daylight Time)","80248","","null","","","","offerFB","","<div class='trialBorder'><div class='vertical-center'><img style='vertical-align:center; align:center' src=img/fixation3.jpg></div><div class='cl'><div class='vertical-center'><font style='color:orange'>$55<br><br>now</font></div></div><div class='cr'><div class='vertical-center'>$75<br>in<br>6 weeks</div></div><div class='respDivL'><div class='vertical-center'><font style='color:orange'>(E)</font></div></div><div class='respDivR'><div class='vertical-center'>(I)</div></div></div>","null","$55<br><br>now","$75<br>in<br>6 weeks","0","55","75","6",""
"html-keyboard-response","70","72540","0.0-5.0-1.22","63ed0065eb23ac3ee1726453","bdp_td","Sat Mar 25 2023 20:14:24 GMT-0400 (Eastern Daylight Time)","80248","","null","","","","FIX","","<div class='trialBorder'><div class='vertical-center'><img style='vertical-align:center; align:center' src=img/fixation3.jpg></div></div>","null","","","","","","",""
"html-keyboard-response","71","73109","0.0-5.0-2.22","63ed0065eb23ac3ee1726453","bdp_td","Sat Mar 25 2023 20:14:24 GMT-0400 (Eastern Daylight Time)","80248","","568","","","","offer","","<div class='trialBorder'><div class='vertical-center'><img style='vertical-align:center; align:center' src=img/fixation3.jpg></div><div class='cl'><div class='vertical-center'>$14<br><br>now</div></div><div class='cr'><div class='vertical-center'>$25<br>in<br>3 weeks</div></div><div class='respDivL'><div class='vertical-center'>(E)</div></div><div class='respDivR'><div class='vertical-center'>(I)</div></div></div>","E","$14<br><br>now","$25<br>in<br>3 weeks","0","14","25","3","NOW"
"html-keyboard-response","72","73361","0.0-5.0-3.22","63ed0065eb23ac3ee1726453","bdp_td","Sat Mar 25 2023 20:14:24 GMT-0400 (Eastern Daylight Time)","80248","","null","","","","offerFB","","<div class='trialBorder'><div class='vertical-center'><img style='vertical-align:center; align:center' src=img/fixation3.jpg></div><div class='cl'><div class='vertical-center'><font style='color:orange'>$14<br><br>now</font></div></div><div class='cr'><div class='vertical-center'>$25<br>in<br>3 weeks</div></div><div class='respDivL'><div class='vertical-center'><font style='color:orange'>(E)</font></div></div><div class='respDivR'><div class='vertical-center'>(I)</div></div></div>","null","$14<br><br>now","$25<br>in<br>3 weeks","0","14","25","3",""
"html-keyboard-response","73","73864","0.0-5.0-1.23","63ed0065eb23ac3ee1726453","bdp_td","Sat Mar 25 2023 20:14:24 GMT-0400 (Eastern Daylight Time)","80248","","null","","","","FIX","","<div class='trialBorder'><div class='vertical-center'><img style='vertical-align:center; align:center' src=img/fixation3.jpg></div></div>","null","","","","","","",""
"html-keyboard-response","74","74442","0.0-5.0-2.23","63ed0065eb23ac3ee1726453","bdp_td","Sat Mar 25 2023 20:14:24 GMT-0400 (Eastern Daylight Time)","80248","","578","","","","offer","","<div class='trialBorder'><div class='vertical-center'><img style='vertical-align:center; align:center' src=img/fixation3.jpg></div><div class='cl'><div class='vertical-center'>$80<br>in<br>12 weeks</div></div><div class='cr'><div class='vertical-center'>$78<br><br>now</div></div><div class='respDivL'><div class='vertical-center'>(E)</div></div><div class='respDivR'><div class='vertical-center'>(I)</div></div></div>","I","$78<br><br>now","$80<br>in<br>12 weeks","1","78","80","12","NOW"
"html-keyboard-response","75","74695","0.0-5.0-3.23","63ed0065eb23ac3ee1726453","bdp_td","Sat Mar 25 2023 20:14:24 GMT-0400 (Eastern Daylight Time)","80248","","null","","","","offerFB","","<div class='trialBorder'><div class='vertical-center'><img style='vertical-align:center; align:center' src=img/fixation3.jpg></div><div class='cl'><div class='vertical-center'>$80<br>in<br>12 weeks</div></div><div class='cr'><div class='vertical-center'><font style='color:orange'>$78<br><br>now</font></div></div><div class='respDivL'><div class='vertical-center'>(E)</div></div><div class='respDivR'><div class='vertical-center'><font style='color:orange'>(I)</font></div></div></div>","null","$78<br><br>now","$80<br>in<br>12 weeks","1","78","80","12",""
"html-keyboard-response","76","75197","0.0-5.0-1.24","63ed0065eb23ac3ee1726453","bdp_td","Sat Mar 25 2023 20:14:24 GMT-0400 (Eastern Daylight Time)","80248","","null","","","","FIX","","<div class='trialBorder'><div class='vertical-center'><img style='vertical-align:center; align:center' src=img/fixation3.jpg></div></div>","null","","","","","","",""
"html-keyboard-response","77","76091","0.0-5.0-2.24","63ed0065eb23ac3ee1726453","bdp_td","Sat Mar 25 2023 20:14:24 GMT-0400 (Eastern Daylight Time)","80248","","893","","","","offer","","<div class='trialBorder'><div class='vertical-center'><img style='vertical-align:center; align:center' src=img/fixation3.jpg></div><div class='cl'><div class='vertical-center'>$30<br>in<br>2 weeks</div></div><div class='cr'><div class='vertical-center'>$11<br><br>now</div></div><div class='respDivL'><div class='vertical-center'>(E)</div></div><div class='respDivR'><div class='vertical-center'>(I)</div></div></div>","I","$11<br><br>now","$30<br>in<br>2 weeks","1","11","30","2","NOW"
"html-keyboard-response","78","76344","0.0-5.0-3.24","63ed0065eb23ac3ee1726453","bdp_td","Sat Mar 25 2023 20:14:24 GMT-0400 (Eastern Daylight Time)","80248","","null","","","","offerFB","","<div class='trialBorder'><div class='vertical-center'><img style='vertical-align:center; align:center' src=img/fixation3.jpg></div><div class='cl'><div class='vertical-center'>$30<br>in<br>2 weeks</div></div><div class='cr'><div class='vertical-center'><font style='color:orange'>$11<br><br>now</font></div></div><div class='respDivL'><div class='vertical-center'>(E)</div></div><div class='respDivR'><div class='vertical-center'><font style='color:orange'>(I)</font></div></div></div>","null","$11<br><br>now","$30<br>in<br>2 weeks","1","11","30","2",""
"html-keyboard-response","79","76846","0.0-5.0-1.25","63ed0065eb23ac3ee1726453","bdp_td","Sat Mar 25 2023 20:14:24 GMT-0400 (Eastern Daylight Time)","80248","","null","","","","FIX","","<div class='trialBorder'><div class='vertical-center'><img style='vertical-align:center; align:center' src=img/fixation3.jpg></div></div>","null","","","","","","",""
"html-keyboard-response","80","77573","0.0-5.0-2.25","63ed0065eb23ac3ee1726453","bdp_td","Sat Mar 25 2023 20:14:24 GMT-0400 (Eastern Daylight Time)","80248","","726","","","","offer","","<div class='trialBorder'><div class='vertical-center'><img style='vertical-align:center; align:center' src=img/fixation3.jpg></div><div class='cl'><div class='vertical-center'>$54<br><br>now</div></div><div class='cr'><div class='vertical-center'>$80<br>in<br>3 weeks</div></div><div class='respDivL'><div class='vertical-center'>(E)</div></div><div class='respDivR'><div class='vertical-center'>(I)</div></div></div>","E","$54<br><br>now","$80<br>in<br>3 weeks","0","54","80","3","NOW"
"html-keyboard-response","81","77826","0.0-5.0-3.25","63ed0065eb23ac3ee1726453","bdp_td","Sat Mar 25 2023 20:14:24 GMT-0400 (Eastern Daylight Time)","80248","","null","","","","offerFB","","<div class='trialBorder'><div class='vertical-center'><img style='vertical-align:center; align:center' src=img/fixation3.jpg></div><div class='cl'><div class='vertical-center'><font style='color:orange'>$54<br><br>now</font></div></div><div class='cr'><div class='vertical-center'>$80<br>in<br>3 weeks</div></div><div class='respDivL'><div class='vertical-center'><font style='color:orange'>(E)</font></div></div><div class='respDivR'><div class='vertical-center'>(I)</div></div></div>","null","$54<br><br>now","$80<br>in<br>3 weeks","0","54","80","3",""
"html-keyboard-response","82","78327","0.0-5.0-1.26","63ed0065eb23ac3ee1726453","bdp_td","Sat Mar 25 2023 20:14:24 GMT-0400 (Eastern Daylight Time)","80248","","null","","","","FIX","","<div class='trialBorder'><div class='vertical-center'><img style='vertical-align:center; align:center' src=img/fixation3.jpg></div></div>","null","","","","","","",""
"html-keyboard-response","83","78994","0.0-5.0-2.26","63ed0065eb23ac3ee1726453","bdp_td","Sat Mar 25 2023 20:14:24 GMT-0400 (Eastern Daylight Time)","80248","","666","","","","offer","","<div class='trialBorder'><div class='vertical-center'><img style='vertical-align:center; align:center' src=img/fixation3.jpg></div><div class='cl'><div class='vertical-center'>$15<br><br>now</div></div><div class='cr'><div class='vertical-center'>$35<br>in<br>2 weeks</div></div><div class='respDivL'><div class='vertical-center'>(E)</div></div><div class='respDivR'><div class='vertical-center'>(I)</div></div></div>","E","$15<br><br>now","$35<br>in<br>2 weeks","0","15","35","2","NOW"
"html-keyboard-response","84","79246","0.0-5.0-3.26","63ed0065eb23ac3ee1726453","bdp_td","Sat Mar 25 2023 20:14:24 GMT-0400 (Eastern Daylight Time)","80248","","null","","","","offerFB","","<div class='trialBorder'><div class='vertical-center'><img style='vertical-align:center; align:center' src=img/fixation3.jpg></div><div class='cl'><div class='vertical-center'><font style='color:orange'>$15<br><br>now</font></div></div><div class='cr'><div class='vertical-center'>$35<br>in<br>2 weeks</div></div><div class='respDivL'><div class='vertical-center'><font style='color:orange'>(E)</font></div></div><div class='respDivR'><div class='vertical-center'>(I)</div></div></div>","null","$15<br><br>now","$35<br>in<br>2 weeks","0","15","35","2",""
"","","","","63ed0065eb23ac3ee1726453","bdp_td","Sat Mar 25 2023 20:14:24 GMT-0400 (Eastern Daylight Time)","80248","","","fullscreenexit","85","79260","fullscreenexit","","","","","","","","","",""
"fullscreen","85","80248","0.0-6.0","63ed0065eb23ac3ee1726453","bdp_td","Sat Mar 25 2023 20:14:24 GMT-0400 (Eastern Daylight Time)","80248","","","","","","","true","","","","","","","","",""
"html-keyboard-response","86","80750","0.0-7.0","","","","","","null","","","","","","","null","","","","","","",""
