"trial_type","trial_index","time_elapsed","internal_node_id","subject_id","task","startTime","totalTime","view_history","rt","event","trial","time","trialtype","success","stimulus","key_press","nowOffer","thenOffer","thenLeft","nowAmt","thenAmt","thenWeeks","chosen"
"pavlovia","0","4","0.0-0.0","63d18e630e39bc97ef16152b","bdp_td","Mon Apr 03 2023 16:20:49 GMT-0500 (Central Daylight Time)","108294","","","","","","","","","","","","","","","",""
"instructions","1","2456","0.0-1.0","63d18e630e39bc97ef16152b","bdp_td","Mon Apr 03 2023 16:20:49 GMT-0500 (Central Daylight Time)","108294","[{""page_index"":0,""viewing_time"":2451}]","2451","","","","","","","","","","","","","",""
"","","","","63d18e630e39bc97ef16152b","bdp_td","Mon Apr 03 2023 16:20:49 GMT-0500 (Central Daylight Time)","108294","","","fullscreenenter","2","5966","fullscreenenter","","","","","","","","","",""
"fullscreen","2","6954","0.0-2.0","63d18e630e39bc97ef16152b","bdp_td","Mon Apr 03 2023 16:20:49 GMT-0500 (Central Daylight Time)","108294","","","","","","","true","","","","","","","","",""
"instructions","3","29953","0.0-4.0","63d18e630e39bc97ef16152b","bdp_td","Mon Apr 03 2023 16:20:49 GMT-0500 (Central Daylight Time)","108294","[{""page_index"":0,""viewing_time"":8613},{""page_index"":1,""viewing_time"":9727},{""page_index"":2,""viewing_time"":4657}]","22997","","","","","","","","","","","","","",""
"html-keyboard-response","4","30458","0.0-5.0-1.0","63d18e630e39bc97ef16152b","bdp_td","Mon Apr 03 2023 16:20:49 GMT-0500 (Central Daylight Time)","108294","","null","","","","FIX","","<div class='trialBorder'><div class='vertical-center'><img style='vertical-align:center; align:center' src=img/fixation3.jpg></div></div>","null","","","","","","",""
"html-keyboard-response","5","33216","0.0-5.0-2.0","63d18e630e39bc97ef16152b","bdp_td","Mon Apr 03 2023 16:20:49 GMT-0500 (Central Daylight Time)","108294","","2756","","","","offer","","<div class='trialBorder'><div class='vertical-center'><img style='vertical-align:center; align:center' src=img/fixation3.jpg></div><div class='cl'><div class='vertical-center'>$25<br><br>now</div></div><div class='cr'><div class='vertical-center'>$30<br>in<br>6 weeks</div></div><div class='respDivL'><div class='vertical-center'>(E)</div></div><div class='respDivR'><div class='vertical-center'>(I)</div></div></div>","E","$25<br><br>now","$30<br>in<br>6 weeks","0","25","30","6","NOW"
"html-keyboard-response","6","33469","0.0-5.0-3.0","63d18e630e39bc97ef16152b","bdp_td","Mon Apr 03 2023 16:20:49 GMT-0500 (Central Daylight Time)","108294","","null","","","","offerFB","","<div class='trialBorder'><div class='vertical-center'><img style='vertical-align:center; align:center' src=img/fixation3.jpg></div><div class='cl'><div class='vertical-center'><font style='color:orange'>$25<br><br>now</font></div></div><div class='cr'><div class='vertical-center'>$30<br>in<br>6 weeks</div></div><div class='respDivL'><div class='vertical-center'><font style='color:orange'>(E)</font></div></div><div class='respDivR'><div class='vertical-center'>(I)</div></div></div>","null","$25<br><br>now","$30<br>in<br>6 weeks","0","25","30","6",""
"html-keyboard-response","7","33972","0.0-5.0-1.1","63d18e630e39bc97ef16152b","bdp_td","Mon Apr 03 2023 16:20:49 GMT-0500 (Central Daylight Time)","108294","","null","","","","FIX","","<div class='trialBorder'><div class='vertical-center'><img style='vertical-align:center; align:center' src=img/fixation3.jpg></div></div>","null","","","","","","",""
"html-keyboard-response","8","36168","0.0-5.0-2.1","63d18e630e39bc97ef16152b","bdp_td","Mon Apr 03 2023 16:20:49 GMT-0500 (Central Daylight Time)","108294","","2195","","","","offer","","<div class='trialBorder'><div class='vertical-center'><img style='vertical-align:center; align:center' src=img/fixation3.jpg></div><div class='cl'><div class='vertical-center'>$28<br><br>now</div></div><div class='cr'><div class='vertical-center'>$30<br>in<br>12 weeks</div></div><div class='respDivL'><div class='vertical-center'>(E)</div></div><div class='respDivR'><div class='vertical-center'>(I)</div></div></div>","E","$28<br><br>now","$30<br>in<br>12 weeks","0","28","30","12","NOW"
"html-keyboard-response","9","36420","0.0-5.0-3.1","63d18e630e39bc97ef16152b","bdp_td","Mon Apr 03 2023 16:20:49 GMT-0500 (Central Daylight Time)","108294","","null","","","","offerFB","","<div class='trialBorder'><div class='vertical-center'><img style='vertical-align:center; align:center' src=img/fixation3.jpg></div><div class='cl'><div class='vertical-center'><font style='color:orange'>$28<br><br>now</font></div></div><div class='cr'><div class='vertical-center'>$30<br>in<br>12 weeks</div></div><div class='respDivL'><div class='vertical-center'><font style='color:orange'>(E)</font></div></div><div class='respDivR'><div class='vertical-center'>(I)</div></div></div>","null","$28<br><br>now","$30<br>in<br>12 weeks","0","28","30","12",""
"html-keyboard-response","10","36922","0.0-5.0-1.2","63d18e630e39bc97ef16152b","bdp_td","Mon Apr 03 2023 16:20:49 GMT-0500 (Central Daylight Time)","108294","","null","","","","FIX","","<div class='trialBorder'><div class='vertical-center'><img style='vertical-align:center; align:center' src=img/fixation3.jpg></div></div>","null","","","","","","",""
"html-keyboard-response","11","38383","0.0-5.0-2.2","63d18e630e39bc97ef16152b","bdp_td","Mon Apr 03 2023 16:20:49 GMT-0500 (Central Daylight Time)","108294","","1460","","","","offer","","<div class='trialBorder'><div class='vertical-center'><img style='vertical-align:center; align:center' src=img/fixation3.jpg></div><div class='cl'><div class='vertical-center'>$25<br><br>now</div></div><div class='cr'><div class='vertical-center'>$60<br>in<br>3 weeks</div></div><div class='respDivL'><div class='vertical-center'>(E)</div></div><div class='respDivR'><div class='vertical-center'>(I)</div></div></div>","I","$25<br><br>now","$60<br>in<br>3 weeks","0","25","60","3","THEN"
"html-keyboard-response","12","38636","0.0-5.0-3.2","63d18e630e39bc97ef16152b","bdp_td","Mon Apr 03 2023 16:20:49 GMT-0500 (Central Daylight Time)","108294","","null","","","","offerFB","","<div class='trialBorder'><div class='vertical-center'><img style='vertical-align:center; align:center' src=img/fixation3.jpg></div><div class='cl'><div class='vertical-center'>$25<br><br>now</div></div><div class='cr'><div class='vertical-center'><font style='color:orange'>$60<br>in<br>3 weeks</font></div></div><div class='respDivL'><div class='vertical-center'>(E)</div></div><div class='respDivR'><div class='vertical-center'><font style='color:orange'>(I)</font></div></div></div>","null","$25<br><br>now","$60<br>in<br>3 weeks","0","25","60","3",""
"html-keyboard-response","13","39137","0.0-5.0-1.3","63d18e630e39bc97ef16152b","bdp_td","Mon Apr 03 2023 16:20:49 GMT-0500 (Central Daylight Time)","108294","","null","","","","FIX","","<div class='trialBorder'><div class='vertical-center'><img style='vertical-align:center; align:center' src=img/fixation3.jpg></div></div>","null","","","","","","",""
"html-keyboard-response","14","42714","0.0-5.0-2.3","63d18e630e39bc97ef16152b","bdp_td","Mon Apr 03 2023 16:20:49 GMT-0500 (Central Daylight Time)","108294","","3575","","","","offer","","<div class='trialBorder'><div class='vertical-center'><img style='vertical-align:center; align:center' src=img/fixation3.jpg></div><div class='cl'><div class='vertical-center'>$55<br>in<br>6 weeks</div></div><div class='cr'><div class='vertical-center'>$40<br><br>now</div></div><div class='respDivL'><div class='vertical-center'>(E)</div></div><div class='respDivR'><div class='vertical-center'>(I)</div></div></div>","E","$40<br><br>now","$55<br>in<br>6 weeks","1","40","55","6","THEN"
"html-keyboard-response","15","42967","0.0-5.0-3.3","63d18e630e39bc97ef16152b","bdp_td","Mon Apr 03 2023 16:20:49 GMT-0500 (Central Daylight Time)","108294","","null","","","","offerFB","","<div class='trialBorder'><div class='vertical-center'><img style='vertical-align:center; align:center' src=img/fixation3.jpg></div><div class='cl'><div class='vertical-center'><font style='color:orange'>$55<br>in<br>6 weeks</font></div></div><div class='cr'><div class='vertical-center'>$40<br><br>now</div></div><div class='respDivL'><div class='vertical-center'><font style='color:orange'>(E)</font></div></div><div class='respDivR'><div class='vertical-center'>(I)</div></div></div>","null","$40<br><br>now","$55<br>in<br>6 weeks","1","40","55","6",""
"html-keyboard-response","16","43469","0.0-5.0-1.4","63d18e630e39bc97ef16152b","bdp_td","Mon Apr 03 2023 16:20:49 GMT-0500 (Central Daylight Time)","108294","","null","","","","FIX","","<div class='trialBorder'><div class='vertical-center'><img style='vertical-align:center; align:center' src=img/fixation3.jpg></div></div>","null","","","","","","",""
"html-keyboard-response","17","45696","0.0-5.0-2.4","63d18e630e39bc97ef16152b","bdp_td","Mon Apr 03 2023 16:20:49 GMT-0500 (Central Daylight Time)","108294","","2226","","","","offer","","<div class='trialBorder'><div class='vertical-center'><img style='vertical-align:center; align:center' src=img/fixation3.jpg></div><div class='cl'><div class='vertical-center'>$30<br>in<br>2 weeks</div></div><div class='cr'><div class='vertical-center'>$11<br><br>now</div></div><div class='respDivL'><div class='vertical-center'>(E)</div></div><div class='respDivR'><div class='vertical-center'>(I)</div></div></div>","E","$11<br><br>now","$30<br>in<br>2 weeks","1","11","30","2","THEN"
"html-keyboard-response","18","45949","0.0-5.0-3.4","63d18e630e39bc97ef16152b","bdp_td","Mon Apr 03 2023 16:20:49 GMT-0500 (Central Daylight Time)","108294","","null","","","","offerFB","","<div class='trialBorder'><div class='vertical-center'><img style='vertical-align:center; align:center' src=img/fixation3.jpg></div><div class='cl'><div class='vertical-center'><font style='color:orange'>$30<br>in<br>2 weeks</font></div></div><div class='cr'><div class='vertical-center'>$11<br><br>now</div></div><div class='respDivL'><div class='vertical-center'><font style='color:orange'>(E)</font></div></div><div class='respDivR'><div class='vertical-center'>(I)</div></div></div>","null","$11<br><br>now","$30<br>in<br>2 weeks","1","11","30","2",""
"html-keyboard-response","19","46451","0.0-5.0-1.5","63d18e630e39bc97ef16152b","bdp_td","Mon Apr 03 2023 16:20:49 GMT-0500 (Central Daylight Time)","108294","","null","","","","FIX","","<div class='trialBorder'><div class='vertical-center'><img style='vertical-align:center; align:center' src=img/fixation3.jpg></div></div>","null","","","","","","",""
"html-keyboard-response","20","49552","0.0-5.0-2.5","63d18e630e39bc97ef16152b","bdp_td","Mon Apr 03 2023 16:20:49 GMT-0500 (Central Daylight Time)","108294","","3100","","","","offer","","<div class='trialBorder'><div class='vertical-center'><img style='vertical-align:center; align:center' src=img/fixation3.jpg></div><div class='cl'><div class='vertical-center'>$24<br><br>now</div></div><div class='cr'><div class='vertical-center'>$35<br>in<br>3 weeks</div></div><div class='respDivL'><div class='vertical-center'>(E)</div></div><div class='respDivR'><div class='vertical-center'>(I)</div></div></div>","I","$24<br><br>now","$35<br>in<br>3 weeks","0","24","35","3","THEN"
"html-keyboard-response","21","49805","0.0-5.0-3.5","63d18e630e39bc97ef16152b","bdp_td","Mon Apr 03 2023 16:20:49 GMT-0500 (Central Daylight Time)","108294","","null","","","","offerFB","","<div class='trialBorder'><div class='vertical-center'><img style='vertical-align:center; align:center' src=img/fixation3.jpg></div><div class='cl'><div class='vertical-center'>$24<br><br>now</div></div><div class='cr'><div class='vertical-center'><font style='color:orange'>$35<br>in<br>3 weeks</font></div></div><div class='respDivL'><div class='vertical-center'>(E)</div></div><div class='respDivR'><div class='vertical-center'><font style='color:orange'>(I)</font></div></div></div>","null","$24<br><br>now","$35<br>in<br>3 weeks","0","24","35","3",""
"html-keyboard-response","22","50307","0.0-5.0-1.6","63d18e630e39bc97ef16152b","bdp_td","Mon Apr 03 2023 16:20:49 GMT-0500 (Central Daylight Time)","108294","","null","","","","FIX","","<div class='trialBorder'><div class='vertical-center'><img style='vertical-align:center; align:center' src=img/fixation3.jpg></div></div>","null","","","","","","",""
"html-keyboard-response","23","52024","0.0-5.0-2.6","63d18e630e39bc97ef16152b","bdp_td","Mon Apr 03 2023 16:20:49 GMT-0500 (Central Daylight Time)","108294","","1717","","","","offer","","<div class='trialBorder'><div class='vertical-center'><img style='vertical-align:center; align:center' src=img/fixation3.jpg></div><div class='cl'><div class='vertical-center'>$49<br><br>now</div></div><div class='cr'><div class='vertical-center'>$60<br>in<br>6 weeks</div></div><div class='respDivL'><div class='vertical-center'>(E)</div></div><div class='respDivR'><div class='vertical-center'>(I)</div></div></div>","I","$49<br><br>now","$60<br>in<br>6 weeks","0","49","60","6","THEN"
"html-keyboard-response","24","52277","0.0-5.0-3.6","63d18e630e39bc97ef16152b","bdp_td","Mon Apr 03 2023 16:20:49 GMT-0500 (Central Daylight Time)","108294","","null","","","","offerFB","","<div class='trialBorder'><div class='vertical-center'><img style='vertical-align:center; align:center' src=img/fixation3.jpg></div><div class='cl'><div class='vertical-center'>$49<br><br>now</div></div><div class='cr'><div class='vertical-center'><font style='color:orange'>$60<br>in<br>6 weeks</font></div></div><div class='respDivL'><div class='vertical-center'>(E)</div></div><div class='respDivR'><div class='vertical-center'><font style='color:orange'>(I)</font></div></div></div>","null","$49<br><br>now","$60<br>in<br>6 weeks","0","49","60","6",""
"html-keyboard-response","25","52779","0.0-5.0-1.7","63d18e630e39bc97ef16152b","bdp_td","Mon Apr 03 2023 16:20:49 GMT-0500 (Central Daylight Time)","108294","","null","","","","FIX","","<div class='trialBorder'><div class='vertical-center'><img style='vertical-align:center; align:center' src=img/fixation3.jpg></div></div>","null","","","","","","",""
"html-keyboard-response","26","56216","0.0-5.0-2.7","63d18e630e39bc97ef16152b","bdp_td","Mon Apr 03 2023 16:20:49 GMT-0500 (Central Daylight Time)","108294","","3436","","","","offer","","<div class='trialBorder'><div class='vertical-center'><img style='vertical-align:center; align:center' src=img/fixation3.jpg></div><div class='cl'><div class='vertical-center'>$54<br><br>now</div></div><div class='cr'><div class='vertical-center'>$60<br>in<br>12 weeks</div></div><div class='respDivL'><div class='vertical-center'>(E)</div></div><div class='respDivR'><div class='vertical-center'>(I)</div></div></div>","E","$54<br><br>now","$60<br>in<br>12 weeks","0","54","60","12","NOW"
"html-keyboard-response","27","56469","0.0-5.0-3.7","63d18e630e39bc97ef16152b","bdp_td","Mon Apr 03 2023 16:20:49 GMT-0500 (Central Daylight Time)","108294","","null","","","","offerFB","","<div class='trialBorder'><div class='vertical-center'><img style='vertical-align:center; align:center' src=img/fixation3.jpg></div><div class='cl'><div class='vertical-center'><font style='color:orange'>$54<br><br>now</font></div></div><div class='cr'><div class='vertical-center'>$60<br>in<br>12 weeks</div></div><div class='respDivL'><div class='vertical-center'><font style='color:orange'>(E)</font></div></div><div class='respDivR'><div class='vertical-center'>(I)</div></div></div>","null","$54<br><br>now","$60<br>in<br>12 weeks","0","54","60","12",""
"html-keyboard-response","28","56971","0.0-5.0-1.8","63d18e630e39bc97ef16152b","bdp_td","Mon Apr 03 2023 16:20:49 GMT-0500 (Central Daylight Time)","108294","","null","","","","FIX","","<div class='trialBorder'><div class='vertical-center'><img style='vertical-align:center; align:center' src=img/fixation3.jpg></div></div>","null","","","","","","",""
"html-keyboard-response","29","59184","0.0-5.0-2.8","63d18e630e39bc97ef16152b","bdp_td","Mon Apr 03 2023 16:20:49 GMT-0500 (Central Daylight Time)","108294","","2210","","","","offer","","<div class='trialBorder'><div class='vertical-center'><img style='vertical-align:center; align:center' src=img/fixation3.jpg></div><div class='cl'><div class='vertical-center'>$78<br><br>now</div></div><div class='cr'><div class='vertical-center'>$80<br>in<br>12 weeks</div></div><div class='respDivL'><div class='vertical-center'>(E)</div></div><div class='respDivR'><div class='vertical-center'>(I)</div></div></div>","E","$78<br><br>now","$80<br>in<br>12 weeks","0","78","80","12","NOW"
"html-keyboard-response","30","59436","0.0-5.0-3.8","63d18e630e39bc97ef16152b","bdp_td","Mon Apr 03 2023 16:20:49 GMT-0500 (Central Daylight Time)","108294","","null","","","","offerFB","","<div class='trialBorder'><div class='vertical-center'><img style='vertical-align:center; align:center' src=img/fixation3.jpg></div><div class='cl'><div class='vertical-center'><font style='color:orange'>$78<br><br>now</font></div></div><div class='cr'><div class='vertical-center'>$80<br>in<br>12 weeks</div></div><div class='respDivL'><div class='vertical-center'><font style='color:orange'>(E)</font></div></div><div class='respDivR'><div class='vertical-center'>(I)</div></div></div>","null","$78<br><br>now","$80<br>in<br>12 weeks","0","78","80","12",""
"html-keyboard-response","31","59938","0.0-5.0-1.9","63d18e630e39bc97ef16152b","bdp_td","Mon Apr 03 2023 16:20:49 GMT-0500 (Central Daylight Time)","108294","","null","","","","FIX","","<div class='trialBorder'><div class='vertical-center'><img style='vertical-align:center; align:center' src=img/fixation3.jpg></div></div>","null","","","","","","",""
"html-keyboard-response","32","61958","0.0-5.0-2.9","63d18e630e39bc97ef16152b","bdp_td","Mon Apr 03 2023 16:20:49 GMT-0500 (Central Daylight Time)","108294","","2019","","","","offer","","<div class='trialBorder'><div class='vertical-center'><img style='vertical-align:center; align:center' src=img/fixation3.jpg></div><div class='cl'><div class='vertical-center'>$50<br>in<br>3 weeks</div></div><div class='cr'><div class='vertical-center'>$27<br><br>now</div></div><div class='respDivL'><div class='vertical-center'>(E)</div></div><div class='respDivR'><div class='vertical-center'>(I)</div></div></div>","E","$27<br><br>now","$50<br>in<br>3 weeks","1","27","50","3","THEN"
"html-keyboard-response","33","62211","0.0-5.0-3.9","63d18e630e39bc97ef16152b","bdp_td","Mon Apr 03 2023 16:20:49 GMT-0500 (Central Daylight Time)","108294","","null","","","","offerFB","","<div class='trialBorder'><div class='vertical-center'><img style='vertical-align:center; align:center' src=img/fixation3.jpg></div><div class='cl'><div class='vertical-center'><font style='color:orange'>$50<br>in<br>3 weeks</font></div></div><div class='cr'><div class='vertical-center'>$27<br><br>now</div></div><div class='respDivL'><div class='vertical-center'><font style='color:orange'>(E)</font></div></div><div class='respDivR'><div class='vertical-center'>(I)</div></div></div>","null","$27<br><br>now","$50<br>in<br>3 weeks","1","27","50","3",""
"html-keyboard-response","34","62712","0.0-5.0-1.10","63d18e630e39bc97ef16152b","bdp_td","Mon Apr 03 2023 16:20:49 GMT-0500 (Central Daylight Time)","108294","","null","","","","FIX","","<div class='trialBorder'><div class='vertical-center'><img style='vertical-align:center; align:center' src=img/fixation3.jpg></div></div>","null","","","","","","",""
"html-keyboard-response","35","66064","0.0-5.0-2.10","63d18e630e39bc97ef16152b","bdp_td","Mon Apr 03 2023 16:20:49 GMT-0500 (Central Daylight Time)","108294","","3350","","","","offer","","<div class='trialBorder'><div class='vertical-center'><img style='vertical-align:center; align:center' src=img/fixation3.jpg></div><div class='cl'><div class='vertical-center'>$35<br>in<br>2 weeks</div></div><div class='cr'><div class='vertical-center'>$15<br><br>now</div></div><div class='respDivL'><div class='vertical-center'>(E)</div></div><div class='respDivR'><div class='vertical-center'>(I)</div></div></div>","E","$15<br><br>now","$35<br>in<br>2 weeks","1","15","35","2","THEN"
"html-keyboard-response","36","66317","0.0-5.0-3.10","63d18e630e39bc97ef16152b","bdp_td","Mon Apr 03 2023 16:20:49 GMT-0500 (Central Daylight Time)","108294","","null","","","","offerFB","","<div class='trialBorder'><div class='vertical-center'><img style='vertical-align:center; align:center' src=img/fixation3.jpg></div><div class='cl'><div class='vertical-center'><font style='color:orange'>$35<br>in<br>2 weeks</font></div></div><div class='cr'><div class='vertical-center'>$15<br><br>now</div></div><div class='respDivL'><div class='vertical-center'><font style='color:orange'>(E)</font></div></div><div class='respDivR'><div class='vertical-center'>(I)</div></div></div>","null","$15<br><br>now","$35<br>in<br>2 weeks","1","15","35","2",""
"html-keyboard-response","37","66819","0.0-5.0-1.11","63d18e630e39bc97ef16152b","bdp_td","Mon Apr 03 2023 16:20:49 GMT-0500 (Central Daylight Time)","108294","","null","","","","FIX","","<div class='trialBorder'><div class='vertical-center'><img style='vertical-align:center; align:center' src=img/fixation3.jpg></div></div>","null","","","","","","",""
"html-keyboard-response","38","68121","0.0-5.0-2.11","63d18e630e39bc97ef16152b","bdp_td","Mon Apr 03 2023 16:20:49 GMT-0500 (Central Daylight Time)","108294","","1300","","","","offer","","<div class='trialBorder'><div class='vertical-center'><img style='vertical-align:center; align:center' src=img/fixation3.jpg></div><div class='cl'><div class='vertical-center'>$25<br>in<br>6 weeks</div></div><div class='cr'><div class='vertical-center'>$19<br><br>now</div></div><div class='respDivL'><div class='vertical-center'>(E)</div></div><div class='respDivR'><div class='vertical-center'>(I)</div></div></div>","I","$19<br><br>now","$25<br>in<br>6 weeks","1","19","25","6","NOW"
"html-keyboard-response","39","68373","0.0-5.0-3.11","63d18e630e39bc97ef16152b","bdp_td","Mon Apr 03 2023 16:20:49 GMT-0500 (Central Daylight Time)","108294","","null","","","","offerFB","","<div class='trialBorder'><div class='vertical-center'><img style='vertical-align:center; align:center' src=img/fixation3.jpg></div><div class='cl'><div class='vertical-center'>$25<br>in<br>6 weeks</div></div><div class='cr'><div class='vertical-center'><font style='color:orange'>$19<br><br>now</font></div></div><div class='respDivL'><div class='vertical-center'>(E)</div></div><div class='respDivR'><div class='vertical-center'><font style='color:orange'>(I)</font></div></div></div>","null","$19<br><br>now","$25<br>in<br>6 weeks","1","19","25","6",""
"html-keyboard-response","40","68875","0.0-5.0-1.12","63d18e630e39bc97ef16152b","bdp_td","Mon Apr 03 2023 16:20:49 GMT-0500 (Central Daylight Time)","108294","","null","","","","FIX","","<div class='trialBorder'><div class='vertical-center'><img style='vertical-align:center; align:center' src=img/fixation3.jpg></div></div>","null","","","","","","",""
"html-keyboard-response","41","70784","0.0-5.0-2.12","63d18e630e39bc97ef16152b","bdp_td","Mon Apr 03 2023 16:20:49 GMT-0500 (Central Daylight Time)","108294","","1906","","","","offer","","<div class='trialBorder'><div class='vertical-center'><img style='vertical-align:center; align:center' src=img/fixation3.jpg></div><div class='cl'><div class='vertical-center'>$75<br>in<br>3 weeks</div></div><div class='cr'><div class='vertical-center'>$41<br><br>now</div></div><div class='respDivL'><div class='vertical-center'>(E)</div></div><div class='respDivR'><div class='vertical-center'>(I)</div></div></div>","E","$41<br><br>now","$75<br>in<br>3 weeks","1","41","75","3","THEN"
"html-keyboard-response","42","71036","0.0-5.0-3.12","63d18e630e39bc97ef16152b","bdp_td","Mon Apr 03 2023 16:20:49 GMT-0500 (Central Daylight Time)","108294","","null","","","","offerFB","","<div class='trialBorder'><div class='vertical-center'><img style='vertical-align:center; align:center' src=img/fixation3.jpg></div><div class='cl'><div class='vertical-center'><font style='color:orange'>$75<br>in<br>3 weeks</font></div></div><div class='cr'><div class='vertical-center'>$41<br><br>now</div></div><div class='respDivL'><div class='vertical-center'><font style='color:orange'>(E)</font></div></div><div class='respDivR'><div class='vertical-center'>(I)</div></div></div>","null","$41<br><br>now","$75<br>in<br>3 weeks","1","41","75","3",""
"html-keyboard-response","43","71538","0.0-5.0-1.13","63d18e630e39bc97ef16152b","bdp_td","Mon Apr 03 2023 16:20:49 GMT-0500 (Central Daylight Time)","108294","","null","","","","FIX","","<div class='trialBorder'><div class='vertical-center'><img style='vertical-align:center; align:center' src=img/fixation3.jpg></div></div>","null","","","","","","",""
"html-keyboard-response","44","74295","0.0-5.0-2.13","63d18e630e39bc97ef16152b","bdp_td","Mon Apr 03 2023 16:20:49 GMT-0500 (Central Daylight Time)","108294","","2756","","","","offer","","<div class='trialBorder'><div class='vertical-center'><img style='vertical-align:center; align:center' src=img/fixation3.jpg></div><div class='cl'><div class='vertical-center'>$54<br><br>now</div></div><div class='cr'><div class='vertical-center'>$80<br>in<br>3 weeks</div></div><div class='respDivL'><div class='vertical-center'>(E)</div></div><div class='respDivR'><div class='vertical-center'>(I)</div></div></div>","I","$54<br><br>now","$80<br>in<br>3 weeks","0","54","80","3","THEN"
"html-keyboard-response","45","74547","0.0-5.0-3.13","63d18e630e39bc97ef16152b","bdp_td","Mon Apr 03 2023 16:20:49 GMT-0500 (Central Daylight Time)","108294","","null","","","","offerFB","","<div class='trialBorder'><div class='vertical-center'><img style='vertical-align:center; align:center' src=img/fixation3.jpg></div><div class='cl'><div class='vertical-center'>$54<br><br>now</div></div><div class='cr'><div class='vertical-center'><font style='color:orange'>$80<br>in<br>3 weeks</font></div></div><div class='respDivL'><div class='vertical-center'>(E)</div></div><div class='respDivR'><div class='vertical-center'><font style='color:orange'>(I)</font></div></div></div>","null","$54<br><br>now","$80<br>in<br>3 weeks","0","54","80","3",""
"html-keyboard-response","46","75049","0.0-5.0-1.14","63d18e630e39bc97ef16152b","bdp_td","Mon Apr 03 2023 16:20:49 GMT-0500 (Central Daylight Time)","108294","","null","","","","FIX","","<div class='trialBorder'><div class='vertical-center'><img style='vertical-align:center; align:center' src=img/fixation3.jpg></div></div>","null","","","","","","",""
"html-keyboard-response","47","77462","0.0-5.0-2.14","63d18e630e39bc97ef16152b","bdp_td","Mon Apr 03 2023 16:20:49 GMT-0500 (Central Daylight Time)","108294","","2412","","","","offer","","<div class='trialBorder'><div class='vertical-center'><img style='vertical-align:center; align:center' src=img/fixation3.jpg></div><div class='cl'><div class='vertical-center'>$25<br>in<br>12 weeks</div></div><div class='cr'><div class='vertical-center'>$22<br><br>now</div></div><div class='respDivL'><div class='vertical-center'>(E)</div></div><div class='respDivR'><div class='vertical-center'>(I)</div></div></div>","I","$22<br><br>now","$25<br>in<br>12 weeks","1","22","25","12","NOW"
"html-keyboard-response","48","77713","0.0-5.0-3.14","63d18e630e39bc97ef16152b","bdp_td","Mon Apr 03 2023 16:20:49 GMT-0500 (Central Daylight Time)","108294","","null","","","","offerFB","","<div class='trialBorder'><div class='vertical-center'><img style='vertical-align:center; align:center' src=img/fixation3.jpg></div><div class='cl'><div class='vertical-center'>$25<br>in<br>12 weeks</div></div><div class='cr'><div class='vertical-center'><font style='color:orange'>$22<br><br>now</font></div></div><div class='respDivL'><div class='vertical-center'>(E)</div></div><div class='respDivR'><div class='vertical-center'><font style='color:orange'>(I)</font></div></div></div>","null","$22<br><br>now","$25<br>in<br>12 weeks","1","22","25","12",""
"html-keyboard-response","49","78215","0.0-5.0-1.15","63d18e630e39bc97ef16152b","bdp_td","Mon Apr 03 2023 16:20:49 GMT-0500 (Central Daylight Time)","108294","","null","","","","FIX","","<div class='trialBorder'><div class='vertical-center'><img style='vertical-align:center; align:center' src=img/fixation3.jpg></div></div>","null","","","","","","",""
"html-keyboard-response","50","79503","0.0-5.0-2.15","63d18e630e39bc97ef16152b","bdp_td","Mon Apr 03 2023 16:20:49 GMT-0500 (Central Daylight Time)","108294","","1287","","","","offer","","<div class='trialBorder'><div class='vertical-center'><img style='vertical-align:center; align:center' src=img/fixation3.jpg></div><div class='cl'><div class='vertical-center'>$55<br>in<br>1 week</div></div><div class='cr'><div class='vertical-center'>$20<br><br>now</div></div><div class='respDivL'><div class='vertical-center'>(E)</div></div><div class='respDivR'><div class='vertical-center'>(I)</div></div></div>","E","$20<br><br>now","$55<br>in<br>1 week","1","20","55","1","THEN"
"html-keyboard-response","51","79755","0.0-5.0-3.15","63d18e630e39bc97ef16152b","bdp_td","Mon Apr 03 2023 16:20:49 GMT-0500 (Central Daylight Time)","108294","","null","","","","offerFB","","<div class='trialBorder'><div class='vertical-center'><img style='vertical-align:center; align:center' src=img/fixation3.jpg></div><div class='cl'><div class='vertical-center'><font style='color:orange'>$55<br>in<br>1 week</font></div></div><div class='cr'><div class='vertical-center'>$20<br><br>now</div></div><div class='respDivL'><div class='vertical-center'><font style='color:orange'>(E)</font></div></div><div class='respDivR'><div class='vertical-center'>(I)</div></div></div>","null","$20<br><br>now","$55<br>in<br>1 week","1","20","55","1",""
"html-keyboard-response","52","80257","0.0-5.0-1.16","63d18e630e39bc97ef16152b","bdp_td","Mon Apr 03 2023 16:20:49 GMT-0500 (Central Daylight Time)","108294","","null","","","","FIX","","<div class='trialBorder'><div class='vertical-center'><img style='vertical-align:center; align:center' src=img/fixation3.jpg></div></div>","null","","","","","","",""
"html-keyboard-response","53","81984","0.0-5.0-2.16","63d18e630e39bc97ef16152b","bdp_td","Mon Apr 03 2023 16:20:49 GMT-0500 (Central Daylight Time)","108294","","1726","","","","offer","","<div class='trialBorder'><div class='vertical-center'><img style='vertical-align:center; align:center' src=img/fixation3.jpg></div><div class='cl'><div class='vertical-center'>$47<br><br>now</div></div><div class='cr'><div class='vertical-center'>$50<br>in<br>12 weeks</div></div><div class='respDivL'><div class='vertical-center'>(E)</div></div><div class='respDivR'><div class='vertical-center'>(I)</div></div></div>","E","$47<br><br>now","$50<br>in<br>12 weeks","0","47","50","12","NOW"
"html-keyboard-response","54","82237","0.0-5.0-3.16","63d18e630e39bc97ef16152b","bdp_td","Mon Apr 03 2023 16:20:49 GMT-0500 (Central Daylight Time)","108294","","null","","","","offerFB","","<div class='trialBorder'><div class='vertical-center'><img style='vertical-align:center; align:center' src=img/fixation3.jpg></div><div class='cl'><div class='vertical-center'><font style='color:orange'>$47<br><br>now</font></div></div><div class='cr'><div class='vertical-center'>$50<br>in<br>12 weeks</div></div><div class='respDivL'><div class='vertical-center'><font style='color:orange'>(E)</font></div></div><div class='respDivR'><div class='vertical-center'>(I)</div></div></div>","null","$47<br><br>now","$50<br>in<br>12 weeks","0","47","50","12",""
"html-keyboard-response","55","82739","0.0-5.0-1.17","63d18e630e39bc97ef16152b","bdp_td","Mon Apr 03 2023 16:20:49 GMT-0500 (Central Daylight Time)","108294","","null","","","","FIX","","<div class='trialBorder'><div class='vertical-center'><img style='vertical-align:center; align:center' src=img/fixation3.jpg></div></div>","null","","","","","","",""
"html-keyboard-response","56","84048","0.0-5.0-2.17","63d18e630e39bc97ef16152b","bdp_td","Mon Apr 03 2023 16:20:49 GMT-0500 (Central Daylight Time)","108294","","1308","","","","offer","","<div class='trialBorder'><div class='vertical-center'><img style='vertical-align:center; align:center' src=img/fixation3.jpg></div><div class='cl'><div class='vertical-center'>$14<br><br>now</div></div><div class='cr'><div class='vertical-center'>$25<br>in<br>3 weeks</div></div><div class='respDivL'><div class='vertical-center'>(E)</div></div><div class='respDivR'><div class='vertical-center'>(I)</div></div></div>","I","$14<br><br>now","$25<br>in<br>3 weeks","0","14","25","3","THEN"
"html-keyboard-response","57","84301","0.0-5.0-3.17","63d18e630e39bc97ef16152b","bdp_td","Mon Apr 03 2023 16:20:49 GMT-0500 (Central Daylight Time)","108294","","null","","","","offerFB","","<div class='trialBorder'><div class='vertical-center'><img style='vertical-align:center; align:center' src=img/fixation3.jpg></div><div class='cl'><div class='vertical-center'>$14<br><br>now</div></div><div class='cr'><div class='vertical-center'><font style='color:orange'>$25<br>in<br>3 weeks</font></div></div><div class='respDivL'><div class='vertical-center'>(E)</div></div><div class='respDivR'><div class='vertical-center'><font style='color:orange'>(I)</font></div></div></div>","null","$14<br><br>now","$25<br>in<br>3 weeks","0","14","25","3",""
"html-keyboard-response","58","84803","0.0-5.0-1.18","63d18e630e39bc97ef16152b","bdp_td","Mon Apr 03 2023 16:20:49 GMT-0500 (Central Daylight Time)","108294","","null","","","","FIX","","<div class='trialBorder'><div class='vertical-center'><img style='vertical-align:center; align:center' src=img/fixation3.jpg></div></div>","null","","","","","","",""
"html-keyboard-response","59","86591","0.0-5.0-2.18","63d18e630e39bc97ef16152b","bdp_td","Mon Apr 03 2023 16:20:49 GMT-0500 (Central Daylight Time)","108294","","1787","","","","offer","","<div class='trialBorder'><div class='vertical-center'><img style='vertical-align:center; align:center' src=img/fixation3.jpg></div><div class='cl'><div class='vertical-center'>$75<br>in<br>6 weeks</div></div><div class='cr'><div class='vertical-center'>$55<br><br>now</div></div><div class='respDivL'><div class='vertical-center'>(E)</div></div><div class='respDivR'><div class='vertical-center'>(I)</div></div></div>","E","$55<br><br>now","$75<br>in<br>6 weeks","1","55","75","6","THEN"
"html-keyboard-response","60","86843","0.0-5.0-3.18","63d18e630e39bc97ef16152b","bdp_td","Mon Apr 03 2023 16:20:49 GMT-0500 (Central Daylight Time)","108294","","null","","","","offerFB","","<div class='trialBorder'><div class='vertical-center'><img style='vertical-align:center; align:center' src=img/fixation3.jpg></div><div class='cl'><div class='vertical-center'><font style='color:orange'>$75<br>in<br>6 weeks</font></div></div><div class='cr'><div class='vertical-center'>$55<br><br>now</div></div><div class='respDivL'><div class='vertical-center'><font style='color:orange'>(E)</font></div></div><div class='respDivR'><div class='vertical-center'>(I)</div></div></div>","null","$55<br><br>now","$75<br>in<br>6 weeks","1","55","75","6",""
"html-keyboard-response","61","87345","0.0-5.0-1.19","63d18e630e39bc97ef16152b","bdp_td","Mon Apr 03 2023 16:20:49 GMT-0500 (Central Daylight Time)","108294","","null","","","","FIX","","<div class='trialBorder'><div class='vertical-center'><img style='vertical-align:center; align:center' src=img/fixation3.jpg></div></div>","null","","","","","","",""
"html-keyboard-response","62","88553","0.0-5.0-2.19","63d18e630e39bc97ef16152b","bdp_td","Mon Apr 03 2023 16:20:49 GMT-0500 (Central Daylight Time)","108294","","1205","","","","offer","","<div class='trialBorder'><div class='vertical-center'><img style='vertical-align:center; align:center' src=img/fixation3.jpg></div><div class='cl'><div class='vertical-center'>$85<br>in<br>1 week</div></div><div class='cr'><div class='vertical-center'>$31<br><br>now</div></div><div class='respDivL'><div class='vertical-center'>(E)</div></div><div class='respDivR'><div class='vertical-center'>(I)</div></div></div>","E","$31<br><br>now","$85<br>in<br>1 week","1","31","85","1","THEN"
"html-keyboard-response","63","88806","0.0-5.0-3.19","63d18e630e39bc97ef16152b","bdp_td","Mon Apr 03 2023 16:20:49 GMT-0500 (Central Daylight Time)","108294","","null","","","","offerFB","","<div class='trialBorder'><div class='vertical-center'><img style='vertical-align:center; align:center' src=img/fixation3.jpg></div><div class='cl'><div class='vertical-center'><font style='color:orange'>$85<br>in<br>1 week</font></div></div><div class='cr'><div class='vertical-center'>$31<br><br>now</div></div><div class='respDivL'><div class='vertical-center'><font style='color:orange'>(E)</font></div></div><div class='respDivR'><div class='vertical-center'>(I)</div></div></div>","null","$31<br><br>now","$85<br>in<br>1 week","1","31","85","1",""
"html-keyboard-response","64","89308","0.0-5.0-1.20","63d18e630e39bc97ef16152b","bdp_td","Mon Apr 03 2023 16:20:49 GMT-0500 (Central Daylight Time)","108294","","null","","","","FIX","","<div class='trialBorder'><div class='vertical-center'><img style='vertical-align:center; align:center' src=img/fixation3.jpg></div></div>","null","","","","","","",""
"html-keyboard-response","65","91137","0.0-5.0-2.20","63d18e630e39bc97ef16152b","bdp_td","Mon Apr 03 2023 16:20:49 GMT-0500 (Central Daylight Time)","108294","","1827","","","","offer","","<div class='trialBorder'><div class='vertical-center'><img style='vertical-align:center; align:center' src=img/fixation3.jpg></div><div class='cl'><div class='vertical-center'>$55<br>in<br>12 weeks</div></div><div class='cr'><div class='vertical-center'>$54<br><br>now</div></div><div class='respDivL'><div class='vertical-center'>(E)</div></div><div class='respDivR'><div class='vertical-center'>(I)</div></div></div>","I","$54<br><br>now","$55<br>in<br>12 weeks","1","54","55","12","NOW"
"html-keyboard-response","66","91389","0.0-5.0-3.20","63d18e630e39bc97ef16152b","bdp_td","Mon Apr 03 2023 16:20:49 GMT-0500 (Central Daylight Time)","108294","","null","","","","offerFB","","<div class='trialBorder'><div class='vertical-center'><img style='vertical-align:center; align:center' src=img/fixation3.jpg></div><div class='cl'><div class='vertical-center'>$55<br>in<br>12 weeks</div></div><div class='cr'><div class='vertical-center'><font style='color:orange'>$54<br><br>now</font></div></div><div class='respDivL'><div class='vertical-center'>(E)</div></div><div class='respDivR'><div class='vertical-center'><font style='color:orange'>(I)</font></div></div></div>","null","$54<br><br>now","$55<br>in<br>12 weeks","1","54","55","12",""
"html-keyboard-response","67","91891","0.0-5.0-1.21","63d18e630e39bc97ef16152b","bdp_td","Mon Apr 03 2023 16:20:49 GMT-0500 (Central Daylight Time)","108294","","null","","","","FIX","","<div class='trialBorder'><div class='vertical-center'><img style='vertical-align:center; align:center' src=img/fixation3.jpg></div></div>","null","","","","","","",""
"html-keyboard-response","68","93735","0.0-5.0-2.21","63d18e630e39bc97ef16152b","bdp_td","Mon Apr 03 2023 16:20:49 GMT-0500 (Central Daylight Time)","108294","","1843","","","","offer","","<div class='trialBorder'><div class='vertical-center'><img style='vertical-align:center; align:center' src=img/fixation3.jpg></div><div class='cl'><div class='vertical-center'>$85<br>in<br>12 weeks</div></div><div class='cr'><div class='vertical-center'>$80<br><br>now</div></div><div class='respDivL'><div class='vertical-center'>(E)</div></div><div class='respDivR'><div class='vertical-center'>(I)</div></div></div>","I","$80<br><br>now","$85<br>in<br>12 weeks","1","80","85","12","NOW"
"html-keyboard-response","69","93986","0.0-5.0-3.21","63d18e630e39bc97ef16152b","bdp_td","Mon Apr 03 2023 16:20:49 GMT-0500 (Central Daylight Time)","108294","","null","","","","offerFB","","<div class='trialBorder'><div class='vertical-center'><img style='vertical-align:center; align:center' src=img/fixation3.jpg></div><div class='cl'><div class='vertical-center'>$85<br>in<br>12 weeks</div></div><div class='cr'><div class='vertical-center'><font style='color:orange'>$80<br><br>now</font></div></div><div class='respDivL'><div class='vertical-center'>(E)</div></div><div class='respDivR'><div class='vertical-center'><font style='color:orange'>(I)</font></div></div></div>","null","$80<br><br>now","$85<br>in<br>12 weeks","1","80","85","12",""
"html-keyboard-response","70","94488","0.0-5.0-1.22","63d18e630e39bc97ef16152b","bdp_td","Mon Apr 03 2023 16:20:49 GMT-0500 (Central Daylight Time)","108294","","null","","","","FIX","","<div class='trialBorder'><div class='vertical-center'><img style='vertical-align:center; align:center' src=img/fixation3.jpg></div></div>","null","","","","","","",""
"html-keyboard-response","71","95743","0.0-5.0-2.22","63d18e630e39bc97ef16152b","bdp_td","Mon Apr 03 2023 16:20:49 GMT-0500 (Central Daylight Time)","108294","","1253","","","","offer","","<div class='trialBorder'><div class='vertical-center'><img style='vertical-align:center; align:center' src=img/fixation3.jpg></div><div class='cl'><div class='vertical-center'>$69<br><br>now</div></div><div class='cr'><div class='vertical-center'>$85<br>in<br>6 weeks</div></div><div class='respDivL'><div class='vertical-center'>(E)</div></div><div class='respDivR'><div class='vertical-center'>(I)</div></div></div>","I","$69<br><br>now","$85<br>in<br>6 weeks","0","69","85","6","THEN"
"html-keyboard-response","72","95995","0.0-5.0-3.22","63d18e630e39bc97ef16152b","bdp_td","Mon Apr 03 2023 16:20:49 GMT-0500 (Central Daylight Time)","108294","","null","","","","offerFB","","<div class='trialBorder'><div class='vertical-center'><img style='vertical-align:center; align:center' src=img/fixation3.jpg></div><div class='cl'><div class='vertical-center'>$69<br><br>now</div></div><div class='cr'><div class='vertical-center'><font style='color:orange'>$85<br>in<br>6 weeks</font></div></div><div class='respDivL'><div class='vertical-center'>(E)</div></div><div class='respDivR'><div class='vertical-center'><font style='color:orange'>(I)</font></div></div></div>","null","$69<br><br>now","$85<br>in<br>6 weeks","0","69","85","6",""
"html-keyboard-response","73","96497","0.0-5.0-1.23","63d18e630e39bc97ef16152b","bdp_td","Mon Apr 03 2023 16:20:49 GMT-0500 (Central Daylight Time)","108294","","null","","","","FIX","","<div class='trialBorder'><div class='vertical-center'><img style='vertical-align:center; align:center' src=img/fixation3.jpg></div></div>","null","","","","","","",""
"html-keyboard-response","74","99672","0.0-5.0-2.23","63d18e630e39bc97ef16152b","bdp_td","Mon Apr 03 2023 16:20:49 GMT-0500 (Central Daylight Time)","108294","","3174","","","","offer","","<div class='trialBorder'><div class='vertical-center'><img style='vertical-align:center; align:center' src=img/fixation3.jpg></div><div class='cl'><div class='vertical-center'>$67<br><br>now</div></div><div class='cr'><div class='vertical-center'>$75<br>in<br>12 weeks</div></div><div class='respDivL'><div class='vertical-center'>(E)</div></div><div class='respDivR'><div class='vertical-center'>(I)</div></div></div>","E","$67<br><br>now","$75<br>in<br>12 weeks","0","67","75","12","NOW"
"html-keyboard-response","75","99924","0.0-5.0-3.23","63d18e630e39bc97ef16152b","bdp_td","Mon Apr 03 2023 16:20:49 GMT-0500 (Central Daylight Time)","108294","","null","","","","offerFB","","<div class='trialBorder'><div class='vertical-center'><img style='vertical-align:center; align:center' src=img/fixation3.jpg></div><div class='cl'><div class='vertical-center'><font style='color:orange'>$67<br><br>now</font></div></div><div class='cr'><div class='vertical-center'>$75<br>in<br>12 weeks</div></div><div class='respDivL'><div class='vertical-center'><font style='color:orange'>(E)</font></div></div><div class='respDivR'><div class='vertical-center'>(I)</div></div></div>","null","$67<br><br>now","$75<br>in<br>12 weeks","0","67","75","12",""
"html-keyboard-response","76","100427","0.0-5.0-1.24","63d18e630e39bc97ef16152b","bdp_td","Mon Apr 03 2023 16:20:49 GMT-0500 (Central Daylight Time)","108294","","null","","","","FIX","","<div class='trialBorder'><div class='vertical-center'><img style='vertical-align:center; align:center' src=img/fixation3.jpg></div></div>","null","","","","","","",""
"html-keyboard-response","77","102201","0.0-5.0-2.24","63d18e630e39bc97ef16152b","bdp_td","Mon Apr 03 2023 16:20:49 GMT-0500 (Central Daylight Time)","108294","","1772","","","","offer","","<div class='trialBorder'><div class='vertical-center'><img style='vertical-align:center; align:center' src=img/fixation3.jpg></div><div class='cl'><div class='vertical-center'>$80<br>in<br>2 weeks</div></div><div class='cr'><div class='vertical-center'>$33<br><br>now</div></div><div class='respDivL'><div class='vertical-center'>(E)</div></div><div class='respDivR'><div class='vertical-center'>(I)</div></div></div>","E","$33<br><br>now","$80<br>in<br>2 weeks","1","33","80","2","THEN"
"html-keyboard-response","78","102454","0.0-5.0-3.24","63d18e630e39bc97ef16152b","bdp_td","Mon Apr 03 2023 16:20:49 GMT-0500 (Central Daylight Time)","108294","","null","","","","offerFB","","<div class='trialBorder'><div class='vertical-center'><img style='vertical-align:center; align:center' src=img/fixation3.jpg></div><div class='cl'><div class='vertical-center'><font style='color:orange'>$80<br>in<br>2 weeks</font></div></div><div class='cr'><div class='vertical-center'>$33<br><br>now</div></div><div class='respDivL'><div class='vertical-center'><font style='color:orange'>(E)</font></div></div><div class='respDivR'><div class='vertical-center'>(I)</div></div></div>","null","$33<br><br>now","$80<br>in<br>2 weeks","1","33","80","2",""
"html-keyboard-response","79","102957","0.0-5.0-1.25","63d18e630e39bc97ef16152b","bdp_td","Mon Apr 03 2023 16:20:49 GMT-0500 (Central Daylight Time)","108294","","null","","","","FIX","","<div class='trialBorder'><div class='vertical-center'><img style='vertical-align:center; align:center' src=img/fixation3.jpg></div></div>","null","","","","","","",""
"html-keyboard-response","80","104448","0.0-5.0-2.25","63d18e630e39bc97ef16152b","bdp_td","Mon Apr 03 2023 16:20:49 GMT-0500 (Central Daylight Time)","108294","","1489","","","","offer","","<div class='trialBorder'><div class='vertical-center'><img style='vertical-align:center; align:center' src=img/fixation3.jpg></div><div class='cl'><div class='vertical-center'>$34<br><br>now</div></div><div class='cr'><div class='vertical-center'>$35<br>in<br>12 weeks</div></div><div class='respDivL'><div class='vertical-center'>(E)</div></div><div class='respDivR'><div class='vertical-center'>(I)</div></div></div>","E","$34<br><br>now","$35<br>in<br>12 weeks","0","34","35","12","NOW"
"html-keyboard-response","81","104700","0.0-5.0-3.25","63d18e630e39bc97ef16152b","bdp_td","Mon Apr 03 2023 16:20:49 GMT-0500 (Central Daylight Time)","108294","","null","","","","offerFB","","<div class='trialBorder'><div class='vertical-center'><img style='vertical-align:center; align:center' src=img/fixation3.jpg></div><div class='cl'><div class='vertical-center'><font style='color:orange'>$34<br><br>now</font></div></div><div class='cr'><div class='vertical-center'>$35<br>in<br>12 weeks</div></div><div class='respDivL'><div class='vertical-center'><font style='color:orange'>(E)</font></div></div><div class='respDivR'><div class='vertical-center'>(I)</div></div></div>","null","$34<br><br>now","$35<br>in<br>12 weeks","0","34","35","12",""
"html-keyboard-response","82","105202","0.0-5.0-1.26","63d18e630e39bc97ef16152b","bdp_td","Mon Apr 03 2023 16:20:49 GMT-0500 (Central Daylight Time)","108294","","null","","","","FIX","","<div class='trialBorder'><div class='vertical-center'><img style='vertical-align:center; align:center' src=img/fixation3.jpg></div></div>","null","","","","","","",""
"html-keyboard-response","83","107040","0.0-5.0-2.26","63d18e630e39bc97ef16152b","bdp_td","Mon Apr 03 2023 16:20:49 GMT-0500 (Central Daylight Time)","108294","","1837","","","","offer","","<div class='trialBorder'><div class='vertical-center'><img style='vertical-align:center; align:center' src=img/fixation3.jpg></div><div class='cl'><div class='vertical-center'>$50<br>in<br>6 weeks</div></div><div class='cr'><div class='vertical-center'>$34<br><br>now</div></div><div class='respDivL'><div class='vertical-center'>(E)</div></div><div class='respDivR'><div class='vertical-center'>(I)</div></div></div>","E","$34<br><br>now","$50<br>in<br>6 weeks","1","34","50","6","THEN"
"html-keyboard-response","84","107292","0.0-5.0-3.26","63d18e630e39bc97ef16152b","bdp_td","Mon Apr 03 2023 16:20:49 GMT-0500 (Central Daylight Time)","108294","","null","","","","offerFB","","<div class='trialBorder'><div class='vertical-center'><img style='vertical-align:center; align:center' src=img/fixation3.jpg></div><div class='cl'><div class='vertical-center'><font style='color:orange'>$50<br>in<br>6 weeks</font></div></div><div class='cr'><div class='vertical-center'>$34<br><br>now</div></div><div class='respDivL'><div class='vertical-center'><font style='color:orange'>(E)</font></div></div><div class='respDivR'><div class='vertical-center'>(I)</div></div></div>","null","$34<br><br>now","$50<br>in<br>6 weeks","1","34","50","6",""
"","","","","63d18e630e39bc97ef16152b","bdp_td","Mon Apr 03 2023 16:20:49 GMT-0500 (Central Daylight Time)","108294","","","fullscreenexit","85","107298","fullscreenexit","","","","","","","","","",""
"fullscreen","85","108293","0.0-6.0","63d18e630e39bc97ef16152b","bdp_td","Mon Apr 03 2023 16:20:49 GMT-0500 (Central Daylight Time)","108294","","","","","","","true","","","","","","","","",""
"html-keyboard-response","86","108795","0.0-7.0","","","","","","null","","","","","","","null","","","","","","",""
