"event","trial","time","trialtype","subject_id","task","startTime","totalTime","trial_type","trial_index","time_elapsed","internal_node_id","view_history","rt","success","stimulus","key_press","nowOffer","thenOffer","thenLeft","nowAmt","thenAmt","thenWeeks","chosen"
"focus","0","0","focusevent","63d842d3e9626bd5fe5c17b1","bdp_td","Mon Mar 27 2023 16:14:14 GMT-0700 (Pacific Daylight Time)","108782","","","","","","","","","","","","","","","",""
"","","","","63d842d3e9626bd5fe5c17b1","bdp_td","Mon Mar 27 2023 16:14:14 GMT-0700 (Pacific Daylight Time)","108782","pavlovia","0","1","0.0-0.0","","","","","","","","","","","",""
"","","","","63d842d3e9626bd5fe5c17b1","bdp_td","Mon Mar 27 2023 16:14:14 GMT-0700 (Pacific Daylight Time)","108782","instructions","1","1930","0.0-1.0","[{""page_index"":0,""viewing_time"":1928}]","1928","","","","","","","","","",""
"fullscreenexit","2","5198","fullscreenexit","63d842d3e9626bd5fe5c17b1","bdp_td","Mon Mar 27 2023 16:14:14 GMT-0700 (Pacific Daylight Time)","108782","","","","","","","","","","","","","","","",""
"","","","","63d842d3e9626bd5fe5c17b1","bdp_td","Mon Mar 27 2023 16:14:14 GMT-0700 (Pacific Daylight Time)","108782","fullscreen","2","6020","0.0-2.0","","","true","","","","","","","","",""
"","","","fullscreenfail","63d842d3e9626bd5fe5c17b1","bdp_td","Mon Mar 27 2023 16:14:14 GMT-0700 (Pacific Daylight Time)","108782","image-keyboard-response","3","7234","0.0-3.0-0.0","","1214","","","32","","","","","","",""
"","","","","63d842d3e9626bd5fe5c17b1","bdp_td","Mon Mar 27 2023 16:14:14 GMT-0700 (Pacific Daylight Time)","108782","instructions","4","40982","0.0-4.0","[{""page_index"":0,""viewing_time"":26427},{""page_index"":1,""viewing_time"":4773},{""page_index"":2,""viewing_time"":2295}]","33496","","","","","","","","","",""
"","","","FIX","63d842d3e9626bd5fe5c17b1","bdp_td","Mon Mar 27 2023 16:14:14 GMT-0700 (Pacific Daylight Time)","108782","html-keyboard-response","5","41495","0.0-5.0-1.0","","null","","<div class='trialBorder'><div class='vertical-center'><img style='vertical-align:center; align:center' src=img/fixation3.jpg></div></div>","null","","","","","","",""
"","","","offer","63d842d3e9626bd5fe5c17b1","bdp_td","Mon Mar 27 2023 16:14:14 GMT-0700 (Pacific Daylight Time)","108782","html-keyboard-response","6","43629","0.0-5.0-2.0","","2134","","<div class='trialBorder'><div class='vertical-center'><img style='vertical-align:center; align:center' src=img/fixation3.jpg></div><div class='cl'><div class='vertical-center'>$30<br>in<br>2 weeks</div></div><div class='cr'><div class='vertical-center'>$11<br><br>now</div></div><div class='respDivL'><div class='vertical-center'>(E)</div></div><div class='respDivR'><div class='vertical-center'>(I)</div></div></div>","E","$11<br><br>now","$30<br>in<br>2 weeks","1","11","30","2","THEN"
"","","","offerFB","63d842d3e9626bd5fe5c17b1","bdp_td","Mon Mar 27 2023 16:14:14 GMT-0700 (Pacific Daylight Time)","108782","html-keyboard-response","7","43882","0.0-5.0-3.0","","null","","<div class='trialBorder'><div class='vertical-center'><img style='vertical-align:center; align:center' src=img/fixation3.jpg></div><div class='cl'><div class='vertical-center'><font style='color:orange'>$30<br>in<br>2 weeks</font></div></div><div class='cr'><div class='vertical-center'>$11<br><br>now</div></div><div class='respDivL'><div class='vertical-center'><font style='color:orange'>(E)</font></div></div><div class='respDivR'><div class='vertical-center'>(I)</div></div></div>","null","$11<br><br>now","$30<br>in<br>2 weeks","1","11","30","2",""
"","","","FIX","63d842d3e9626bd5fe5c17b1","bdp_td","Mon Mar 27 2023 16:14:14 GMT-0700 (Pacific Daylight Time)","108782","html-keyboard-response","8","44391","0.0-5.0-1.1","","null","","<div class='trialBorder'><div class='vertical-center'><img style='vertical-align:center; align:center' src=img/fixation3.jpg></div></div>","null","","","","","","",""
"","","","offer","63d842d3e9626bd5fe5c17b1","bdp_td","Mon Mar 27 2023 16:14:14 GMT-0700 (Pacific Daylight Time)","108782","html-keyboard-response","9","45979","0.0-5.0-2.1","","1587","","<div class='trialBorder'><div class='vertical-center'><img style='vertical-align:center; align:center' src=img/fixation3.jpg></div><div class='cl'><div class='vertical-center'>$60<br>in<br>3 weeks</div></div><div class='cr'><div class='vertical-center'>$25<br><br>now</div></div><div class='respDivL'><div class='vertical-center'>(E)</div></div><div class='respDivR'><div class='vertical-center'>(I)</div></div></div>","E","$25<br><br>now","$60<br>in<br>3 weeks","1","25","60","3","THEN"
"","","","offerFB","63d842d3e9626bd5fe5c17b1","bdp_td","Mon Mar 27 2023 16:14:14 GMT-0700 (Pacific Daylight Time)","108782","html-keyboard-response","10","46243","0.0-5.0-3.1","","null","","<div class='trialBorder'><div class='vertical-center'><img style='vertical-align:center; align:center' src=img/fixation3.jpg></div><div class='cl'><div class='vertical-center'><font style='color:orange'>$60<br>in<br>3 weeks</font></div></div><div class='cr'><div class='vertical-center'>$25<br><br>now</div></div><div class='respDivL'><div class='vertical-center'><font style='color:orange'>(E)</font></div></div><div class='respDivR'><div class='vertical-center'>(I)</div></div></div>","null","$25<br><br>now","$60<br>in<br>3 weeks","1","25","60","3",""
"","","","FIX","63d842d3e9626bd5fe5c17b1","bdp_td","Mon Mar 27 2023 16:14:14 GMT-0700 (Pacific Daylight Time)","108782","html-keyboard-response","11","46752","0.0-5.0-1.2","","null","","<div class='trialBorder'><div class='vertical-center'><img style='vertical-align:center; align:center' src=img/fixation3.jpg></div></div>","null","","","","","","",""
"","","","offer","63d842d3e9626bd5fe5c17b1","bdp_td","Mon Mar 27 2023 16:14:14 GMT-0700 (Pacific Daylight Time)","108782","html-keyboard-response","12","47748","0.0-5.0-2.2","","994","","<div class='trialBorder'><div class='vertical-center'><img style='vertical-align:center; align:center' src=img/fixation3.jpg></div><div class='cl'><div class='vertical-center'>$20<br><br>now</div></div><div class='cr'><div class='vertical-center'>$55<br>in<br>1 week</div></div><div class='respDivL'><div class='vertical-center'>(E)</div></div><div class='respDivR'><div class='vertical-center'>(I)</div></div></div>","I","$20<br><br>now","$55<br>in<br>1 week","0","20","55","1","THEN"
"","","","offerFB","63d842d3e9626bd5fe5c17b1","bdp_td","Mon Mar 27 2023 16:14:14 GMT-0700 (Pacific Daylight Time)","108782","html-keyboard-response","13","48001","0.0-5.0-3.2","","null","","<div class='trialBorder'><div class='vertical-center'><img style='vertical-align:center; align:center' src=img/fixation3.jpg></div><div class='cl'><div class='vertical-center'>$20<br><br>now</div></div><div class='cr'><div class='vertical-center'><font style='color:orange'>$55<br>in<br>1 week</font></div></div><div class='respDivL'><div class='vertical-center'>(E)</div></div><div class='respDivR'><div class='vertical-center'><font style='color:orange'>(I)</font></div></div></div>","null","$20<br><br>now","$55<br>in<br>1 week","0","20","55","1",""
"","","","FIX","63d842d3e9626bd5fe5c17b1","bdp_td","Mon Mar 27 2023 16:14:14 GMT-0700 (Pacific Daylight Time)","108782","html-keyboard-response","14","48508","0.0-5.0-1.3","","null","","<div class='trialBorder'><div class='vertical-center'><img style='vertical-align:center; align:center' src=img/fixation3.jpg></div></div>","null","","","","","","",""
"","","","offer","63d842d3e9626bd5fe5c17b1","bdp_td","Mon Mar 27 2023 16:14:14 GMT-0700 (Pacific Daylight Time)","108782","html-keyboard-response","15","51645","0.0-5.0-2.3","","3137","","<div class='trialBorder'><div class='vertical-center'><img style='vertical-align:center; align:center' src=img/fixation3.jpg></div><div class='cl'><div class='vertical-center'>$34<br><br>now</div></div><div class='cr'><div class='vertical-center'>$50<br>in<br>6 weeks</div></div><div class='respDivL'><div class='vertical-center'>(E)</div></div><div class='respDivR'><div class='vertical-center'>(I)</div></div></div>","I","$34<br><br>now","$50<br>in<br>6 weeks","0","34","50","6","THEN"
"","","","offerFB","63d842d3e9626bd5fe5c17b1","bdp_td","Mon Mar 27 2023 16:14:14 GMT-0700 (Pacific Daylight Time)","108782","html-keyboard-response","16","51900","0.0-5.0-3.3","","null","","<div class='trialBorder'><div class='vertical-center'><img style='vertical-align:center; align:center' src=img/fixation3.jpg></div><div class='cl'><div class='vertical-center'>$34<br><br>now</div></div><div class='cr'><div class='vertical-center'><font style='color:orange'>$50<br>in<br>6 weeks</font></div></div><div class='respDivL'><div class='vertical-center'>(E)</div></div><div class='respDivR'><div class='vertical-center'><font style='color:orange'>(I)</font></div></div></div>","null","$34<br><br>now","$50<br>in<br>6 weeks","0","34","50","6",""
"","","","FIX","63d842d3e9626bd5fe5c17b1","bdp_td","Mon Mar 27 2023 16:14:14 GMT-0700 (Pacific Daylight Time)","108782","html-keyboard-response","17","52410","0.0-5.0-1.4","","null","","<div class='trialBorder'><div class='vertical-center'><img style='vertical-align:center; align:center' src=img/fixation3.jpg></div></div>","null","","","","","","",""
"","","","offer","63d842d3e9626bd5fe5c17b1","bdp_td","Mon Mar 27 2023 16:14:14 GMT-0700 (Pacific Daylight Time)","108782","html-keyboard-response","18","53283","0.0-5.0-2.4","","873","","<div class='trialBorder'><div class='vertical-center'><img style='vertical-align:center; align:center' src=img/fixation3.jpg></div><div class='cl'><div class='vertical-center'>$31<br><br>now</div></div><div class='cr'><div class='vertical-center'>$85<br>in<br>1 week</div></div><div class='respDivL'><div class='vertical-center'>(E)</div></div><div class='respDivR'><div class='vertical-center'>(I)</div></div></div>","I","$31<br><br>now","$85<br>in<br>1 week","0","31","85","1","THEN"
"","","","offerFB","63d842d3e9626bd5fe5c17b1","bdp_td","Mon Mar 27 2023 16:14:14 GMT-0700 (Pacific Daylight Time)","108782","html-keyboard-response","19","53534","0.0-5.0-3.4","","null","","<div class='trialBorder'><div class='vertical-center'><img style='vertical-align:center; align:center' src=img/fixation3.jpg></div><div class='cl'><div class='vertical-center'>$31<br><br>now</div></div><div class='cr'><div class='vertical-center'><font style='color:orange'>$85<br>in<br>1 week</font></div></div><div class='respDivL'><div class='vertical-center'>(E)</div></div><div class='respDivR'><div class='vertical-center'><font style='color:orange'>(I)</font></div></div></div>","null","$31<br><br>now","$85<br>in<br>1 week","0","31","85","1",""
"","","","FIX","63d842d3e9626bd5fe5c17b1","bdp_td","Mon Mar 27 2023 16:14:14 GMT-0700 (Pacific Daylight Time)","108782","html-keyboard-response","20","54043","0.0-5.0-1.5","","null","","<div class='trialBorder'><div class='vertical-center'><img style='vertical-align:center; align:center' src=img/fixation3.jpg></div></div>","null","","","","","","",""
"","","","offer","63d842d3e9626bd5fe5c17b1","bdp_td","Mon Mar 27 2023 16:14:14 GMT-0700 (Pacific Daylight Time)","108782","html-keyboard-response","21","55429","0.0-5.0-2.5","","1385","","<div class='trialBorder'><div class='vertical-center'><img style='vertical-align:center; align:center' src=img/fixation3.jpg></div><div class='cl'><div class='vertical-center'>$30<br>in<br>12 weeks</div></div><div class='cr'><div class='vertical-center'>$28<br><br>now</div></div><div class='respDivL'><div class='vertical-center'>(E)</div></div><div class='respDivR'><div class='vertical-center'>(I)</div></div></div>","I","$28<br><br>now","$30<br>in<br>12 weeks","1","28","30","12","NOW"
"","","","offerFB","63d842d3e9626bd5fe5c17b1","bdp_td","Mon Mar 27 2023 16:14:14 GMT-0700 (Pacific Daylight Time)","108782","html-keyboard-response","22","55694","0.0-5.0-3.5","","null","","<div class='trialBorder'><div class='vertical-center'><img style='vertical-align:center; align:center' src=img/fixation3.jpg></div><div class='cl'><div class='vertical-center'>$30<br>in<br>12 weeks</div></div><div class='cr'><div class='vertical-center'><font style='color:orange'>$28<br><br>now</font></div></div><div class='respDivL'><div class='vertical-center'>(E)</div></div><div class='respDivR'><div class='vertical-center'><font style='color:orange'>(I)</font></div></div></div>","null","$28<br><br>now","$30<br>in<br>12 weeks","1","28","30","12",""
"","","","FIX","63d842d3e9626bd5fe5c17b1","bdp_td","Mon Mar 27 2023 16:14:14 GMT-0700 (Pacific Daylight Time)","108782","html-keyboard-response","23","56202","0.0-5.0-1.6","","null","","<div class='trialBorder'><div class='vertical-center'><img style='vertical-align:center; align:center' src=img/fixation3.jpg></div></div>","null","","","","","","",""
"","","","offer","63d842d3e9626bd5fe5c17b1","bdp_td","Mon Mar 27 2023 16:14:14 GMT-0700 (Pacific Daylight Time)","108782","html-keyboard-response","24","58187","0.0-5.0-2.6","","1985","","<div class='trialBorder'><div class='vertical-center'><img style='vertical-align:center; align:center' src=img/fixation3.jpg></div><div class='cl'><div class='vertical-center'>$25<br>in<br>3 weeks</div></div><div class='cr'><div class='vertical-center'>$14<br><br>now</div></div><div class='respDivL'><div class='vertical-center'>(E)</div></div><div class='respDivR'><div class='vertical-center'>(I)</div></div></div>","E","$14<br><br>now","$25<br>in<br>3 weeks","1","14","25","3","THEN"
"","","","offerFB","63d842d3e9626bd5fe5c17b1","bdp_td","Mon Mar 27 2023 16:14:14 GMT-0700 (Pacific Daylight Time)","108782","html-keyboard-response","25","58453","0.0-5.0-3.6","","null","","<div class='trialBorder'><div class='vertical-center'><img style='vertical-align:center; align:center' src=img/fixation3.jpg></div><div class='cl'><div class='vertical-center'><font style='color:orange'>$25<br>in<br>3 weeks</font></div></div><div class='cr'><div class='vertical-center'>$14<br><br>now</div></div><div class='respDivL'><div class='vertical-center'><font style='color:orange'>(E)</font></div></div><div class='respDivR'><div class='vertical-center'>(I)</div></div></div>","null","$14<br><br>now","$25<br>in<br>3 weeks","1","14","25","3",""
"","","","FIX","63d842d3e9626bd5fe5c17b1","bdp_td","Mon Mar 27 2023 16:14:14 GMT-0700 (Pacific Daylight Time)","108782","html-keyboard-response","26","58963","0.0-5.0-1.7","","null","","<div class='trialBorder'><div class='vertical-center'><img style='vertical-align:center; align:center' src=img/fixation3.jpg></div></div>","null","","","","","","",""
"","","","offer","63d842d3e9626bd5fe5c17b1","bdp_td","Mon Mar 27 2023 16:14:14 GMT-0700 (Pacific Daylight Time)","108782","html-keyboard-response","27","60255","0.0-5.0-2.7","","1292","","<div class='trialBorder'><div class='vertical-center'><img style='vertical-align:center; align:center' src=img/fixation3.jpg></div><div class='cl'><div class='vertical-center'>$50<br>in<br>12 weeks</div></div><div class='cr'><div class='vertical-center'>$47<br><br>now</div></div><div class='respDivL'><div class='vertical-center'>(E)</div></div><div class='respDivR'><div class='vertical-center'>(I)</div></div></div>","I","$47<br><br>now","$50<br>in<br>12 weeks","1","47","50","12","NOW"
"","","","offerFB","63d842d3e9626bd5fe5c17b1","bdp_td","Mon Mar 27 2023 16:14:14 GMT-0700 (Pacific Daylight Time)","108782","html-keyboard-response","28","60506","0.0-5.0-3.7","","null","","<div class='trialBorder'><div class='vertical-center'><img style='vertical-align:center; align:center' src=img/fixation3.jpg></div><div class='cl'><div class='vertical-center'>$50<br>in<br>12 weeks</div></div><div class='cr'><div class='vertical-center'><font style='color:orange'>$47<br><br>now</font></div></div><div class='respDivL'><div class='vertical-center'>(E)</div></div><div class='respDivR'><div class='vertical-center'><font style='color:orange'>(I)</font></div></div></div>","null","$47<br><br>now","$50<br>in<br>12 weeks","1","47","50","12",""
"","","","FIX","63d842d3e9626bd5fe5c17b1","bdp_td","Mon Mar 27 2023 16:14:14 GMT-0700 (Pacific Daylight Time)","108782","html-keyboard-response","29","61015","0.0-5.0-1.8","","null","","<div class='trialBorder'><div class='vertical-center'><img style='vertical-align:center; align:center' src=img/fixation3.jpg></div></div>","null","","","","","","",""
"","","","offer","63d842d3e9626bd5fe5c17b1","bdp_td","Mon Mar 27 2023 16:14:14 GMT-0700 (Pacific Daylight Time)","108782","html-keyboard-response","30","62321","0.0-5.0-2.8","","1305","","<div class='trialBorder'><div class='vertical-center'><img style='vertical-align:center; align:center' src=img/fixation3.jpg></div><div class='cl'><div class='vertical-center'>$25<br>in<br>12 weeks</div></div><div class='cr'><div class='vertical-center'>$22<br><br>now</div></div><div class='respDivL'><div class='vertical-center'>(E)</div></div><div class='respDivR'><div class='vertical-center'>(I)</div></div></div>","I","$22<br><br>now","$25<br>in<br>12 weeks","1","22","25","12","NOW"
"","","","offerFB","63d842d3e9626bd5fe5c17b1","bdp_td","Mon Mar 27 2023 16:14:14 GMT-0700 (Pacific Daylight Time)","108782","html-keyboard-response","31","62572","0.0-5.0-3.8","","null","","<div class='trialBorder'><div class='vertical-center'><img style='vertical-align:center; align:center' src=img/fixation3.jpg></div><div class='cl'><div class='vertical-center'>$25<br>in<br>12 weeks</div></div><div class='cr'><div class='vertical-center'><font style='color:orange'>$22<br><br>now</font></div></div><div class='respDivL'><div class='vertical-center'>(E)</div></div><div class='respDivR'><div class='vertical-center'><font style='color:orange'>(I)</font></div></div></div>","null","$22<br><br>now","$25<br>in<br>12 weeks","1","22","25","12",""
"","","","FIX","63d842d3e9626bd5fe5c17b1","bdp_td","Mon Mar 27 2023 16:14:14 GMT-0700 (Pacific Daylight Time)","108782","html-keyboard-response","32","63081","0.0-5.0-1.9","","null","","<div class='trialBorder'><div class='vertical-center'><img style='vertical-align:center; align:center' src=img/fixation3.jpg></div></div>","null","","","","","","",""
"","","","offer","63d842d3e9626bd5fe5c17b1","bdp_td","Mon Mar 27 2023 16:14:14 GMT-0700 (Pacific Daylight Time)","108782","html-keyboard-response","33","64583","0.0-5.0-2.9","","1502","","<div class='trialBorder'><div class='vertical-center'><img style='vertical-align:center; align:center' src=img/fixation3.jpg></div><div class='cl'><div class='vertical-center'>$54<br><br>now</div></div><div class='cr'><div class='vertical-center'>$55<br>in<br>12 weeks</div></div><div class='respDivL'><div class='vertical-center'>(E)</div></div><div class='respDivR'><div class='vertical-center'>(I)</div></div></div>","E","$54<br><br>now","$55<br>in<br>12 weeks","0","54","55","12","NOW"
"","","","offerFB","63d842d3e9626bd5fe5c17b1","bdp_td","Mon Mar 27 2023 16:14:14 GMT-0700 (Pacific Daylight Time)","108782","html-keyboard-response","34","64842","0.0-5.0-3.9","","null","","<div class='trialBorder'><div class='vertical-center'><img style='vertical-align:center; align:center' src=img/fixation3.jpg></div><div class='cl'><div class='vertical-center'><font style='color:orange'>$54<br><br>now</font></div></div><div class='cr'><div class='vertical-center'>$55<br>in<br>12 weeks</div></div><div class='respDivL'><div class='vertical-center'><font style='color:orange'>(E)</font></div></div><div class='respDivR'><div class='vertical-center'>(I)</div></div></div>","null","$54<br><br>now","$55<br>in<br>12 weeks","0","54","55","12",""
"","","","FIX","63d842d3e9626bd5fe5c17b1","bdp_td","Mon Mar 27 2023 16:14:14 GMT-0700 (Pacific Daylight Time)","108782","html-keyboard-response","35","65352","0.0-5.0-1.10","","null","","<div class='trialBorder'><div class='vertical-center'><img style='vertical-align:center; align:center' src=img/fixation3.jpg></div></div>","null","","","","","","",""
"","","","offer","63d842d3e9626bd5fe5c17b1","bdp_td","Mon Mar 27 2023 16:14:14 GMT-0700 (Pacific Daylight Time)","108782","html-keyboard-response","36","68999","0.0-5.0-2.10","","3646","","<div class='trialBorder'><div class='vertical-center'><img style='vertical-align:center; align:center' src=img/fixation3.jpg></div><div class='cl'><div class='vertical-center'>$67<br><br>now</div></div><div class='cr'><div class='vertical-center'>$75<br>in<br>12 weeks</div></div><div class='respDivL'><div class='vertical-center'>(E)</div></div><div class='respDivR'><div class='vertical-center'>(I)</div></div></div>","E","$67<br><br>now","$75<br>in<br>12 weeks","0","67","75","12","NOW"
"","","","offerFB","63d842d3e9626bd5fe5c17b1","bdp_td","Mon Mar 27 2023 16:14:14 GMT-0700 (Pacific Daylight Time)","108782","html-keyboard-response","37","69256","0.0-5.0-3.10","","null","","<div class='trialBorder'><div class='vertical-center'><img style='vertical-align:center; align:center' src=img/fixation3.jpg></div><div class='cl'><div class='vertical-center'><font style='color:orange'>$67<br><br>now</font></div></div><div class='cr'><div class='vertical-center'>$75<br>in<br>12 weeks</div></div><div class='respDivL'><div class='vertical-center'><font style='color:orange'>(E)</font></div></div><div class='respDivR'><div class='vertical-center'>(I)</div></div></div>","null","$67<br><br>now","$75<br>in<br>12 weeks","0","67","75","12",""
"","","","FIX","63d842d3e9626bd5fe5c17b1","bdp_td","Mon Mar 27 2023 16:14:14 GMT-0700 (Pacific Daylight Time)","108782","html-keyboard-response","38","69764","0.0-5.0-1.11","","null","","<div class='trialBorder'><div class='vertical-center'><img style='vertical-align:center; align:center' src=img/fixation3.jpg></div></div>","null","","","","","","",""
"","","","offer","63d842d3e9626bd5fe5c17b1","bdp_td","Mon Mar 27 2023 16:14:14 GMT-0700 (Pacific Daylight Time)","108782","html-keyboard-response","39","71275","0.0-5.0-2.11","","1511","","<div class='trialBorder'><div class='vertical-center'><img style='vertical-align:center; align:center' src=img/fixation3.jpg></div><div class='cl'><div class='vertical-center'>$78<br><br>now</div></div><div class='cr'><div class='vertical-center'>$80<br>in<br>12 weeks</div></div><div class='respDivL'><div class='vertical-center'>(E)</div></div><div class='respDivR'><div class='vertical-center'>(I)</div></div></div>","E","$78<br><br>now","$80<br>in<br>12 weeks","0","78","80","12","NOW"
"","","","offerFB","63d842d3e9626bd5fe5c17b1","bdp_td","Mon Mar 27 2023 16:14:14 GMT-0700 (Pacific Daylight Time)","108782","html-keyboard-response","40","71537","0.0-5.0-3.11","","null","","<div class='trialBorder'><div class='vertical-center'><img style='vertical-align:center; align:center' src=img/fixation3.jpg></div><div class='cl'><div class='vertical-center'><font style='color:orange'>$78<br><br>now</font></div></div><div class='cr'><div class='vertical-center'>$80<br>in<br>12 weeks</div></div><div class='respDivL'><div class='vertical-center'><font style='color:orange'>(E)</font></div></div><div class='respDivR'><div class='vertical-center'>(I)</div></div></div>","null","$78<br><br>now","$80<br>in<br>12 weeks","0","78","80","12",""
"","","","FIX","63d842d3e9626bd5fe5c17b1","bdp_td","Mon Mar 27 2023 16:14:14 GMT-0700 (Pacific Daylight Time)","108782","html-keyboard-response","41","72046","0.0-5.0-1.12","","null","","<div class='trialBorder'><div class='vertical-center'><img style='vertical-align:center; align:center' src=img/fixation3.jpg></div></div>","null","","","","","","",""
"","","","offer","63d842d3e9626bd5fe5c17b1","bdp_td","Mon Mar 27 2023 16:14:14 GMT-0700 (Pacific Daylight Time)","108782","html-keyboard-response","42","73609","0.0-5.0-2.12","","1562","","<div class='trialBorder'><div class='vertical-center'><img style='vertical-align:center; align:center' src=img/fixation3.jpg></div><div class='cl'><div class='vertical-center'>$49<br><br>now</div></div><div class='cr'><div class='vertical-center'>$60<br>in<br>6 weeks</div></div><div class='respDivL'><div class='vertical-center'>(E)</div></div><div class='respDivR'><div class='vertical-center'>(I)</div></div></div>","E","$49<br><br>now","$60<br>in<br>6 weeks","0","49","60","6","NOW"
"","","","offerFB","63d842d3e9626bd5fe5c17b1","bdp_td","Mon Mar 27 2023 16:14:14 GMT-0700 (Pacific Daylight Time)","108782","html-keyboard-response","43","73865","0.0-5.0-3.12","","null","","<div class='trialBorder'><div class='vertical-center'><img style='vertical-align:center; align:center' src=img/fixation3.jpg></div><div class='cl'><div class='vertical-center'><font style='color:orange'>$49<br><br>now</font></div></div><div class='cr'><div class='vertical-center'>$60<br>in<br>6 weeks</div></div><div class='respDivL'><div class='vertical-center'><font style='color:orange'>(E)</font></div></div><div class='respDivR'><div class='vertical-center'>(I)</div></div></div>","null","$49<br><br>now","$60<br>in<br>6 weeks","0","49","60","6",""
"","","","FIX","63d842d3e9626bd5fe5c17b1","bdp_td","Mon Mar 27 2023 16:14:14 GMT-0700 (Pacific Daylight Time)","108782","html-keyboard-response","44","74373","0.0-5.0-1.13","","null","","<div class='trialBorder'><div class='vertical-center'><img style='vertical-align:center; align:center' src=img/fixation3.jpg></div></div>","null","","","","","","",""
"","","","offer","63d842d3e9626bd5fe5c17b1","bdp_td","Mon Mar 27 2023 16:14:14 GMT-0700 (Pacific Daylight Time)","108782","html-keyboard-response","45","76387","0.0-5.0-2.13","","2013","","<div class='trialBorder'><div class='vertical-center'><img style='vertical-align:center; align:center' src=img/fixation3.jpg></div><div class='cl'><div class='vertical-center'>$25<br>in<br>6 weeks</div></div><div class='cr'><div class='vertical-center'>$19<br><br>now</div></div><div class='respDivL'><div class='vertical-center'>(E)</div></div><div class='respDivR'><div class='vertical-center'>(I)</div></div></div>","I","$19<br><br>now","$25<br>in<br>6 weeks","1","19","25","6","NOW"
"","","","offerFB","63d842d3e9626bd5fe5c17b1","bdp_td","Mon Mar 27 2023 16:14:14 GMT-0700 (Pacific Daylight Time)","108782","html-keyboard-response","46","76641","0.0-5.0-3.13","","null","","<div class='trialBorder'><div class='vertical-center'><img style='vertical-align:center; align:center' src=img/fixation3.jpg></div><div class='cl'><div class='vertical-center'>$25<br>in<br>6 weeks</div></div><div class='cr'><div class='vertical-center'><font style='color:orange'>$19<br><br>now</font></div></div><div class='respDivL'><div class='vertical-center'>(E)</div></div><div class='respDivR'><div class='vertical-center'><font style='color:orange'>(I)</font></div></div></div>","null","$19<br><br>now","$25<br>in<br>6 weeks","1","19","25","6",""
"","","","FIX","63d842d3e9626bd5fe5c17b1","bdp_td","Mon Mar 27 2023 16:14:14 GMT-0700 (Pacific Daylight Time)","108782","html-keyboard-response","47","77150","0.0-5.0-1.14","","null","","<div class='trialBorder'><div class='vertical-center'><img style='vertical-align:center; align:center' src=img/fixation3.jpg></div></div>","null","","","","","","",""
"","","","offer","63d842d3e9626bd5fe5c17b1","bdp_td","Mon Mar 27 2023 16:14:14 GMT-0700 (Pacific Daylight Time)","108782","html-keyboard-response","48","78733","0.0-5.0-2.14","","1583","","<div class='trialBorder'><div class='vertical-center'><img style='vertical-align:center; align:center' src=img/fixation3.jpg></div><div class='cl'><div class='vertical-center'>$41<br><br>now</div></div><div class='cr'><div class='vertical-center'>$75<br>in<br>3 weeks</div></div><div class='respDivL'><div class='vertical-center'>(E)</div></div><div class='respDivR'><div class='vertical-center'>(I)</div></div></div>","I","$41<br><br>now","$75<br>in<br>3 weeks","0","41","75","3","THEN"
"","","","offerFB","63d842d3e9626bd5fe5c17b1","bdp_td","Mon Mar 27 2023 16:14:14 GMT-0700 (Pacific Daylight Time)","108782","html-keyboard-response","49","78990","0.0-5.0-3.14","","null","","<div class='trialBorder'><div class='vertical-center'><img style='vertical-align:center; align:center' src=img/fixation3.jpg></div><div class='cl'><div class='vertical-center'>$41<br><br>now</div></div><div class='cr'><div class='vertical-center'><font style='color:orange'>$75<br>in<br>3 weeks</font></div></div><div class='respDivL'><div class='vertical-center'>(E)</div></div><div class='respDivR'><div class='vertical-center'><font style='color:orange'>(I)</font></div></div></div>","null","$41<br><br>now","$75<br>in<br>3 weeks","0","41","75","3",""
"","","","FIX","63d842d3e9626bd5fe5c17b1","bdp_td","Mon Mar 27 2023 16:14:14 GMT-0700 (Pacific Daylight Time)","108782","html-keyboard-response","50","79499","0.0-5.0-1.15","","null","","<div class='trialBorder'><div class='vertical-center'><img style='vertical-align:center; align:center' src=img/fixation3.jpg></div></div>","null","","","","","","",""
"","","","offer","63d842d3e9626bd5fe5c17b1","bdp_td","Mon Mar 27 2023 16:14:14 GMT-0700 (Pacific Daylight Time)","108782","html-keyboard-response","51","80625","0.0-5.0-2.15","","1126","","<div class='trialBorder'><div class='vertical-center'><img style='vertical-align:center; align:center' src=img/fixation3.jpg></div><div class='cl'><div class='vertical-center'>$15<br><br>now</div></div><div class='cr'><div class='vertical-center'>$35<br>in<br>2 weeks</div></div><div class='respDivL'><div class='vertical-center'>(E)</div></div><div class='respDivR'><div class='vertical-center'>(I)</div></div></div>","I","$15<br><br>now","$35<br>in<br>2 weeks","0","15","35","2","THEN"
"","","","offerFB","63d842d3e9626bd5fe5c17b1","bdp_td","Mon Mar 27 2023 16:14:14 GMT-0700 (Pacific Daylight Time)","108782","html-keyboard-response","52","80887","0.0-5.0-3.15","","null","","<div class='trialBorder'><div class='vertical-center'><img style='vertical-align:center; align:center' src=img/fixation3.jpg></div><div class='cl'><div class='vertical-center'>$15<br><br>now</div></div><div class='cr'><div class='vertical-center'><font style='color:orange'>$35<br>in<br>2 weeks</font></div></div><div class='respDivL'><div class='vertical-center'>(E)</div></div><div class='respDivR'><div class='vertical-center'><font style='color:orange'>(I)</font></div></div></div>","null","$15<br><br>now","$35<br>in<br>2 weeks","0","15","35","2",""
"","","","FIX","63d842d3e9626bd5fe5c17b1","bdp_td","Mon Mar 27 2023 16:14:14 GMT-0700 (Pacific Daylight Time)","108782","html-keyboard-response","53","81396","0.0-5.0-1.16","","null","","<div class='trialBorder'><div class='vertical-center'><img style='vertical-align:center; align:center' src=img/fixation3.jpg></div></div>","null","","","","","","",""
"","","","offer","63d842d3e9626bd5fe5c17b1","bdp_td","Mon Mar 27 2023 16:14:14 GMT-0700 (Pacific Daylight Time)","108782","html-keyboard-response","54","82979","0.0-5.0-2.16","","1583","","<div class='trialBorder'><div class='vertical-center'><img style='vertical-align:center; align:center' src=img/fixation3.jpg></div><div class='cl'><div class='vertical-center'>$24<br><br>now</div></div><div class='cr'><div class='vertical-center'>$35<br>in<br>3 weeks</div></div><div class='respDivL'><div class='vertical-center'>(E)</div></div><div class='respDivR'><div class='vertical-center'>(I)</div></div></div>","I","$24<br><br>now","$35<br>in<br>3 weeks","0","24","35","3","THEN"
"","","","offerFB","63d842d3e9626bd5fe5c17b1","bdp_td","Mon Mar 27 2023 16:14:14 GMT-0700 (Pacific Daylight Time)","108782","html-keyboard-response","55","83235","0.0-5.0-3.16","","null","","<div class='trialBorder'><div class='vertical-center'><img style='vertical-align:center; align:center' src=img/fixation3.jpg></div><div class='cl'><div class='vertical-center'>$24<br><br>now</div></div><div class='cr'><div class='vertical-center'><font style='color:orange'>$35<br>in<br>3 weeks</font></div></div><div class='respDivL'><div class='vertical-center'>(E)</div></div><div class='respDivR'><div class='vertical-center'><font style='color:orange'>(I)</font></div></div></div>","null","$24<br><br>now","$35<br>in<br>3 weeks","0","24","35","3",""
"","","","FIX","63d842d3e9626bd5fe5c17b1","bdp_td","Mon Mar 27 2023 16:14:14 GMT-0700 (Pacific Daylight Time)","108782","html-keyboard-response","56","83745","0.0-5.0-1.17","","null","","<div class='trialBorder'><div class='vertical-center'><img style='vertical-align:center; align:center' src=img/fixation3.jpg></div></div>","null","","","","","","",""
"","","","offer","63d842d3e9626bd5fe5c17b1","bdp_td","Mon Mar 27 2023 16:14:14 GMT-0700 (Pacific Daylight Time)","108782","html-keyboard-response","57","86283","0.0-5.0-2.17","","2537","","<div class='trialBorder'><div class='vertical-center'><img style='vertical-align:center; align:center' src=img/fixation3.jpg></div><div class='cl'><div class='vertical-center'>$40<br><br>now</div></div><div class='cr'><div class='vertical-center'>$55<br>in<br>6 weeks</div></div><div class='respDivL'><div class='vertical-center'>(E)</div></div><div class='respDivR'><div class='vertical-center'>(I)</div></div></div>","I","$40<br><br>now","$55<br>in<br>6 weeks","0","40","55","6","THEN"
"","","","offerFB","63d842d3e9626bd5fe5c17b1","bdp_td","Mon Mar 27 2023 16:14:14 GMT-0700 (Pacific Daylight Time)","108782","html-keyboard-response","58","86538","0.0-5.0-3.17","","null","","<div class='trialBorder'><div class='vertical-center'><img style='vertical-align:center; align:center' src=img/fixation3.jpg></div><div class='cl'><div class='vertical-center'>$40<br><br>now</div></div><div class='cr'><div class='vertical-center'><font style='color:orange'>$55<br>in<br>6 weeks</font></div></div><div class='respDivL'><div class='vertical-center'>(E)</div></div><div class='respDivR'><div class='vertical-center'><font style='color:orange'>(I)</font></div></div></div>","null","$40<br><br>now","$55<br>in<br>6 weeks","0","40","55","6",""
"","","","FIX","63d842d3e9626bd5fe5c17b1","bdp_td","Mon Mar 27 2023 16:14:14 GMT-0700 (Pacific Daylight Time)","108782","html-keyboard-response","59","87048","0.0-5.0-1.18","","null","","<div class='trialBorder'><div class='vertical-center'><img style='vertical-align:center; align:center' src=img/fixation3.jpg></div></div>","null","","","","","","",""
"","","","offer","63d842d3e9626bd5fe5c17b1","bdp_td","Mon Mar 27 2023 16:14:14 GMT-0700 (Pacific Daylight Time)","108782","html-keyboard-response","60","88085","0.0-5.0-2.18","","1037","","<div class='trialBorder'><div class='vertical-center'><img style='vertical-align:center; align:center' src=img/fixation3.jpg></div><div class='cl'><div class='vertical-center'>$34<br><br>now</div></div><div class='cr'><div class='vertical-center'>$35<br>in<br>12 weeks</div></div><div class='respDivL'><div class='vertical-center'>(E)</div></div><div class='respDivR'><div class='vertical-center'>(I)</div></div></div>","E","$34<br><br>now","$35<br>in<br>12 weeks","0","34","35","12","NOW"
"","","","offerFB","63d842d3e9626bd5fe5c17b1","bdp_td","Mon Mar 27 2023 16:14:14 GMT-0700 (Pacific Daylight Time)","108782","html-keyboard-response","61","88346","0.0-5.0-3.18","","null","","<div class='trialBorder'><div class='vertical-center'><img style='vertical-align:center; align:center' src=img/fixation3.jpg></div><div class='cl'><div class='vertical-center'><font style='color:orange'>$34<br><br>now</font></div></div><div class='cr'><div class='vertical-center'>$35<br>in<br>12 weeks</div></div><div class='respDivL'><div class='vertical-center'><font style='color:orange'>(E)</font></div></div><div class='respDivR'><div class='vertical-center'>(I)</div></div></div>","null","$34<br><br>now","$35<br>in<br>12 weeks","0","34","35","12",""
"","","","FIX","63d842d3e9626bd5fe5c17b1","bdp_td","Mon Mar 27 2023 16:14:14 GMT-0700 (Pacific Daylight Time)","108782","html-keyboard-response","62","88856","0.0-5.0-1.19","","null","","<div class='trialBorder'><div class='vertical-center'><img style='vertical-align:center; align:center' src=img/fixation3.jpg></div></div>","null","","","","","","",""
"","","","offer","63d842d3e9626bd5fe5c17b1","bdp_td","Mon Mar 27 2023 16:14:14 GMT-0700 (Pacific Daylight Time)","108782","html-keyboard-response","63","92507","0.0-5.0-2.19","","3651","","<div class='trialBorder'><div class='vertical-center'><img style='vertical-align:center; align:center' src=img/fixation3.jpg></div><div class='cl'><div class='vertical-center'>$60<br>in<br>12 weeks</div></div><div class='cr'><div class='vertical-center'>$54<br><br>now</div></div><div class='respDivL'><div class='vertical-center'>(E)</div></div><div class='respDivR'><div class='vertical-center'>(I)</div></div></div>","I","$54<br><br>now","$60<br>in<br>12 weeks","1","54","60","12","NOW"
"","","","offerFB","63d842d3e9626bd5fe5c17b1","bdp_td","Mon Mar 27 2023 16:14:14 GMT-0700 (Pacific Daylight Time)","108782","html-keyboard-response","64","92771","0.0-5.0-3.19","","null","","<div class='trialBorder'><div class='vertical-center'><img style='vertical-align:center; align:center' src=img/fixation3.jpg></div><div class='cl'><div class='vertical-center'>$60<br>in<br>12 weeks</div></div><div class='cr'><div class='vertical-center'><font style='color:orange'>$54<br><br>now</font></div></div><div class='respDivL'><div class='vertical-center'>(E)</div></div><div class='respDivR'><div class='vertical-center'><font style='color:orange'>(I)</font></div></div></div>","null","$54<br><br>now","$60<br>in<br>12 weeks","1","54","60","12",""
"","","","FIX","63d842d3e9626bd5fe5c17b1","bdp_td","Mon Mar 27 2023 16:14:14 GMT-0700 (Pacific Daylight Time)","108782","html-keyboard-response","65","93279","0.0-5.0-1.20","","null","","<div class='trialBorder'><div class='vertical-center'><img style='vertical-align:center; align:center' src=img/fixation3.jpg></div></div>","null","","","","","","",""
"","","","offer","63d842d3e9626bd5fe5c17b1","bdp_td","Mon Mar 27 2023 16:14:14 GMT-0700 (Pacific Daylight Time)","108782","html-keyboard-response","66","94283","0.0-5.0-2.20","","1003","","<div class='trialBorder'><div class='vertical-center'><img style='vertical-align:center; align:center' src=img/fixation3.jpg></div><div class='cl'><div class='vertical-center'>$85<br>in<br>12 weeks</div></div><div class='cr'><div class='vertical-center'>$80<br><br>now</div></div><div class='respDivL'><div class='vertical-center'>(E)</div></div><div class='respDivR'><div class='vertical-center'>(I)</div></div></div>","I","$80<br><br>now","$85<br>in<br>12 weeks","1","80","85","12","NOW"
"","","","offerFB","63d842d3e9626bd5fe5c17b1","bdp_td","Mon Mar 27 2023 16:14:14 GMT-0700 (Pacific Daylight Time)","108782","html-keyboard-response","67","94544","0.0-5.0-3.20","","null","","<div class='trialBorder'><div class='vertical-center'><img style='vertical-align:center; align:center' src=img/fixation3.jpg></div><div class='cl'><div class='vertical-center'>$85<br>in<br>12 weeks</div></div><div class='cr'><div class='vertical-center'><font style='color:orange'>$80<br><br>now</font></div></div><div class='respDivL'><div class='vertical-center'>(E)</div></div><div class='respDivR'><div class='vertical-center'><font style='color:orange'>(I)</font></div></div></div>","null","$80<br><br>now","$85<br>in<br>12 weeks","1","80","85","12",""
"","","","FIX","63d842d3e9626bd5fe5c17b1","bdp_td","Mon Mar 27 2023 16:14:14 GMT-0700 (Pacific Daylight Time)","108782","html-keyboard-response","68","95056","0.0-5.0-1.21","","null","","<div class='trialBorder'><div class='vertical-center'><img style='vertical-align:center; align:center' src=img/fixation3.jpg></div></div>","null","","","","","","",""
"","","","offer","63d842d3e9626bd5fe5c17b1","bdp_td","Mon Mar 27 2023 16:14:14 GMT-0700 (Pacific Daylight Time)","108782","html-keyboard-response","69","96204","0.0-5.0-2.21","","1145","","<div class='trialBorder'><div class='vertical-center'><img style='vertical-align:center; align:center' src=img/fixation3.jpg></div><div class='cl'><div class='vertical-center'>$27<br><br>now</div></div><div class='cr'><div class='vertical-center'>$50<br>in<br>3 weeks</div></div><div class='respDivL'><div class='vertical-center'>(E)</div></div><div class='respDivR'><div class='vertical-center'>(I)</div></div></div>","I","$27<br><br>now","$50<br>in<br>3 weeks","0","27","50","3","THEN"
"","","","offerFB","63d842d3e9626bd5fe5c17b1","bdp_td","Mon Mar 27 2023 16:14:14 GMT-0700 (Pacific Daylight Time)","108782","html-keyboard-response","70","96462","0.0-5.0-3.21","","null","","<div class='trialBorder'><div class='vertical-center'><img style='vertical-align:center; align:center' src=img/fixation3.jpg></div><div class='cl'><div class='vertical-center'>$27<br><br>now</div></div><div class='cr'><div class='vertical-center'><font style='color:orange'>$50<br>in<br>3 weeks</font></div></div><div class='respDivL'><div class='vertical-center'>(E)</div></div><div class='respDivR'><div class='vertical-center'><font style='color:orange'>(I)</font></div></div></div>","null","$27<br><br>now","$50<br>in<br>3 weeks","0","27","50","3",""
"","","","FIX","63d842d3e9626bd5fe5c17b1","bdp_td","Mon Mar 27 2023 16:14:14 GMT-0700 (Pacific Daylight Time)","108782","html-keyboard-response","71","96971","0.0-5.0-1.22","","null","","<div class='trialBorder'><div class='vertical-center'><img style='vertical-align:center; align:center' src=img/fixation3.jpg></div></div>","null","","","","","","",""
"","","","offer","63d842d3e9626bd5fe5c17b1","bdp_td","Mon Mar 27 2023 16:14:14 GMT-0700 (Pacific Daylight Time)","108782","html-keyboard-response","72","100097","0.0-5.0-2.22","","3125","","<div class='trialBorder'><div class='vertical-center'><img style='vertical-align:center; align:center' src=img/fixation3.jpg></div><div class='cl'><div class='vertical-center'>$85<br>in<br>6 weeks</div></div><div class='cr'><div class='vertical-center'>$69<br><br>now</div></div><div class='respDivL'><div class='vertical-center'>(E)</div></div><div class='respDivR'><div class='vertical-center'>(I)</div></div></div>","E","$69<br><br>now","$85<br>in<br>6 weeks","1","69","85","6","THEN"
"","","","offerFB","63d842d3e9626bd5fe5c17b1","bdp_td","Mon Mar 27 2023 16:14:14 GMT-0700 (Pacific Daylight Time)","108782","html-keyboard-response","73","100352","0.0-5.0-3.22","","null","","<div class='trialBorder'><div class='vertical-center'><img style='vertical-align:center; align:center' src=img/fixation3.jpg></div><div class='cl'><div class='vertical-center'><font style='color:orange'>$85<br>in<br>6 weeks</font></div></div><div class='cr'><div class='vertical-center'>$69<br><br>now</div></div><div class='respDivL'><div class='vertical-center'><font style='color:orange'>(E)</font></div></div><div class='respDivR'><div class='vertical-center'>(I)</div></div></div>","null","$69<br><br>now","$85<br>in<br>6 weeks","1","69","85","6",""
"","","","FIX","63d842d3e9626bd5fe5c17b1","bdp_td","Mon Mar 27 2023 16:14:14 GMT-0700 (Pacific Daylight Time)","108782","html-keyboard-response","74","100861","0.0-5.0-1.23","","null","","<div class='trialBorder'><div class='vertical-center'><img style='vertical-align:center; align:center' src=img/fixation3.jpg></div></div>","null","","","","","","",""
"","","","offer","63d842d3e9626bd5fe5c17b1","bdp_td","Mon Mar 27 2023 16:14:14 GMT-0700 (Pacific Daylight Time)","108782","html-keyboard-response","75","102673","0.0-5.0-2.23","","1812","","<div class='trialBorder'><div class='vertical-center'><img style='vertical-align:center; align:center' src=img/fixation3.jpg></div><div class='cl'><div class='vertical-center'>$80<br>in<br>3 weeks</div></div><div class='cr'><div class='vertical-center'>$54<br><br>now</div></div><div class='respDivL'><div class='vertical-center'>(E)</div></div><div class='respDivR'><div class='vertical-center'>(I)</div></div></div>","E","$54<br><br>now","$80<br>in<br>3 weeks","1","54","80","3","THEN"
"","","","offerFB","63d842d3e9626bd5fe5c17b1","bdp_td","Mon Mar 27 2023 16:14:14 GMT-0700 (Pacific Daylight Time)","108782","html-keyboard-response","76","102929","0.0-5.0-3.23","","null","","<div class='trialBorder'><div class='vertical-center'><img style='vertical-align:center; align:center' src=img/fixation3.jpg></div><div class='cl'><div class='vertical-center'><font style='color:orange'>$80<br>in<br>3 weeks</font></div></div><div class='cr'><div class='vertical-center'>$54<br><br>now</div></div><div class='respDivL'><div class='vertical-center'><font style='color:orange'>(E)</font></div></div><div class='respDivR'><div class='vertical-center'>(I)</div></div></div>","null","$54<br><br>now","$80<br>in<br>3 weeks","1","54","80","3",""
"","","","FIX","63d842d3e9626bd5fe5c17b1","bdp_td","Mon Mar 27 2023 16:14:14 GMT-0700 (Pacific Daylight Time)","108782","html-keyboard-response","77","103438","0.0-5.0-1.24","","null","","<div class='trialBorder'><div class='vertical-center'><img style='vertical-align:center; align:center' src=img/fixation3.jpg></div></div>","null","","","","","","",""
"","","","offer","63d842d3e9626bd5fe5c17b1","bdp_td","Mon Mar 27 2023 16:14:14 GMT-0700 (Pacific Daylight Time)","108782","html-keyboard-response","78","104303","0.0-5.0-2.24","","864","","<div class='trialBorder'><div class='vertical-center'><img style='vertical-align:center; align:center' src=img/fixation3.jpg></div><div class='cl'><div class='vertical-center'>$80<br>in<br>2 weeks</div></div><div class='cr'><div class='vertical-center'>$33<br><br>now</div></div><div class='respDivL'><div class='vertical-center'>(E)</div></div><div class='respDivR'><div class='vertical-center'>(I)</div></div></div>","E","$33<br><br>now","$80<br>in<br>2 weeks","1","33","80","2","THEN"
"","","","offerFB","63d842d3e9626bd5fe5c17b1","bdp_td","Mon Mar 27 2023 16:14:14 GMT-0700 (Pacific Daylight Time)","108782","html-keyboard-response","79","104564","0.0-5.0-3.24","","null","","<div class='trialBorder'><div class='vertical-center'><img style='vertical-align:center; align:center' src=img/fixation3.jpg></div><div class='cl'><div class='vertical-center'><font style='color:orange'>$80<br>in<br>2 weeks</font></div></div><div class='cr'><div class='vertical-center'>$33<br><br>now</div></div><div class='respDivL'><div class='vertical-center'><font style='color:orange'>(E)</font></div></div><div class='respDivR'><div class='vertical-center'>(I)</div></div></div>","null","$33<br><br>now","$80<br>in<br>2 weeks","1","33","80","2",""
"","","","FIX","63d842d3e9626bd5fe5c17b1","bdp_td","Mon Mar 27 2023 16:14:14 GMT-0700 (Pacific Daylight Time)","108782","html-keyboard-response","80","105075","0.0-5.0-1.25","","null","","<div class='trialBorder'><div class='vertical-center'><img style='vertical-align:center; align:center' src=img/fixation3.jpg></div></div>","null","","","","","","",""
"","","","offer","63d842d3e9626bd5fe5c17b1","bdp_td","Mon Mar 27 2023 16:14:14 GMT-0700 (Pacific Daylight Time)","108782","html-keyboard-response","81","105837","0.0-5.0-2.25","","762","","<div class='trialBorder'><div class='vertical-center'><img style='vertical-align:center; align:center' src=img/fixation3.jpg></div><div class='cl'><div class='vertical-center'>$55<br><br>now</div></div><div class='cr'><div class='vertical-center'>$75<br>in<br>6 weeks</div></div><div class='respDivL'><div class='vertical-center'>(E)</div></div><div class='respDivR'><div class='vertical-center'>(I)</div></div></div>","I","$55<br><br>now","$75<br>in<br>6 weeks","0","55","75","6","THEN"
"","","","offerFB","63d842d3e9626bd5fe5c17b1","bdp_td","Mon Mar 27 2023 16:14:14 GMT-0700 (Pacific Daylight Time)","108782","html-keyboard-response","82","106095","0.0-5.0-3.25","","null","","<div class='trialBorder'><div class='vertical-center'><img style='vertical-align:center; align:center' src=img/fixation3.jpg></div><div class='cl'><div class='vertical-center'>$55<br><br>now</div></div><div class='cr'><div class='vertical-center'><font style='color:orange'>$75<br>in<br>6 weeks</font></div></div><div class='respDivL'><div class='vertical-center'>(E)</div></div><div class='respDivR'><div class='vertical-center'><font style='color:orange'>(I)</font></div></div></div>","null","$55<br><br>now","$75<br>in<br>6 weeks","0","55","75","6",""
"","","","FIX","63d842d3e9626bd5fe5c17b1","bdp_td","Mon Mar 27 2023 16:14:14 GMT-0700 (Pacific Daylight Time)","108782","html-keyboard-response","83","106605","0.0-5.0-1.26","","null","","<div class='trialBorder'><div class='vertical-center'><img style='vertical-align:center; align:center' src=img/fixation3.jpg></div></div>","null","","","","","","",""
"","","","offer","63d842d3e9626bd5fe5c17b1","bdp_td","Mon Mar 27 2023 16:14:14 GMT-0700 (Pacific Daylight Time)","108782","html-keyboard-response","84","107518","0.0-5.0-2.26","","913","","<div class='trialBorder'><div class='vertical-center'><img style='vertical-align:center; align:center' src=img/fixation3.jpg></div><div class='cl'><div class='vertical-center'>$30<br>in<br>6 weeks</div></div><div class='cr'><div class='vertical-center'>$25<br><br>now</div></div><div class='respDivL'><div class='vertical-center'>(E)</div></div><div class='respDivR'><div class='vertical-center'>(I)</div></div></div>","I","$25<br><br>now","$30<br>in<br>6 weeks","1","25","30","6","NOW"
"","","","offerFB","63d842d3e9626bd5fe5c17b1","bdp_td","Mon Mar 27 2023 16:14:14 GMT-0700 (Pacific Daylight Time)","108782","html-keyboard-response","85","107777","0.0-5.0-3.26","","null","","<div class='trialBorder'><div class='vertical-center'><img style='vertical-align:center; align:center' src=img/fixation3.jpg></div><div class='cl'><div class='vertical-center'>$30<br>in<br>6 weeks</div></div><div class='cr'><div class='vertical-center'><font style='color:orange'>$25<br><br>now</font></div></div><div class='respDivL'><div class='vertical-center'>(E)</div></div><div class='respDivR'><div class='vertical-center'><font style='color:orange'>(I)</font></div></div></div>","null","$25<br><br>now","$30<br>in<br>6 weeks","1","25","30","6",""
"fullscreenexit","86","107981","fullscreenexit","63d842d3e9626bd5fe5c17b1","bdp_td","Mon Mar 27 2023 16:14:14 GMT-0700 (Pacific Daylight Time)","108782","","","","","","","","","","","","","","","",""
"","","","","63d842d3e9626bd5fe5c17b1","bdp_td","Mon Mar 27 2023 16:14:14 GMT-0700 (Pacific Daylight Time)","108782","fullscreen","86","108781","0.0-6.0","","","true","","","","","","","","",""
"","","","","","","","","html-keyboard-response","87","109291","0.0-7.0","","null","","","null","","","","","","",""
