"trial_type","trial_index","time_elapsed","internal_node_id","subject_id","task","startTime","totalTime","view_history","rt","event","trial","time","trialtype","success","stimulus","key_press","nowOffer","thenOffer","thenLeft","nowAmt","thenAmt","thenWeeks","chosen"
"pavlovia","0","3","0.0-0.0","63bc9e8cd8106f8d94c636d4","bdp_td","Sun Mar 26 2023 17:23:30 GMT-0400 (Eastern Daylight Time)","172927","","","","","","","","","","","","","","","",""
"instructions","1","4053","0.0-1.0","63bc9e8cd8106f8d94c636d4","bdp_td","Sun Mar 26 2023 17:23:30 GMT-0400 (Eastern Daylight Time)","172927","[{""page_index"":0,""viewing_time"":4049}]","4049","","","","","","","","","","","","","",""
"","","","","63bc9e8cd8106f8d94c636d4","bdp_td","Sun Mar 26 2023 17:23:30 GMT-0400 (Eastern Daylight Time)","172927","","","fullscreenenter","2","15914","fullscreenenter","","","","","","","","","",""
"fullscreen","2","16851","0.0-2.0","63bc9e8cd8106f8d94c636d4","bdp_td","Sun Mar 26 2023 17:23:30 GMT-0400 (Eastern Daylight Time)","172927","","","","","","","true","","","","","","","","",""
"instructions","3","81375","0.0-4.0","63bc9e8cd8106f8d94c636d4","bdp_td","Sun Mar 26 2023 17:23:30 GMT-0400 (Eastern Daylight Time)","172927","[{""page_index"":0,""viewing_time"":43513},{""page_index"":1,""viewing_time"":16225},{""page_index"":2,""viewing_time"":4786}]","64524","","","","","","","","","","","","","",""
"html-keyboard-response","4","81876","0.0-5.0-1.0","63bc9e8cd8106f8d94c636d4","bdp_td","Sun Mar 26 2023 17:23:30 GMT-0400 (Eastern Daylight Time)","172927","","null","","","","FIX","","<div class='trialBorder'><div class='vertical-center'><img style='vertical-align:center; align:center' src=img/fixation3.jpg></div></div>","null","","","","","","",""
"html-keyboard-response","5","84629","0.0-5.0-2.0","63bc9e8cd8106f8d94c636d4","bdp_td","Sun Mar 26 2023 17:23:30 GMT-0400 (Eastern Daylight Time)","172927","","2751","","","","offer","","<div class='trialBorder'><div class='vertical-center'><img style='vertical-align:center; align:center' src=img/fixation3.jpg></div><div class='cl'><div class='vertical-center'>$67<br><br>now</div></div><div class='cr'><div class='vertical-center'>$75<br>in<br>12 weeks</div></div><div class='respDivL'><div class='vertical-center'>(E)</div></div><div class='respDivR'><div class='vertical-center'>(I)</div></div></div>","E","$67<br><br>now","$75<br>in<br>12 weeks","0","67","75","12","NOW"
"html-keyboard-response","6","84881","0.0-5.0-3.0","63bc9e8cd8106f8d94c636d4","bdp_td","Sun Mar 26 2023 17:23:30 GMT-0400 (Eastern Daylight Time)","172927","","null","","","","offerFB","","<div class='trialBorder'><div class='vertical-center'><img style='vertical-align:center; align:center' src=img/fixation3.jpg></div><div class='cl'><div class='vertical-center'><font style='color:orange'>$67<br><br>now</font></div></div><div class='cr'><div class='vertical-center'>$75<br>in<br>12 weeks</div></div><div class='respDivL'><div class='vertical-center'><font style='color:orange'>(E)</font></div></div><div class='respDivR'><div class='vertical-center'>(I)</div></div></div>","null","$67<br><br>now","$75<br>in<br>12 weeks","0","67","75","12",""
"html-keyboard-response","7","85382","0.0-5.0-1.1","63bc9e8cd8106f8d94c636d4","bdp_td","Sun Mar 26 2023 17:23:30 GMT-0400 (Eastern Daylight Time)","172927","","null","","","","FIX","","<div class='trialBorder'><div class='vertical-center'><img style='vertical-align:center; align:center' src=img/fixation3.jpg></div></div>","null","","","","","","",""
"html-keyboard-response","8","87567","0.0-5.0-2.1","63bc9e8cd8106f8d94c636d4","bdp_td","Sun Mar 26 2023 17:23:30 GMT-0400 (Eastern Daylight Time)","172927","","2185","","","","offer","","<div class='trialBorder'><div class='vertical-center'><img style='vertical-align:center; align:center' src=img/fixation3.jpg></div><div class='cl'><div class='vertical-center'>$80<br>in<br>12 weeks</div></div><div class='cr'><div class='vertical-center'>$78<br><br>now</div></div><div class='respDivL'><div class='vertical-center'>(E)</div></div><div class='respDivR'><div class='vertical-center'>(I)</div></div></div>","I","$78<br><br>now","$80<br>in<br>12 weeks","1","78","80","12","NOW"
"html-keyboard-response","9","87820","0.0-5.0-3.1","63bc9e8cd8106f8d94c636d4","bdp_td","Sun Mar 26 2023 17:23:30 GMT-0400 (Eastern Daylight Time)","172927","","null","","","","offerFB","","<div class='trialBorder'><div class='vertical-center'><img style='vertical-align:center; align:center' src=img/fixation3.jpg></div><div class='cl'><div class='vertical-center'>$80<br>in<br>12 weeks</div></div><div class='cr'><div class='vertical-center'><font style='color:orange'>$78<br><br>now</font></div></div><div class='respDivL'><div class='vertical-center'>(E)</div></div><div class='respDivR'><div class='vertical-center'><font style='color:orange'>(I)</font></div></div></div>","null","$78<br><br>now","$80<br>in<br>12 weeks","1","78","80","12",""
"html-keyboard-response","10","88321","0.0-5.0-1.2","63bc9e8cd8106f8d94c636d4","bdp_td","Sun Mar 26 2023 17:23:30 GMT-0400 (Eastern Daylight Time)","172927","","null","","","","FIX","","<div class='trialBorder'><div class='vertical-center'><img style='vertical-align:center; align:center' src=img/fixation3.jpg></div></div>","null","","","","","","",""
"html-keyboard-response","11","90584","0.0-5.0-2.2","63bc9e8cd8106f8d94c636d4","bdp_td","Sun Mar 26 2023 17:23:30 GMT-0400 (Eastern Daylight Time)","172927","","2261","","","","offer","","<div class='trialBorder'><div class='vertical-center'><img style='vertical-align:center; align:center' src=img/fixation3.jpg></div><div class='cl'><div class='vertical-center'>$55<br><br>now</div></div><div class='cr'><div class='vertical-center'>$75<br>in<br>6 weeks</div></div><div class='respDivL'><div class='vertical-center'>(E)</div></div><div class='respDivR'><div class='vertical-center'>(I)</div></div></div>","E","$55<br><br>now","$75<br>in<br>6 weeks","0","55","75","6","NOW"
"html-keyboard-response","12","90836","0.0-5.0-3.2","63bc9e8cd8106f8d94c636d4","bdp_td","Sun Mar 26 2023 17:23:30 GMT-0400 (Eastern Daylight Time)","172927","","null","","","","offerFB","","<div class='trialBorder'><div class='vertical-center'><img style='vertical-align:center; align:center' src=img/fixation3.jpg></div><div class='cl'><div class='vertical-center'><font style='color:orange'>$55<br><br>now</font></div></div><div class='cr'><div class='vertical-center'>$75<br>in<br>6 weeks</div></div><div class='respDivL'><div class='vertical-center'><font style='color:orange'>(E)</font></div></div><div class='respDivR'><div class='vertical-center'>(I)</div></div></div>","null","$55<br><br>now","$75<br>in<br>6 weeks","0","55","75","6",""
"html-keyboard-response","13","91337","0.0-5.0-1.3","63bc9e8cd8106f8d94c636d4","bdp_td","Sun Mar 26 2023 17:23:30 GMT-0400 (Eastern Daylight Time)","172927","","null","","","","FIX","","<div class='trialBorder'><div class='vertical-center'><img style='vertical-align:center; align:center' src=img/fixation3.jpg></div></div>","null","","","","","","",""
"html-keyboard-response","14","93245","0.0-5.0-2.3","63bc9e8cd8106f8d94c636d4","bdp_td","Sun Mar 26 2023 17:23:30 GMT-0400 (Eastern Daylight Time)","172927","","1907","","","","offer","","<div class='trialBorder'><div class='vertical-center'><img style='vertical-align:center; align:center' src=img/fixation3.jpg></div><div class='cl'><div class='vertical-center'>$50<br>in<br>12 weeks</div></div><div class='cr'><div class='vertical-center'>$47<br><br>now</div></div><div class='respDivL'><div class='vertical-center'>(E)</div></div><div class='respDivR'><div class='vertical-center'>(I)</div></div></div>","I","$47<br><br>now","$50<br>in<br>12 weeks","1","47","50","12","NOW"
"html-keyboard-response","15","93497","0.0-5.0-3.3","63bc9e8cd8106f8d94c636d4","bdp_td","Sun Mar 26 2023 17:23:30 GMT-0400 (Eastern Daylight Time)","172927","","null","","","","offerFB","","<div class='trialBorder'><div class='vertical-center'><img style='vertical-align:center; align:center' src=img/fixation3.jpg></div><div class='cl'><div class='vertical-center'>$50<br>in<br>12 weeks</div></div><div class='cr'><div class='vertical-center'><font style='color:orange'>$47<br><br>now</font></div></div><div class='respDivL'><div class='vertical-center'>(E)</div></div><div class='respDivR'><div class='vertical-center'><font style='color:orange'>(I)</font></div></div></div>","null","$47<br><br>now","$50<br>in<br>12 weeks","1","47","50","12",""
"html-keyboard-response","16","93999","0.0-5.0-1.4","63bc9e8cd8106f8d94c636d4","bdp_td","Sun Mar 26 2023 17:23:30 GMT-0400 (Eastern Daylight Time)","172927","","null","","","","FIX","","<div class='trialBorder'><div class='vertical-center'><img style='vertical-align:center; align:center' src=img/fixation3.jpg></div></div>","null","","","","","","",""
"html-keyboard-response","17","96421","0.0-5.0-2.4","63bc9e8cd8106f8d94c636d4","bdp_td","Sun Mar 26 2023 17:23:30 GMT-0400 (Eastern Daylight Time)","172927","","2422","","","","offer","","<div class='trialBorder'><div class='vertical-center'><img style='vertical-align:center; align:center' src=img/fixation3.jpg></div><div class='cl'><div class='vertical-center'>$50<br>in<br>6 weeks</div></div><div class='cr'><div class='vertical-center'>$34<br><br>now</div></div><div class='respDivL'><div class='vertical-center'>(E)</div></div><div class='respDivR'><div class='vertical-center'>(I)</div></div></div>","I","$34<br><br>now","$50<br>in<br>6 weeks","1","34","50","6","NOW"
"html-keyboard-response","18","96673","0.0-5.0-3.4","63bc9e8cd8106f8d94c636d4","bdp_td","Sun Mar 26 2023 17:23:30 GMT-0400 (Eastern Daylight Time)","172927","","null","","","","offerFB","","<div class='trialBorder'><div class='vertical-center'><img style='vertical-align:center; align:center' src=img/fixation3.jpg></div><div class='cl'><div class='vertical-center'>$50<br>in<br>6 weeks</div></div><div class='cr'><div class='vertical-center'><font style='color:orange'>$34<br><br>now</font></div></div><div class='respDivL'><div class='vertical-center'>(E)</div></div><div class='respDivR'><div class='vertical-center'><font style='color:orange'>(I)</font></div></div></div>","null","$34<br><br>now","$50<br>in<br>6 weeks","1","34","50","6",""
"html-keyboard-response","19","97174","0.0-5.0-1.5","63bc9e8cd8106f8d94c636d4","bdp_td","Sun Mar 26 2023 17:23:30 GMT-0400 (Eastern Daylight Time)","172927","","null","","","","FIX","","<div class='trialBorder'><div class='vertical-center'><img style='vertical-align:center; align:center' src=img/fixation3.jpg></div></div>","null","","","","","","",""
"html-keyboard-response","20","99546","0.0-5.0-2.5","63bc9e8cd8106f8d94c636d4","bdp_td","Sun Mar 26 2023 17:23:30 GMT-0400 (Eastern Daylight Time)","172927","","2370","","","","offer","","<div class='trialBorder'><div class='vertical-center'><img style='vertical-align:center; align:center' src=img/fixation3.jpg></div><div class='cl'><div class='vertical-center'>$28<br><br>now</div></div><div class='cr'><div class='vertical-center'>$30<br>in<br>12 weeks</div></div><div class='respDivL'><div class='vertical-center'>(E)</div></div><div class='respDivR'><div class='vertical-center'>(I)</div></div></div>","E","$28<br><br>now","$30<br>in<br>12 weeks","0","28","30","12","NOW"
"html-keyboard-response","21","99797","0.0-5.0-3.5","63bc9e8cd8106f8d94c636d4","bdp_td","Sun Mar 26 2023 17:23:30 GMT-0400 (Eastern Daylight Time)","172927","","null","","","","offerFB","","<div class='trialBorder'><div class='vertical-center'><img style='vertical-align:center; align:center' src=img/fixation3.jpg></div><div class='cl'><div class='vertical-center'><font style='color:orange'>$28<br><br>now</font></div></div><div class='cr'><div class='vertical-center'>$30<br>in<br>12 weeks</div></div><div class='respDivL'><div class='vertical-center'><font style='color:orange'>(E)</font></div></div><div class='respDivR'><div class='vertical-center'>(I)</div></div></div>","null","$28<br><br>now","$30<br>in<br>12 weeks","0","28","30","12",""
"html-keyboard-response","22","100298","0.0-5.0-1.6","63bc9e8cd8106f8d94c636d4","bdp_td","Sun Mar 26 2023 17:23:30 GMT-0400 (Eastern Daylight Time)","172927","","null","","","","FIX","","<div class='trialBorder'><div class='vertical-center'><img style='vertical-align:center; align:center' src=img/fixation3.jpg></div></div>","null","","","","","","",""
"html-keyboard-response","23","107635","0.0-5.0-2.6","63bc9e8cd8106f8d94c636d4","bdp_td","Sun Mar 26 2023 17:23:30 GMT-0400 (Eastern Daylight Time)","172927","","7337","","","","offer","","<div class='trialBorder'><div class='vertical-center'><img style='vertical-align:center; align:center' src=img/fixation3.jpg></div><div class='cl'><div class='vertical-center'>$25<br><br>now</div></div><div class='cr'><div class='vertical-center'>$60<br>in<br>3 weeks</div></div><div class='respDivL'><div class='vertical-center'>(E)</div></div><div class='respDivR'><div class='vertical-center'>(I)</div></div></div>","E","$25<br><br>now","$60<br>in<br>3 weeks","0","25","60","3","NOW"
"html-keyboard-response","24","107887","0.0-5.0-3.6","63bc9e8cd8106f8d94c636d4","bdp_td","Sun Mar 26 2023 17:23:30 GMT-0400 (Eastern Daylight Time)","172927","","null","","","","offerFB","","<div class='trialBorder'><div class='vertical-center'><img style='vertical-align:center; align:center' src=img/fixation3.jpg></div><div class='cl'><div class='vertical-center'><font style='color:orange'>$25<br><br>now</font></div></div><div class='cr'><div class='vertical-center'>$60<br>in<br>3 weeks</div></div><div class='respDivL'><div class='vertical-center'><font style='color:orange'>(E)</font></div></div><div class='respDivR'><div class='vertical-center'>(I)</div></div></div>","null","$25<br><br>now","$60<br>in<br>3 weeks","0","25","60","3",""
"html-keyboard-response","25","108388","0.0-5.0-1.7","63bc9e8cd8106f8d94c636d4","bdp_td","Sun Mar 26 2023 17:23:30 GMT-0400 (Eastern Daylight Time)","172927","","null","","","","FIX","","<div class='trialBorder'><div class='vertical-center'><img style='vertical-align:center; align:center' src=img/fixation3.jpg></div></div>","null","","","","","","",""
"html-keyboard-response","26","111299","0.0-5.0-2.7","63bc9e8cd8106f8d94c636d4","bdp_td","Sun Mar 26 2023 17:23:30 GMT-0400 (Eastern Daylight Time)","172927","","2911","","","","offer","","<div class='trialBorder'><div class='vertical-center'><img style='vertical-align:center; align:center' src=img/fixation3.jpg></div><div class='cl'><div class='vertical-center'>$19<br><br>now</div></div><div class='cr'><div class='vertical-center'>$25<br>in<br>6 weeks</div></div><div class='respDivL'><div class='vertical-center'>(E)</div></div><div class='respDivR'><div class='vertical-center'>(I)</div></div></div>","E","$19<br><br>now","$25<br>in<br>6 weeks","0","19","25","6","NOW"
"html-keyboard-response","27","111551","0.0-5.0-3.7","63bc9e8cd8106f8d94c636d4","bdp_td","Sun Mar 26 2023 17:23:30 GMT-0400 (Eastern Daylight Time)","172927","","null","","","","offerFB","","<div class='trialBorder'><div class='vertical-center'><img style='vertical-align:center; align:center' src=img/fixation3.jpg></div><div class='cl'><div class='vertical-center'><font style='color:orange'>$19<br><br>now</font></div></div><div class='cr'><div class='vertical-center'>$25<br>in<br>6 weeks</div></div><div class='respDivL'><div class='vertical-center'><font style='color:orange'>(E)</font></div></div><div class='respDivR'><div class='vertical-center'>(I)</div></div></div>","null","$19<br><br>now","$25<br>in<br>6 weeks","0","19","25","6",""
"html-keyboard-response","28","112052","0.0-5.0-1.8","63bc9e8cd8106f8d94c636d4","bdp_td","Sun Mar 26 2023 17:23:30 GMT-0400 (Eastern Daylight Time)","172927","","null","","","","FIX","","<div class='trialBorder'><div class='vertical-center'><img style='vertical-align:center; align:center' src=img/fixation3.jpg></div></div>","null","","","","","","",""
"html-keyboard-response","29","113556","0.0-5.0-2.8","63bc9e8cd8106f8d94c636d4","bdp_td","Sun Mar 26 2023 17:23:30 GMT-0400 (Eastern Daylight Time)","172927","","1503","","","","offer","","<div class='trialBorder'><div class='vertical-center'><img style='vertical-align:center; align:center' src=img/fixation3.jpg></div><div class='cl'><div class='vertical-center'>$22<br><br>now</div></div><div class='cr'><div class='vertical-center'>$25<br>in<br>12 weeks</div></div><div class='respDivL'><div class='vertical-center'>(E)</div></div><div class='respDivR'><div class='vertical-center'>(I)</div></div></div>","E","$22<br><br>now","$25<br>in<br>12 weeks","0","22","25","12","NOW"
"html-keyboard-response","30","113807","0.0-5.0-3.8","63bc9e8cd8106f8d94c636d4","bdp_td","Sun Mar 26 2023 17:23:30 GMT-0400 (Eastern Daylight Time)","172927","","null","","","","offerFB","","<div class='trialBorder'><div class='vertical-center'><img style='vertical-align:center; align:center' src=img/fixation3.jpg></div><div class='cl'><div class='vertical-center'><font style='color:orange'>$22<br><br>now</font></div></div><div class='cr'><div class='vertical-center'>$25<br>in<br>12 weeks</div></div><div class='respDivL'><div class='vertical-center'><font style='color:orange'>(E)</font></div></div><div class='respDivR'><div class='vertical-center'>(I)</div></div></div>","null","$22<br><br>now","$25<br>in<br>12 weeks","0","22","25","12",""
"html-keyboard-response","31","114307","0.0-5.0-1.9","63bc9e8cd8106f8d94c636d4","bdp_td","Sun Mar 26 2023 17:23:30 GMT-0400 (Eastern Daylight Time)","172927","","null","","","","FIX","","<div class='trialBorder'><div class='vertical-center'><img style='vertical-align:center; align:center' src=img/fixation3.jpg></div></div>","null","","","","","","",""
"html-keyboard-response","32","116020","0.0-5.0-2.9","63bc9e8cd8106f8d94c636d4","bdp_td","Sun Mar 26 2023 17:23:30 GMT-0400 (Eastern Daylight Time)","172927","","1712","","","","offer","","<div class='trialBorder'><div class='vertical-center'><img style='vertical-align:center; align:center' src=img/fixation3.jpg></div><div class='cl'><div class='vertical-center'>$35<br>in<br>3 weeks</div></div><div class='cr'><div class='vertical-center'>$24<br><br>now</div></div><div class='respDivL'><div class='vertical-center'>(E)</div></div><div class='respDivR'><div class='vertical-center'>(I)</div></div></div>","I","$24<br><br>now","$35<br>in<br>3 weeks","1","24","35","3","NOW"
"html-keyboard-response","33","116271","0.0-5.0-3.9","63bc9e8cd8106f8d94c636d4","bdp_td","Sun Mar 26 2023 17:23:30 GMT-0400 (Eastern Daylight Time)","172927","","null","","","","offerFB","","<div class='trialBorder'><div class='vertical-center'><img style='vertical-align:center; align:center' src=img/fixation3.jpg></div><div class='cl'><div class='vertical-center'>$35<br>in<br>3 weeks</div></div><div class='cr'><div class='vertical-center'><font style='color:orange'>$24<br><br>now</font></div></div><div class='respDivL'><div class='vertical-center'>(E)</div></div><div class='respDivR'><div class='vertical-center'><font style='color:orange'>(I)</font></div></div></div>","null","$24<br><br>now","$35<br>in<br>3 weeks","1","24","35","3",""
"html-keyboard-response","34","116773","0.0-5.0-1.10","63bc9e8cd8106f8d94c636d4","bdp_td","Sun Mar 26 2023 17:23:30 GMT-0400 (Eastern Daylight Time)","172927","","null","","","","FIX","","<div class='trialBorder'><div class='vertical-center'><img style='vertical-align:center; align:center' src=img/fixation3.jpg></div></div>","null","","","","","","",""
"html-keyboard-response","35","118336","0.0-5.0-2.10","63bc9e8cd8106f8d94c636d4","bdp_td","Sun Mar 26 2023 17:23:30 GMT-0400 (Eastern Daylight Time)","172927","","1563","","","","offer","","<div class='trialBorder'><div class='vertical-center'><img style='vertical-align:center; align:center' src=img/fixation3.jpg></div><div class='cl'><div class='vertical-center'>$14<br><br>now</div></div><div class='cr'><div class='vertical-center'>$25<br>in<br>3 weeks</div></div><div class='respDivL'><div class='vertical-center'>(E)</div></div><div class='respDivR'><div class='vertical-center'>(I)</div></div></div>","E","$14<br><br>now","$25<br>in<br>3 weeks","0","14","25","3","NOW"
"html-keyboard-response","36","118587","0.0-5.0-3.10","63bc9e8cd8106f8d94c636d4","bdp_td","Sun Mar 26 2023 17:23:30 GMT-0400 (Eastern Daylight Time)","172927","","null","","","","offerFB","","<div class='trialBorder'><div class='vertical-center'><img style='vertical-align:center; align:center' src=img/fixation3.jpg></div><div class='cl'><div class='vertical-center'><font style='color:orange'>$14<br><br>now</font></div></div><div class='cr'><div class='vertical-center'>$25<br>in<br>3 weeks</div></div><div class='respDivL'><div class='vertical-center'><font style='color:orange'>(E)</font></div></div><div class='respDivR'><div class='vertical-center'>(I)</div></div></div>","null","$14<br><br>now","$25<br>in<br>3 weeks","0","14","25","3",""
"html-keyboard-response","37","119089","0.0-5.0-1.11","63bc9e8cd8106f8d94c636d4","bdp_td","Sun Mar 26 2023 17:23:30 GMT-0400 (Eastern Daylight Time)","172927","","null","","","","FIX","","<div class='trialBorder'><div class='vertical-center'><img style='vertical-align:center; align:center' src=img/fixation3.jpg></div></div>","null","","","","","","",""
"html-keyboard-response","38","121321","0.0-5.0-2.11","63bc9e8cd8106f8d94c636d4","bdp_td","Sun Mar 26 2023 17:23:30 GMT-0400 (Eastern Daylight Time)","172927","","2231","","","","offer","","<div class='trialBorder'><div class='vertical-center'><img style='vertical-align:center; align:center' src=img/fixation3.jpg></div><div class='cl'><div class='vertical-center'>$85<br>in<br>1 week</div></div><div class='cr'><div class='vertical-center'>$31<br><br>now</div></div><div class='respDivL'><div class='vertical-center'>(E)</div></div><div class='respDivR'><div class='vertical-center'>(I)</div></div></div>","E","$31<br><br>now","$85<br>in<br>1 week","1","31","85","1","THEN"
"html-keyboard-response","39","121573","0.0-5.0-3.11","63bc9e8cd8106f8d94c636d4","bdp_td","Sun Mar 26 2023 17:23:30 GMT-0400 (Eastern Daylight Time)","172927","","null","","","","offerFB","","<div class='trialBorder'><div class='vertical-center'><img style='vertical-align:center; align:center' src=img/fixation3.jpg></div><div class='cl'><div class='vertical-center'><font style='color:orange'>$85<br>in<br>1 week</font></div></div><div class='cr'><div class='vertical-center'>$31<br><br>now</div></div><div class='respDivL'><div class='vertical-center'><font style='color:orange'>(E)</font></div></div><div class='respDivR'><div class='vertical-center'>(I)</div></div></div>","null","$31<br><br>now","$85<br>in<br>1 week","1","31","85","1",""
"html-keyboard-response","40","122073","0.0-5.0-1.12","63bc9e8cd8106f8d94c636d4","bdp_td","Sun Mar 26 2023 17:23:30 GMT-0400 (Eastern Daylight Time)","172927","","null","","","","FIX","","<div class='trialBorder'><div class='vertical-center'><img style='vertical-align:center; align:center' src=img/fixation3.jpg></div></div>","null","","","","","","",""
"html-keyboard-response","41","123263","0.0-5.0-2.12","63bc9e8cd8106f8d94c636d4","bdp_td","Sun Mar 26 2023 17:23:30 GMT-0400 (Eastern Daylight Time)","172927","","1189","","","","offer","","<div class='trialBorder'><div class='vertical-center'><img style='vertical-align:center; align:center' src=img/fixation3.jpg></div><div class='cl'><div class='vertical-center'>$85<br>in<br>6 weeks</div></div><div class='cr'><div class='vertical-center'>$69<br><br>now</div></div><div class='respDivL'><div class='vertical-center'>(E)</div></div><div class='respDivR'><div class='vertical-center'>(I)</div></div></div>","I","$69<br><br>now","$85<br>in<br>6 weeks","1","69","85","6","NOW"
"html-keyboard-response","42","123515","0.0-5.0-3.12","63bc9e8cd8106f8d94c636d4","bdp_td","Sun Mar 26 2023 17:23:30 GMT-0400 (Eastern Daylight Time)","172927","","null","","","","offerFB","","<div class='trialBorder'><div class='vertical-center'><img style='vertical-align:center; align:center' src=img/fixation3.jpg></div><div class='cl'><div class='vertical-center'>$85<br>in<br>6 weeks</div></div><div class='cr'><div class='vertical-center'><font style='color:orange'>$69<br><br>now</font></div></div><div class='respDivL'><div class='vertical-center'>(E)</div></div><div class='respDivR'><div class='vertical-center'><font style='color:orange'>(I)</font></div></div></div>","null","$69<br><br>now","$85<br>in<br>6 weeks","1","69","85","6",""
"html-keyboard-response","43","124017","0.0-5.0-1.13","63bc9e8cd8106f8d94c636d4","bdp_td","Sun Mar 26 2023 17:23:30 GMT-0400 (Eastern Daylight Time)","172927","","null","","","","FIX","","<div class='trialBorder'><div class='vertical-center'><img style='vertical-align:center; align:center' src=img/fixation3.jpg></div></div>","null","","","","","","",""
"html-keyboard-response","44","126588","0.0-5.0-2.13","63bc9e8cd8106f8d94c636d4","bdp_td","Sun Mar 26 2023 17:23:30 GMT-0400 (Eastern Daylight Time)","172927","","2571","","","","offer","","<div class='trialBorder'><div class='vertical-center'><img style='vertical-align:center; align:center' src=img/fixation3.jpg></div><div class='cl'><div class='vertical-center'>$34<br><br>now</div></div><div class='cr'><div class='vertical-center'>$35<br>in<br>12 weeks</div></div><div class='respDivL'><div class='vertical-center'>(E)</div></div><div class='respDivR'><div class='vertical-center'>(I)</div></div></div>","E","$34<br><br>now","$35<br>in<br>12 weeks","0","34","35","12","NOW"
"html-keyboard-response","45","126839","0.0-5.0-3.13","63bc9e8cd8106f8d94c636d4","bdp_td","Sun Mar 26 2023 17:23:30 GMT-0400 (Eastern Daylight Time)","172927","","null","","","","offerFB","","<div class='trialBorder'><div class='vertical-center'><img style='vertical-align:center; align:center' src=img/fixation3.jpg></div><div class='cl'><div class='vertical-center'><font style='color:orange'>$34<br><br>now</font></div></div><div class='cr'><div class='vertical-center'>$35<br>in<br>12 weeks</div></div><div class='respDivL'><div class='vertical-center'><font style='color:orange'>(E)</font></div></div><div class='respDivR'><div class='vertical-center'>(I)</div></div></div>","null","$34<br><br>now","$35<br>in<br>12 weeks","0","34","35","12",""
"html-keyboard-response","46","127340","0.0-5.0-1.14","63bc9e8cd8106f8d94c636d4","bdp_td","Sun Mar 26 2023 17:23:30 GMT-0400 (Eastern Daylight Time)","172927","","null","","","","FIX","","<div class='trialBorder'><div class='vertical-center'><img style='vertical-align:center; align:center' src=img/fixation3.jpg></div></div>","null","","","","","","",""
"html-keyboard-response","47","130173","0.0-5.0-2.14","63bc9e8cd8106f8d94c636d4","bdp_td","Sun Mar 26 2023 17:23:30 GMT-0400 (Eastern Daylight Time)","172927","","2832","","","","offer","","<div class='trialBorder'><div class='vertical-center'><img style='vertical-align:center; align:center' src=img/fixation3.jpg></div><div class='cl'><div class='vertical-center'>$80<br><br>now</div></div><div class='cr'><div class='vertical-center'>$85<br>in<br>12 weeks</div></div><div class='respDivL'><div class='vertical-center'>(E)</div></div><div class='respDivR'><div class='vertical-center'>(I)</div></div></div>","E","$80<br><br>now","$85<br>in<br>12 weeks","0","80","85","12","NOW"
"html-keyboard-response","48","130424","0.0-5.0-3.14","63bc9e8cd8106f8d94c636d4","bdp_td","Sun Mar 26 2023 17:23:30 GMT-0400 (Eastern Daylight Time)","172927","","null","","","","offerFB","","<div class='trialBorder'><div class='vertical-center'><img style='vertical-align:center; align:center' src=img/fixation3.jpg></div><div class='cl'><div class='vertical-center'><font style='color:orange'>$80<br><br>now</font></div></div><div class='cr'><div class='vertical-center'>$85<br>in<br>12 weeks</div></div><div class='respDivL'><div class='vertical-center'><font style='color:orange'>(E)</font></div></div><div class='respDivR'><div class='vertical-center'>(I)</div></div></div>","null","$80<br><br>now","$85<br>in<br>12 weeks","0","80","85","12",""
"html-keyboard-response","49","130926","0.0-5.0-1.15","63bc9e8cd8106f8d94c636d4","bdp_td","Sun Mar 26 2023 17:23:30 GMT-0400 (Eastern Daylight Time)","172927","","null","","","","FIX","","<div class='trialBorder'><div class='vertical-center'><img style='vertical-align:center; align:center' src=img/fixation3.jpg></div></div>","null","","","","","","",""
"html-keyboard-response","50","134078","0.0-5.0-2.15","63bc9e8cd8106f8d94c636d4","bdp_td","Sun Mar 26 2023 17:23:30 GMT-0400 (Eastern Daylight Time)","172927","","3152","","","","offer","","<div class='trialBorder'><div class='vertical-center'><img style='vertical-align:center; align:center' src=img/fixation3.jpg></div><div class='cl'><div class='vertical-center'>$35<br>in<br>2 weeks</div></div><div class='cr'><div class='vertical-center'>$15<br><br>now</div></div><div class='respDivL'><div class='vertical-center'>(E)</div></div><div class='respDivR'><div class='vertical-center'>(I)</div></div></div>","I","$15<br><br>now","$35<br>in<br>2 weeks","1","15","35","2","NOW"
"html-keyboard-response","51","134330","0.0-5.0-3.15","63bc9e8cd8106f8d94c636d4","bdp_td","Sun Mar 26 2023 17:23:30 GMT-0400 (Eastern Daylight Time)","172927","","null","","","","offerFB","","<div class='trialBorder'><div class='vertical-center'><img style='vertical-align:center; align:center' src=img/fixation3.jpg></div><div class='cl'><div class='vertical-center'>$35<br>in<br>2 weeks</div></div><div class='cr'><div class='vertical-center'><font style='color:orange'>$15<br><br>now</font></div></div><div class='respDivL'><div class='vertical-center'>(E)</div></div><div class='respDivR'><div class='vertical-center'><font style='color:orange'>(I)</font></div></div></div>","null","$15<br><br>now","$35<br>in<br>2 weeks","1","15","35","2",""
"html-keyboard-response","52","134832","0.0-5.0-1.16","63bc9e8cd8106f8d94c636d4","bdp_td","Sun Mar 26 2023 17:23:30 GMT-0400 (Eastern Daylight Time)","172927","","null","","","","FIX","","<div class='trialBorder'><div class='vertical-center'><img style='vertical-align:center; align:center' src=img/fixation3.jpg></div></div>","null","","","","","","",""
"html-keyboard-response","53","136578","0.0-5.0-2.16","63bc9e8cd8106f8d94c636d4","bdp_td","Sun Mar 26 2023 17:23:30 GMT-0400 (Eastern Daylight Time)","172927","","1746","","","","offer","","<div class='trialBorder'><div class='vertical-center'><img style='vertical-align:center; align:center' src=img/fixation3.jpg></div><div class='cl'><div class='vertical-center'>$60<br>in<br>6 weeks</div></div><div class='cr'><div class='vertical-center'>$49<br><br>now</div></div><div class='respDivL'><div class='vertical-center'>(E)</div></div><div class='respDivR'><div class='vertical-center'>(I)</div></div></div>","I","$49<br><br>now","$60<br>in<br>6 weeks","1","49","60","6","NOW"
"html-keyboard-response","54","136830","0.0-5.0-3.16","63bc9e8cd8106f8d94c636d4","bdp_td","Sun Mar 26 2023 17:23:30 GMT-0400 (Eastern Daylight Time)","172927","","null","","","","offerFB","","<div class='trialBorder'><div class='vertical-center'><img style='vertical-align:center; align:center' src=img/fixation3.jpg></div><div class='cl'><div class='vertical-center'>$60<br>in<br>6 weeks</div></div><div class='cr'><div class='vertical-center'><font style='color:orange'>$49<br><br>now</font></div></div><div class='respDivL'><div class='vertical-center'>(E)</div></div><div class='respDivR'><div class='vertical-center'><font style='color:orange'>(I)</font></div></div></div>","null","$49<br><br>now","$60<br>in<br>6 weeks","1","49","60","6",""
"html-keyboard-response","55","137331","0.0-5.0-1.17","63bc9e8cd8106f8d94c636d4","bdp_td","Sun Mar 26 2023 17:23:30 GMT-0400 (Eastern Daylight Time)","172927","","null","","","","FIX","","<div class='trialBorder'><div class='vertical-center'><img style='vertical-align:center; align:center' src=img/fixation3.jpg></div></div>","null","","","","","","",""
"html-keyboard-response","56","138545","0.0-5.0-2.17","63bc9e8cd8106f8d94c636d4","bdp_td","Sun Mar 26 2023 17:23:30 GMT-0400 (Eastern Daylight Time)","172927","","1214","","","","offer","","<div class='trialBorder'><div class='vertical-center'><img style='vertical-align:center; align:center' src=img/fixation3.jpg></div><div class='cl'><div class='vertical-center'>$75<br>in<br>3 weeks</div></div><div class='cr'><div class='vertical-center'>$41<br><br>now</div></div><div class='respDivL'><div class='vertical-center'>(E)</div></div><div class='respDivR'><div class='vertical-center'>(I)</div></div></div>","I","$41<br><br>now","$75<br>in<br>3 weeks","1","41","75","3","NOW"
"html-keyboard-response","57","138796","0.0-5.0-3.17","63bc9e8cd8106f8d94c636d4","bdp_td","Sun Mar 26 2023 17:23:30 GMT-0400 (Eastern Daylight Time)","172927","","null","","","","offerFB","","<div class='trialBorder'><div class='vertical-center'><img style='vertical-align:center; align:center' src=img/fixation3.jpg></div><div class='cl'><div class='vertical-center'>$75<br>in<br>3 weeks</div></div><div class='cr'><div class='vertical-center'><font style='color:orange'>$41<br><br>now</font></div></div><div class='respDivL'><div class='vertical-center'>(E)</div></div><div class='respDivR'><div class='vertical-center'><font style='color:orange'>(I)</font></div></div></div>","null","$41<br><br>now","$75<br>in<br>3 weeks","1","41","75","3",""
"html-keyboard-response","58","139297","0.0-5.0-1.18","63bc9e8cd8106f8d94c636d4","bdp_td","Sun Mar 26 2023 17:23:30 GMT-0400 (Eastern Daylight Time)","172927","","null","","","","FIX","","<div class='trialBorder'><div class='vertical-center'><img style='vertical-align:center; align:center' src=img/fixation3.jpg></div></div>","null","","","","","","",""
"html-keyboard-response","59","140736","0.0-5.0-2.18","63bc9e8cd8106f8d94c636d4","bdp_td","Sun Mar 26 2023 17:23:30 GMT-0400 (Eastern Daylight Time)","172927","","1438","","","","offer","","<div class='trialBorder'><div class='vertical-center'><img style='vertical-align:center; align:center' src=img/fixation3.jpg></div><div class='cl'><div class='vertical-center'>$54<br><br>now</div></div><div class='cr'><div class='vertical-center'>$60<br>in<br>12 weeks</div></div><div class='respDivL'><div class='vertical-center'>(E)</div></div><div class='respDivR'><div class='vertical-center'>(I)</div></div></div>","E","$54<br><br>now","$60<br>in<br>12 weeks","0","54","60","12","NOW"
"html-keyboard-response","60","140987","0.0-5.0-3.18","63bc9e8cd8106f8d94c636d4","bdp_td","Sun Mar 26 2023 17:23:30 GMT-0400 (Eastern Daylight Time)","172927","","null","","","","offerFB","","<div class='trialBorder'><div class='vertical-center'><img style='vertical-align:center; align:center' src=img/fixation3.jpg></div><div class='cl'><div class='vertical-center'><font style='color:orange'>$54<br><br>now</font></div></div><div class='cr'><div class='vertical-center'>$60<br>in<br>12 weeks</div></div><div class='respDivL'><div class='vertical-center'><font style='color:orange'>(E)</font></div></div><div class='respDivR'><div class='vertical-center'>(I)</div></div></div>","null","$54<br><br>now","$60<br>in<br>12 weeks","0","54","60","12",""
"html-keyboard-response","61","141488","0.0-5.0-1.19","63bc9e8cd8106f8d94c636d4","bdp_td","Sun Mar 26 2023 17:23:30 GMT-0400 (Eastern Daylight Time)","172927","","null","","","","FIX","","<div class='trialBorder'><div class='vertical-center'><img style='vertical-align:center; align:center' src=img/fixation3.jpg></div></div>","null","","","","","","",""
"html-keyboard-response","62","144320","0.0-5.0-2.19","63bc9e8cd8106f8d94c636d4","bdp_td","Sun Mar 26 2023 17:23:30 GMT-0400 (Eastern Daylight Time)","172927","","2832","","","","offer","","<div class='trialBorder'><div class='vertical-center'><img style='vertical-align:center; align:center' src=img/fixation3.jpg></div><div class='cl'><div class='vertical-center'>$20<br><br>now</div></div><div class='cr'><div class='vertical-center'>$55<br>in<br>1 week</div></div><div class='respDivL'><div class='vertical-center'>(E)</div></div><div class='respDivR'><div class='vertical-center'>(I)</div></div></div>","I","$20<br><br>now","$55<br>in<br>1 week","0","20","55","1","THEN"
"html-keyboard-response","63","144572","0.0-5.0-3.19","63bc9e8cd8106f8d94c636d4","bdp_td","Sun Mar 26 2023 17:23:30 GMT-0400 (Eastern Daylight Time)","172927","","null","","","","offerFB","","<div class='trialBorder'><div class='vertical-center'><img style='vertical-align:center; align:center' src=img/fixation3.jpg></div><div class='cl'><div class='vertical-center'>$20<br><br>now</div></div><div class='cr'><div class='vertical-center'><font style='color:orange'>$55<br>in<br>1 week</font></div></div><div class='respDivL'><div class='vertical-center'>(E)</div></div><div class='respDivR'><div class='vertical-center'><font style='color:orange'>(I)</font></div></div></div>","null","$20<br><br>now","$55<br>in<br>1 week","0","20","55","1",""
"html-keyboard-response","64","145073","0.0-5.0-1.20","63bc9e8cd8106f8d94c636d4","bdp_td","Sun Mar 26 2023 17:23:30 GMT-0400 (Eastern Daylight Time)","172927","","null","","","","FIX","","<div class='trialBorder'><div class='vertical-center'><img style='vertical-align:center; align:center' src=img/fixation3.jpg></div></div>","null","","","","","","",""
"html-keyboard-response","65","148081","0.0-5.0-2.20","63bc9e8cd8106f8d94c636d4","bdp_td","Sun Mar 26 2023 17:23:30 GMT-0400 (Eastern Daylight Time)","172927","","3008","","","","offer","","<div class='trialBorder'><div class='vertical-center'><img style='vertical-align:center; align:center' src=img/fixation3.jpg></div><div class='cl'><div class='vertical-center'>$50<br>in<br>3 weeks</div></div><div class='cr'><div class='vertical-center'>$27<br><br>now</div></div><div class='respDivL'><div class='vertical-center'>(E)</div></div><div class='respDivR'><div class='vertical-center'>(I)</div></div></div>","I","$27<br><br>now","$50<br>in<br>3 weeks","1","27","50","3","NOW"
"html-keyboard-response","66","148332","0.0-5.0-3.20","63bc9e8cd8106f8d94c636d4","bdp_td","Sun Mar 26 2023 17:23:30 GMT-0400 (Eastern Daylight Time)","172927","","null","","","","offerFB","","<div class='trialBorder'><div class='vertical-center'><img style='vertical-align:center; align:center' src=img/fixation3.jpg></div><div class='cl'><div class='vertical-center'>$50<br>in<br>3 weeks</div></div><div class='cr'><div class='vertical-center'><font style='color:orange'>$27<br><br>now</font></div></div><div class='respDivL'><div class='vertical-center'>(E)</div></div><div class='respDivR'><div class='vertical-center'><font style='color:orange'>(I)</font></div></div></div>","null","$27<br><br>now","$50<br>in<br>3 weeks","1","27","50","3",""
"html-keyboard-response","67","148834","0.0-5.0-1.21","63bc9e8cd8106f8d94c636d4","bdp_td","Sun Mar 26 2023 17:23:30 GMT-0400 (Eastern Daylight Time)","172927","","null","","","","FIX","","<div class='trialBorder'><div class='vertical-center'><img style='vertical-align:center; align:center' src=img/fixation3.jpg></div></div>","null","","","","","","",""
"html-keyboard-response","68","150891","0.0-5.0-2.21","63bc9e8cd8106f8d94c636d4","bdp_td","Sun Mar 26 2023 17:23:30 GMT-0400 (Eastern Daylight Time)","172927","","2057","","","","offer","","<div class='trialBorder'><div class='vertical-center'><img style='vertical-align:center; align:center' src=img/fixation3.jpg></div><div class='cl'><div class='vertical-center'>$40<br><br>now</div></div><div class='cr'><div class='vertical-center'>$55<br>in<br>6 weeks</div></div><div class='respDivL'><div class='vertical-center'>(E)</div></div><div class='respDivR'><div class='vertical-center'>(I)</div></div></div>","E","$40<br><br>now","$55<br>in<br>6 weeks","0","40","55","6","NOW"
"html-keyboard-response","69","151142","0.0-5.0-3.21","63bc9e8cd8106f8d94c636d4","bdp_td","Sun Mar 26 2023 17:23:30 GMT-0400 (Eastern Daylight Time)","172927","","null","","","","offerFB","","<div class='trialBorder'><div class='vertical-center'><img style='vertical-align:center; align:center' src=img/fixation3.jpg></div><div class='cl'><div class='vertical-center'><font style='color:orange'>$40<br><br>now</font></div></div><div class='cr'><div class='vertical-center'>$55<br>in<br>6 weeks</div></div><div class='respDivL'><div class='vertical-center'><font style='color:orange'>(E)</font></div></div><div class='respDivR'><div class='vertical-center'>(I)</div></div></div>","null","$40<br><br>now","$55<br>in<br>6 weeks","0","40","55","6",""
"html-keyboard-response","70","151644","0.0-5.0-1.22","63bc9e8cd8106f8d94c636d4","bdp_td","Sun Mar 26 2023 17:23:30 GMT-0400 (Eastern Daylight Time)","172927","","null","","","","FIX","","<div class='trialBorder'><div class='vertical-center'><img style='vertical-align:center; align:center' src=img/fixation3.jpg></div></div>","null","","","","","","",""
"html-keyboard-response","71","155529","0.0-5.0-2.22","63bc9e8cd8106f8d94c636d4","bdp_td","Sun Mar 26 2023 17:23:30 GMT-0400 (Eastern Daylight Time)","172927","","3885","","","","offer","","<div class='trialBorder'><div class='vertical-center'><img style='vertical-align:center; align:center' src=img/fixation3.jpg></div><div class='cl'><div class='vertical-center'>$30<br>in<br>2 weeks</div></div><div class='cr'><div class='vertical-center'>$11<br><br>now</div></div><div class='respDivL'><div class='vertical-center'>(E)</div></div><div class='respDivR'><div class='vertical-center'>(I)</div></div></div>","E","$11<br><br>now","$30<br>in<br>2 weeks","1","11","30","2","THEN"
"html-keyboard-response","72","155780","0.0-5.0-3.22","63bc9e8cd8106f8d94c636d4","bdp_td","Sun Mar 26 2023 17:23:30 GMT-0400 (Eastern Daylight Time)","172927","","null","","","","offerFB","","<div class='trialBorder'><div class='vertical-center'><img style='vertical-align:center; align:center' src=img/fixation3.jpg></div><div class='cl'><div class='vertical-center'><font style='color:orange'>$30<br>in<br>2 weeks</font></div></div><div class='cr'><div class='vertical-center'>$11<br><br>now</div></div><div class='respDivL'><div class='vertical-center'><font style='color:orange'>(E)</font></div></div><div class='respDivR'><div class='vertical-center'>(I)</div></div></div>","null","$11<br><br>now","$30<br>in<br>2 weeks","1","11","30","2",""
"html-keyboard-response","73","156281","0.0-5.0-1.23","63bc9e8cd8106f8d94c636d4","bdp_td","Sun Mar 26 2023 17:23:30 GMT-0400 (Eastern Daylight Time)","172927","","null","","","","FIX","","<div class='trialBorder'><div class='vertical-center'><img style='vertical-align:center; align:center' src=img/fixation3.jpg></div></div>","null","","","","","","",""
"html-keyboard-response","74","157934","0.0-5.0-2.23","63bc9e8cd8106f8d94c636d4","bdp_td","Sun Mar 26 2023 17:23:30 GMT-0400 (Eastern Daylight Time)","172927","","1651","","","","offer","","<div class='trialBorder'><div class='vertical-center'><img style='vertical-align:center; align:center' src=img/fixation3.jpg></div><div class='cl'><div class='vertical-center'>$80<br>in<br>3 weeks</div></div><div class='cr'><div class='vertical-center'>$54<br><br>now</div></div><div class='respDivL'><div class='vertical-center'>(E)</div></div><div class='respDivR'><div class='vertical-center'>(I)</div></div></div>","I","$54<br><br>now","$80<br>in<br>3 weeks","1","54","80","3","NOW"
"html-keyboard-response","75","158192","0.0-5.0-3.23","63bc9e8cd8106f8d94c636d4","bdp_td","Sun Mar 26 2023 17:23:30 GMT-0400 (Eastern Daylight Time)","172927","","null","","","","offerFB","","<div class='trialBorder'><div class='vertical-center'><img style='vertical-align:center; align:center' src=img/fixation3.jpg></div><div class='cl'><div class='vertical-center'>$80<br>in<br>3 weeks</div></div><div class='cr'><div class='vertical-center'><font style='color:orange'>$54<br><br>now</font></div></div><div class='respDivL'><div class='vertical-center'>(E)</div></div><div class='respDivR'><div class='vertical-center'><font style='color:orange'>(I)</font></div></div></div>","null","$54<br><br>now","$80<br>in<br>3 weeks","1","54","80","3",""
"html-keyboard-response","76","158694","0.0-5.0-1.24","63bc9e8cd8106f8d94c636d4","bdp_td","Sun Mar 26 2023 17:23:30 GMT-0400 (Eastern Daylight Time)","172927","","null","","","","FIX","","<div class='trialBorder'><div class='vertical-center'><img style='vertical-align:center; align:center' src=img/fixation3.jpg></div></div>","null","","","","","","",""
"html-keyboard-response","77","167208","0.0-5.0-2.24","63bc9e8cd8106f8d94c636d4","bdp_td","Sun Mar 26 2023 17:23:30 GMT-0400 (Eastern Daylight Time)","172927","","8514","","","","offer","","<div class='trialBorder'><div class='vertical-center'><img style='vertical-align:center; align:center' src=img/fixation3.jpg></div><div class='cl'><div class='vertical-center'>$33<br><br>now</div></div><div class='cr'><div class='vertical-center'>$80<br>in<br>2 weeks</div></div><div class='respDivL'><div class='vertical-center'>(E)</div></div><div class='respDivR'><div class='vertical-center'>(I)</div></div></div>","E","$33<br><br>now","$80<br>in<br>2 weeks","0","33","80","2","NOW"
"html-keyboard-response","78","167459","0.0-5.0-3.24","63bc9e8cd8106f8d94c636d4","bdp_td","Sun Mar 26 2023 17:23:30 GMT-0400 (Eastern Daylight Time)","172927","","null","","","","offerFB","","<div class='trialBorder'><div class='vertical-center'><img style='vertical-align:center; align:center' src=img/fixation3.jpg></div><div class='cl'><div class='vertical-center'><font style='color:orange'>$33<br><br>now</font></div></div><div class='cr'><div class='vertical-center'>$80<br>in<br>2 weeks</div></div><div class='respDivL'><div class='vertical-center'><font style='color:orange'>(E)</font></div></div><div class='respDivR'><div class='vertical-center'>(I)</div></div></div>","null","$33<br><br>now","$80<br>in<br>2 weeks","0","33","80","2",""
"html-keyboard-response","79","167961","0.0-5.0-1.25","63bc9e8cd8106f8d94c636d4","bdp_td","Sun Mar 26 2023 17:23:30 GMT-0400 (Eastern Daylight Time)","172927","","null","","","","FIX","","<div class='trialBorder'><div class='vertical-center'><img style='vertical-align:center; align:center' src=img/fixation3.jpg></div></div>","null","","","","","","",""
"html-keyboard-response","80","169274","0.0-5.0-2.25","63bc9e8cd8106f8d94c636d4","bdp_td","Sun Mar 26 2023 17:23:30 GMT-0400 (Eastern Daylight Time)","172927","","1312","","","","offer","","<div class='trialBorder'><div class='vertical-center'><img style='vertical-align:center; align:center' src=img/fixation3.jpg></div><div class='cl'><div class='vertical-center'>$30<br>in<br>6 weeks</div></div><div class='cr'><div class='vertical-center'>$25<br><br>now</div></div><div class='respDivL'><div class='vertical-center'>(E)</div></div><div class='respDivR'><div class='vertical-center'>(I)</div></div></div>","I","$25<br><br>now","$30<br>in<br>6 weeks","1","25","30","6","NOW"
"html-keyboard-response","81","169526","0.0-5.0-3.25","63bc9e8cd8106f8d94c636d4","bdp_td","Sun Mar 26 2023 17:23:30 GMT-0400 (Eastern Daylight Time)","172927","","null","","","","offerFB","","<div class='trialBorder'><div class='vertical-center'><img style='vertical-align:center; align:center' src=img/fixation3.jpg></div><div class='cl'><div class='vertical-center'>$30<br>in<br>6 weeks</div></div><div class='cr'><div class='vertical-center'><font style='color:orange'>$25<br><br>now</font></div></div><div class='respDivL'><div class='vertical-center'>(E)</div></div><div class='respDivR'><div class='vertical-center'><font style='color:orange'>(I)</font></div></div></div>","null","$25<br><br>now","$30<br>in<br>6 weeks","1","25","30","6",""
"html-keyboard-response","82","170027","0.0-5.0-1.26","63bc9e8cd8106f8d94c636d4","bdp_td","Sun Mar 26 2023 17:23:30 GMT-0400 (Eastern Daylight Time)","172927","","null","","","","FIX","","<div class='trialBorder'><div class='vertical-center'><img style='vertical-align:center; align:center' src=img/fixation3.jpg></div></div>","null","","","","","","",""
"html-keyboard-response","83","171673","0.0-5.0-2.26","63bc9e8cd8106f8d94c636d4","bdp_td","Sun Mar 26 2023 17:23:30 GMT-0400 (Eastern Daylight Time)","172927","","1645","","","","offer","","<div class='trialBorder'><div class='vertical-center'><img style='vertical-align:center; align:center' src=img/fixation3.jpg></div><div class='cl'><div class='vertical-center'>$54<br><br>now</div></div><div class='cr'><div class='vertical-center'>$55<br>in<br>12 weeks</div></div><div class='respDivL'><div class='vertical-center'>(E)</div></div><div class='respDivR'><div class='vertical-center'>(I)</div></div></div>","E","$54<br><br>now","$55<br>in<br>12 weeks","0","54","55","12","NOW"
"html-keyboard-response","84","171925","0.0-5.0-3.26","63bc9e8cd8106f8d94c636d4","bdp_td","Sun Mar 26 2023 17:23:30 GMT-0400 (Eastern Daylight Time)","172927","","null","","","","offerFB","","<div class='trialBorder'><div class='vertical-center'><img style='vertical-align:center; align:center' src=img/fixation3.jpg></div><div class='cl'><div class='vertical-center'><font style='color:orange'>$54<br><br>now</font></div></div><div class='cr'><div class='vertical-center'>$55<br>in<br>12 weeks</div></div><div class='respDivL'><div class='vertical-center'><font style='color:orange'>(E)</font></div></div><div class='respDivR'><div class='vertical-center'>(I)</div></div></div>","null","$54<br><br>now","$55<br>in<br>12 weeks","0","54","55","12",""
"","","","","63bc9e8cd8106f8d94c636d4","bdp_td","Sun Mar 26 2023 17:23:30 GMT-0400 (Eastern Daylight Time)","172927","","","fullscreenexit","85","172557","fullscreenexit","","","","","","","","","",""
"fullscreen","85","172927","0.0-6.0","63bc9e8cd8106f8d94c636d4","bdp_td","Sun Mar 26 2023 17:23:30 GMT-0400 (Eastern Daylight Time)","172927","","","","","","","true","","","","","","","","",""
"html-keyboard-response","86","173428","0.0-7.0","","","","","","null","","","","","","","null","","","","","","",""
