"trial_type","trial_index","time_elapsed","internal_node_id","subject_id","task","startTime","totalTime","view_history","rt","event","trial","time","trialtype","success","stimulus","key_press","nowOffer","thenOffer","thenLeft","nowAmt","thenAmt","thenWeeks","chosen"
"pavlovia","0","1","0.0-0.0","6400dc45648545e7ca8f35a6","bdp_td","Sun Apr 09 2023 18:25:59 GMT-0400 (Eastern Daylight Time)","110186","","","","","","","","","","","","","","","",""
"instructions","1","1703","0.0-1.0","6400dc45648545e7ca8f35a6","bdp_td","Sun Apr 09 2023 18:25:59 GMT-0400 (Eastern Daylight Time)","110186","[{""page_index"":0,""viewing_time"":1701}]","1701","","","","","","","","","","","","","",""
"","","","","6400dc45648545e7ca8f35a6","bdp_td","Sun Apr 09 2023 18:25:59 GMT-0400 (Eastern Daylight Time)","110186","","","fullscreenenter","2","3027","fullscreenenter","","","","","","","","","",""
"fullscreen","2","4018","0.0-2.0","6400dc45648545e7ca8f35a6","bdp_td","Sun Apr 09 2023 18:25:59 GMT-0400 (Eastern Daylight Time)","110186","","","","","","","true","","","","","","","","",""
"instructions","3","32857","0.0-4.0","6400dc45648545e7ca8f35a6","bdp_td","Sun Apr 09 2023 18:25:59 GMT-0400 (Eastern Daylight Time)","110186","[{""page_index"":0,""viewing_time"":10318},{""page_index"":1,""viewing_time"":12809},{""page_index"":2,""viewing_time"":5712}]","28839","","","","","","","","","","","","","",""
"html-keyboard-response","4","33359","0.0-5.0-1.0","6400dc45648545e7ca8f35a6","bdp_td","Sun Apr 09 2023 18:25:59 GMT-0400 (Eastern Daylight Time)","110186","","null","","","","FIX","","<div class='trialBorder'><div class='vertical-center'><img style='vertical-align:center; align:center' src=img/fixation3.jpg></div></div>","null","","","","","","",""
"html-keyboard-response","5","35995","0.0-5.0-2.0","6400dc45648545e7ca8f35a6","bdp_td","Sun Apr 09 2023 18:25:59 GMT-0400 (Eastern Daylight Time)","110186","","2636","","","","offer","","<div class='trialBorder'><div class='vertical-center'><img style='vertical-align:center; align:center' src=img/fixation3.jpg></div><div class='cl'><div class='vertical-center'>$85<br>in<br>12 weeks</div></div><div class='cr'><div class='vertical-center'>$80<br><br>now</div></div><div class='respDivL'><div class='vertical-center'>(E)</div></div><div class='respDivR'><div class='vertical-center'>(I)</div></div></div>","I","$80<br><br>now","$85<br>in<br>12 weeks","1","80","85","12","NOW"
"html-keyboard-response","6","36247","0.0-5.0-3.0","6400dc45648545e7ca8f35a6","bdp_td","Sun Apr 09 2023 18:25:59 GMT-0400 (Eastern Daylight Time)","110186","","null","","","","offerFB","","<div class='trialBorder'><div class='vertical-center'><img style='vertical-align:center; align:center' src=img/fixation3.jpg></div><div class='cl'><div class='vertical-center'>$85<br>in<br>12 weeks</div></div><div class='cr'><div class='vertical-center'><font style='color:orange'>$80<br><br>now</font></div></div><div class='respDivL'><div class='vertical-center'>(E)</div></div><div class='respDivR'><div class='vertical-center'><font style='color:orange'>(I)</font></div></div></div>","null","$80<br><br>now","$85<br>in<br>12 weeks","1","80","85","12",""
"html-keyboard-response","7","36748","0.0-5.0-1.1","6400dc45648545e7ca8f35a6","bdp_td","Sun Apr 09 2023 18:25:59 GMT-0400 (Eastern Daylight Time)","110186","","null","","","","FIX","","<div class='trialBorder'><div class='vertical-center'><img style='vertical-align:center; align:center' src=img/fixation3.jpg></div></div>","null","","","","","","",""
"html-keyboard-response","8","41357","0.0-5.0-2.1","6400dc45648545e7ca8f35a6","bdp_td","Sun Apr 09 2023 18:25:59 GMT-0400 (Eastern Daylight Time)","110186","","4608","","","","offer","","<div class='trialBorder'><div class='vertical-center'><img style='vertical-align:center; align:center' src=img/fixation3.jpg></div><div class='cl'><div class='vertical-center'>$80<br>in<br>3 weeks</div></div><div class='cr'><div class='vertical-center'>$54<br><br>now</div></div><div class='respDivL'><div class='vertical-center'>(E)</div></div><div class='respDivR'><div class='vertical-center'>(I)</div></div></div>","E","$54<br><br>now","$80<br>in<br>3 weeks","1","54","80","3","THEN"
"html-keyboard-response","9","41609","0.0-5.0-3.1","6400dc45648545e7ca8f35a6","bdp_td","Sun Apr 09 2023 18:25:59 GMT-0400 (Eastern Daylight Time)","110186","","null","","","","offerFB","","<div class='trialBorder'><div class='vertical-center'><img style='vertical-align:center; align:center' src=img/fixation3.jpg></div><div class='cl'><div class='vertical-center'><font style='color:orange'>$80<br>in<br>3 weeks</font></div></div><div class='cr'><div class='vertical-center'>$54<br><br>now</div></div><div class='respDivL'><div class='vertical-center'><font style='color:orange'>(E)</font></div></div><div class='respDivR'><div class='vertical-center'>(I)</div></div></div>","null","$54<br><br>now","$80<br>in<br>3 weeks","1","54","80","3",""
"html-keyboard-response","10","42110","0.0-5.0-1.2","6400dc45648545e7ca8f35a6","bdp_td","Sun Apr 09 2023 18:25:59 GMT-0400 (Eastern Daylight Time)","110186","","null","","","","FIX","","<div class='trialBorder'><div class='vertical-center'><img style='vertical-align:center; align:center' src=img/fixation3.jpg></div></div>","null","","","","","","",""
"html-keyboard-response","11","44155","0.0-5.0-2.2","6400dc45648545e7ca8f35a6","bdp_td","Sun Apr 09 2023 18:25:59 GMT-0400 (Eastern Daylight Time)","110186","","2045","","","","offer","","<div class='trialBorder'><div class='vertical-center'><img style='vertical-align:center; align:center' src=img/fixation3.jpg></div><div class='cl'><div class='vertical-center'>$75<br>in<br>6 weeks</div></div><div class='cr'><div class='vertical-center'>$55<br><br>now</div></div><div class='respDivL'><div class='vertical-center'>(E)</div></div><div class='respDivR'><div class='vertical-center'>(I)</div></div></div>","E","$55<br><br>now","$75<br>in<br>6 weeks","1","55","75","6","THEN"
"html-keyboard-response","12","44407","0.0-5.0-3.2","6400dc45648545e7ca8f35a6","bdp_td","Sun Apr 09 2023 18:25:59 GMT-0400 (Eastern Daylight Time)","110186","","null","","","","offerFB","","<div class='trialBorder'><div class='vertical-center'><img style='vertical-align:center; align:center' src=img/fixation3.jpg></div><div class='cl'><div class='vertical-center'><font style='color:orange'>$75<br>in<br>6 weeks</font></div></div><div class='cr'><div class='vertical-center'>$55<br><br>now</div></div><div class='respDivL'><div class='vertical-center'><font style='color:orange'>(E)</font></div></div><div class='respDivR'><div class='vertical-center'>(I)</div></div></div>","null","$55<br><br>now","$75<br>in<br>6 weeks","1","55","75","6",""
"html-keyboard-response","13","44909","0.0-5.0-1.3","6400dc45648545e7ca8f35a6","bdp_td","Sun Apr 09 2023 18:25:59 GMT-0400 (Eastern Daylight Time)","110186","","null","","","","FIX","","<div class='trialBorder'><div class='vertical-center'><img style='vertical-align:center; align:center' src=img/fixation3.jpg></div></div>","null","","","","","","",""
"html-keyboard-response","14","46896","0.0-5.0-2.3","6400dc45648545e7ca8f35a6","bdp_td","Sun Apr 09 2023 18:25:59 GMT-0400 (Eastern Daylight Time)","110186","","1987","","","","offer","","<div class='trialBorder'><div class='vertical-center'><img style='vertical-align:center; align:center' src=img/fixation3.jpg></div><div class='cl'><div class='vertical-center'>$35<br>in<br>3 weeks</div></div><div class='cr'><div class='vertical-center'>$24<br><br>now</div></div><div class='respDivL'><div class='vertical-center'>(E)</div></div><div class='respDivR'><div class='vertical-center'>(I)</div></div></div>","E","$24<br><br>now","$35<br>in<br>3 weeks","1","24","35","3","THEN"
"html-keyboard-response","15","47147","0.0-5.0-3.3","6400dc45648545e7ca8f35a6","bdp_td","Sun Apr 09 2023 18:25:59 GMT-0400 (Eastern Daylight Time)","110186","","null","","","","offerFB","","<div class='trialBorder'><div class='vertical-center'><img style='vertical-align:center; align:center' src=img/fixation3.jpg></div><div class='cl'><div class='vertical-center'><font style='color:orange'>$35<br>in<br>3 weeks</font></div></div><div class='cr'><div class='vertical-center'>$24<br><br>now</div></div><div class='respDivL'><div class='vertical-center'><font style='color:orange'>(E)</font></div></div><div class='respDivR'><div class='vertical-center'>(I)</div></div></div>","null","$24<br><br>now","$35<br>in<br>3 weeks","1","24","35","3",""
"html-keyboard-response","16","47648","0.0-5.0-1.4","6400dc45648545e7ca8f35a6","bdp_td","Sun Apr 09 2023 18:25:59 GMT-0400 (Eastern Daylight Time)","110186","","null","","","","FIX","","<div class='trialBorder'><div class='vertical-center'><img style='vertical-align:center; align:center' src=img/fixation3.jpg></div></div>","null","","","","","","",""
"html-keyboard-response","17","52305","0.0-5.0-2.4","6400dc45648545e7ca8f35a6","bdp_td","Sun Apr 09 2023 18:25:59 GMT-0400 (Eastern Daylight Time)","110186","","4656","","","","offer","","<div class='trialBorder'><div class='vertical-center'><img style='vertical-align:center; align:center' src=img/fixation3.jpg></div><div class='cl'><div class='vertical-center'>$22<br><br>now</div></div><div class='cr'><div class='vertical-center'>$25<br>in<br>12 weeks</div></div><div class='respDivL'><div class='vertical-center'>(E)</div></div><div class='respDivR'><div class='vertical-center'>(I)</div></div></div>","E","$22<br><br>now","$25<br>in<br>12 weeks","0","22","25","12","NOW"
"html-keyboard-response","18","52557","0.0-5.0-3.4","6400dc45648545e7ca8f35a6","bdp_td","Sun Apr 09 2023 18:25:59 GMT-0400 (Eastern Daylight Time)","110186","","null","","","","offerFB","","<div class='trialBorder'><div class='vertical-center'><img style='vertical-align:center; align:center' src=img/fixation3.jpg></div><div class='cl'><div class='vertical-center'><font style='color:orange'>$22<br><br>now</font></div></div><div class='cr'><div class='vertical-center'>$25<br>in<br>12 weeks</div></div><div class='respDivL'><div class='vertical-center'><font style='color:orange'>(E)</font></div></div><div class='respDivR'><div class='vertical-center'>(I)</div></div></div>","null","$22<br><br>now","$25<br>in<br>12 weeks","0","22","25","12",""
"html-keyboard-response","19","53059","0.0-5.0-1.5","6400dc45648545e7ca8f35a6","bdp_td","Sun Apr 09 2023 18:25:59 GMT-0400 (Eastern Daylight Time)","110186","","null","","","","FIX","","<div class='trialBorder'><div class='vertical-center'><img style='vertical-align:center; align:center' src=img/fixation3.jpg></div></div>","null","","","","","","",""
"html-keyboard-response","20","54887","0.0-5.0-2.5","6400dc45648545e7ca8f35a6","bdp_td","Sun Apr 09 2023 18:25:59 GMT-0400 (Eastern Daylight Time)","110186","","1828","","","","offer","","<div class='trialBorder'><div class='vertical-center'><img style='vertical-align:center; align:center' src=img/fixation3.jpg></div><div class='cl'><div class='vertical-center'>$80<br>in<br>2 weeks</div></div><div class='cr'><div class='vertical-center'>$33<br><br>now</div></div><div class='respDivL'><div class='vertical-center'>(E)</div></div><div class='respDivR'><div class='vertical-center'>(I)</div></div></div>","E","$33<br><br>now","$80<br>in<br>2 weeks","1","33","80","2","THEN"
"html-keyboard-response","21","55139","0.0-5.0-3.5","6400dc45648545e7ca8f35a6","bdp_td","Sun Apr 09 2023 18:25:59 GMT-0400 (Eastern Daylight Time)","110186","","null","","","","offerFB","","<div class='trialBorder'><div class='vertical-center'><img style='vertical-align:center; align:center' src=img/fixation3.jpg></div><div class='cl'><div class='vertical-center'><font style='color:orange'>$80<br>in<br>2 weeks</font></div></div><div class='cr'><div class='vertical-center'>$33<br><br>now</div></div><div class='respDivL'><div class='vertical-center'><font style='color:orange'>(E)</font></div></div><div class='respDivR'><div class='vertical-center'>(I)</div></div></div>","null","$33<br><br>now","$80<br>in<br>2 weeks","1","33","80","2",""
"html-keyboard-response","22","55641","0.0-5.0-1.6","6400dc45648545e7ca8f35a6","bdp_td","Sun Apr 09 2023 18:25:59 GMT-0400 (Eastern Daylight Time)","110186","","null","","","","FIX","","<div class='trialBorder'><div class='vertical-center'><img style='vertical-align:center; align:center' src=img/fixation3.jpg></div></div>","null","","","","","","",""
"html-keyboard-response","23","57613","0.0-5.0-2.6","6400dc45648545e7ca8f35a6","bdp_td","Sun Apr 09 2023 18:25:59 GMT-0400 (Eastern Daylight Time)","110186","","1971","","","","offer","","<div class='trialBorder'><div class='vertical-center'><img style='vertical-align:center; align:center' src=img/fixation3.jpg></div><div class='cl'><div class='vertical-center'>$28<br><br>now</div></div><div class='cr'><div class='vertical-center'>$30<br>in<br>12 weeks</div></div><div class='respDivL'><div class='vertical-center'>(E)</div></div><div class='respDivR'><div class='vertical-center'>(I)</div></div></div>","E","$28<br><br>now","$30<br>in<br>12 weeks","0","28","30","12","NOW"
"html-keyboard-response","24","57865","0.0-5.0-3.6","6400dc45648545e7ca8f35a6","bdp_td","Sun Apr 09 2023 18:25:59 GMT-0400 (Eastern Daylight Time)","110186","","null","","","","offerFB","","<div class='trialBorder'><div class='vertical-center'><img style='vertical-align:center; align:center' src=img/fixation3.jpg></div><div class='cl'><div class='vertical-center'><font style='color:orange'>$28<br><br>now</font></div></div><div class='cr'><div class='vertical-center'>$30<br>in<br>12 weeks</div></div><div class='respDivL'><div class='vertical-center'><font style='color:orange'>(E)</font></div></div><div class='respDivR'><div class='vertical-center'>(I)</div></div></div>","null","$28<br><br>now","$30<br>in<br>12 weeks","0","28","30","12",""
"html-keyboard-response","25","58367","0.0-5.0-1.7","6400dc45648545e7ca8f35a6","bdp_td","Sun Apr 09 2023 18:25:59 GMT-0400 (Eastern Daylight Time)","110186","","null","","","","FIX","","<div class='trialBorder'><div class='vertical-center'><img style='vertical-align:center; align:center' src=img/fixation3.jpg></div></div>","null","","","","","","",""
"html-keyboard-response","26","59973","0.0-5.0-2.7","6400dc45648545e7ca8f35a6","bdp_td","Sun Apr 09 2023 18:25:59 GMT-0400 (Eastern Daylight Time)","110186","","1606","","","","offer","","<div class='trialBorder'><div class='vertical-center'><img style='vertical-align:center; align:center' src=img/fixation3.jpg></div><div class='cl'><div class='vertical-center'>$55<br>in<br>12 weeks</div></div><div class='cr'><div class='vertical-center'>$54<br><br>now</div></div><div class='respDivL'><div class='vertical-center'>(E)</div></div><div class='respDivR'><div class='vertical-center'>(I)</div></div></div>","I","$54<br><br>now","$55<br>in<br>12 weeks","1","54","55","12","NOW"
"html-keyboard-response","27","60225","0.0-5.0-3.7","6400dc45648545e7ca8f35a6","bdp_td","Sun Apr 09 2023 18:25:59 GMT-0400 (Eastern Daylight Time)","110186","","null","","","","offerFB","","<div class='trialBorder'><div class='vertical-center'><img style='vertical-align:center; align:center' src=img/fixation3.jpg></div><div class='cl'><div class='vertical-center'>$55<br>in<br>12 weeks</div></div><div class='cr'><div class='vertical-center'><font style='color:orange'>$54<br><br>now</font></div></div><div class='respDivL'><div class='vertical-center'>(E)</div></div><div class='respDivR'><div class='vertical-center'><font style='color:orange'>(I)</font></div></div></div>","null","$54<br><br>now","$55<br>in<br>12 weeks","1","54","55","12",""
"html-keyboard-response","28","60726","0.0-5.0-1.8","6400dc45648545e7ca8f35a6","bdp_td","Sun Apr 09 2023 18:25:59 GMT-0400 (Eastern Daylight Time)","110186","","null","","","","FIX","","<div class='trialBorder'><div class='vertical-center'><img style='vertical-align:center; align:center' src=img/fixation3.jpg></div></div>","null","","","","","","",""
"html-keyboard-response","29","62065","0.0-5.0-2.8","6400dc45648545e7ca8f35a6","bdp_td","Sun Apr 09 2023 18:25:59 GMT-0400 (Eastern Daylight Time)","110186","","1339","","","","offer","","<div class='trialBorder'><div class='vertical-center'><img style='vertical-align:center; align:center' src=img/fixation3.jpg></div><div class='cl'><div class='vertical-center'>$35<br>in<br>2 weeks</div></div><div class='cr'><div class='vertical-center'>$15<br><br>now</div></div><div class='respDivL'><div class='vertical-center'>(E)</div></div><div class='respDivR'><div class='vertical-center'>(I)</div></div></div>","E","$15<br><br>now","$35<br>in<br>2 weeks","1","15","35","2","THEN"
"html-keyboard-response","30","62317","0.0-5.0-3.8","6400dc45648545e7ca8f35a6","bdp_td","Sun Apr 09 2023 18:25:59 GMT-0400 (Eastern Daylight Time)","110186","","null","","","","offerFB","","<div class='trialBorder'><div class='vertical-center'><img style='vertical-align:center; align:center' src=img/fixation3.jpg></div><div class='cl'><div class='vertical-center'><font style='color:orange'>$35<br>in<br>2 weeks</font></div></div><div class='cr'><div class='vertical-center'>$15<br><br>now</div></div><div class='respDivL'><div class='vertical-center'><font style='color:orange'>(E)</font></div></div><div class='respDivR'><div class='vertical-center'>(I)</div></div></div>","null","$15<br><br>now","$35<br>in<br>2 weeks","1","15","35","2",""
"html-keyboard-response","31","62819","0.0-5.0-1.9","6400dc45648545e7ca8f35a6","bdp_td","Sun Apr 09 2023 18:25:59 GMT-0400 (Eastern Daylight Time)","110186","","null","","","","FIX","","<div class='trialBorder'><div class='vertical-center'><img style='vertical-align:center; align:center' src=img/fixation3.jpg></div></div>","null","","","","","","",""
"html-keyboard-response","32","64479","0.0-5.0-2.9","6400dc45648545e7ca8f35a6","bdp_td","Sun Apr 09 2023 18:25:59 GMT-0400 (Eastern Daylight Time)","110186","","1660","","","","offer","","<div class='trialBorder'><div class='vertical-center'><img style='vertical-align:center; align:center' src=img/fixation3.jpg></div><div class='cl'><div class='vertical-center'>$20<br><br>now</div></div><div class='cr'><div class='vertical-center'>$55<br>in<br>1 week</div></div><div class='respDivL'><div class='vertical-center'>(E)</div></div><div class='respDivR'><div class='vertical-center'>(I)</div></div></div>","I","$20<br><br>now","$55<br>in<br>1 week","0","20","55","1","THEN"
"html-keyboard-response","33","64730","0.0-5.0-3.9","6400dc45648545e7ca8f35a6","bdp_td","Sun Apr 09 2023 18:25:59 GMT-0400 (Eastern Daylight Time)","110186","","null","","","","offerFB","","<div class='trialBorder'><div class='vertical-center'><img style='vertical-align:center; align:center' src=img/fixation3.jpg></div><div class='cl'><div class='vertical-center'>$20<br><br>now</div></div><div class='cr'><div class='vertical-center'><font style='color:orange'>$55<br>in<br>1 week</font></div></div><div class='respDivL'><div class='vertical-center'>(E)</div></div><div class='respDivR'><div class='vertical-center'><font style='color:orange'>(I)</font></div></div></div>","null","$20<br><br>now","$55<br>in<br>1 week","0","20","55","1",""
"html-keyboard-response","34","65232","0.0-5.0-1.10","6400dc45648545e7ca8f35a6","bdp_td","Sun Apr 09 2023 18:25:59 GMT-0400 (Eastern Daylight Time)","110186","","null","","","","FIX","","<div class='trialBorder'><div class='vertical-center'><img style='vertical-align:center; align:center' src=img/fixation3.jpg></div></div>","null","","","","","","",""
"html-keyboard-response","35","66447","0.0-5.0-2.10","6400dc45648545e7ca8f35a6","bdp_td","Sun Apr 09 2023 18:25:59 GMT-0400 (Eastern Daylight Time)","110186","","1215","","","","offer","","<div class='trialBorder'><div class='vertical-center'><img style='vertical-align:center; align:center' src=img/fixation3.jpg></div><div class='cl'><div class='vertical-center'>$11<br><br>now</div></div><div class='cr'><div class='vertical-center'>$30<br>in<br>2 weeks</div></div><div class='respDivL'><div class='vertical-center'>(E)</div></div><div class='respDivR'><div class='vertical-center'>(I)</div></div></div>","I","$11<br><br>now","$30<br>in<br>2 weeks","0","11","30","2","THEN"
"html-keyboard-response","36","66699","0.0-5.0-3.10","6400dc45648545e7ca8f35a6","bdp_td","Sun Apr 09 2023 18:25:59 GMT-0400 (Eastern Daylight Time)","110186","","null","","","","offerFB","","<div class='trialBorder'><div class='vertical-center'><img style='vertical-align:center; align:center' src=img/fixation3.jpg></div><div class='cl'><div class='vertical-center'>$11<br><br>now</div></div><div class='cr'><div class='vertical-center'><font style='color:orange'>$30<br>in<br>2 weeks</font></div></div><div class='respDivL'><div class='vertical-center'>(E)</div></div><div class='respDivR'><div class='vertical-center'><font style='color:orange'>(I)</font></div></div></div>","null","$11<br><br>now","$30<br>in<br>2 weeks","0","11","30","2",""
"html-keyboard-response","37","67200","0.0-5.0-1.11","6400dc45648545e7ca8f35a6","bdp_td","Sun Apr 09 2023 18:25:59 GMT-0400 (Eastern Daylight Time)","110186","","null","","","","FIX","","<div class='trialBorder'><div class='vertical-center'><img style='vertical-align:center; align:center' src=img/fixation3.jpg></div></div>","null","","","","","","",""
"html-keyboard-response","38","68492","0.0-5.0-2.11","6400dc45648545e7ca8f35a6","bdp_td","Sun Apr 09 2023 18:25:59 GMT-0400 (Eastern Daylight Time)","110186","","1291","","","","offer","","<div class='trialBorder'><div class='vertical-center'><img style='vertical-align:center; align:center' src=img/fixation3.jpg></div><div class='cl'><div class='vertical-center'>$50<br>in<br>3 weeks</div></div><div class='cr'><div class='vertical-center'>$27<br><br>now</div></div><div class='respDivL'><div class='vertical-center'>(E)</div></div><div class='respDivR'><div class='vertical-center'>(I)</div></div></div>","E","$27<br><br>now","$50<br>in<br>3 weeks","1","27","50","3","THEN"
"html-keyboard-response","39","68743","0.0-5.0-3.11","6400dc45648545e7ca8f35a6","bdp_td","Sun Apr 09 2023 18:25:59 GMT-0400 (Eastern Daylight Time)","110186","","null","","","","offerFB","","<div class='trialBorder'><div class='vertical-center'><img style='vertical-align:center; align:center' src=img/fixation3.jpg></div><div class='cl'><div class='vertical-center'><font style='color:orange'>$50<br>in<br>3 weeks</font></div></div><div class='cr'><div class='vertical-center'>$27<br><br>now</div></div><div class='respDivL'><div class='vertical-center'><font style='color:orange'>(E)</font></div></div><div class='respDivR'><div class='vertical-center'>(I)</div></div></div>","null","$27<br><br>now","$50<br>in<br>3 weeks","1","27","50","3",""
"html-keyboard-response","40","69244","0.0-5.0-1.12","6400dc45648545e7ca8f35a6","bdp_td","Sun Apr 09 2023 18:25:59 GMT-0400 (Eastern Daylight Time)","110186","","null","","","","FIX","","<div class='trialBorder'><div class='vertical-center'><img style='vertical-align:center; align:center' src=img/fixation3.jpg></div></div>","null","","","","","","",""
"html-keyboard-response","41","70503","0.0-5.0-2.12","6400dc45648545e7ca8f35a6","bdp_td","Sun Apr 09 2023 18:25:59 GMT-0400 (Eastern Daylight Time)","110186","","1258","","","","offer","","<div class='trialBorder'><div class='vertical-center'><img style='vertical-align:center; align:center' src=img/fixation3.jpg></div><div class='cl'><div class='vertical-center'>$49<br><br>now</div></div><div class='cr'><div class='vertical-center'>$60<br>in<br>6 weeks</div></div><div class='respDivL'><div class='vertical-center'>(E)</div></div><div class='respDivR'><div class='vertical-center'>(I)</div></div></div>","I","$49<br><br>now","$60<br>in<br>6 weeks","0","49","60","6","THEN"
"html-keyboard-response","42","70755","0.0-5.0-3.12","6400dc45648545e7ca8f35a6","bdp_td","Sun Apr 09 2023 18:25:59 GMT-0400 (Eastern Daylight Time)","110186","","null","","","","offerFB","","<div class='trialBorder'><div class='vertical-center'><img style='vertical-align:center; align:center' src=img/fixation3.jpg></div><div class='cl'><div class='vertical-center'>$49<br><br>now</div></div><div class='cr'><div class='vertical-center'><font style='color:orange'>$60<br>in<br>6 weeks</font></div></div><div class='respDivL'><div class='vertical-center'>(E)</div></div><div class='respDivR'><div class='vertical-center'><font style='color:orange'>(I)</font></div></div></div>","null","$49<br><br>now","$60<br>in<br>6 weeks","0","49","60","6",""
"html-keyboard-response","43","71256","0.0-5.0-1.13","6400dc45648545e7ca8f35a6","bdp_td","Sun Apr 09 2023 18:25:59 GMT-0400 (Eastern Daylight Time)","110186","","null","","","","FIX","","<div class='trialBorder'><div class='vertical-center'><img style='vertical-align:center; align:center' src=img/fixation3.jpg></div></div>","null","","","","","","",""
"html-keyboard-response","44","73007","0.0-5.0-2.13","6400dc45648545e7ca8f35a6","bdp_td","Sun Apr 09 2023 18:25:59 GMT-0400 (Eastern Daylight Time)","110186","","1751","","","","offer","","<div class='trialBorder'><div class='vertical-center'><img style='vertical-align:center; align:center' src=img/fixation3.jpg></div><div class='cl'><div class='vertical-center'>$25<br><br>now</div></div><div class='cr'><div class='vertical-center'>$30<br>in<br>6 weeks</div></div><div class='respDivL'><div class='vertical-center'>(E)</div></div><div class='respDivR'><div class='vertical-center'>(I)</div></div></div>","E","$25<br><br>now","$30<br>in<br>6 weeks","0","25","30","6","NOW"
"html-keyboard-response","45","73259","0.0-5.0-3.13","6400dc45648545e7ca8f35a6","bdp_td","Sun Apr 09 2023 18:25:59 GMT-0400 (Eastern Daylight Time)","110186","","null","","","","offerFB","","<div class='trialBorder'><div class='vertical-center'><img style='vertical-align:center; align:center' src=img/fixation3.jpg></div><div class='cl'><div class='vertical-center'><font style='color:orange'>$25<br><br>now</font></div></div><div class='cr'><div class='vertical-center'>$30<br>in<br>6 weeks</div></div><div class='respDivL'><div class='vertical-center'><font style='color:orange'>(E)</font></div></div><div class='respDivR'><div class='vertical-center'>(I)</div></div></div>","null","$25<br><br>now","$30<br>in<br>6 weeks","0","25","30","6",""
"html-keyboard-response","46","73760","0.0-5.0-1.14","6400dc45648545e7ca8f35a6","bdp_td","Sun Apr 09 2023 18:25:59 GMT-0400 (Eastern Daylight Time)","110186","","null","","","","FIX","","<div class='trialBorder'><div class='vertical-center'><img style='vertical-align:center; align:center' src=img/fixation3.jpg></div></div>","null","","","","","","",""
"html-keyboard-response","47","75265","0.0-5.0-2.14","6400dc45648545e7ca8f35a6","bdp_td","Sun Apr 09 2023 18:25:59 GMT-0400 (Eastern Daylight Time)","110186","","1504","","","","offer","","<div class='trialBorder'><div class='vertical-center'><img style='vertical-align:center; align:center' src=img/fixation3.jpg></div><div class='cl'><div class='vertical-center'>$31<br><br>now</div></div><div class='cr'><div class='vertical-center'>$85<br>in<br>1 week</div></div><div class='respDivL'><div class='vertical-center'>(E)</div></div><div class='respDivR'><div class='vertical-center'>(I)</div></div></div>","I","$31<br><br>now","$85<br>in<br>1 week","0","31","85","1","THEN"
"html-keyboard-response","48","75517","0.0-5.0-3.14","6400dc45648545e7ca8f35a6","bdp_td","Sun Apr 09 2023 18:25:59 GMT-0400 (Eastern Daylight Time)","110186","","null","","","","offerFB","","<div class='trialBorder'><div class='vertical-center'><img style='vertical-align:center; align:center' src=img/fixation3.jpg></div><div class='cl'><div class='vertical-center'>$31<br><br>now</div></div><div class='cr'><div class='vertical-center'><font style='color:orange'>$85<br>in<br>1 week</font></div></div><div class='respDivL'><div class='vertical-center'>(E)</div></div><div class='respDivR'><div class='vertical-center'><font style='color:orange'>(I)</font></div></div></div>","null","$31<br><br>now","$85<br>in<br>1 week","0","31","85","1",""
"html-keyboard-response","49","76019","0.0-5.0-1.15","6400dc45648545e7ca8f35a6","bdp_td","Sun Apr 09 2023 18:25:59 GMT-0400 (Eastern Daylight Time)","110186","","null","","","","FIX","","<div class='trialBorder'><div class='vertical-center'><img style='vertical-align:center; align:center' src=img/fixation3.jpg></div></div>","null","","","","","","",""
"html-keyboard-response","50","79422","0.0-5.0-2.15","6400dc45648545e7ca8f35a6","bdp_td","Sun Apr 09 2023 18:25:59 GMT-0400 (Eastern Daylight Time)","110186","","3401","","","","offer","","<div class='trialBorder'><div class='vertical-center'><img style='vertical-align:center; align:center' src=img/fixation3.jpg></div><div class='cl'><div class='vertical-center'>$85<br>in<br>6 weeks</div></div><div class='cr'><div class='vertical-center'>$69<br><br>now</div></div><div class='respDivL'><div class='vertical-center'>(E)</div></div><div class='respDivR'><div class='vertical-center'>(I)</div></div></div>","E","$69<br><br>now","$85<br>in<br>6 weeks","1","69","85","6","THEN"
"html-keyboard-response","51","79673","0.0-5.0-3.15","6400dc45648545e7ca8f35a6","bdp_td","Sun Apr 09 2023 18:25:59 GMT-0400 (Eastern Daylight Time)","110186","","null","","","","offerFB","","<div class='trialBorder'><div class='vertical-center'><img style='vertical-align:center; align:center' src=img/fixation3.jpg></div><div class='cl'><div class='vertical-center'><font style='color:orange'>$85<br>in<br>6 weeks</font></div></div><div class='cr'><div class='vertical-center'>$69<br><br>now</div></div><div class='respDivL'><div class='vertical-center'><font style='color:orange'>(E)</font></div></div><div class='respDivR'><div class='vertical-center'>(I)</div></div></div>","null","$69<br><br>now","$85<br>in<br>6 weeks","1","69","85","6",""
"html-keyboard-response","52","80174","0.0-5.0-1.16","6400dc45648545e7ca8f35a6","bdp_td","Sun Apr 09 2023 18:25:59 GMT-0400 (Eastern Daylight Time)","110186","","null","","","","FIX","","<div class='trialBorder'><div class='vertical-center'><img style='vertical-align:center; align:center' src=img/fixation3.jpg></div></div>","null","","","","","","",""
"html-keyboard-response","53","82393","0.0-5.0-2.16","6400dc45648545e7ca8f35a6","bdp_td","Sun Apr 09 2023 18:25:59 GMT-0400 (Eastern Daylight Time)","110186","","2218","","","","offer","","<div class='trialBorder'><div class='vertical-center'><img style='vertical-align:center; align:center' src=img/fixation3.jpg></div><div class='cl'><div class='vertical-center'>$55<br>in<br>6 weeks</div></div><div class='cr'><div class='vertical-center'>$40<br><br>now</div></div><div class='respDivL'><div class='vertical-center'>(E)</div></div><div class='respDivR'><div class='vertical-center'>(I)</div></div></div>","E","$40<br><br>now","$55<br>in<br>6 weeks","1","40","55","6","THEN"
"html-keyboard-response","54","82646","0.0-5.0-3.16","6400dc45648545e7ca8f35a6","bdp_td","Sun Apr 09 2023 18:25:59 GMT-0400 (Eastern Daylight Time)","110186","","null","","","","offerFB","","<div class='trialBorder'><div class='vertical-center'><img style='vertical-align:center; align:center' src=img/fixation3.jpg></div><div class='cl'><div class='vertical-center'><font style='color:orange'>$55<br>in<br>6 weeks</font></div></div><div class='cr'><div class='vertical-center'>$40<br><br>now</div></div><div class='respDivL'><div class='vertical-center'><font style='color:orange'>(E)</font></div></div><div class='respDivR'><div class='vertical-center'>(I)</div></div></div>","null","$40<br><br>now","$55<br>in<br>6 weeks","1","40","55","6",""
"html-keyboard-response","55","83147","0.0-5.0-1.17","6400dc45648545e7ca8f35a6","bdp_td","Sun Apr 09 2023 18:25:59 GMT-0400 (Eastern Daylight Time)","110186","","null","","","","FIX","","<div class='trialBorder'><div class='vertical-center'><img style='vertical-align:center; align:center' src=img/fixation3.jpg></div></div>","null","","","","","","",""
"html-keyboard-response","56","84753","0.0-5.0-2.17","6400dc45648545e7ca8f35a6","bdp_td","Sun Apr 09 2023 18:25:59 GMT-0400 (Eastern Daylight Time)","110186","","1605","","","","offer","","<div class='trialBorder'><div class='vertical-center'><img style='vertical-align:center; align:center' src=img/fixation3.jpg></div><div class='cl'><div class='vertical-center'>$80<br>in<br>12 weeks</div></div><div class='cr'><div class='vertical-center'>$78<br><br>now</div></div><div class='respDivL'><div class='vertical-center'>(E)</div></div><div class='respDivR'><div class='vertical-center'>(I)</div></div></div>","I","$78<br><br>now","$80<br>in<br>12 weeks","1","78","80","12","NOW"
"html-keyboard-response","57","85004","0.0-5.0-3.17","6400dc45648545e7ca8f35a6","bdp_td","Sun Apr 09 2023 18:25:59 GMT-0400 (Eastern Daylight Time)","110186","","null","","","","offerFB","","<div class='trialBorder'><div class='vertical-center'><img style='vertical-align:center; align:center' src=img/fixation3.jpg></div><div class='cl'><div class='vertical-center'>$80<br>in<br>12 weeks</div></div><div class='cr'><div class='vertical-center'><font style='color:orange'>$78<br><br>now</font></div></div><div class='respDivL'><div class='vertical-center'>(E)</div></div><div class='respDivR'><div class='vertical-center'><font style='color:orange'>(I)</font></div></div></div>","null","$78<br><br>now","$80<br>in<br>12 weeks","1","78","80","12",""
"html-keyboard-response","58","85505","0.0-5.0-1.18","6400dc45648545e7ca8f35a6","bdp_td","Sun Apr 09 2023 18:25:59 GMT-0400 (Eastern Daylight Time)","110186","","null","","","","FIX","","<div class='trialBorder'><div class='vertical-center'><img style='vertical-align:center; align:center' src=img/fixation3.jpg></div></div>","null","","","","","","",""
"html-keyboard-response","59","86882","0.0-5.0-2.18","6400dc45648545e7ca8f35a6","bdp_td","Sun Apr 09 2023 18:25:59 GMT-0400 (Eastern Daylight Time)","110186","","1375","","","","offer","","<div class='trialBorder'><div class='vertical-center'><img style='vertical-align:center; align:center' src=img/fixation3.jpg></div><div class='cl'><div class='vertical-center'>$41<br><br>now</div></div><div class='cr'><div class='vertical-center'>$75<br>in<br>3 weeks</div></div><div class='respDivL'><div class='vertical-center'>(E)</div></div><div class='respDivR'><div class='vertical-center'>(I)</div></div></div>","I","$41<br><br>now","$75<br>in<br>3 weeks","0","41","75","3","THEN"
"html-keyboard-response","60","87133","0.0-5.0-3.18","6400dc45648545e7ca8f35a6","bdp_td","Sun Apr 09 2023 18:25:59 GMT-0400 (Eastern Daylight Time)","110186","","null","","","","offerFB","","<div class='trialBorder'><div class='vertical-center'><img style='vertical-align:center; align:center' src=img/fixation3.jpg></div><div class='cl'><div class='vertical-center'>$41<br><br>now</div></div><div class='cr'><div class='vertical-center'><font style='color:orange'>$75<br>in<br>3 weeks</font></div></div><div class='respDivL'><div class='vertical-center'>(E)</div></div><div class='respDivR'><div class='vertical-center'><font style='color:orange'>(I)</font></div></div></div>","null","$41<br><br>now","$75<br>in<br>3 weeks","0","41","75","3",""
"html-keyboard-response","61","87635","0.0-5.0-1.19","6400dc45648545e7ca8f35a6","bdp_td","Sun Apr 09 2023 18:25:59 GMT-0400 (Eastern Daylight Time)","110186","","null","","","","FIX","","<div class='trialBorder'><div class='vertical-center'><img style='vertical-align:center; align:center' src=img/fixation3.jpg></div></div>","null","","","","","","",""
"html-keyboard-response","62","89283","0.0-5.0-2.19","6400dc45648545e7ca8f35a6","bdp_td","Sun Apr 09 2023 18:25:59 GMT-0400 (Eastern Daylight Time)","110186","","1648","","","","offer","","<div class='trialBorder'><div class='vertical-center'><img style='vertical-align:center; align:center' src=img/fixation3.jpg></div><div class='cl'><div class='vertical-center'>$60<br>in<br>3 weeks</div></div><div class='cr'><div class='vertical-center'>$25<br><br>now</div></div><div class='respDivL'><div class='vertical-center'>(E)</div></div><div class='respDivR'><div class='vertical-center'>(I)</div></div></div>","E","$25<br><br>now","$60<br>in<br>3 weeks","1","25","60","3","THEN"
"html-keyboard-response","63","89535","0.0-5.0-3.19","6400dc45648545e7ca8f35a6","bdp_td","Sun Apr 09 2023 18:25:59 GMT-0400 (Eastern Daylight Time)","110186","","null","","","","offerFB","","<div class='trialBorder'><div class='vertical-center'><img style='vertical-align:center; align:center' src=img/fixation3.jpg></div><div class='cl'><div class='vertical-center'><font style='color:orange'>$60<br>in<br>3 weeks</font></div></div><div class='cr'><div class='vertical-center'>$25<br><br>now</div></div><div class='respDivL'><div class='vertical-center'><font style='color:orange'>(E)</font></div></div><div class='respDivR'><div class='vertical-center'>(I)</div></div></div>","null","$25<br><br>now","$60<br>in<br>3 weeks","1","25","60","3",""
"html-keyboard-response","64","90036","0.0-5.0-1.20","6400dc45648545e7ca8f35a6","bdp_td","Sun Apr 09 2023 18:25:59 GMT-0400 (Eastern Daylight Time)","110186","","null","","","","FIX","","<div class='trialBorder'><div class='vertical-center'><img style='vertical-align:center; align:center' src=img/fixation3.jpg></div></div>","null","","","","","","",""
"html-keyboard-response","65","92086","0.0-5.0-2.20","6400dc45648545e7ca8f35a6","bdp_td","Sun Apr 09 2023 18:25:59 GMT-0400 (Eastern Daylight Time)","110186","","2049","","","","offer","","<div class='trialBorder'><div class='vertical-center'><img style='vertical-align:center; align:center' src=img/fixation3.jpg></div><div class='cl'><div class='vertical-center'>$34<br><br>now</div></div><div class='cr'><div class='vertical-center'>$35<br>in<br>12 weeks</div></div><div class='respDivL'><div class='vertical-center'>(E)</div></div><div class='respDivR'><div class='vertical-center'>(I)</div></div></div>","E","$34<br><br>now","$35<br>in<br>12 weeks","0","34","35","12","NOW"
"html-keyboard-response","66","92337","0.0-5.0-3.20","6400dc45648545e7ca8f35a6","bdp_td","Sun Apr 09 2023 18:25:59 GMT-0400 (Eastern Daylight Time)","110186","","null","","","","offerFB","","<div class='trialBorder'><div class='vertical-center'><img style='vertical-align:center; align:center' src=img/fixation3.jpg></div><div class='cl'><div class='vertical-center'><font style='color:orange'>$34<br><br>now</font></div></div><div class='cr'><div class='vertical-center'>$35<br>in<br>12 weeks</div></div><div class='respDivL'><div class='vertical-center'><font style='color:orange'>(E)</font></div></div><div class='respDivR'><div class='vertical-center'>(I)</div></div></div>","null","$34<br><br>now","$35<br>in<br>12 weeks","0","34","35","12",""
"html-keyboard-response","67","92839","0.0-5.0-1.21","6400dc45648545e7ca8f35a6","bdp_td","Sun Apr 09 2023 18:25:59 GMT-0400 (Eastern Daylight Time)","110186","","null","","","","FIX","","<div class='trialBorder'><div class='vertical-center'><img style='vertical-align:center; align:center' src=img/fixation3.jpg></div></div>","null","","","","","","",""
"html-keyboard-response","68","94531","0.0-5.0-2.21","6400dc45648545e7ca8f35a6","bdp_td","Sun Apr 09 2023 18:25:59 GMT-0400 (Eastern Daylight Time)","110186","","1692","","","","offer","","<div class='trialBorder'><div class='vertical-center'><img style='vertical-align:center; align:center' src=img/fixation3.jpg></div><div class='cl'><div class='vertical-center'>$19<br><br>now</div></div><div class='cr'><div class='vertical-center'>$25<br>in<br>6 weeks</div></div><div class='respDivL'><div class='vertical-center'>(E)</div></div><div class='respDivR'><div class='vertical-center'>(I)</div></div></div>","I","$19<br><br>now","$25<br>in<br>6 weeks","0","19","25","6","THEN"
"html-keyboard-response","69","94782","0.0-5.0-3.21","6400dc45648545e7ca8f35a6","bdp_td","Sun Apr 09 2023 18:25:59 GMT-0400 (Eastern Daylight Time)","110186","","null","","","","offerFB","","<div class='trialBorder'><div class='vertical-center'><img style='vertical-align:center; align:center' src=img/fixation3.jpg></div><div class='cl'><div class='vertical-center'>$19<br><br>now</div></div><div class='cr'><div class='vertical-center'><font style='color:orange'>$25<br>in<br>6 weeks</font></div></div><div class='respDivL'><div class='vertical-center'>(E)</div></div><div class='respDivR'><div class='vertical-center'><font style='color:orange'>(I)</font></div></div></div>","null","$19<br><br>now","$25<br>in<br>6 weeks","0","19","25","6",""
"html-keyboard-response","70","95283","0.0-5.0-1.22","6400dc45648545e7ca8f35a6","bdp_td","Sun Apr 09 2023 18:25:59 GMT-0400 (Eastern Daylight Time)","110186","","null","","","","FIX","","<div class='trialBorder'><div class='vertical-center'><img style='vertical-align:center; align:center' src=img/fixation3.jpg></div></div>","null","","","","","","",""
"html-keyboard-response","71","96833","0.0-5.0-2.22","6400dc45648545e7ca8f35a6","bdp_td","Sun Apr 09 2023 18:25:59 GMT-0400 (Eastern Daylight Time)","110186","","1549","","","","offer","","<div class='trialBorder'><div class='vertical-center'><img style='vertical-align:center; align:center' src=img/fixation3.jpg></div><div class='cl'><div class='vertical-center'>$47<br><br>now</div></div><div class='cr'><div class='vertical-center'>$50<br>in<br>12 weeks</div></div><div class='respDivL'><div class='vertical-center'>(E)</div></div><div class='respDivR'><div class='vertical-center'>(I)</div></div></div>","E","$47<br><br>now","$50<br>in<br>12 weeks","0","47","50","12","NOW"
"html-keyboard-response","72","97084","0.0-5.0-3.22","6400dc45648545e7ca8f35a6","bdp_td","Sun Apr 09 2023 18:25:59 GMT-0400 (Eastern Daylight Time)","110186","","null","","","","offerFB","","<div class='trialBorder'><div class='vertical-center'><img style='vertical-align:center; align:center' src=img/fixation3.jpg></div><div class='cl'><div class='vertical-center'><font style='color:orange'>$47<br><br>now</font></div></div><div class='cr'><div class='vertical-center'>$50<br>in<br>12 weeks</div></div><div class='respDivL'><div class='vertical-center'><font style='color:orange'>(E)</font></div></div><div class='respDivR'><div class='vertical-center'>(I)</div></div></div>","null","$47<br><br>now","$50<br>in<br>12 weeks","0","47","50","12",""
"html-keyboard-response","73","97587","0.0-5.0-1.23","6400dc45648545e7ca8f35a6","bdp_td","Sun Apr 09 2023 18:25:59 GMT-0400 (Eastern Daylight Time)","110186","","null","","","","FIX","","<div class='trialBorder'><div class='vertical-center'><img style='vertical-align:center; align:center' src=img/fixation3.jpg></div></div>","null","","","","","","",""
"html-keyboard-response","74","100359","0.0-5.0-2.23","6400dc45648545e7ca8f35a6","bdp_td","Sun Apr 09 2023 18:25:59 GMT-0400 (Eastern Daylight Time)","110186","","2772","","","","offer","","<div class='trialBorder'><div class='vertical-center'><img style='vertical-align:center; align:center' src=img/fixation3.jpg></div><div class='cl'><div class='vertical-center'>$54<br><br>now</div></div><div class='cr'><div class='vertical-center'>$60<br>in<br>12 weeks</div></div><div class='respDivL'><div class='vertical-center'>(E)</div></div><div class='respDivR'><div class='vertical-center'>(I)</div></div></div>","E","$54<br><br>now","$60<br>in<br>12 weeks","0","54","60","12","NOW"
"html-keyboard-response","75","100611","0.0-5.0-3.23","6400dc45648545e7ca8f35a6","bdp_td","Sun Apr 09 2023 18:25:59 GMT-0400 (Eastern Daylight Time)","110186","","null","","","","offerFB","","<div class='trialBorder'><div class='vertical-center'><img style='vertical-align:center; align:center' src=img/fixation3.jpg></div><div class='cl'><div class='vertical-center'><font style='color:orange'>$54<br><br>now</font></div></div><div class='cr'><div class='vertical-center'>$60<br>in<br>12 weeks</div></div><div class='respDivL'><div class='vertical-center'><font style='color:orange'>(E)</font></div></div><div class='respDivR'><div class='vertical-center'>(I)</div></div></div>","null","$54<br><br>now","$60<br>in<br>12 weeks","0","54","60","12",""
"html-keyboard-response","76","101113","0.0-5.0-1.24","6400dc45648545e7ca8f35a6","bdp_td","Sun Apr 09 2023 18:25:59 GMT-0400 (Eastern Daylight Time)","110186","","null","","","","FIX","","<div class='trialBorder'><div class='vertical-center'><img style='vertical-align:center; align:center' src=img/fixation3.jpg></div></div>","null","","","","","","",""
"html-keyboard-response","77","103764","0.0-5.0-2.24","6400dc45648545e7ca8f35a6","bdp_td","Sun Apr 09 2023 18:25:59 GMT-0400 (Eastern Daylight Time)","110186","","2651","","","","offer","","<div class='trialBorder'><div class='vertical-center'><img style='vertical-align:center; align:center' src=img/fixation3.jpg></div><div class='cl'><div class='vertical-center'>$50<br>in<br>6 weeks</div></div><div class='cr'><div class='vertical-center'>$34<br><br>now</div></div><div class='respDivL'><div class='vertical-center'>(E)</div></div><div class='respDivR'><div class='vertical-center'>(I)</div></div></div>","E","$34<br><br>now","$50<br>in<br>6 weeks","1","34","50","6","THEN"
"html-keyboard-response","78","104016","0.0-5.0-3.24","6400dc45648545e7ca8f35a6","bdp_td","Sun Apr 09 2023 18:25:59 GMT-0400 (Eastern Daylight Time)","110186","","null","","","","offerFB","","<div class='trialBorder'><div class='vertical-center'><img style='vertical-align:center; align:center' src=img/fixation3.jpg></div><div class='cl'><div class='vertical-center'><font style='color:orange'>$50<br>in<br>6 weeks</font></div></div><div class='cr'><div class='vertical-center'>$34<br><br>now</div></div><div class='respDivL'><div class='vertical-center'><font style='color:orange'>(E)</font></div></div><div class='respDivR'><div class='vertical-center'>(I)</div></div></div>","null","$34<br><br>now","$50<br>in<br>6 weeks","1","34","50","6",""
"html-keyboard-response","79","104518","0.0-5.0-1.25","6400dc45648545e7ca8f35a6","bdp_td","Sun Apr 09 2023 18:25:59 GMT-0400 (Eastern Daylight Time)","110186","","null","","","","FIX","","<div class='trialBorder'><div class='vertical-center'><img style='vertical-align:center; align:center' src=img/fixation3.jpg></div></div>","null","","","","","","",""
"html-keyboard-response","80","106451","0.0-5.0-2.25","6400dc45648545e7ca8f35a6","bdp_td","Sun Apr 09 2023 18:25:59 GMT-0400 (Eastern Daylight Time)","110186","","1932","","","","offer","","<div class='trialBorder'><div class='vertical-center'><img style='vertical-align:center; align:center' src=img/fixation3.jpg></div><div class='cl'><div class='vertical-center'>$75<br>in<br>12 weeks</div></div><div class='cr'><div class='vertical-center'>$67<br><br>now</div></div><div class='respDivL'><div class='vertical-center'>(E)</div></div><div class='respDivR'><div class='vertical-center'>(I)</div></div></div>","E","$67<br><br>now","$75<br>in<br>12 weeks","1","67","75","12","THEN"
"html-keyboard-response","81","106704","0.0-5.0-3.25","6400dc45648545e7ca8f35a6","bdp_td","Sun Apr 09 2023 18:25:59 GMT-0400 (Eastern Daylight Time)","110186","","null","","","","offerFB","","<div class='trialBorder'><div class='vertical-center'><img style='vertical-align:center; align:center' src=img/fixation3.jpg></div><div class='cl'><div class='vertical-center'><font style='color:orange'>$75<br>in<br>12 weeks</font></div></div><div class='cr'><div class='vertical-center'>$67<br><br>now</div></div><div class='respDivL'><div class='vertical-center'><font style='color:orange'>(E)</font></div></div><div class='respDivR'><div class='vertical-center'>(I)</div></div></div>","null","$67<br><br>now","$75<br>in<br>12 weeks","1","67","75","12",""
"html-keyboard-response","82","107206","0.0-5.0-1.26","6400dc45648545e7ca8f35a6","bdp_td","Sun Apr 09 2023 18:25:59 GMT-0400 (Eastern Daylight Time)","110186","","null","","","","FIX","","<div class='trialBorder'><div class='vertical-center'><img style='vertical-align:center; align:center' src=img/fixation3.jpg></div></div>","null","","","","","","",""
"html-keyboard-response","83","108933","0.0-5.0-2.26","6400dc45648545e7ca8f35a6","bdp_td","Sun Apr 09 2023 18:25:59 GMT-0400 (Eastern Daylight Time)","110186","","1727","","","","offer","","<div class='trialBorder'><div class='vertical-center'><img style='vertical-align:center; align:center' src=img/fixation3.jpg></div><div class='cl'><div class='vertical-center'>$14<br><br>now</div></div><div class='cr'><div class='vertical-center'>$25<br>in<br>3 weeks</div></div><div class='respDivL'><div class='vertical-center'>(E)</div></div><div class='respDivR'><div class='vertical-center'>(I)</div></div></div>","I","$14<br><br>now","$25<br>in<br>3 weeks","0","14","25","3","THEN"
"html-keyboard-response","84","109184","0.0-5.0-3.26","6400dc45648545e7ca8f35a6","bdp_td","Sun Apr 09 2023 18:25:59 GMT-0400 (Eastern Daylight Time)","110186","","null","","","","offerFB","","<div class='trialBorder'><div class='vertical-center'><img style='vertical-align:center; align:center' src=img/fixation3.jpg></div><div class='cl'><div class='vertical-center'>$14<br><br>now</div></div><div class='cr'><div class='vertical-center'><font style='color:orange'>$25<br>in<br>3 weeks</font></div></div><div class='respDivL'><div class='vertical-center'>(E)</div></div><div class='respDivR'><div class='vertical-center'><font style='color:orange'>(I)</font></div></div></div>","null","$14<br><br>now","$25<br>in<br>3 weeks","0","14","25","3",""
"","","","","6400dc45648545e7ca8f35a6","bdp_td","Sun Apr 09 2023 18:25:59 GMT-0400 (Eastern Daylight Time)","110186","","","fullscreenexit","85","109198","fullscreenexit","","","","","","","","","",""
"fullscreen","85","110186","0.0-6.0","6400dc45648545e7ca8f35a6","bdp_td","Sun Apr 09 2023 18:25:59 GMT-0400 (Eastern Daylight Time)","110186","","","","","","","true","","","","","","","","",""
"html-keyboard-response","86","110687","0.0-7.0","","","","","","null","","","","","","","null","","","","","","",""
