"trial_type","trial_index","time_elapsed","internal_node_id","subject_id","task","startTime","totalTime","view_history","rt","event","trial","time","trialtype","success","stimulus","key_press","nowOffer","thenOffer","thenLeft","nowAmt","thenAmt","thenWeeks","chosen"
"pavlovia","0","4","0.0-0.0","63f796a016e377d12cff50f1","bdp_td","Sat Mar 25 2023 19:29:44 GMT-0500 (Central Daylight Time)","199753","","","","","","","","","","","","","","","",""
"instructions","1","3250","0.0-1.0","63f796a016e377d12cff50f1","bdp_td","Sat Mar 25 2023 19:29:44 GMT-0500 (Central Daylight Time)","199753","[{""page_index"":0,""viewing_time"":3245}]","3245","","","","","","","","","","","","","",""
"","","","","63f796a016e377d12cff50f1","bdp_td","Sat Mar 25 2023 19:29:44 GMT-0500 (Central Daylight Time)","199753","","","fullscreenenter","2","49899","fullscreenenter","","","","","","","","","",""
"fullscreen","2","50887","0.0-2.0","63f796a016e377d12cff50f1","bdp_td","Sat Mar 25 2023 19:29:44 GMT-0500 (Central Daylight Time)","199753","","","","","","","true","","","","","","","","",""
"instructions","3","108316","0.0-4.0","63f796a016e377d12cff50f1","bdp_td","Sat Mar 25 2023 19:29:44 GMT-0500 (Central Daylight Time)","199753","[{""page_index"":0,""viewing_time"":11984},{""page_index"":1,""viewing_time"":23058},{""page_index"":2,""viewing_time"":22385}]","57427","","","","","","","","","","","","","",""
"html-keyboard-response","4","108821","0.0-5.0-1.0","63f796a016e377d12cff50f1","bdp_td","Sat Mar 25 2023 19:29:44 GMT-0500 (Central Daylight Time)","199753","","null","","","","FIX","","<div class='trialBorder'><div class='vertical-center'><img style='vertical-align:center; align:center' src=img/fixation3.jpg></div></div>","null","","","","","","",""
"html-keyboard-response","5","112862","0.0-5.0-2.0","63f796a016e377d12cff50f1","bdp_td","Sat Mar 25 2023 19:29:44 GMT-0500 (Central Daylight Time)","199753","","4039","","","","offer","","<div class='trialBorder'><div class='vertical-center'><img style='vertical-align:center; align:center' src=img/fixation3.jpg></div><div class='cl'><div class='vertical-center'>$25<br><br>now</div></div><div class='cr'><div class='vertical-center'>$60<br>in<br>3 weeks</div></div><div class='respDivL'><div class='vertical-center'>(E)</div></div><div class='respDivR'><div class='vertical-center'>(I)</div></div></div>","I","$25<br><br>now","$60<br>in<br>3 weeks","0","25","60","3","THEN"
"html-keyboard-response","6","113118","0.0-5.0-3.0","63f796a016e377d12cff50f1","bdp_td","Sat Mar 25 2023 19:29:44 GMT-0500 (Central Daylight Time)","199753","","null","","","","offerFB","","<div class='trialBorder'><div class='vertical-center'><img style='vertical-align:center; align:center' src=img/fixation3.jpg></div><div class='cl'><div class='vertical-center'>$25<br><br>now</div></div><div class='cr'><div class='vertical-center'><font style='color:orange'>$60<br>in<br>3 weeks</font></div></div><div class='respDivL'><div class='vertical-center'>(E)</div></div><div class='respDivR'><div class='vertical-center'><font style='color:orange'>(I)</font></div></div></div>","null","$25<br><br>now","$60<br>in<br>3 weeks","0","25","60","3",""
"html-keyboard-response","7","113628","0.0-5.0-1.1","63f796a016e377d12cff50f1","bdp_td","Sat Mar 25 2023 19:29:44 GMT-0500 (Central Daylight Time)","199753","","null","","","","FIX","","<div class='trialBorder'><div class='vertical-center'><img style='vertical-align:center; align:center' src=img/fixation3.jpg></div></div>","null","","","","","","",""
"html-keyboard-response","8","116485","0.0-5.0-2.1","63f796a016e377d12cff50f1","bdp_td","Sat Mar 25 2023 19:29:44 GMT-0500 (Central Daylight Time)","199753","","2855","","","","offer","","<div class='trialBorder'><div class='vertical-center'><img style='vertical-align:center; align:center' src=img/fixation3.jpg></div><div class='cl'><div class='vertical-center'>$54<br><br>now</div></div><div class='cr'><div class='vertical-center'>$60<br>in<br>12 weeks</div></div><div class='respDivL'><div class='vertical-center'>(E)</div></div><div class='respDivR'><div class='vertical-center'>(I)</div></div></div>","E","$54<br><br>now","$60<br>in<br>12 weeks","0","54","60","12","NOW"
"html-keyboard-response","9","116742","0.0-5.0-3.1","63f796a016e377d12cff50f1","bdp_td","Sat Mar 25 2023 19:29:44 GMT-0500 (Central Daylight Time)","199753","","null","","","","offerFB","","<div class='trialBorder'><div class='vertical-center'><img style='vertical-align:center; align:center' src=img/fixation3.jpg></div><div class='cl'><div class='vertical-center'><font style='color:orange'>$54<br><br>now</font></div></div><div class='cr'><div class='vertical-center'>$60<br>in<br>12 weeks</div></div><div class='respDivL'><div class='vertical-center'><font style='color:orange'>(E)</font></div></div><div class='respDivR'><div class='vertical-center'>(I)</div></div></div>","null","$54<br><br>now","$60<br>in<br>12 weeks","0","54","60","12",""
"html-keyboard-response","10","117250","0.0-5.0-1.2","63f796a016e377d12cff50f1","bdp_td","Sat Mar 25 2023 19:29:44 GMT-0500 (Central Daylight Time)","199753","","null","","","","FIX","","<div class='trialBorder'><div class='vertical-center'><img style='vertical-align:center; align:center' src=img/fixation3.jpg></div></div>","null","","","","","","",""
"html-keyboard-response","11","119719","0.0-5.0-2.2","63f796a016e377d12cff50f1","bdp_td","Sat Mar 25 2023 19:29:44 GMT-0500 (Central Daylight Time)","199753","","2467","","","","offer","","<div class='trialBorder'><div class='vertical-center'><img style='vertical-align:center; align:center' src=img/fixation3.jpg></div><div class='cl'><div class='vertical-center'>$11<br><br>now</div></div><div class='cr'><div class='vertical-center'>$30<br>in<br>2 weeks</div></div><div class='respDivL'><div class='vertical-center'>(E)</div></div><div class='respDivR'><div class='vertical-center'>(I)</div></div></div>","I","$11<br><br>now","$30<br>in<br>2 weeks","0","11","30","2","THEN"
"html-keyboard-response","12","119981","0.0-5.0-3.2","63f796a016e377d12cff50f1","bdp_td","Sat Mar 25 2023 19:29:44 GMT-0500 (Central Daylight Time)","199753","","null","","","","offerFB","","<div class='trialBorder'><div class='vertical-center'><img style='vertical-align:center; align:center' src=img/fixation3.jpg></div><div class='cl'><div class='vertical-center'>$11<br><br>now</div></div><div class='cr'><div class='vertical-center'><font style='color:orange'>$30<br>in<br>2 weeks</font></div></div><div class='respDivL'><div class='vertical-center'>(E)</div></div><div class='respDivR'><div class='vertical-center'><font style='color:orange'>(I)</font></div></div></div>","null","$11<br><br>now","$30<br>in<br>2 weeks","0","11","30","2",""
"html-keyboard-response","13","120487","0.0-5.0-1.3","63f796a016e377d12cff50f1","bdp_td","Sat Mar 25 2023 19:29:44 GMT-0500 (Central Daylight Time)","199753","","null","","","","FIX","","<div class='trialBorder'><div class='vertical-center'><img style='vertical-align:center; align:center' src=img/fixation3.jpg></div></div>","null","","","","","","",""
"html-keyboard-response","14","122658","0.0-5.0-2.3","63f796a016e377d12cff50f1","bdp_td","Sat Mar 25 2023 19:29:44 GMT-0500 (Central Daylight Time)","199753","","2170","","","","offer","","<div class='trialBorder'><div class='vertical-center'><img style='vertical-align:center; align:center' src=img/fixation3.jpg></div><div class='cl'><div class='vertical-center'>$41<br><br>now</div></div><div class='cr'><div class='vertical-center'>$75<br>in<br>3 weeks</div></div><div class='respDivL'><div class='vertical-center'>(E)</div></div><div class='respDivR'><div class='vertical-center'>(I)</div></div></div>","I","$41<br><br>now","$75<br>in<br>3 weeks","0","41","75","3","THEN"
"html-keyboard-response","15","122913","0.0-5.0-3.3","63f796a016e377d12cff50f1","bdp_td","Sat Mar 25 2023 19:29:44 GMT-0500 (Central Daylight Time)","199753","","null","","","","offerFB","","<div class='trialBorder'><div class='vertical-center'><img style='vertical-align:center; align:center' src=img/fixation3.jpg></div><div class='cl'><div class='vertical-center'>$41<br><br>now</div></div><div class='cr'><div class='vertical-center'><font style='color:orange'>$75<br>in<br>3 weeks</font></div></div><div class='respDivL'><div class='vertical-center'>(E)</div></div><div class='respDivR'><div class='vertical-center'><font style='color:orange'>(I)</font></div></div></div>","null","$41<br><br>now","$75<br>in<br>3 weeks","0","41","75","3",""
"html-keyboard-response","16","123415","0.0-5.0-1.4","63f796a016e377d12cff50f1","bdp_td","Sat Mar 25 2023 19:29:44 GMT-0500 (Central Daylight Time)","199753","","null","","","","FIX","","<div class='trialBorder'><div class='vertical-center'><img style='vertical-align:center; align:center' src=img/fixation3.jpg></div></div>","null","","","","","","",""
"html-keyboard-response","17","125985","0.0-5.0-2.4","63f796a016e377d12cff50f1","bdp_td","Sat Mar 25 2023 19:29:44 GMT-0500 (Central Daylight Time)","199753","","2568","","","","offer","","<div class='trialBorder'><div class='vertical-center'><img style='vertical-align:center; align:center' src=img/fixation3.jpg></div><div class='cl'><div class='vertical-center'>$34<br><br>now</div></div><div class='cr'><div class='vertical-center'>$50<br>in<br>6 weeks</div></div><div class='respDivL'><div class='vertical-center'>(E)</div></div><div class='respDivR'><div class='vertical-center'>(I)</div></div></div>","E","$34<br><br>now","$50<br>in<br>6 weeks","0","34","50","6","NOW"
"html-keyboard-response","18","126239","0.0-5.0-3.4","63f796a016e377d12cff50f1","bdp_td","Sat Mar 25 2023 19:29:44 GMT-0500 (Central Daylight Time)","199753","","null","","","","offerFB","","<div class='trialBorder'><div class='vertical-center'><img style='vertical-align:center; align:center' src=img/fixation3.jpg></div><div class='cl'><div class='vertical-center'><font style='color:orange'>$34<br><br>now</font></div></div><div class='cr'><div class='vertical-center'>$50<br>in<br>6 weeks</div></div><div class='respDivL'><div class='vertical-center'><font style='color:orange'>(E)</font></div></div><div class='respDivR'><div class='vertical-center'>(I)</div></div></div>","null","$34<br><br>now","$50<br>in<br>6 weeks","0","34","50","6",""
"html-keyboard-response","19","126743","0.0-5.0-1.5","63f796a016e377d12cff50f1","bdp_td","Sat Mar 25 2023 19:29:44 GMT-0500 (Central Daylight Time)","199753","","null","","","","FIX","","<div class='trialBorder'><div class='vertical-center'><img style='vertical-align:center; align:center' src=img/fixation3.jpg></div></div>","null","","","","","","",""
"html-keyboard-response","20","128744","0.0-5.0-2.5","63f796a016e377d12cff50f1","bdp_td","Sat Mar 25 2023 19:29:44 GMT-0500 (Central Daylight Time)","199753","","2000","","","","offer","","<div class='trialBorder'><div class='vertical-center'><img style='vertical-align:center; align:center' src=img/fixation3.jpg></div><div class='cl'><div class='vertical-center'>$78<br><br>now</div></div><div class='cr'><div class='vertical-center'>$80<br>in<br>12 weeks</div></div><div class='respDivL'><div class='vertical-center'>(E)</div></div><div class='respDivR'><div class='vertical-center'>(I)</div></div></div>","E","$78<br><br>now","$80<br>in<br>12 weeks","0","78","80","12","NOW"
"html-keyboard-response","21","128999","0.0-5.0-3.5","63f796a016e377d12cff50f1","bdp_td","Sat Mar 25 2023 19:29:44 GMT-0500 (Central Daylight Time)","199753","","null","","","","offerFB","","<div class='trialBorder'><div class='vertical-center'><img style='vertical-align:center; align:center' src=img/fixation3.jpg></div><div class='cl'><div class='vertical-center'><font style='color:orange'>$78<br><br>now</font></div></div><div class='cr'><div class='vertical-center'>$80<br>in<br>12 weeks</div></div><div class='respDivL'><div class='vertical-center'><font style='color:orange'>(E)</font></div></div><div class='respDivR'><div class='vertical-center'>(I)</div></div></div>","null","$78<br><br>now","$80<br>in<br>12 weeks","0","78","80","12",""
"html-keyboard-response","22","129506","0.0-5.0-1.6","63f796a016e377d12cff50f1","bdp_td","Sat Mar 25 2023 19:29:44 GMT-0500 (Central Daylight Time)","199753","","null","","","","FIX","","<div class='trialBorder'><div class='vertical-center'><img style='vertical-align:center; align:center' src=img/fixation3.jpg></div></div>","null","","","","","","",""
"html-keyboard-response","23","132844","0.0-5.0-2.6","63f796a016e377d12cff50f1","bdp_td","Sat Mar 25 2023 19:29:44 GMT-0500 (Central Daylight Time)","199753","","3337","","","","offer","","<div class='trialBorder'><div class='vertical-center'><img style='vertical-align:center; align:center' src=img/fixation3.jpg></div><div class='cl'><div class='vertical-center'>$55<br>in<br>6 weeks</div></div><div class='cr'><div class='vertical-center'>$40<br><br>now</div></div><div class='respDivL'><div class='vertical-center'>(E)</div></div><div class='respDivR'><div class='vertical-center'>(I)</div></div></div>","I","$40<br><br>now","$55<br>in<br>6 weeks","1","40","55","6","NOW"
"html-keyboard-response","24","133102","0.0-5.0-3.6","63f796a016e377d12cff50f1","bdp_td","Sat Mar 25 2023 19:29:44 GMT-0500 (Central Daylight Time)","199753","","null","","","","offerFB","","<div class='trialBorder'><div class='vertical-center'><img style='vertical-align:center; align:center' src=img/fixation3.jpg></div><div class='cl'><div class='vertical-center'>$55<br>in<br>6 weeks</div></div><div class='cr'><div class='vertical-center'><font style='color:orange'>$40<br><br>now</font></div></div><div class='respDivL'><div class='vertical-center'>(E)</div></div><div class='respDivR'><div class='vertical-center'><font style='color:orange'>(I)</font></div></div></div>","null","$40<br><br>now","$55<br>in<br>6 weeks","1","40","55","6",""
"html-keyboard-response","25","133611","0.0-5.0-1.7","63f796a016e377d12cff50f1","bdp_td","Sat Mar 25 2023 19:29:44 GMT-0500 (Central Daylight Time)","199753","","null","","","","FIX","","<div class='trialBorder'><div class='vertical-center'><img style='vertical-align:center; align:center' src=img/fixation3.jpg></div></div>","null","","","","","","",""
"html-keyboard-response","26","135183","0.0-5.0-2.7","63f796a016e377d12cff50f1","bdp_td","Sat Mar 25 2023 19:29:44 GMT-0500 (Central Daylight Time)","199753","","1570","","","","offer","","<div class='trialBorder'><div class='vertical-center'><img style='vertical-align:center; align:center' src=img/fixation3.jpg></div><div class='cl'><div class='vertical-center'>$47<br><br>now</div></div><div class='cr'><div class='vertical-center'>$50<br>in<br>12 weeks</div></div><div class='respDivL'><div class='vertical-center'>(E)</div></div><div class='respDivR'><div class='vertical-center'>(I)</div></div></div>","E","$47<br><br>now","$50<br>in<br>12 weeks","0","47","50","12","NOW"
"html-keyboard-response","27","135440","0.0-5.0-3.7","63f796a016e377d12cff50f1","bdp_td","Sat Mar 25 2023 19:29:44 GMT-0500 (Central Daylight Time)","199753","","null","","","","offerFB","","<div class='trialBorder'><div class='vertical-center'><img style='vertical-align:center; align:center' src=img/fixation3.jpg></div><div class='cl'><div class='vertical-center'><font style='color:orange'>$47<br><br>now</font></div></div><div class='cr'><div class='vertical-center'>$50<br>in<br>12 weeks</div></div><div class='respDivL'><div class='vertical-center'><font style='color:orange'>(E)</font></div></div><div class='respDivR'><div class='vertical-center'>(I)</div></div></div>","null","$47<br><br>now","$50<br>in<br>12 weeks","0","47","50","12",""
"html-keyboard-response","28","135947","0.0-5.0-1.8","63f796a016e377d12cff50f1","bdp_td","Sat Mar 25 2023 19:29:44 GMT-0500 (Central Daylight Time)","199753","","null","","","","FIX","","<div class='trialBorder'><div class='vertical-center'><img style='vertical-align:center; align:center' src=img/fixation3.jpg></div></div>","null","","","","","","",""
"html-keyboard-response","29","139034","0.0-5.0-2.8","63f796a016e377d12cff50f1","bdp_td","Sat Mar 25 2023 19:29:44 GMT-0500 (Central Daylight Time)","199753","","3084","","","","offer","","<div class='trialBorder'><div class='vertical-center'><img style='vertical-align:center; align:center' src=img/fixation3.jpg></div><div class='cl'><div class='vertical-center'>$24<br><br>now</div></div><div class='cr'><div class='vertical-center'>$35<br>in<br>3 weeks</div></div><div class='respDivL'><div class='vertical-center'>(E)</div></div><div class='respDivR'><div class='vertical-center'>(I)</div></div></div>","E","$24<br><br>now","$35<br>in<br>3 weeks","0","24","35","3","NOW"
"html-keyboard-response","30","139294","0.0-5.0-3.8","63f796a016e377d12cff50f1","bdp_td","Sat Mar 25 2023 19:29:44 GMT-0500 (Central Daylight Time)","199753","","null","","","","offerFB","","<div class='trialBorder'><div class='vertical-center'><img style='vertical-align:center; align:center' src=img/fixation3.jpg></div><div class='cl'><div class='vertical-center'><font style='color:orange'>$24<br><br>now</font></div></div><div class='cr'><div class='vertical-center'>$35<br>in<br>3 weeks</div></div><div class='respDivL'><div class='vertical-center'><font style='color:orange'>(E)</font></div></div><div class='respDivR'><div class='vertical-center'>(I)</div></div></div>","null","$24<br><br>now","$35<br>in<br>3 weeks","0","24","35","3",""
"html-keyboard-response","31","139798","0.0-5.0-1.9","63f796a016e377d12cff50f1","bdp_td","Sat Mar 25 2023 19:29:44 GMT-0500 (Central Daylight Time)","199753","","null","","","","FIX","","<div class='trialBorder'><div class='vertical-center'><img style='vertical-align:center; align:center' src=img/fixation3.jpg></div></div>","null","","","","","","",""
"html-keyboard-response","32","141917","0.0-5.0-2.9","63f796a016e377d12cff50f1","bdp_td","Sat Mar 25 2023 19:29:44 GMT-0500 (Central Daylight Time)","199753","","2116","","","","offer","","<div class='trialBorder'><div class='vertical-center'><img style='vertical-align:center; align:center' src=img/fixation3.jpg></div><div class='cl'><div class='vertical-center'>$85<br>in<br>1 week</div></div><div class='cr'><div class='vertical-center'>$31<br><br>now</div></div><div class='respDivL'><div class='vertical-center'>(E)</div></div><div class='respDivR'><div class='vertical-center'>(I)</div></div></div>","E","$31<br><br>now","$85<br>in<br>1 week","1","31","85","1","THEN"
"html-keyboard-response","33","142177","0.0-5.0-3.9","63f796a016e377d12cff50f1","bdp_td","Sat Mar 25 2023 19:29:44 GMT-0500 (Central Daylight Time)","199753","","null","","","","offerFB","","<div class='trialBorder'><div class='vertical-center'><img style='vertical-align:center; align:center' src=img/fixation3.jpg></div><div class='cl'><div class='vertical-center'><font style='color:orange'>$85<br>in<br>1 week</font></div></div><div class='cr'><div class='vertical-center'>$31<br><br>now</div></div><div class='respDivL'><div class='vertical-center'><font style='color:orange'>(E)</font></div></div><div class='respDivR'><div class='vertical-center'>(I)</div></div></div>","null","$31<br><br>now","$85<br>in<br>1 week","1","31","85","1",""
"html-keyboard-response","34","142683","0.0-5.0-1.10","63f796a016e377d12cff50f1","bdp_td","Sat Mar 25 2023 19:29:44 GMT-0500 (Central Daylight Time)","199753","","null","","","","FIX","","<div class='trialBorder'><div class='vertical-center'><img style='vertical-align:center; align:center' src=img/fixation3.jpg></div></div>","null","","","","","","",""
"html-keyboard-response","35","145716","0.0-5.0-2.10","63f796a016e377d12cff50f1","bdp_td","Sat Mar 25 2023 19:29:44 GMT-0500 (Central Daylight Time)","199753","","3032","","","","offer","","<div class='trialBorder'><div class='vertical-center'><img style='vertical-align:center; align:center' src=img/fixation3.jpg></div><div class='cl'><div class='vertical-center'>$30<br>in<br>12 weeks</div></div><div class='cr'><div class='vertical-center'>$28<br><br>now</div></div><div class='respDivL'><div class='vertical-center'>(E)</div></div><div class='respDivR'><div class='vertical-center'>(I)</div></div></div>","I","$28<br><br>now","$30<br>in<br>12 weeks","1","28","30","12","NOW"
"html-keyboard-response","36","145970","0.0-5.0-3.10","63f796a016e377d12cff50f1","bdp_td","Sat Mar 25 2023 19:29:44 GMT-0500 (Central Daylight Time)","199753","","null","","","","offerFB","","<div class='trialBorder'><div class='vertical-center'><img style='vertical-align:center; align:center' src=img/fixation3.jpg></div><div class='cl'><div class='vertical-center'>$30<br>in<br>12 weeks</div></div><div class='cr'><div class='vertical-center'><font style='color:orange'>$28<br><br>now</font></div></div><div class='respDivL'><div class='vertical-center'>(E)</div></div><div class='respDivR'><div class='vertical-center'><font style='color:orange'>(I)</font></div></div></div>","null","$28<br><br>now","$30<br>in<br>12 weeks","1","28","30","12",""
"html-keyboard-response","37","146474","0.0-5.0-1.11","63f796a016e377d12cff50f1","bdp_td","Sat Mar 25 2023 19:29:44 GMT-0500 (Central Daylight Time)","199753","","null","","","","FIX","","<div class='trialBorder'><div class='vertical-center'><img style='vertical-align:center; align:center' src=img/fixation3.jpg></div></div>","null","","","","","","",""
"html-keyboard-response","38","149130","0.0-5.0-2.11","63f796a016e377d12cff50f1","bdp_td","Sat Mar 25 2023 19:29:44 GMT-0500 (Central Daylight Time)","199753","","2655","","","","offer","","<div class='trialBorder'><div class='vertical-center'><img style='vertical-align:center; align:center' src=img/fixation3.jpg></div><div class='cl'><div class='vertical-center'>$54<br><br>now</div></div><div class='cr'><div class='vertical-center'>$80<br>in<br>3 weeks</div></div><div class='respDivL'><div class='vertical-center'>(E)</div></div><div class='respDivR'><div class='vertical-center'>(I)</div></div></div>","I","$54<br><br>now","$80<br>in<br>3 weeks","0","54","80","3","THEN"
"html-keyboard-response","39","149387","0.0-5.0-3.11","63f796a016e377d12cff50f1","bdp_td","Sat Mar 25 2023 19:29:44 GMT-0500 (Central Daylight Time)","199753","","null","","","","offerFB","","<div class='trialBorder'><div class='vertical-center'><img style='vertical-align:center; align:center' src=img/fixation3.jpg></div><div class='cl'><div class='vertical-center'>$54<br><br>now</div></div><div class='cr'><div class='vertical-center'><font style='color:orange'>$80<br>in<br>3 weeks</font></div></div><div class='respDivL'><div class='vertical-center'>(E)</div></div><div class='respDivR'><div class='vertical-center'><font style='color:orange'>(I)</font></div></div></div>","null","$54<br><br>now","$80<br>in<br>3 weeks","0","54","80","3",""
"html-keyboard-response","40","149890","0.0-5.0-1.12","63f796a016e377d12cff50f1","bdp_td","Sat Mar 25 2023 19:29:44 GMT-0500 (Central Daylight Time)","199753","","null","","","","FIX","","<div class='trialBorder'><div class='vertical-center'><img style='vertical-align:center; align:center' src=img/fixation3.jpg></div></div>","null","","","","","","",""
"html-keyboard-response","41","153882","0.0-5.0-2.12","63f796a016e377d12cff50f1","bdp_td","Sat Mar 25 2023 19:29:44 GMT-0500 (Central Daylight Time)","199753","","3990","","","","offer","","<div class='trialBorder'><div class='vertical-center'><img style='vertical-align:center; align:center' src=img/fixation3.jpg></div><div class='cl'><div class='vertical-center'>$69<br><br>now</div></div><div class='cr'><div class='vertical-center'>$85<br>in<br>6 weeks</div></div><div class='respDivL'><div class='vertical-center'>(E)</div></div><div class='respDivR'><div class='vertical-center'>(I)</div></div></div>","E","$69<br><br>now","$85<br>in<br>6 weeks","0","69","85","6","NOW"
"html-keyboard-response","42","154139","0.0-5.0-3.12","63f796a016e377d12cff50f1","bdp_td","Sat Mar 25 2023 19:29:44 GMT-0500 (Central Daylight Time)","199753","","null","","","","offerFB","","<div class='trialBorder'><div class='vertical-center'><img style='vertical-align:center; align:center' src=img/fixation3.jpg></div><div class='cl'><div class='vertical-center'><font style='color:orange'>$69<br><br>now</font></div></div><div class='cr'><div class='vertical-center'>$85<br>in<br>6 weeks</div></div><div class='respDivL'><div class='vertical-center'><font style='color:orange'>(E)</font></div></div><div class='respDivR'><div class='vertical-center'>(I)</div></div></div>","null","$69<br><br>now","$85<br>in<br>6 weeks","0","69","85","6",""
"html-keyboard-response","43","154653","0.0-5.0-1.13","63f796a016e377d12cff50f1","bdp_td","Sat Mar 25 2023 19:29:44 GMT-0500 (Central Daylight Time)","199753","","null","","","","FIX","","<div class='trialBorder'><div class='vertical-center'><img style='vertical-align:center; align:center' src=img/fixation3.jpg></div></div>","null","","","","","","",""
"html-keyboard-response","44","157024","0.0-5.0-2.13","63f796a016e377d12cff50f1","bdp_td","Sat Mar 25 2023 19:29:44 GMT-0500 (Central Daylight Time)","199753","","2370","","","","offer","","<div class='trialBorder'><div class='vertical-center'><img style='vertical-align:center; align:center' src=img/fixation3.jpg></div><div class='cl'><div class='vertical-center'>$60<br>in<br>6 weeks</div></div><div class='cr'><div class='vertical-center'>$49<br><br>now</div></div><div class='respDivL'><div class='vertical-center'>(E)</div></div><div class='respDivR'><div class='vertical-center'>(I)</div></div></div>","I","$49<br><br>now","$60<br>in<br>6 weeks","1","49","60","6","NOW"
"html-keyboard-response","45","157280","0.0-5.0-3.13","63f796a016e377d12cff50f1","bdp_td","Sat Mar 25 2023 19:29:44 GMT-0500 (Central Daylight Time)","199753","","null","","","","offerFB","","<div class='trialBorder'><div class='vertical-center'><img style='vertical-align:center; align:center' src=img/fixation3.jpg></div><div class='cl'><div class='vertical-center'>$60<br>in<br>6 weeks</div></div><div class='cr'><div class='vertical-center'><font style='color:orange'>$49<br><br>now</font></div></div><div class='respDivL'><div class='vertical-center'>(E)</div></div><div class='respDivR'><div class='vertical-center'><font style='color:orange'>(I)</font></div></div></div>","null","$49<br><br>now","$60<br>in<br>6 weeks","1","49","60","6",""
"html-keyboard-response","46","157785","0.0-5.0-1.14","63f796a016e377d12cff50f1","bdp_td","Sat Mar 25 2023 19:29:44 GMT-0500 (Central Daylight Time)","199753","","null","","","","FIX","","<div class='trialBorder'><div class='vertical-center'><img style='vertical-align:center; align:center' src=img/fixation3.jpg></div></div>","null","","","","","","",""
"html-keyboard-response","47","160513","0.0-5.0-2.14","63f796a016e377d12cff50f1","bdp_td","Sat Mar 25 2023 19:29:44 GMT-0500 (Central Daylight Time)","199753","","2726","","","","offer","","<div class='trialBorder'><div class='vertical-center'><img style='vertical-align:center; align:center' src=img/fixation3.jpg></div><div class='cl'><div class='vertical-center'>$25<br>in<br>6 weeks</div></div><div class='cr'><div class='vertical-center'>$19<br><br>now</div></div><div class='respDivL'><div class='vertical-center'>(E)</div></div><div class='respDivR'><div class='vertical-center'>(I)</div></div></div>","I","$19<br><br>now","$25<br>in<br>6 weeks","1","19","25","6","NOW"
"html-keyboard-response","48","160771","0.0-5.0-3.14","63f796a016e377d12cff50f1","bdp_td","Sat Mar 25 2023 19:29:44 GMT-0500 (Central Daylight Time)","199753","","null","","","","offerFB","","<div class='trialBorder'><div class='vertical-center'><img style='vertical-align:center; align:center' src=img/fixation3.jpg></div><div class='cl'><div class='vertical-center'>$25<br>in<br>6 weeks</div></div><div class='cr'><div class='vertical-center'><font style='color:orange'>$19<br><br>now</font></div></div><div class='respDivL'><div class='vertical-center'>(E)</div></div><div class='respDivR'><div class='vertical-center'><font style='color:orange'>(I)</font></div></div></div>","null","$19<br><br>now","$25<br>in<br>6 weeks","1","19","25","6",""
"html-keyboard-response","49","161274","0.0-5.0-1.15","63f796a016e377d12cff50f1","bdp_td","Sat Mar 25 2023 19:29:44 GMT-0500 (Central Daylight Time)","199753","","null","","","","FIX","","<div class='trialBorder'><div class='vertical-center'><img style='vertical-align:center; align:center' src=img/fixation3.jpg></div></div>","null","","","","","","",""
"html-keyboard-response","50","163670","0.0-5.0-2.15","63f796a016e377d12cff50f1","bdp_td","Sat Mar 25 2023 19:29:44 GMT-0500 (Central Daylight Time)","199753","","2395","","","","offer","","<div class='trialBorder'><div class='vertical-center'><img style='vertical-align:center; align:center' src=img/fixation3.jpg></div><div class='cl'><div class='vertical-center'>$50<br>in<br>3 weeks</div></div><div class='cr'><div class='vertical-center'>$27<br><br>now</div></div><div class='respDivL'><div class='vertical-center'>(E)</div></div><div class='respDivR'><div class='vertical-center'>(I)</div></div></div>","E","$27<br><br>now","$50<br>in<br>3 weeks","1","27","50","3","THEN"
"html-keyboard-response","51","163929","0.0-5.0-3.15","63f796a016e377d12cff50f1","bdp_td","Sat Mar 25 2023 19:29:44 GMT-0500 (Central Daylight Time)","199753","","null","","","","offerFB","","<div class='trialBorder'><div class='vertical-center'><img style='vertical-align:center; align:center' src=img/fixation3.jpg></div><div class='cl'><div class='vertical-center'><font style='color:orange'>$50<br>in<br>3 weeks</font></div></div><div class='cr'><div class='vertical-center'>$27<br><br>now</div></div><div class='respDivL'><div class='vertical-center'><font style='color:orange'>(E)</font></div></div><div class='respDivR'><div class='vertical-center'>(I)</div></div></div>","null","$27<br><br>now","$50<br>in<br>3 weeks","1","27","50","3",""
"html-keyboard-response","52","164441","0.0-5.0-1.16","63f796a016e377d12cff50f1","bdp_td","Sat Mar 25 2023 19:29:44 GMT-0500 (Central Daylight Time)","199753","","null","","","","FIX","","<div class='trialBorder'><div class='vertical-center'><img style='vertical-align:center; align:center' src=img/fixation3.jpg></div></div>","null","","","","","","",""
"html-keyboard-response","53","167398","0.0-5.0-2.16","63f796a016e377d12cff50f1","bdp_td","Sat Mar 25 2023 19:29:44 GMT-0500 (Central Daylight Time)","199753","","2955","","","","offer","","<div class='trialBorder'><div class='vertical-center'><img style='vertical-align:center; align:center' src=img/fixation3.jpg></div><div class='cl'><div class='vertical-center'>$34<br><br>now</div></div><div class='cr'><div class='vertical-center'>$35<br>in<br>12 weeks</div></div><div class='respDivL'><div class='vertical-center'>(E)</div></div><div class='respDivR'><div class='vertical-center'>(I)</div></div></div>","E","$34<br><br>now","$35<br>in<br>12 weeks","0","34","35","12","NOW"
"html-keyboard-response","54","167658","0.0-5.0-3.16","63f796a016e377d12cff50f1","bdp_td","Sat Mar 25 2023 19:29:44 GMT-0500 (Central Daylight Time)","199753","","null","","","","offerFB","","<div class='trialBorder'><div class='vertical-center'><img style='vertical-align:center; align:center' src=img/fixation3.jpg></div><div class='cl'><div class='vertical-center'><font style='color:orange'>$34<br><br>now</font></div></div><div class='cr'><div class='vertical-center'>$35<br>in<br>12 weeks</div></div><div class='respDivL'><div class='vertical-center'><font style='color:orange'>(E)</font></div></div><div class='respDivR'><div class='vertical-center'>(I)</div></div></div>","null","$34<br><br>now","$35<br>in<br>12 weeks","0","34","35","12",""
"html-keyboard-response","55","168161","0.0-5.0-1.17","63f796a016e377d12cff50f1","bdp_td","Sat Mar 25 2023 19:29:44 GMT-0500 (Central Daylight Time)","199753","","null","","","","FIX","","<div class='trialBorder'><div class='vertical-center'><img style='vertical-align:center; align:center' src=img/fixation3.jpg></div></div>","null","","","","","","",""
"html-keyboard-response","56","170228","0.0-5.0-2.17","63f796a016e377d12cff50f1","bdp_td","Sat Mar 25 2023 19:29:44 GMT-0500 (Central Daylight Time)","199753","","2065","","","","offer","","<div class='trialBorder'><div class='vertical-center'><img style='vertical-align:center; align:center' src=img/fixation3.jpg></div><div class='cl'><div class='vertical-center'>$30<br>in<br>6 weeks</div></div><div class='cr'><div class='vertical-center'>$25<br><br>now</div></div><div class='respDivL'><div class='vertical-center'>(E)</div></div><div class='respDivR'><div class='vertical-center'>(I)</div></div></div>","I","$25<br><br>now","$30<br>in<br>6 weeks","1","25","30","6","NOW"
"html-keyboard-response","57","170486","0.0-5.0-3.17","63f796a016e377d12cff50f1","bdp_td","Sat Mar 25 2023 19:29:44 GMT-0500 (Central Daylight Time)","199753","","null","","","","offerFB","","<div class='trialBorder'><div class='vertical-center'><img style='vertical-align:center; align:center' src=img/fixation3.jpg></div><div class='cl'><div class='vertical-center'>$30<br>in<br>6 weeks</div></div><div class='cr'><div class='vertical-center'><font style='color:orange'>$25<br><br>now</font></div></div><div class='respDivL'><div class='vertical-center'>(E)</div></div><div class='respDivR'><div class='vertical-center'><font style='color:orange'>(I)</font></div></div></div>","null","$25<br><br>now","$30<br>in<br>6 weeks","1","25","30","6",""
"html-keyboard-response","58","170990","0.0-5.0-1.18","63f796a016e377d12cff50f1","bdp_td","Sat Mar 25 2023 19:29:44 GMT-0500 (Central Daylight Time)","199753","","null","","","","FIX","","<div class='trialBorder'><div class='vertical-center'><img style='vertical-align:center; align:center' src=img/fixation3.jpg></div></div>","null","","","","","","",""
"html-keyboard-response","59","173126","0.0-5.0-2.18","63f796a016e377d12cff50f1","bdp_td","Sat Mar 25 2023 19:29:44 GMT-0500 (Central Daylight Time)","199753","","2134","","","","offer","","<div class='trialBorder'><div class='vertical-center'><img style='vertical-align:center; align:center' src=img/fixation3.jpg></div><div class='cl'><div class='vertical-center'>$75<br>in<br>6 weeks</div></div><div class='cr'><div class='vertical-center'>$55<br><br>now</div></div><div class='respDivL'><div class='vertical-center'>(E)</div></div><div class='respDivR'><div class='vertical-center'>(I)</div></div></div>","I","$55<br><br>now","$75<br>in<br>6 weeks","1","55","75","6","NOW"
"html-keyboard-response","60","173388","0.0-5.0-3.18","63f796a016e377d12cff50f1","bdp_td","Sat Mar 25 2023 19:29:44 GMT-0500 (Central Daylight Time)","199753","","null","","","","offerFB","","<div class='trialBorder'><div class='vertical-center'><img style='vertical-align:center; align:center' src=img/fixation3.jpg></div><div class='cl'><div class='vertical-center'>$75<br>in<br>6 weeks</div></div><div class='cr'><div class='vertical-center'><font style='color:orange'>$55<br><br>now</font></div></div><div class='respDivL'><div class='vertical-center'>(E)</div></div><div class='respDivR'><div class='vertical-center'><font style='color:orange'>(I)</font></div></div></div>","null","$55<br><br>now","$75<br>in<br>6 weeks","1","55","75","6",""
"html-keyboard-response","61","173895","0.0-5.0-1.19","63f796a016e377d12cff50f1","bdp_td","Sat Mar 25 2023 19:29:44 GMT-0500 (Central Daylight Time)","199753","","null","","","","FIX","","<div class='trialBorder'><div class='vertical-center'><img style='vertical-align:center; align:center' src=img/fixation3.jpg></div></div>","null","","","","","","",""
"html-keyboard-response","62","176427","0.0-5.0-2.19","63f796a016e377d12cff50f1","bdp_td","Sat Mar 25 2023 19:29:44 GMT-0500 (Central Daylight Time)","199753","","2531","","","","offer","","<div class='trialBorder'><div class='vertical-center'><img style='vertical-align:center; align:center' src=img/fixation3.jpg></div><div class='cl'><div class='vertical-center'>$25<br>in<br>12 weeks</div></div><div class='cr'><div class='vertical-center'>$22<br><br>now</div></div><div class='respDivL'><div class='vertical-center'>(E)</div></div><div class='respDivR'><div class='vertical-center'>(I)</div></div></div>","I","$22<br><br>now","$25<br>in<br>12 weeks","1","22","25","12","NOW"
"html-keyboard-response","63","176680","0.0-5.0-3.19","63f796a016e377d12cff50f1","bdp_td","Sat Mar 25 2023 19:29:44 GMT-0500 (Central Daylight Time)","199753","","null","","","","offerFB","","<div class='trialBorder'><div class='vertical-center'><img style='vertical-align:center; align:center' src=img/fixation3.jpg></div><div class='cl'><div class='vertical-center'>$25<br>in<br>12 weeks</div></div><div class='cr'><div class='vertical-center'><font style='color:orange'>$22<br><br>now</font></div></div><div class='respDivL'><div class='vertical-center'>(E)</div></div><div class='respDivR'><div class='vertical-center'><font style='color:orange'>(I)</font></div></div></div>","null","$22<br><br>now","$25<br>in<br>12 weeks","1","22","25","12",""
"html-keyboard-response","64","177189","0.0-5.0-1.20","63f796a016e377d12cff50f1","bdp_td","Sat Mar 25 2023 19:29:44 GMT-0500 (Central Daylight Time)","199753","","null","","","","FIX","","<div class='trialBorder'><div class='vertical-center'><img style='vertical-align:center; align:center' src=img/fixation3.jpg></div></div>","null","","","","","","",""
"html-keyboard-response","65","179040","0.0-5.0-2.20","63f796a016e377d12cff50f1","bdp_td","Sat Mar 25 2023 19:29:44 GMT-0500 (Central Daylight Time)","199753","","1849","","","","offer","","<div class='trialBorder'><div class='vertical-center'><img style='vertical-align:center; align:center' src=img/fixation3.jpg></div><div class='cl'><div class='vertical-center'>$20<br><br>now</div></div><div class='cr'><div class='vertical-center'>$55<br>in<br>1 week</div></div><div class='respDivL'><div class='vertical-center'>(E)</div></div><div class='respDivR'><div class='vertical-center'>(I)</div></div></div>","I","$20<br><br>now","$55<br>in<br>1 week","0","20","55","1","THEN"
"html-keyboard-response","66","179295","0.0-5.0-3.20","63f796a016e377d12cff50f1","bdp_td","Sat Mar 25 2023 19:29:44 GMT-0500 (Central Daylight Time)","199753","","null","","","","offerFB","","<div class='trialBorder'><div class='vertical-center'><img style='vertical-align:center; align:center' src=img/fixation3.jpg></div><div class='cl'><div class='vertical-center'>$20<br><br>now</div></div><div class='cr'><div class='vertical-center'><font style='color:orange'>$55<br>in<br>1 week</font></div></div><div class='respDivL'><div class='vertical-center'>(E)</div></div><div class='respDivR'><div class='vertical-center'><font style='color:orange'>(I)</font></div></div></div>","null","$20<br><br>now","$55<br>in<br>1 week","0","20","55","1",""
"html-keyboard-response","67","179801","0.0-5.0-1.21","63f796a016e377d12cff50f1","bdp_td","Sat Mar 25 2023 19:29:44 GMT-0500 (Central Daylight Time)","199753","","null","","","","FIX","","<div class='trialBorder'><div class='vertical-center'><img style='vertical-align:center; align:center' src=img/fixation3.jpg></div></div>","null","","","","","","",""
"html-keyboard-response","68","181932","0.0-5.0-2.21","63f796a016e377d12cff50f1","bdp_td","Sat Mar 25 2023 19:29:44 GMT-0500 (Central Daylight Time)","199753","","2127","","","","offer","","<div class='trialBorder'><div class='vertical-center'><img style='vertical-align:center; align:center' src=img/fixation3.jpg></div><div class='cl'><div class='vertical-center'>$75<br>in<br>12 weeks</div></div><div class='cr'><div class='vertical-center'>$67<br><br>now</div></div><div class='respDivL'><div class='vertical-center'>(E)</div></div><div class='respDivR'><div class='vertical-center'>(I)</div></div></div>","I","$67<br><br>now","$75<br>in<br>12 weeks","1","67","75","12","NOW"
"html-keyboard-response","69","182185","0.0-5.0-3.21","63f796a016e377d12cff50f1","bdp_td","Sat Mar 25 2023 19:29:44 GMT-0500 (Central Daylight Time)","199753","","null","","","","offerFB","","<div class='trialBorder'><div class='vertical-center'><img style='vertical-align:center; align:center' src=img/fixation3.jpg></div><div class='cl'><div class='vertical-center'>$75<br>in<br>12 weeks</div></div><div class='cr'><div class='vertical-center'><font style='color:orange'>$67<br><br>now</font></div></div><div class='respDivL'><div class='vertical-center'>(E)</div></div><div class='respDivR'><div class='vertical-center'><font style='color:orange'>(I)</font></div></div></div>","null","$67<br><br>now","$75<br>in<br>12 weeks","1","67","75","12",""
"html-keyboard-response","70","182694","0.0-5.0-1.22","63f796a016e377d12cff50f1","bdp_td","Sat Mar 25 2023 19:29:44 GMT-0500 (Central Daylight Time)","199753","","null","","","","FIX","","<div class='trialBorder'><div class='vertical-center'><img style='vertical-align:center; align:center' src=img/fixation3.jpg></div></div>","null","","","","","","",""
"html-keyboard-response","71","185044","0.0-5.0-2.22","63f796a016e377d12cff50f1","bdp_td","Sat Mar 25 2023 19:29:44 GMT-0500 (Central Daylight Time)","199753","","2348","","","","offer","","<div class='trialBorder'><div class='vertical-center'><img style='vertical-align:center; align:center' src=img/fixation3.jpg></div><div class='cl'><div class='vertical-center'>$33<br><br>now</div></div><div class='cr'><div class='vertical-center'>$80<br>in<br>2 weeks</div></div><div class='respDivL'><div class='vertical-center'>(E)</div></div><div class='respDivR'><div class='vertical-center'>(I)</div></div></div>","I","$33<br><br>now","$80<br>in<br>2 weeks","0","33","80","2","THEN"
"html-keyboard-response","72","185299","0.0-5.0-3.22","63f796a016e377d12cff50f1","bdp_td","Sat Mar 25 2023 19:29:44 GMT-0500 (Central Daylight Time)","199753","","null","","","","offerFB","","<div class='trialBorder'><div class='vertical-center'><img style='vertical-align:center; align:center' src=img/fixation3.jpg></div><div class='cl'><div class='vertical-center'>$33<br><br>now</div></div><div class='cr'><div class='vertical-center'><font style='color:orange'>$80<br>in<br>2 weeks</font></div></div><div class='respDivL'><div class='vertical-center'>(E)</div></div><div class='respDivR'><div class='vertical-center'><font style='color:orange'>(I)</font></div></div></div>","null","$33<br><br>now","$80<br>in<br>2 weeks","0","33","80","2",""
"html-keyboard-response","73","185802","0.0-5.0-1.23","63f796a016e377d12cff50f1","bdp_td","Sat Mar 25 2023 19:29:44 GMT-0500 (Central Daylight Time)","199753","","null","","","","FIX","","<div class='trialBorder'><div class='vertical-center'><img style='vertical-align:center; align:center' src=img/fixation3.jpg></div></div>","null","","","","","","",""
"html-keyboard-response","74","188327","0.0-5.0-2.23","63f796a016e377d12cff50f1","bdp_td","Sat Mar 25 2023 19:29:44 GMT-0500 (Central Daylight Time)","199753","","2524","","","","offer","","<div class='trialBorder'><div class='vertical-center'><img style='vertical-align:center; align:center' src=img/fixation3.jpg></div><div class='cl'><div class='vertical-center'>$35<br>in<br>2 weeks</div></div><div class='cr'><div class='vertical-center'>$15<br><br>now</div></div><div class='respDivL'><div class='vertical-center'>(E)</div></div><div class='respDivR'><div class='vertical-center'>(I)</div></div></div>","E","$15<br><br>now","$35<br>in<br>2 weeks","1","15","35","2","THEN"
"html-keyboard-response","75","188581","0.0-5.0-3.23","63f796a016e377d12cff50f1","bdp_td","Sat Mar 25 2023 19:29:44 GMT-0500 (Central Daylight Time)","199753","","null","","","","offerFB","","<div class='trialBorder'><div class='vertical-center'><img style='vertical-align:center; align:center' src=img/fixation3.jpg></div><div class='cl'><div class='vertical-center'><font style='color:orange'>$35<br>in<br>2 weeks</font></div></div><div class='cr'><div class='vertical-center'>$15<br><br>now</div></div><div class='respDivL'><div class='vertical-center'><font style='color:orange'>(E)</font></div></div><div class='respDivR'><div class='vertical-center'>(I)</div></div></div>","null","$15<br><br>now","$35<br>in<br>2 weeks","1","15","35","2",""
"html-keyboard-response","76","189090","0.0-5.0-1.24","63f796a016e377d12cff50f1","bdp_td","Sat Mar 25 2023 19:29:44 GMT-0500 (Central Daylight Time)","199753","","null","","","","FIX","","<div class='trialBorder'><div class='vertical-center'><img style='vertical-align:center; align:center' src=img/fixation3.jpg></div></div>","null","","","","","","",""
"html-keyboard-response","77","192572","0.0-5.0-2.24","63f796a016e377d12cff50f1","bdp_td","Sat Mar 25 2023 19:29:44 GMT-0500 (Central Daylight Time)","199753","","3480","","","","offer","","<div class='trialBorder'><div class='vertical-center'><img style='vertical-align:center; align:center' src=img/fixation3.jpg></div><div class='cl'><div class='vertical-center'>$55<br>in<br>12 weeks</div></div><div class='cr'><div class='vertical-center'>$54<br><br>now</div></div><div class='respDivL'><div class='vertical-center'>(E)</div></div><div class='respDivR'><div class='vertical-center'>(I)</div></div></div>","I","$54<br><br>now","$55<br>in<br>12 weeks","1","54","55","12","NOW"
"html-keyboard-response","78","192833","0.0-5.0-3.24","63f796a016e377d12cff50f1","bdp_td","Sat Mar 25 2023 19:29:44 GMT-0500 (Central Daylight Time)","199753","","null","","","","offerFB","","<div class='trialBorder'><div class='vertical-center'><img style='vertical-align:center; align:center' src=img/fixation3.jpg></div><div class='cl'><div class='vertical-center'>$55<br>in<br>12 weeks</div></div><div class='cr'><div class='vertical-center'><font style='color:orange'>$54<br><br>now</font></div></div><div class='respDivL'><div class='vertical-center'>(E)</div></div><div class='respDivR'><div class='vertical-center'><font style='color:orange'>(I)</font></div></div></div>","null","$54<br><br>now","$55<br>in<br>12 weeks","1","54","55","12",""
"html-keyboard-response","79","193338","0.0-5.0-1.25","63f796a016e377d12cff50f1","bdp_td","Sat Mar 25 2023 19:29:44 GMT-0500 (Central Daylight Time)","199753","","null","","","","FIX","","<div class='trialBorder'><div class='vertical-center'><img style='vertical-align:center; align:center' src=img/fixation3.jpg></div></div>","null","","","","","","",""
"html-keyboard-response","80","196216","0.0-5.0-2.25","63f796a016e377d12cff50f1","bdp_td","Sat Mar 25 2023 19:29:44 GMT-0500 (Central Daylight Time)","199753","","2876","","","","offer","","<div class='trialBorder'><div class='vertical-center'><img style='vertical-align:center; align:center' src=img/fixation3.jpg></div><div class='cl'><div class='vertical-center'>$25<br>in<br>3 weeks</div></div><div class='cr'><div class='vertical-center'>$14<br><br>now</div></div><div class='respDivL'><div class='vertical-center'>(E)</div></div><div class='respDivR'><div class='vertical-center'>(I)</div></div></div>","I","$14<br><br>now","$25<br>in<br>3 weeks","1","14","25","3","NOW"
"html-keyboard-response","81","196475","0.0-5.0-3.25","63f796a016e377d12cff50f1","bdp_td","Sat Mar 25 2023 19:29:44 GMT-0500 (Central Daylight Time)","199753","","null","","","","offerFB","","<div class='trialBorder'><div class='vertical-center'><img style='vertical-align:center; align:center' src=img/fixation3.jpg></div><div class='cl'><div class='vertical-center'>$25<br>in<br>3 weeks</div></div><div class='cr'><div class='vertical-center'><font style='color:orange'>$14<br><br>now</font></div></div><div class='respDivL'><div class='vertical-center'>(E)</div></div><div class='respDivR'><div class='vertical-center'><font style='color:orange'>(I)</font></div></div></div>","null","$14<br><br>now","$25<br>in<br>3 weeks","1","14","25","3",""
"html-keyboard-response","82","196978","0.0-5.0-1.26","63f796a016e377d12cff50f1","bdp_td","Sat Mar 25 2023 19:29:44 GMT-0500 (Central Daylight Time)","199753","","null","","","","FIX","","<div class='trialBorder'><div class='vertical-center'><img style='vertical-align:center; align:center' src=img/fixation3.jpg></div></div>","null","","","","","","",""
"html-keyboard-response","83","198477","0.0-5.0-2.26","63f796a016e377d12cff50f1","bdp_td","Sat Mar 25 2023 19:29:44 GMT-0500 (Central Daylight Time)","199753","","1498","","","","offer","","<div class='trialBorder'><div class='vertical-center'><img style='vertical-align:center; align:center' src=img/fixation3.jpg></div><div class='cl'><div class='vertical-center'>$80<br><br>now</div></div><div class='cr'><div class='vertical-center'>$85<br>in<br>12 weeks</div></div><div class='respDivL'><div class='vertical-center'>(E)</div></div><div class='respDivR'><div class='vertical-center'>(I)</div></div></div>","E","$80<br><br>now","$85<br>in<br>12 weeks","0","80","85","12","NOW"
"html-keyboard-response","84","198744","0.0-5.0-3.26","63f796a016e377d12cff50f1","bdp_td","Sat Mar 25 2023 19:29:44 GMT-0500 (Central Daylight Time)","199753","","null","","","","offerFB","","<div class='trialBorder'><div class='vertical-center'><img style='vertical-align:center; align:center' src=img/fixation3.jpg></div><div class='cl'><div class='vertical-center'><font style='color:orange'>$80<br><br>now</font></div></div><div class='cr'><div class='vertical-center'>$85<br>in<br>12 weeks</div></div><div class='respDivL'><div class='vertical-center'><font style='color:orange'>(E)</font></div></div><div class='respDivR'><div class='vertical-center'>(I)</div></div></div>","null","$80<br><br>now","$85<br>in<br>12 weeks","0","80","85","12",""
"","","","","63f796a016e377d12cff50f1","bdp_td","Sat Mar 25 2023 19:29:44 GMT-0500 (Central Daylight Time)","199753","","","fullscreenexit","85","198751","fullscreenexit","","","","","","","","","",""
"fullscreen","85","199752","0.0-6.0","63f796a016e377d12cff50f1","bdp_td","Sat Mar 25 2023 19:29:44 GMT-0500 (Central Daylight Time)","199753","","","","","","","true","","","","","","","","",""
"html-keyboard-response","86","200259","0.0-7.0","","","","","","null","","","","","","","null","","","","","","",""
