"trial_type","trial_index","time_elapsed","internal_node_id","subject_id","task","startTime","totalTime","view_history","rt","event","trial","time","trialtype","numBlurs","success","stimulus","key_press","nowOffer","thenOffer","thenLeft","nowAmt","thenAmt","thenWeeks","chosen"
"pavlovia","0","9","0.0-0.0","6362aca86b740b1ec4cb6efb","bdp_td","Mon Mar 27 2023 16:44:35 GMT-0400 (Eastern Daylight Time)","139336","","","","","","","","","","","","","","","","",""
"instructions","1","7316","0.0-1.0","6362aca86b740b1ec4cb6efb","bdp_td","Mon Mar 27 2023 16:44:35 GMT-0400 (Eastern Daylight Time)","139336","[{""page_index"":0,""viewing_time"":7306}]","7306","","","","","","","","","","","","","","",""
"","","","","6362aca86b740b1ec4cb6efb","bdp_td","Mon Mar 27 2023 16:44:35 GMT-0400 (Eastern Daylight Time)","139336","","","blur","2","9072","blurevent","1","","","","","","","","","",""
"","","","","6362aca86b740b1ec4cb6efb","bdp_td","Mon Mar 27 2023 16:44:35 GMT-0400 (Eastern Daylight Time)","139336","","","focus","2","9082","focusevent","","","","","","","","","","",""
"","","","","6362aca86b740b1ec4cb6efb","bdp_td","Mon Mar 27 2023 16:44:35 GMT-0400 (Eastern Daylight Time)","139336","","","blur","2","9083","blurevent","","","","","","","","","","",""
"","","","","6362aca86b740b1ec4cb6efb","bdp_td","Mon Mar 27 2023 16:44:35 GMT-0400 (Eastern Daylight Time)","139336","","","fullscreenenter","2","9091","fullscreenenter","","","","","","","","","","",""
"","","","","6362aca86b740b1ec4cb6efb","bdp_td","Mon Mar 27 2023 16:44:35 GMT-0400 (Eastern Daylight Time)","139336","","","focus","2","9344","focusevent","","","","","","","","","","",""
"fullscreen","2","10054","0.0-2.0","6362aca86b740b1ec4cb6efb","bdp_td","Mon Mar 27 2023 16:44:35 GMT-0400 (Eastern Daylight Time)","139336","","","","","","","","true","","","","","","","","",""
"instructions","3","44882","0.0-4.0","6362aca86b740b1ec4cb6efb","bdp_td","Mon Mar 27 2023 16:44:35 GMT-0400 (Eastern Daylight Time)","139336","[{""page_index"":0,""viewing_time"":11534},{""page_index"":1,""viewing_time"":9067},{""page_index"":2,""viewing_time"":14220}]","34821","","","","","","","","","","","","","","",""
"","","","","6362aca86b740b1ec4cb6efb","bdp_td","Mon Mar 27 2023 16:44:35 GMT-0400 (Eastern Daylight Time)","139336","","","fullscreenexit","4","48590","fullscreenexit","","","","","","","","","","",""
"image-keyboard-response","4","49540","0.0-5.0-0.0-0.0","6362aca86b740b1ec4cb6efb","bdp_td","Mon Mar 27 2023 16:44:35 GMT-0400 (Eastern Daylight Time)","139336","","4646","","","","blurwarn","1","","","49","","","","","","",""
"html-keyboard-response","5","50298","0.0-5.0-1.0","6362aca86b740b1ec4cb6efb","bdp_td","Mon Mar 27 2023 16:44:35 GMT-0400 (Eastern Daylight Time)","139336","","null","","","","FIX","","","<div class='trialBorder'><div class='vertical-center'><img style='vertical-align:center; align:center' src=img/fixation3.jpg></div></div>","null","","","","","","",""
"html-keyboard-response","6","52982","0.0-5.0-2.0","6362aca86b740b1ec4cb6efb","bdp_td","Mon Mar 27 2023 16:44:35 GMT-0400 (Eastern Daylight Time)","139336","","2680","","","","offer","","","<div class='trialBorder'><div class='vertical-center'><img style='vertical-align:center; align:center' src=img/fixation3.jpg></div><div class='cl'><div class='vertical-center'>$30<br>in<br>6 weeks</div></div><div class='cr'><div class='vertical-center'>$25<br><br>now</div></div><div class='respDivL'><div class='vertical-center'>(E)</div></div><div class='respDivR'><div class='vertical-center'>(I)</div></div></div>","I","$25<br><br>now","$30<br>in<br>6 weeks","1","25","30","6","NOW"
"html-keyboard-response","7","53239","0.0-5.0-3.0","6362aca86b740b1ec4cb6efb","bdp_td","Mon Mar 27 2023 16:44:35 GMT-0400 (Eastern Daylight Time)","139336","","null","","","","offerFB","","","<div class='trialBorder'><div class='vertical-center'><img style='vertical-align:center; align:center' src=img/fixation3.jpg></div><div class='cl'><div class='vertical-center'>$30<br>in<br>6 weeks</div></div><div class='cr'><div class='vertical-center'><font style='color:orange'>$25<br><br>now</font></div></div><div class='respDivL'><div class='vertical-center'>(E)</div></div><div class='respDivR'><div class='vertical-center'><font style='color:orange'>(I)</font></div></div></div>","null","$25<br><br>now","$30<br>in<br>6 weeks","1","25","30","6",""
"html-keyboard-response","8","53744","0.0-5.0-1.1","6362aca86b740b1ec4cb6efb","bdp_td","Mon Mar 27 2023 16:44:35 GMT-0400 (Eastern Daylight Time)","139336","","null","","","","FIX","","","<div class='trialBorder'><div class='vertical-center'><img style='vertical-align:center; align:center' src=img/fixation3.jpg></div></div>","null","","","","","","",""
"html-keyboard-response","9","56897","0.0-5.0-2.1","6362aca86b740b1ec4cb6efb","bdp_td","Mon Mar 27 2023 16:44:35 GMT-0400 (Eastern Daylight Time)","139336","","3149","","","","offer","","","<div class='trialBorder'><div class='vertical-center'><img style='vertical-align:center; align:center' src=img/fixation3.jpg></div><div class='cl'><div class='vertical-center'>$34<br><br>now</div></div><div class='cr'><div class='vertical-center'>$35<br>in<br>12 weeks</div></div><div class='respDivL'><div class='vertical-center'>(E)</div></div><div class='respDivR'><div class='vertical-center'>(I)</div></div></div>","E","$34<br><br>now","$35<br>in<br>12 weeks","0","34","35","12","NOW"
"html-keyboard-response","10","57153","0.0-5.0-3.1","6362aca86b740b1ec4cb6efb","bdp_td","Mon Mar 27 2023 16:44:35 GMT-0400 (Eastern Daylight Time)","139336","","null","","","","offerFB","","","<div class='trialBorder'><div class='vertical-center'><img style='vertical-align:center; align:center' src=img/fixation3.jpg></div><div class='cl'><div class='vertical-center'><font style='color:orange'>$34<br><br>now</font></div></div><div class='cr'><div class='vertical-center'>$35<br>in<br>12 weeks</div></div><div class='respDivL'><div class='vertical-center'><font style='color:orange'>(E)</font></div></div><div class='respDivR'><div class='vertical-center'>(I)</div></div></div>","null","$34<br><br>now","$35<br>in<br>12 weeks","0","34","35","12",""
"html-keyboard-response","11","57658","0.0-5.0-1.2","6362aca86b740b1ec4cb6efb","bdp_td","Mon Mar 27 2023 16:44:35 GMT-0400 (Eastern Daylight Time)","139336","","null","","","","FIX","","","<div class='trialBorder'><div class='vertical-center'><img style='vertical-align:center; align:center' src=img/fixation3.jpg></div></div>","null","","","","","","",""
"html-keyboard-response","12","60361","0.0-5.0-2.2","6362aca86b740b1ec4cb6efb","bdp_td","Mon Mar 27 2023 16:44:35 GMT-0400 (Eastern Daylight Time)","139336","","2699","","","","offer","","","<div class='trialBorder'><div class='vertical-center'><img style='vertical-align:center; align:center' src=img/fixation3.jpg></div><div class='cl'><div class='vertical-center'>$54<br><br>now</div></div><div class='cr'><div class='vertical-center'>$80<br>in<br>3 weeks</div></div><div class='respDivL'><div class='vertical-center'>(E)</div></div><div class='respDivR'><div class='vertical-center'>(I)</div></div></div>","I","$54<br><br>now","$80<br>in<br>3 weeks","0","54","80","3","THEN"
"html-keyboard-response","13","60618","0.0-5.0-3.2","6362aca86b740b1ec4cb6efb","bdp_td","Mon Mar 27 2023 16:44:35 GMT-0400 (Eastern Daylight Time)","139336","","null","","","","offerFB","","","<div class='trialBorder'><div class='vertical-center'><img style='vertical-align:center; align:center' src=img/fixation3.jpg></div><div class='cl'><div class='vertical-center'>$54<br><br>now</div></div><div class='cr'><div class='vertical-center'><font style='color:orange'>$80<br>in<br>3 weeks</font></div></div><div class='respDivL'><div class='vertical-center'>(E)</div></div><div class='respDivR'><div class='vertical-center'><font style='color:orange'>(I)</font></div></div></div>","null","$54<br><br>now","$80<br>in<br>3 weeks","0","54","80","3",""
"html-keyboard-response","14","61123","0.0-5.0-1.3","6362aca86b740b1ec4cb6efb","bdp_td","Mon Mar 27 2023 16:44:35 GMT-0400 (Eastern Daylight Time)","139336","","null","","","","FIX","","","<div class='trialBorder'><div class='vertical-center'><img style='vertical-align:center; align:center' src=img/fixation3.jpg></div></div>","null","","","","","","",""
"html-keyboard-response","15","63016","0.0-5.0-2.3","6362aca86b740b1ec4cb6efb","bdp_td","Mon Mar 27 2023 16:44:35 GMT-0400 (Eastern Daylight Time)","139336","","1890","","","","offer","","","<div class='trialBorder'><div class='vertical-center'><img style='vertical-align:center; align:center' src=img/fixation3.jpg></div><div class='cl'><div class='vertical-center'>$33<br><br>now</div></div><div class='cr'><div class='vertical-center'>$80<br>in<br>2 weeks</div></div><div class='respDivL'><div class='vertical-center'>(E)</div></div><div class='respDivR'><div class='vertical-center'>(I)</div></div></div>","I","$33<br><br>now","$80<br>in<br>2 weeks","0","33","80","2","THEN"
"html-keyboard-response","16","63271","0.0-5.0-3.3","6362aca86b740b1ec4cb6efb","bdp_td","Mon Mar 27 2023 16:44:35 GMT-0400 (Eastern Daylight Time)","139336","","null","","","","offerFB","","","<div class='trialBorder'><div class='vertical-center'><img style='vertical-align:center; align:center' src=img/fixation3.jpg></div><div class='cl'><div class='vertical-center'>$33<br><br>now</div></div><div class='cr'><div class='vertical-center'><font style='color:orange'>$80<br>in<br>2 weeks</font></div></div><div class='respDivL'><div class='vertical-center'>(E)</div></div><div class='respDivR'><div class='vertical-center'><font style='color:orange'>(I)</font></div></div></div>","null","$33<br><br>now","$80<br>in<br>2 weeks","0","33","80","2",""
"html-keyboard-response","17","63775","0.0-5.0-1.4","6362aca86b740b1ec4cb6efb","bdp_td","Mon Mar 27 2023 16:44:35 GMT-0400 (Eastern Daylight Time)","139336","","null","","","","FIX","","","<div class='trialBorder'><div class='vertical-center'><img style='vertical-align:center; align:center' src=img/fixation3.jpg></div></div>","null","","","","","","",""
"html-keyboard-response","18","66233","0.0-5.0-2.4","6362aca86b740b1ec4cb6efb","bdp_td","Mon Mar 27 2023 16:44:35 GMT-0400 (Eastern Daylight Time)","139336","","2455","","","","offer","","","<div class='trialBorder'><div class='vertical-center'><img style='vertical-align:center; align:center' src=img/fixation3.jpg></div><div class='cl'><div class='vertical-center'>$40<br><br>now</div></div><div class='cr'><div class='vertical-center'>$55<br>in<br>6 weeks</div></div><div class='respDivL'><div class='vertical-center'>(E)</div></div><div class='respDivR'><div class='vertical-center'>(I)</div></div></div>","I","$40<br><br>now","$55<br>in<br>6 weeks","0","40","55","6","THEN"
"html-keyboard-response","19","66488","0.0-5.0-3.4","6362aca86b740b1ec4cb6efb","bdp_td","Mon Mar 27 2023 16:44:35 GMT-0400 (Eastern Daylight Time)","139336","","null","","","","offerFB","","","<div class='trialBorder'><div class='vertical-center'><img style='vertical-align:center; align:center' src=img/fixation3.jpg></div><div class='cl'><div class='vertical-center'>$40<br><br>now</div></div><div class='cr'><div class='vertical-center'><font style='color:orange'>$55<br>in<br>6 weeks</font></div></div><div class='respDivL'><div class='vertical-center'>(E)</div></div><div class='respDivR'><div class='vertical-center'><font style='color:orange'>(I)</font></div></div></div>","null","$40<br><br>now","$55<br>in<br>6 weeks","0","40","55","6",""
"html-keyboard-response","20","66992","0.0-5.0-1.5","6362aca86b740b1ec4cb6efb","bdp_td","Mon Mar 27 2023 16:44:35 GMT-0400 (Eastern Daylight Time)","139336","","null","","","","FIX","","","<div class='trialBorder'><div class='vertical-center'><img style='vertical-align:center; align:center' src=img/fixation3.jpg></div></div>","null","","","","","","",""
"html-keyboard-response","21","69226","0.0-5.0-2.5","6362aca86b740b1ec4cb6efb","bdp_td","Mon Mar 27 2023 16:44:35 GMT-0400 (Eastern Daylight Time)","139336","","2230","","","","offer","","","<div class='trialBorder'><div class='vertical-center'><img style='vertical-align:center; align:center' src=img/fixation3.jpg></div><div class='cl'><div class='vertical-center'>$25<br>in<br>6 weeks</div></div><div class='cr'><div class='vertical-center'>$19<br><br>now</div></div><div class='respDivL'><div class='vertical-center'>(E)</div></div><div class='respDivR'><div class='vertical-center'>(I)</div></div></div>","I","$19<br><br>now","$25<br>in<br>6 weeks","1","19","25","6","NOW"
"html-keyboard-response","22","69480","0.0-5.0-3.5","6362aca86b740b1ec4cb6efb","bdp_td","Mon Mar 27 2023 16:44:35 GMT-0400 (Eastern Daylight Time)","139336","","null","","","","offerFB","","","<div class='trialBorder'><div class='vertical-center'><img style='vertical-align:center; align:center' src=img/fixation3.jpg></div><div class='cl'><div class='vertical-center'>$25<br>in<br>6 weeks</div></div><div class='cr'><div class='vertical-center'><font style='color:orange'>$19<br><br>now</font></div></div><div class='respDivL'><div class='vertical-center'>(E)</div></div><div class='respDivR'><div class='vertical-center'><font style='color:orange'>(I)</font></div></div></div>","null","$19<br><br>now","$25<br>in<br>6 weeks","1","19","25","6",""
"html-keyboard-response","23","69985","0.0-5.0-1.6","6362aca86b740b1ec4cb6efb","bdp_td","Mon Mar 27 2023 16:44:35 GMT-0400 (Eastern Daylight Time)","139336","","null","","","","FIX","","","<div class='trialBorder'><div class='vertical-center'><img style='vertical-align:center; align:center' src=img/fixation3.jpg></div></div>","null","","","","","","",""
"html-keyboard-response","24","71723","0.0-5.0-2.6","6362aca86b740b1ec4cb6efb","bdp_td","Mon Mar 27 2023 16:44:35 GMT-0400 (Eastern Daylight Time)","139336","","1736","","","","offer","","","<div class='trialBorder'><div class='vertical-center'><img style='vertical-align:center; align:center' src=img/fixation3.jpg></div><div class='cl'><div class='vertical-center'>$85<br>in<br>1 week</div></div><div class='cr'><div class='vertical-center'>$31<br><br>now</div></div><div class='respDivL'><div class='vertical-center'>(E)</div></div><div class='respDivR'><div class='vertical-center'>(I)</div></div></div>","E","$31<br><br>now","$85<br>in<br>1 week","1","31","85","1","THEN"
"html-keyboard-response","25","71978","0.0-5.0-3.6","6362aca86b740b1ec4cb6efb","bdp_td","Mon Mar 27 2023 16:44:35 GMT-0400 (Eastern Daylight Time)","139336","","null","","","","offerFB","","","<div class='trialBorder'><div class='vertical-center'><img style='vertical-align:center; align:center' src=img/fixation3.jpg></div><div class='cl'><div class='vertical-center'><font style='color:orange'>$85<br>in<br>1 week</font></div></div><div class='cr'><div class='vertical-center'>$31<br><br>now</div></div><div class='respDivL'><div class='vertical-center'><font style='color:orange'>(E)</font></div></div><div class='respDivR'><div class='vertical-center'>(I)</div></div></div>","null","$31<br><br>now","$85<br>in<br>1 week","1","31","85","1",""
"html-keyboard-response","26","72483","0.0-5.0-1.7","6362aca86b740b1ec4cb6efb","bdp_td","Mon Mar 27 2023 16:44:35 GMT-0400 (Eastern Daylight Time)","139336","","null","","","","FIX","","","<div class='trialBorder'><div class='vertical-center'><img style='vertical-align:center; align:center' src=img/fixation3.jpg></div></div>","null","","","","","","",""
"html-keyboard-response","27","74852","0.0-5.0-2.7","6362aca86b740b1ec4cb6efb","bdp_td","Mon Mar 27 2023 16:44:35 GMT-0400 (Eastern Daylight Time)","139336","","2364","","","","offer","","","<div class='trialBorder'><div class='vertical-center'><img style='vertical-align:center; align:center' src=img/fixation3.jpg></div><div class='cl'><div class='vertical-center'>$35<br>in<br>2 weeks</div></div><div class='cr'><div class='vertical-center'>$15<br><br>now</div></div><div class='respDivL'><div class='vertical-center'>(E)</div></div><div class='respDivR'><div class='vertical-center'>(I)</div></div></div>","E","$15<br><br>now","$35<br>in<br>2 weeks","1","15","35","2","THEN"
"html-keyboard-response","28","75106","0.0-5.0-3.7","6362aca86b740b1ec4cb6efb","bdp_td","Mon Mar 27 2023 16:44:35 GMT-0400 (Eastern Daylight Time)","139336","","null","","","","offerFB","","","<div class='trialBorder'><div class='vertical-center'><img style='vertical-align:center; align:center' src=img/fixation3.jpg></div><div class='cl'><div class='vertical-center'><font style='color:orange'>$35<br>in<br>2 weeks</font></div></div><div class='cr'><div class='vertical-center'>$15<br><br>now</div></div><div class='respDivL'><div class='vertical-center'><font style='color:orange'>(E)</font></div></div><div class='respDivR'><div class='vertical-center'>(I)</div></div></div>","null","$15<br><br>now","$35<br>in<br>2 weeks","1","15","35","2",""
"html-keyboard-response","29","75611","0.0-5.0-1.8","6362aca86b740b1ec4cb6efb","bdp_td","Mon Mar 27 2023 16:44:35 GMT-0400 (Eastern Daylight Time)","139336","","null","","","","FIX","","","<div class='trialBorder'><div class='vertical-center'><img style='vertical-align:center; align:center' src=img/fixation3.jpg></div></div>","null","","","","","","",""
"html-keyboard-response","30","77822","0.0-5.0-2.8","6362aca86b740b1ec4cb6efb","bdp_td","Mon Mar 27 2023 16:44:35 GMT-0400 (Eastern Daylight Time)","139336","","2208","","","","offer","","","<div class='trialBorder'><div class='vertical-center'><img style='vertical-align:center; align:center' src=img/fixation3.jpg></div><div class='cl'><div class='vertical-center'>$54<br><br>now</div></div><div class='cr'><div class='vertical-center'>$55<br>in<br>12 weeks</div></div><div class='respDivL'><div class='vertical-center'>(E)</div></div><div class='respDivR'><div class='vertical-center'>(I)</div></div></div>","E","$54<br><br>now","$55<br>in<br>12 weeks","0","54","55","12","NOW"
"html-keyboard-response","31","78078","0.0-5.0-3.8","6362aca86b740b1ec4cb6efb","bdp_td","Mon Mar 27 2023 16:44:35 GMT-0400 (Eastern Daylight Time)","139336","","null","","","","offerFB","","","<div class='trialBorder'><div class='vertical-center'><img style='vertical-align:center; align:center' src=img/fixation3.jpg></div><div class='cl'><div class='vertical-center'><font style='color:orange'>$54<br><br>now</font></div></div><div class='cr'><div class='vertical-center'>$55<br>in<br>12 weeks</div></div><div class='respDivL'><div class='vertical-center'><font style='color:orange'>(E)</font></div></div><div class='respDivR'><div class='vertical-center'>(I)</div></div></div>","null","$54<br><br>now","$55<br>in<br>12 weeks","0","54","55","12",""
"html-keyboard-response","32","78582","0.0-5.0-1.9","6362aca86b740b1ec4cb6efb","bdp_td","Mon Mar 27 2023 16:44:35 GMT-0400 (Eastern Daylight Time)","139336","","null","","","","FIX","","","<div class='trialBorder'><div class='vertical-center'><img style='vertical-align:center; align:center' src=img/fixation3.jpg></div></div>","null","","","","","","",""
"html-keyboard-response","33","81624","0.0-5.0-2.9","6362aca86b740b1ec4cb6efb","bdp_td","Mon Mar 27 2023 16:44:35 GMT-0400 (Eastern Daylight Time)","139336","","3038","","","","offer","","","<div class='trialBorder'><div class='vertical-center'><img style='vertical-align:center; align:center' src=img/fixation3.jpg></div><div class='cl'><div class='vertical-center'>$24<br><br>now</div></div><div class='cr'><div class='vertical-center'>$35<br>in<br>3 weeks</div></div><div class='respDivL'><div class='vertical-center'>(E)</div></div><div class='respDivR'><div class='vertical-center'>(I)</div></div></div>","E","$24<br><br>now","$35<br>in<br>3 weeks","0","24","35","3","NOW"
"html-keyboard-response","34","81879","0.0-5.0-3.9","6362aca86b740b1ec4cb6efb","bdp_td","Mon Mar 27 2023 16:44:35 GMT-0400 (Eastern Daylight Time)","139336","","null","","","","offerFB","","","<div class='trialBorder'><div class='vertical-center'><img style='vertical-align:center; align:center' src=img/fixation3.jpg></div><div class='cl'><div class='vertical-center'><font style='color:orange'>$24<br><br>now</font></div></div><div class='cr'><div class='vertical-center'>$35<br>in<br>3 weeks</div></div><div class='respDivL'><div class='vertical-center'><font style='color:orange'>(E)</font></div></div><div class='respDivR'><div class='vertical-center'>(I)</div></div></div>","null","$24<br><br>now","$35<br>in<br>3 weeks","0","24","35","3",""
"html-keyboard-response","35","82384","0.0-5.0-1.10","6362aca86b740b1ec4cb6efb","bdp_td","Mon Mar 27 2023 16:44:35 GMT-0400 (Eastern Daylight Time)","139336","","null","","","","FIX","","","<div class='trialBorder'><div class='vertical-center'><img style='vertical-align:center; align:center' src=img/fixation3.jpg></div></div>","null","","","","","","",""
"html-keyboard-response","36","87630","0.0-5.0-2.10","6362aca86b740b1ec4cb6efb","bdp_td","Mon Mar 27 2023 16:44:35 GMT-0400 (Eastern Daylight Time)","139336","","5244","","","","offer","","","<div class='trialBorder'><div class='vertical-center'><img style='vertical-align:center; align:center' src=img/fixation3.jpg></div><div class='cl'><div class='vertical-center'>$75<br>in<br>6 weeks</div></div><div class='cr'><div class='vertical-center'>$55<br><br>now</div></div><div class='respDivL'><div class='vertical-center'>(E)</div></div><div class='respDivR'><div class='vertical-center'>(I)</div></div></div>","E","$55<br><br>now","$75<br>in<br>6 weeks","1","55","75","6","THEN"
"html-keyboard-response","37","87885","0.0-5.0-3.10","6362aca86b740b1ec4cb6efb","bdp_td","Mon Mar 27 2023 16:44:35 GMT-0400 (Eastern Daylight Time)","139336","","null","","","","offerFB","","","<div class='trialBorder'><div class='vertical-center'><img style='vertical-align:center; align:center' src=img/fixation3.jpg></div><div class='cl'><div class='vertical-center'><font style='color:orange'>$75<br>in<br>6 weeks</font></div></div><div class='cr'><div class='vertical-center'>$55<br><br>now</div></div><div class='respDivL'><div class='vertical-center'><font style='color:orange'>(E)</font></div></div><div class='respDivR'><div class='vertical-center'>(I)</div></div></div>","null","$55<br><br>now","$75<br>in<br>6 weeks","1","55","75","6",""
"html-keyboard-response","38","88389","0.0-5.0-1.11","6362aca86b740b1ec4cb6efb","bdp_td","Mon Mar 27 2023 16:44:35 GMT-0400 (Eastern Daylight Time)","139336","","null","","","","FIX","","","<div class='trialBorder'><div class='vertical-center'><img style='vertical-align:center; align:center' src=img/fixation3.jpg></div></div>","null","","","","","","",""
"html-keyboard-response","39","91298","0.0-5.0-2.11","6362aca86b740b1ec4cb6efb","bdp_td","Mon Mar 27 2023 16:44:35 GMT-0400 (Eastern Daylight Time)","139336","","2907","","","","offer","","","<div class='trialBorder'><div class='vertical-center'><img style='vertical-align:center; align:center' src=img/fixation3.jpg></div><div class='cl'><div class='vertical-center'>$49<br><br>now</div></div><div class='cr'><div class='vertical-center'>$60<br>in<br>6 weeks</div></div><div class='respDivL'><div class='vertical-center'>(E)</div></div><div class='respDivR'><div class='vertical-center'>(I)</div></div></div>","E","$49<br><br>now","$60<br>in<br>6 weeks","0","49","60","6","NOW"
"html-keyboard-response","40","91554","0.0-5.0-3.11","6362aca86b740b1ec4cb6efb","bdp_td","Mon Mar 27 2023 16:44:35 GMT-0400 (Eastern Daylight Time)","139336","","null","","","","offerFB","","","<div class='trialBorder'><div class='vertical-center'><img style='vertical-align:center; align:center' src=img/fixation3.jpg></div><div class='cl'><div class='vertical-center'><font style='color:orange'>$49<br><br>now</font></div></div><div class='cr'><div class='vertical-center'>$60<br>in<br>6 weeks</div></div><div class='respDivL'><div class='vertical-center'><font style='color:orange'>(E)</font></div></div><div class='respDivR'><div class='vertical-center'>(I)</div></div></div>","null","$49<br><br>now","$60<br>in<br>6 weeks","0","49","60","6",""
"html-keyboard-response","41","92058","0.0-5.0-1.12","6362aca86b740b1ec4cb6efb","bdp_td","Mon Mar 27 2023 16:44:35 GMT-0400 (Eastern Daylight Time)","139336","","null","","","","FIX","","","<div class='trialBorder'><div class='vertical-center'><img style='vertical-align:center; align:center' src=img/fixation3.jpg></div></div>","null","","","","","","",""
"html-keyboard-response","42","93976","0.0-5.0-2.12","6362aca86b740b1ec4cb6efb","bdp_td","Mon Mar 27 2023 16:44:35 GMT-0400 (Eastern Daylight Time)","139336","","1915","","","","offer","","","<div class='trialBorder'><div class='vertical-center'><img style='vertical-align:center; align:center' src=img/fixation3.jpg></div><div class='cl'><div class='vertical-center'>$85<br>in<br>6 weeks</div></div><div class='cr'><div class='vertical-center'>$69<br><br>now</div></div><div class='respDivL'><div class='vertical-center'>(E)</div></div><div class='respDivR'><div class='vertical-center'>(I)</div></div></div>","E","$69<br><br>now","$85<br>in<br>6 weeks","1","69","85","6","THEN"
"html-keyboard-response","43","94231","0.0-5.0-3.12","6362aca86b740b1ec4cb6efb","bdp_td","Mon Mar 27 2023 16:44:35 GMT-0400 (Eastern Daylight Time)","139336","","null","","","","offerFB","","","<div class='trialBorder'><div class='vertical-center'><img style='vertical-align:center; align:center' src=img/fixation3.jpg></div><div class='cl'><div class='vertical-center'><font style='color:orange'>$85<br>in<br>6 weeks</font></div></div><div class='cr'><div class='vertical-center'>$69<br><br>now</div></div><div class='respDivL'><div class='vertical-center'><font style='color:orange'>(E)</font></div></div><div class='respDivR'><div class='vertical-center'>(I)</div></div></div>","null","$69<br><br>now","$85<br>in<br>6 weeks","1","69","85","6",""
"html-keyboard-response","44","94735","0.0-5.0-1.13","6362aca86b740b1ec4cb6efb","bdp_td","Mon Mar 27 2023 16:44:35 GMT-0400 (Eastern Daylight Time)","139336","","null","","","","FIX","","","<div class='trialBorder'><div class='vertical-center'><img style='vertical-align:center; align:center' src=img/fixation3.jpg></div></div>","null","","","","","","",""
"html-keyboard-response","45","96789","0.0-5.0-2.13","6362aca86b740b1ec4cb6efb","bdp_td","Mon Mar 27 2023 16:44:35 GMT-0400 (Eastern Daylight Time)","139336","","2051","","","","offer","","","<div class='trialBorder'><div class='vertical-center'><img style='vertical-align:center; align:center' src=img/fixation3.jpg></div><div class='cl'><div class='vertical-center'>$25<br><br>now</div></div><div class='cr'><div class='vertical-center'>$60<br>in<br>3 weeks</div></div><div class='respDivL'><div class='vertical-center'>(E)</div></div><div class='respDivR'><div class='vertical-center'>(I)</div></div></div>","I","$25<br><br>now","$60<br>in<br>3 weeks","0","25","60","3","THEN"
"html-keyboard-response","46","97043","0.0-5.0-3.13","6362aca86b740b1ec4cb6efb","bdp_td","Mon Mar 27 2023 16:44:35 GMT-0400 (Eastern Daylight Time)","139336","","null","","","","offerFB","","","<div class='trialBorder'><div class='vertical-center'><img style='vertical-align:center; align:center' src=img/fixation3.jpg></div><div class='cl'><div class='vertical-center'>$25<br><br>now</div></div><div class='cr'><div class='vertical-center'><font style='color:orange'>$60<br>in<br>3 weeks</font></div></div><div class='respDivL'><div class='vertical-center'>(E)</div></div><div class='respDivR'><div class='vertical-center'><font style='color:orange'>(I)</font></div></div></div>","null","$25<br><br>now","$60<br>in<br>3 weeks","0","25","60","3",""
"html-keyboard-response","47","97548","0.0-5.0-1.14","6362aca86b740b1ec4cb6efb","bdp_td","Mon Mar 27 2023 16:44:35 GMT-0400 (Eastern Daylight Time)","139336","","null","","","","FIX","","","<div class='trialBorder'><div class='vertical-center'><img style='vertical-align:center; align:center' src=img/fixation3.jpg></div></div>","null","","","","","","",""
"html-keyboard-response","48","99757","0.0-5.0-2.14","6362aca86b740b1ec4cb6efb","bdp_td","Mon Mar 27 2023 16:44:35 GMT-0400 (Eastern Daylight Time)","139336","","2206","","","","offer","","","<div class='trialBorder'><div class='vertical-center'><img style='vertical-align:center; align:center' src=img/fixation3.jpg></div><div class='cl'><div class='vertical-center'>$30<br>in<br>2 weeks</div></div><div class='cr'><div class='vertical-center'>$11<br><br>now</div></div><div class='respDivL'><div class='vertical-center'>(E)</div></div><div class='respDivR'><div class='vertical-center'>(I)</div></div></div>","E","$11<br><br>now","$30<br>in<br>2 weeks","1","11","30","2","THEN"
"html-keyboard-response","49","100012","0.0-5.0-3.14","6362aca86b740b1ec4cb6efb","bdp_td","Mon Mar 27 2023 16:44:35 GMT-0400 (Eastern Daylight Time)","139336","","null","","","","offerFB","","","<div class='trialBorder'><div class='vertical-center'><img style='vertical-align:center; align:center' src=img/fixation3.jpg></div><div class='cl'><div class='vertical-center'><font style='color:orange'>$30<br>in<br>2 weeks</font></div></div><div class='cr'><div class='vertical-center'>$11<br><br>now</div></div><div class='respDivL'><div class='vertical-center'><font style='color:orange'>(E)</font></div></div><div class='respDivR'><div class='vertical-center'>(I)</div></div></div>","null","$11<br><br>now","$30<br>in<br>2 weeks","1","11","30","2",""
"html-keyboard-response","50","100516","0.0-5.0-1.15","6362aca86b740b1ec4cb6efb","bdp_td","Mon Mar 27 2023 16:44:35 GMT-0400 (Eastern Daylight Time)","139336","","null","","","","FIX","","","<div class='trialBorder'><div class='vertical-center'><img style='vertical-align:center; align:center' src=img/fixation3.jpg></div></div>","null","","","","","","",""
"html-keyboard-response","51","102345","0.0-5.0-2.15","6362aca86b740b1ec4cb6efb","bdp_td","Mon Mar 27 2023 16:44:35 GMT-0400 (Eastern Daylight Time)","139336","","1825","","","","offer","","","<div class='trialBorder'><div class='vertical-center'><img style='vertical-align:center; align:center' src=img/fixation3.jpg></div><div class='cl'><div class='vertical-center'>$27<br><br>now</div></div><div class='cr'><div class='vertical-center'>$50<br>in<br>3 weeks</div></div><div class='respDivL'><div class='vertical-center'>(E)</div></div><div class='respDivR'><div class='vertical-center'>(I)</div></div></div>","I","$27<br><br>now","$50<br>in<br>3 weeks","0","27","50","3","THEN"
"html-keyboard-response","52","102599","0.0-5.0-3.15","6362aca86b740b1ec4cb6efb","bdp_td","Mon Mar 27 2023 16:44:35 GMT-0400 (Eastern Daylight Time)","139336","","null","","","","offerFB","","","<div class='trialBorder'><div class='vertical-center'><img style='vertical-align:center; align:center' src=img/fixation3.jpg></div><div class='cl'><div class='vertical-center'>$27<br><br>now</div></div><div class='cr'><div class='vertical-center'><font style='color:orange'>$50<br>in<br>3 weeks</font></div></div><div class='respDivL'><div class='vertical-center'>(E)</div></div><div class='respDivR'><div class='vertical-center'><font style='color:orange'>(I)</font></div></div></div>","null","$27<br><br>now","$50<br>in<br>3 weeks","0","27","50","3",""
"html-keyboard-response","53","103103","0.0-5.0-1.16","6362aca86b740b1ec4cb6efb","bdp_td","Mon Mar 27 2023 16:44:35 GMT-0400 (Eastern Daylight Time)","139336","","null","","","","FIX","","","<div class='trialBorder'><div class='vertical-center'><img style='vertical-align:center; align:center' src=img/fixation3.jpg></div></div>","null","","","","","","",""
"html-keyboard-response","54","106036","0.0-5.0-2.16","6362aca86b740b1ec4cb6efb","bdp_td","Mon Mar 27 2023 16:44:35 GMT-0400 (Eastern Daylight Time)","139336","","2930","","","","offer","","","<div class='trialBorder'><div class='vertical-center'><img style='vertical-align:center; align:center' src=img/fixation3.jpg></div><div class='cl'><div class='vertical-center'>$60<br>in<br>12 weeks</div></div><div class='cr'><div class='vertical-center'>$54<br><br>now</div></div><div class='respDivL'><div class='vertical-center'>(E)</div></div><div class='respDivR'><div class='vertical-center'>(I)</div></div></div>","I","$54<br><br>now","$60<br>in<br>12 weeks","1","54","60","12","NOW"
"html-keyboard-response","55","106290","0.0-5.0-3.16","6362aca86b740b1ec4cb6efb","bdp_td","Mon Mar 27 2023 16:44:35 GMT-0400 (Eastern Daylight Time)","139336","","null","","","","offerFB","","","<div class='trialBorder'><div class='vertical-center'><img style='vertical-align:center; align:center' src=img/fixation3.jpg></div><div class='cl'><div class='vertical-center'>$60<br>in<br>12 weeks</div></div><div class='cr'><div class='vertical-center'><font style='color:orange'>$54<br><br>now</font></div></div><div class='respDivL'><div class='vertical-center'>(E)</div></div><div class='respDivR'><div class='vertical-center'><font style='color:orange'>(I)</font></div></div></div>","null","$54<br><br>now","$60<br>in<br>12 weeks","1","54","60","12",""
"html-keyboard-response","56","106794","0.0-5.0-1.17","6362aca86b740b1ec4cb6efb","bdp_td","Mon Mar 27 2023 16:44:35 GMT-0400 (Eastern Daylight Time)","139336","","null","","","","FIX","","","<div class='trialBorder'><div class='vertical-center'><img style='vertical-align:center; align:center' src=img/fixation3.jpg></div></div>","null","","","","","","",""
"html-keyboard-response","57","109795","0.0-5.0-2.17","6362aca86b740b1ec4cb6efb","bdp_td","Mon Mar 27 2023 16:44:35 GMT-0400 (Eastern Daylight Time)","139336","","2998","","","","offer","","","<div class='trialBorder'><div class='vertical-center'><img style='vertical-align:center; align:center' src=img/fixation3.jpg></div><div class='cl'><div class='vertical-center'>$80<br>in<br>12 weeks</div></div><div class='cr'><div class='vertical-center'>$78<br><br>now</div></div><div class='respDivL'><div class='vertical-center'>(E)</div></div><div class='respDivR'><div class='vertical-center'>(I)</div></div></div>","I","$78<br><br>now","$80<br>in<br>12 weeks","1","78","80","12","NOW"
"html-keyboard-response","58","110049","0.0-5.0-3.17","6362aca86b740b1ec4cb6efb","bdp_td","Mon Mar 27 2023 16:44:35 GMT-0400 (Eastern Daylight Time)","139336","","null","","","","offerFB","","","<div class='trialBorder'><div class='vertical-center'><img style='vertical-align:center; align:center' src=img/fixation3.jpg></div><div class='cl'><div class='vertical-center'>$80<br>in<br>12 weeks</div></div><div class='cr'><div class='vertical-center'><font style='color:orange'>$78<br><br>now</font></div></div><div class='respDivL'><div class='vertical-center'>(E)</div></div><div class='respDivR'><div class='vertical-center'><font style='color:orange'>(I)</font></div></div></div>","null","$78<br><br>now","$80<br>in<br>12 weeks","1","78","80","12",""
"html-keyboard-response","59","110553","0.0-5.0-1.18","6362aca86b740b1ec4cb6efb","bdp_td","Mon Mar 27 2023 16:44:35 GMT-0400 (Eastern Daylight Time)","139336","","null","","","","FIX","","","<div class='trialBorder'><div class='vertical-center'><img style='vertical-align:center; align:center' src=img/fixation3.jpg></div></div>","null","","","","","","",""
"html-keyboard-response","60","113528","0.0-5.0-2.18","6362aca86b740b1ec4cb6efb","bdp_td","Mon Mar 27 2023 16:44:35 GMT-0400 (Eastern Daylight Time)","139336","","2973","","","","offer","","","<div class='trialBorder'><div class='vertical-center'><img style='vertical-align:center; align:center' src=img/fixation3.jpg></div><div class='cl'><div class='vertical-center'>$75<br>in<br>12 weeks</div></div><div class='cr'><div class='vertical-center'>$67<br><br>now</div></div><div class='respDivL'><div class='vertical-center'>(E)</div></div><div class='respDivR'><div class='vertical-center'>(I)</div></div></div>","I","$67<br><br>now","$75<br>in<br>12 weeks","1","67","75","12","NOW"
"html-keyboard-response","61","113783","0.0-5.0-3.18","6362aca86b740b1ec4cb6efb","bdp_td","Mon Mar 27 2023 16:44:35 GMT-0400 (Eastern Daylight Time)","139336","","null","","","","offerFB","","","<div class='trialBorder'><div class='vertical-center'><img style='vertical-align:center; align:center' src=img/fixation3.jpg></div><div class='cl'><div class='vertical-center'>$75<br>in<br>12 weeks</div></div><div class='cr'><div class='vertical-center'><font style='color:orange'>$67<br><br>now</font></div></div><div class='respDivL'><div class='vertical-center'>(E)</div></div><div class='respDivR'><div class='vertical-center'><font style='color:orange'>(I)</font></div></div></div>","null","$67<br><br>now","$75<br>in<br>12 weeks","1","67","75","12",""
"html-keyboard-response","62","114287","0.0-5.0-1.19","6362aca86b740b1ec4cb6efb","bdp_td","Mon Mar 27 2023 16:44:35 GMT-0400 (Eastern Daylight Time)","139336","","null","","","","FIX","","","<div class='trialBorder'><div class='vertical-center'><img style='vertical-align:center; align:center' src=img/fixation3.jpg></div></div>","null","","","","","","",""
"html-keyboard-response","63","116611","0.0-5.0-2.19","6362aca86b740b1ec4cb6efb","bdp_td","Mon Mar 27 2023 16:44:35 GMT-0400 (Eastern Daylight Time)","139336","","2321","","","","offer","","","<div class='trialBorder'><div class='vertical-center'><img style='vertical-align:center; align:center' src=img/fixation3.jpg></div><div class='cl'><div class='vertical-center'>$30<br>in<br>12 weeks</div></div><div class='cr'><div class='vertical-center'>$28<br><br>now</div></div><div class='respDivL'><div class='vertical-center'>(E)</div></div><div class='respDivR'><div class='vertical-center'>(I)</div></div></div>","I","$28<br><br>now","$30<br>in<br>12 weeks","1","28","30","12","NOW"
"html-keyboard-response","64","116865","0.0-5.0-3.19","6362aca86b740b1ec4cb6efb","bdp_td","Mon Mar 27 2023 16:44:35 GMT-0400 (Eastern Daylight Time)","139336","","null","","","","offerFB","","","<div class='trialBorder'><div class='vertical-center'><img style='vertical-align:center; align:center' src=img/fixation3.jpg></div><div class='cl'><div class='vertical-center'>$30<br>in<br>12 weeks</div></div><div class='cr'><div class='vertical-center'><font style='color:orange'>$28<br><br>now</font></div></div><div class='respDivL'><div class='vertical-center'>(E)</div></div><div class='respDivR'><div class='vertical-center'><font style='color:orange'>(I)</font></div></div></div>","null","$28<br><br>now","$30<br>in<br>12 weeks","1","28","30","12",""
"html-keyboard-response","65","117369","0.0-5.0-1.20","6362aca86b740b1ec4cb6efb","bdp_td","Mon Mar 27 2023 16:44:35 GMT-0400 (Eastern Daylight Time)","139336","","null","","","","FIX","","","<div class='trialBorder'><div class='vertical-center'><img style='vertical-align:center; align:center' src=img/fixation3.jpg></div></div>","null","","","","","","",""
"html-keyboard-response","66","120638","0.0-5.0-2.20","6362aca86b740b1ec4cb6efb","bdp_td","Mon Mar 27 2023 16:44:35 GMT-0400 (Eastern Daylight Time)","139336","","3266","","","","offer","","","<div class='trialBorder'><div class='vertical-center'><img style='vertical-align:center; align:center' src=img/fixation3.jpg></div><div class='cl'><div class='vertical-center'>$34<br><br>now</div></div><div class='cr'><div class='vertical-center'>$50<br>in<br>6 weeks</div></div><div class='respDivL'><div class='vertical-center'>(E)</div></div><div class='respDivR'><div class='vertical-center'>(I)</div></div></div>","I","$34<br><br>now","$50<br>in<br>6 weeks","0","34","50","6","THEN"
"html-keyboard-response","67","120893","0.0-5.0-3.20","6362aca86b740b1ec4cb6efb","bdp_td","Mon Mar 27 2023 16:44:35 GMT-0400 (Eastern Daylight Time)","139336","","null","","","","offerFB","","","<div class='trialBorder'><div class='vertical-center'><img style='vertical-align:center; align:center' src=img/fixation3.jpg></div><div class='cl'><div class='vertical-center'>$34<br><br>now</div></div><div class='cr'><div class='vertical-center'><font style='color:orange'>$50<br>in<br>6 weeks</font></div></div><div class='respDivL'><div class='vertical-center'>(E)</div></div><div class='respDivR'><div class='vertical-center'><font style='color:orange'>(I)</font></div></div></div>","null","$34<br><br>now","$50<br>in<br>6 weeks","0","34","50","6",""
"html-keyboard-response","68","121396","0.0-5.0-1.21","6362aca86b740b1ec4cb6efb","bdp_td","Mon Mar 27 2023 16:44:35 GMT-0400 (Eastern Daylight Time)","139336","","null","","","","FIX","","","<div class='trialBorder'><div class='vertical-center'><img style='vertical-align:center; align:center' src=img/fixation3.jpg></div></div>","null","","","","","","",""
"html-keyboard-response","69","123360","0.0-5.0-2.21","6362aca86b740b1ec4cb6efb","bdp_td","Mon Mar 27 2023 16:44:35 GMT-0400 (Eastern Daylight Time)","139336","","1961","","","","offer","","","<div class='trialBorder'><div class='vertical-center'><img style='vertical-align:center; align:center' src=img/fixation3.jpg></div><div class='cl'><div class='vertical-center'>$25<br>in<br>12 weeks</div></div><div class='cr'><div class='vertical-center'>$22<br><br>now</div></div><div class='respDivL'><div class='vertical-center'>(E)</div></div><div class='respDivR'><div class='vertical-center'>(I)</div></div></div>","I","$22<br><br>now","$25<br>in<br>12 weeks","1","22","25","12","NOW"
"html-keyboard-response","70","123615","0.0-5.0-3.21","6362aca86b740b1ec4cb6efb","bdp_td","Mon Mar 27 2023 16:44:35 GMT-0400 (Eastern Daylight Time)","139336","","null","","","","offerFB","","","<div class='trialBorder'><div class='vertical-center'><img style='vertical-align:center; align:center' src=img/fixation3.jpg></div><div class='cl'><div class='vertical-center'>$25<br>in<br>12 weeks</div></div><div class='cr'><div class='vertical-center'><font style='color:orange'>$22<br><br>now</font></div></div><div class='respDivL'><div class='vertical-center'>(E)</div></div><div class='respDivR'><div class='vertical-center'><font style='color:orange'>(I)</font></div></div></div>","null","$22<br><br>now","$25<br>in<br>12 weeks","1","22","25","12",""
"html-keyboard-response","71","124118","0.0-5.0-1.22","6362aca86b740b1ec4cb6efb","bdp_td","Mon Mar 27 2023 16:44:35 GMT-0400 (Eastern Daylight Time)","139336","","null","","","","FIX","","","<div class='trialBorder'><div class='vertical-center'><img style='vertical-align:center; align:center' src=img/fixation3.jpg></div></div>","null","","","","","","",""
"html-keyboard-response","72","126151","0.0-5.0-2.22","6362aca86b740b1ec4cb6efb","bdp_td","Mon Mar 27 2023 16:44:35 GMT-0400 (Eastern Daylight Time)","139336","","2029","","","","offer","","","<div class='trialBorder'><div class='vertical-center'><img style='vertical-align:center; align:center' src=img/fixation3.jpg></div><div class='cl'><div class='vertical-center'>$55<br>in<br>1 week</div></div><div class='cr'><div class='vertical-center'>$20<br><br>now</div></div><div class='respDivL'><div class='vertical-center'>(E)</div></div><div class='respDivR'><div class='vertical-center'>(I)</div></div></div>","E","$20<br><br>now","$55<br>in<br>1 week","1","20","55","1","THEN"
"html-keyboard-response","73","126406","0.0-5.0-3.22","6362aca86b740b1ec4cb6efb","bdp_td","Mon Mar 27 2023 16:44:35 GMT-0400 (Eastern Daylight Time)","139336","","null","","","","offerFB","","","<div class='trialBorder'><div class='vertical-center'><img style='vertical-align:center; align:center' src=img/fixation3.jpg></div><div class='cl'><div class='vertical-center'><font style='color:orange'>$55<br>in<br>1 week</font></div></div><div class='cr'><div class='vertical-center'>$20<br><br>now</div></div><div class='respDivL'><div class='vertical-center'><font style='color:orange'>(E)</font></div></div><div class='respDivR'><div class='vertical-center'>(I)</div></div></div>","null","$20<br><br>now","$55<br>in<br>1 week","1","20","55","1",""
"html-keyboard-response","74","126910","0.0-5.0-1.23","6362aca86b740b1ec4cb6efb","bdp_td","Mon Mar 27 2023 16:44:35 GMT-0400 (Eastern Daylight Time)","139336","","null","","","","FIX","","","<div class='trialBorder'><div class='vertical-center'><img style='vertical-align:center; align:center' src=img/fixation3.jpg></div></div>","null","","","","","","",""
"html-keyboard-response","75","129301","0.0-5.0-2.23","6362aca86b740b1ec4cb6efb","bdp_td","Mon Mar 27 2023 16:44:35 GMT-0400 (Eastern Daylight Time)","139336","","2388","","","","offer","","","<div class='trialBorder'><div class='vertical-center'><img style='vertical-align:center; align:center' src=img/fixation3.jpg></div><div class='cl'><div class='vertical-center'>$47<br><br>now</div></div><div class='cr'><div class='vertical-center'>$50<br>in<br>12 weeks</div></div><div class='respDivL'><div class='vertical-center'>(E)</div></div><div class='respDivR'><div class='vertical-center'>(I)</div></div></div>","E","$47<br><br>now","$50<br>in<br>12 weeks","0","47","50","12","NOW"
"html-keyboard-response","76","129556","0.0-5.0-3.23","6362aca86b740b1ec4cb6efb","bdp_td","Mon Mar 27 2023 16:44:35 GMT-0400 (Eastern Daylight Time)","139336","","null","","","","offerFB","","","<div class='trialBorder'><div class='vertical-center'><img style='vertical-align:center; align:center' src=img/fixation3.jpg></div><div class='cl'><div class='vertical-center'><font style='color:orange'>$47<br><br>now</font></div></div><div class='cr'><div class='vertical-center'>$50<br>in<br>12 weeks</div></div><div class='respDivL'><div class='vertical-center'><font style='color:orange'>(E)</font></div></div><div class='respDivR'><div class='vertical-center'>(I)</div></div></div>","null","$47<br><br>now","$50<br>in<br>12 weeks","0","47","50","12",""
"html-keyboard-response","77","130060","0.0-5.0-1.24","6362aca86b740b1ec4cb6efb","bdp_td","Mon Mar 27 2023 16:44:35 GMT-0400 (Eastern Daylight Time)","139336","","null","","","","FIX","","","<div class='trialBorder'><div class='vertical-center'><img style='vertical-align:center; align:center' src=img/fixation3.jpg></div></div>","null","","","","","","",""
"html-keyboard-response","78","132427","0.0-5.0-2.24","6362aca86b740b1ec4cb6efb","bdp_td","Mon Mar 27 2023 16:44:35 GMT-0400 (Eastern Daylight Time)","139336","","2364","","","","offer","","","<div class='trialBorder'><div class='vertical-center'><img style='vertical-align:center; align:center' src=img/fixation3.jpg></div><div class='cl'><div class='vertical-center'>$14<br><br>now</div></div><div class='cr'><div class='vertical-center'>$25<br>in<br>3 weeks</div></div><div class='respDivL'><div class='vertical-center'>(E)</div></div><div class='respDivR'><div class='vertical-center'>(I)</div></div></div>","E","$14<br><br>now","$25<br>in<br>3 weeks","0","14","25","3","NOW"
"html-keyboard-response","79","132681","0.0-5.0-3.24","6362aca86b740b1ec4cb6efb","bdp_td","Mon Mar 27 2023 16:44:35 GMT-0400 (Eastern Daylight Time)","139336","","null","","","","offerFB","","","<div class='trialBorder'><div class='vertical-center'><img style='vertical-align:center; align:center' src=img/fixation3.jpg></div><div class='cl'><div class='vertical-center'><font style='color:orange'>$14<br><br>now</font></div></div><div class='cr'><div class='vertical-center'>$25<br>in<br>3 weeks</div></div><div class='respDivL'><div class='vertical-center'><font style='color:orange'>(E)</font></div></div><div class='respDivR'><div class='vertical-center'>(I)</div></div></div>","null","$14<br><br>now","$25<br>in<br>3 weeks","0","14","25","3",""
"html-keyboard-response","80","133186","0.0-5.0-1.25","6362aca86b740b1ec4cb6efb","bdp_td","Mon Mar 27 2023 16:44:35 GMT-0400 (Eastern Daylight Time)","139336","","null","","","","FIX","","","<div class='trialBorder'><div class='vertical-center'><img style='vertical-align:center; align:center' src=img/fixation3.jpg></div></div>","null","","","","","","",""
"html-keyboard-response","81","135645","0.0-5.0-2.25","6362aca86b740b1ec4cb6efb","bdp_td","Mon Mar 27 2023 16:44:35 GMT-0400 (Eastern Daylight Time)","139336","","2456","","","","offer","","","<div class='trialBorder'><div class='vertical-center'><img style='vertical-align:center; align:center' src=img/fixation3.jpg></div><div class='cl'><div class='vertical-center'>$85<br>in<br>12 weeks</div></div><div class='cr'><div class='vertical-center'>$80<br><br>now</div></div><div class='respDivL'><div class='vertical-center'>(E)</div></div><div class='respDivR'><div class='vertical-center'>(I)</div></div></div>","I","$80<br><br>now","$85<br>in<br>12 weeks","1","80","85","12","NOW"
"html-keyboard-response","82","135899","0.0-5.0-3.25","6362aca86b740b1ec4cb6efb","bdp_td","Mon Mar 27 2023 16:44:35 GMT-0400 (Eastern Daylight Time)","139336","","null","","","","offerFB","","","<div class='trialBorder'><div class='vertical-center'><img style='vertical-align:center; align:center' src=img/fixation3.jpg></div><div class='cl'><div class='vertical-center'>$85<br>in<br>12 weeks</div></div><div class='cr'><div class='vertical-center'><font style='color:orange'>$80<br><br>now</font></div></div><div class='respDivL'><div class='vertical-center'>(E)</div></div><div class='respDivR'><div class='vertical-center'><font style='color:orange'>(I)</font></div></div></div>","null","$80<br><br>now","$85<br>in<br>12 weeks","1","80","85","12",""
"html-keyboard-response","83","136403","0.0-5.0-1.26","6362aca86b740b1ec4cb6efb","bdp_td","Mon Mar 27 2023 16:44:35 GMT-0400 (Eastern Daylight Time)","139336","","null","","","","FIX","","","<div class='trialBorder'><div class='vertical-center'><img style='vertical-align:center; align:center' src=img/fixation3.jpg></div></div>","null","","","","","","",""
"html-keyboard-response","84","138076","0.0-5.0-2.26","6362aca86b740b1ec4cb6efb","bdp_td","Mon Mar 27 2023 16:44:35 GMT-0400 (Eastern Daylight Time)","139336","","1670","","","","offer","","","<div class='trialBorder'><div class='vertical-center'><img style='vertical-align:center; align:center' src=img/fixation3.jpg></div><div class='cl'><div class='vertical-center'>$41<br><br>now</div></div><div class='cr'><div class='vertical-center'>$75<br>in<br>3 weeks</div></div><div class='respDivL'><div class='vertical-center'>(E)</div></div><div class='respDivR'><div class='vertical-center'>(I)</div></div></div>","I","$41<br><br>now","$75<br>in<br>3 weeks","0","41","75","3","THEN"
"html-keyboard-response","85","138330","0.0-5.0-3.26","6362aca86b740b1ec4cb6efb","bdp_td","Mon Mar 27 2023 16:44:35 GMT-0400 (Eastern Daylight Time)","139336","","null","","","","offerFB","","","<div class='trialBorder'><div class='vertical-center'><img style='vertical-align:center; align:center' src=img/fixation3.jpg></div><div class='cl'><div class='vertical-center'>$41<br><br>now</div></div><div class='cr'><div class='vertical-center'><font style='color:orange'>$75<br>in<br>3 weeks</font></div></div><div class='respDivL'><div class='vertical-center'>(E)</div></div><div class='respDivR'><div class='vertical-center'><font style='color:orange'>(I)</font></div></div></div>","null","$41<br><br>now","$75<br>in<br>3 weeks","0","41","75","3",""
"fullscreen","86","139334","0.0-6.0","6362aca86b740b1ec4cb6efb","bdp_td","Mon Mar 27 2023 16:44:35 GMT-0400 (Eastern Daylight Time)","139336","","","","","","","","true","","","","","","","","",""
"html-keyboard-response","87","139839","0.0-7.0","","","","","","null","","","","","","","","null","","","","","","",""
