"trial_type","trial_index","time_elapsed","internal_node_id","subject_id","task","startTime","totalTime","view_history","rt","event","trial","time","trialtype","success","stimulus","key_press","nowOffer","thenOffer","thenLeft","nowAmt","thenAmt","thenWeeks","chosen"
"pavlovia","0","9","0.0-0.0","615e68b3f55d1cf5f6defc2a","bdp_td","Sat Mar 25 2023 19:23:13 GMT-0700 (Pacific Daylight Time)","163790","","","","","","","","","","","","","","","",""
"instructions","1","4145","0.0-1.0","615e68b3f55d1cf5f6defc2a","bdp_td","Sat Mar 25 2023 19:23:13 GMT-0700 (Pacific Daylight Time)","163790","[{""page_index"":0,""viewing_time"":4135}]","4135","","","","","","","","","","","","","",""
"","","","","615e68b3f55d1cf5f6defc2a","bdp_td","Sat Mar 25 2023 19:23:13 GMT-0700 (Pacific Daylight Time)","163790","","","fullscreenenter","2","7556","fullscreenenter","","","","","","","","","",""
"fullscreen","2","8542","0.0-2.0","615e68b3f55d1cf5f6defc2a","bdp_td","Sat Mar 25 2023 19:23:13 GMT-0700 (Pacific Daylight Time)","163790","","","","","","","true","","","","","","","","",""
"instructions","3","58029","0.0-4.0","615e68b3f55d1cf5f6defc2a","bdp_td","Sat Mar 25 2023 19:23:13 GMT-0700 (Pacific Daylight Time)","163790","[{""page_index"":0,""viewing_time"":13652},{""page_index"":1,""viewing_time"":24720},{""page_index"":2,""viewing_time"":11112}]","49485","","","","","","","","","","","","","",""
"html-keyboard-response","4","58535","0.0-5.0-1.0","615e68b3f55d1cf5f6defc2a","bdp_td","Sat Mar 25 2023 19:23:13 GMT-0700 (Pacific Daylight Time)","163790","","null","","","","FIX","","<div class='trialBorder'><div class='vertical-center'><img style='vertical-align:center; align:center' src=img/fixation3.jpg></div></div>","null","","","","","","",""
"html-keyboard-response","5","65958","0.0-5.0-2.0","615e68b3f55d1cf5f6defc2a","bdp_td","Sat Mar 25 2023 19:23:13 GMT-0700 (Pacific Daylight Time)","163790","","7420","","","","offer","","<div class='trialBorder'><div class='vertical-center'><img style='vertical-align:center; align:center' src=img/fixation3.jpg></div><div class='cl'><div class='vertical-center'>$69<br><br>now</div></div><div class='cr'><div class='vertical-center'>$85<br>in<br>6 weeks</div></div><div class='respDivL'><div class='vertical-center'>(E)</div></div><div class='respDivR'><div class='vertical-center'>(I)</div></div></div>","E","$69<br><br>now","$85<br>in<br>6 weeks","0","69","85","6","NOW"
"html-keyboard-response","6","66214","0.0-5.0-3.0","615e68b3f55d1cf5f6defc2a","bdp_td","Sat Mar 25 2023 19:23:13 GMT-0700 (Pacific Daylight Time)","163790","","null","","","","offerFB","","<div class='trialBorder'><div class='vertical-center'><img style='vertical-align:center; align:center' src=img/fixation3.jpg></div><div class='cl'><div class='vertical-center'><font style='color:orange'>$69<br><br>now</font></div></div><div class='cr'><div class='vertical-center'>$85<br>in<br>6 weeks</div></div><div class='respDivL'><div class='vertical-center'><font style='color:orange'>(E)</font></div></div><div class='respDivR'><div class='vertical-center'>(I)</div></div></div>","null","$69<br><br>now","$85<br>in<br>6 weeks","0","69","85","6",""
"html-keyboard-response","7","66718","0.0-5.0-1.1","615e68b3f55d1cf5f6defc2a","bdp_td","Sat Mar 25 2023 19:23:13 GMT-0700 (Pacific Daylight Time)","163790","","null","","","","FIX","","<div class='trialBorder'><div class='vertical-center'><img style='vertical-align:center; align:center' src=img/fixation3.jpg></div></div>","null","","","","","","",""
"html-keyboard-response","8","69970","0.0-5.0-2.1","615e68b3f55d1cf5f6defc2a","bdp_td","Sat Mar 25 2023 19:23:13 GMT-0700 (Pacific Daylight Time)","163790","","3249","","","","offer","","<div class='trialBorder'><div class='vertical-center'><img style='vertical-align:center; align:center' src=img/fixation3.jpg></div><div class='cl'><div class='vertical-center'>$78<br><br>now</div></div><div class='cr'><div class='vertical-center'>$80<br>in<br>12 weeks</div></div><div class='respDivL'><div class='vertical-center'>(E)</div></div><div class='respDivR'><div class='vertical-center'>(I)</div></div></div>","E","$78<br><br>now","$80<br>in<br>12 weeks","0","78","80","12","NOW"
"html-keyboard-response","9","70230","0.0-5.0-3.1","615e68b3f55d1cf5f6defc2a","bdp_td","Sat Mar 25 2023 19:23:13 GMT-0700 (Pacific Daylight Time)","163790","","null","","","","offerFB","","<div class='trialBorder'><div class='vertical-center'><img style='vertical-align:center; align:center' src=img/fixation3.jpg></div><div class='cl'><div class='vertical-center'><font style='color:orange'>$78<br><br>now</font></div></div><div class='cr'><div class='vertical-center'>$80<br>in<br>12 weeks</div></div><div class='respDivL'><div class='vertical-center'><font style='color:orange'>(E)</font></div></div><div class='respDivR'><div class='vertical-center'>(I)</div></div></div>","null","$78<br><br>now","$80<br>in<br>12 weeks","0","78","80","12",""
"html-keyboard-response","10","70734","0.0-5.0-1.2","615e68b3f55d1cf5f6defc2a","bdp_td","Sat Mar 25 2023 19:23:13 GMT-0700 (Pacific Daylight Time)","163790","","null","","","","FIX","","<div class='trialBorder'><div class='vertical-center'><img style='vertical-align:center; align:center' src=img/fixation3.jpg></div></div>","null","","","","","","",""
"html-keyboard-response","11","72833","0.0-5.0-2.2","615e68b3f55d1cf5f6defc2a","bdp_td","Sat Mar 25 2023 19:23:13 GMT-0700 (Pacific Daylight Time)","163790","","2096","","","","offer","","<div class='trialBorder'><div class='vertical-center'><img style='vertical-align:center; align:center' src=img/fixation3.jpg></div><div class='cl'><div class='vertical-center'>$28<br><br>now</div></div><div class='cr'><div class='vertical-center'>$30<br>in<br>12 weeks</div></div><div class='respDivL'><div class='vertical-center'>(E)</div></div><div class='respDivR'><div class='vertical-center'>(I)</div></div></div>","E","$28<br><br>now","$30<br>in<br>12 weeks","0","28","30","12","NOW"
"html-keyboard-response","12","73086","0.0-5.0-3.2","615e68b3f55d1cf5f6defc2a","bdp_td","Sat Mar 25 2023 19:23:13 GMT-0700 (Pacific Daylight Time)","163790","","null","","","","offerFB","","<div class='trialBorder'><div class='vertical-center'><img style='vertical-align:center; align:center' src=img/fixation3.jpg></div><div class='cl'><div class='vertical-center'><font style='color:orange'>$28<br><br>now</font></div></div><div class='cr'><div class='vertical-center'>$30<br>in<br>12 weeks</div></div><div class='respDivL'><div class='vertical-center'><font style='color:orange'>(E)</font></div></div><div class='respDivR'><div class='vertical-center'>(I)</div></div></div>","null","$28<br><br>now","$30<br>in<br>12 weeks","0","28","30","12",""
"html-keyboard-response","13","73590","0.0-5.0-1.3","615e68b3f55d1cf5f6defc2a","bdp_td","Sat Mar 25 2023 19:23:13 GMT-0700 (Pacific Daylight Time)","163790","","null","","","","FIX","","<div class='trialBorder'><div class='vertical-center'><img style='vertical-align:center; align:center' src=img/fixation3.jpg></div></div>","null","","","","","","",""
"html-keyboard-response","14","77212","0.0-5.0-2.3","615e68b3f55d1cf5f6defc2a","bdp_td","Sat Mar 25 2023 19:23:13 GMT-0700 (Pacific Daylight Time)","163790","","3622","","","","offer","","<div class='trialBorder'><div class='vertical-center'><img style='vertical-align:center; align:center' src=img/fixation3.jpg></div><div class='cl'><div class='vertical-center'>$55<br>in<br>1 week</div></div><div class='cr'><div class='vertical-center'>$20<br><br>now</div></div><div class='respDivL'><div class='vertical-center'>(E)</div></div><div class='respDivR'><div class='vertical-center'>(I)</div></div></div>","E","$20<br><br>now","$55<br>in<br>1 week","1","20","55","1","THEN"
"html-keyboard-response","15","77470","0.0-5.0-3.3","615e68b3f55d1cf5f6defc2a","bdp_td","Sat Mar 25 2023 19:23:13 GMT-0700 (Pacific Daylight Time)","163790","","null","","","","offerFB","","<div class='trialBorder'><div class='vertical-center'><img style='vertical-align:center; align:center' src=img/fixation3.jpg></div><div class='cl'><div class='vertical-center'><font style='color:orange'>$55<br>in<br>1 week</font></div></div><div class='cr'><div class='vertical-center'>$20<br><br>now</div></div><div class='respDivL'><div class='vertical-center'><font style='color:orange'>(E)</font></div></div><div class='respDivR'><div class='vertical-center'>(I)</div></div></div>","null","$20<br><br>now","$55<br>in<br>1 week","1","20","55","1",""
"html-keyboard-response","16","77974","0.0-5.0-1.4","615e68b3f55d1cf5f6defc2a","bdp_td","Sat Mar 25 2023 19:23:13 GMT-0700 (Pacific Daylight Time)","163790","","null","","","","FIX","","<div class='trialBorder'><div class='vertical-center'><img style='vertical-align:center; align:center' src=img/fixation3.jpg></div></div>","null","","","","","","",""
"html-keyboard-response","17","82256","0.0-5.0-2.4","615e68b3f55d1cf5f6defc2a","bdp_td","Sat Mar 25 2023 19:23:13 GMT-0700 (Pacific Daylight Time)","163790","","4279","","","","offer","","<div class='trialBorder'><div class='vertical-center'><img style='vertical-align:center; align:center' src=img/fixation3.jpg></div><div class='cl'><div class='vertical-center'>$85<br>in<br>1 week</div></div><div class='cr'><div class='vertical-center'>$31<br><br>now</div></div><div class='respDivL'><div class='vertical-center'>(E)</div></div><div class='respDivR'><div class='vertical-center'>(I)</div></div></div>","E","$31<br><br>now","$85<br>in<br>1 week","1","31","85","1","THEN"
"html-keyboard-response","18","82510","0.0-5.0-3.4","615e68b3f55d1cf5f6defc2a","bdp_td","Sat Mar 25 2023 19:23:13 GMT-0700 (Pacific Daylight Time)","163790","","null","","","","offerFB","","<div class='trialBorder'><div class='vertical-center'><img style='vertical-align:center; align:center' src=img/fixation3.jpg></div><div class='cl'><div class='vertical-center'><font style='color:orange'>$85<br>in<br>1 week</font></div></div><div class='cr'><div class='vertical-center'>$31<br><br>now</div></div><div class='respDivL'><div class='vertical-center'><font style='color:orange'>(E)</font></div></div><div class='respDivR'><div class='vertical-center'>(I)</div></div></div>","null","$31<br><br>now","$85<br>in<br>1 week","1","31","85","1",""
"html-keyboard-response","19","83014","0.0-5.0-1.5","615e68b3f55d1cf5f6defc2a","bdp_td","Sat Mar 25 2023 19:23:13 GMT-0700 (Pacific Daylight Time)","163790","","null","","","","FIX","","<div class='trialBorder'><div class='vertical-center'><img style='vertical-align:center; align:center' src=img/fixation3.jpg></div></div>","null","","","","","","",""
"html-keyboard-response","20","85680","0.0-5.0-2.5","615e68b3f55d1cf5f6defc2a","bdp_td","Sat Mar 25 2023 19:23:13 GMT-0700 (Pacific Daylight Time)","163790","","2664","","","","offer","","<div class='trialBorder'><div class='vertical-center'><img style='vertical-align:center; align:center' src=img/fixation3.jpg></div><div class='cl'><div class='vertical-center'>$22<br><br>now</div></div><div class='cr'><div class='vertical-center'>$25<br>in<br>12 weeks</div></div><div class='respDivL'><div class='vertical-center'>(E)</div></div><div class='respDivR'><div class='vertical-center'>(I)</div></div></div>","E","$22<br><br>now","$25<br>in<br>12 weeks","0","22","25","12","NOW"
"html-keyboard-response","21","85934","0.0-5.0-3.5","615e68b3f55d1cf5f6defc2a","bdp_td","Sat Mar 25 2023 19:23:13 GMT-0700 (Pacific Daylight Time)","163790","","null","","","","offerFB","","<div class='trialBorder'><div class='vertical-center'><img style='vertical-align:center; align:center' src=img/fixation3.jpg></div><div class='cl'><div class='vertical-center'><font style='color:orange'>$22<br><br>now</font></div></div><div class='cr'><div class='vertical-center'>$25<br>in<br>12 weeks</div></div><div class='respDivL'><div class='vertical-center'><font style='color:orange'>(E)</font></div></div><div class='respDivR'><div class='vertical-center'>(I)</div></div></div>","null","$22<br><br>now","$25<br>in<br>12 weeks","0","22","25","12",""
"html-keyboard-response","22","86438","0.0-5.0-1.6","615e68b3f55d1cf5f6defc2a","bdp_td","Sat Mar 25 2023 19:23:13 GMT-0700 (Pacific Daylight Time)","163790","","null","","","","FIX","","<div class='trialBorder'><div class='vertical-center'><img style='vertical-align:center; align:center' src=img/fixation3.jpg></div></div>","null","","","","","","",""
"html-keyboard-response","23","89052","0.0-5.0-2.6","615e68b3f55d1cf5f6defc2a","bdp_td","Sat Mar 25 2023 19:23:13 GMT-0700 (Pacific Daylight Time)","163790","","2613","","","","offer","","<div class='trialBorder'><div class='vertical-center'><img style='vertical-align:center; align:center' src=img/fixation3.jpg></div><div class='cl'><div class='vertical-center'>$11<br><br>now</div></div><div class='cr'><div class='vertical-center'>$30<br>in<br>2 weeks</div></div><div class='respDivL'><div class='vertical-center'>(E)</div></div><div class='respDivR'><div class='vertical-center'>(I)</div></div></div>","I","$11<br><br>now","$30<br>in<br>2 weeks","0","11","30","2","THEN"
"html-keyboard-response","24","89310","0.0-5.0-3.6","615e68b3f55d1cf5f6defc2a","bdp_td","Sat Mar 25 2023 19:23:13 GMT-0700 (Pacific Daylight Time)","163790","","null","","","","offerFB","","<div class='trialBorder'><div class='vertical-center'><img style='vertical-align:center; align:center' src=img/fixation3.jpg></div><div class='cl'><div class='vertical-center'>$11<br><br>now</div></div><div class='cr'><div class='vertical-center'><font style='color:orange'>$30<br>in<br>2 weeks</font></div></div><div class='respDivL'><div class='vertical-center'>(E)</div></div><div class='respDivR'><div class='vertical-center'><font style='color:orange'>(I)</font></div></div></div>","null","$11<br><br>now","$30<br>in<br>2 weeks","0","11","30","2",""
"html-keyboard-response","25","89814","0.0-5.0-1.7","615e68b3f55d1cf5f6defc2a","bdp_td","Sat Mar 25 2023 19:23:13 GMT-0700 (Pacific Daylight Time)","163790","","null","","","","FIX","","<div class='trialBorder'><div class='vertical-center'><img style='vertical-align:center; align:center' src=img/fixation3.jpg></div></div>","null","","","","","","",""
"html-keyboard-response","26","92535","0.0-5.0-2.7","615e68b3f55d1cf5f6defc2a","bdp_td","Sat Mar 25 2023 19:23:13 GMT-0700 (Pacific Daylight Time)","163790","","2719","","","","offer","","<div class='trialBorder'><div class='vertical-center'><img style='vertical-align:center; align:center' src=img/fixation3.jpg></div><div class='cl'><div class='vertical-center'>$67<br><br>now</div></div><div class='cr'><div class='vertical-center'>$75<br>in<br>12 weeks</div></div><div class='respDivL'><div class='vertical-center'>(E)</div></div><div class='respDivR'><div class='vertical-center'>(I)</div></div></div>","E","$67<br><br>now","$75<br>in<br>12 weeks","0","67","75","12","NOW"
"html-keyboard-response","27","92790","0.0-5.0-3.7","615e68b3f55d1cf5f6defc2a","bdp_td","Sat Mar 25 2023 19:23:13 GMT-0700 (Pacific Daylight Time)","163790","","null","","","","offerFB","","<div class='trialBorder'><div class='vertical-center'><img style='vertical-align:center; align:center' src=img/fixation3.jpg></div><div class='cl'><div class='vertical-center'><font style='color:orange'>$67<br><br>now</font></div></div><div class='cr'><div class='vertical-center'>$75<br>in<br>12 weeks</div></div><div class='respDivL'><div class='vertical-center'><font style='color:orange'>(E)</font></div></div><div class='respDivR'><div class='vertical-center'>(I)</div></div></div>","null","$67<br><br>now","$75<br>in<br>12 weeks","0","67","75","12",""
"html-keyboard-response","28","93294","0.0-5.0-1.8","615e68b3f55d1cf5f6defc2a","bdp_td","Sat Mar 25 2023 19:23:13 GMT-0700 (Pacific Daylight Time)","163790","","null","","","","FIX","","<div class='trialBorder'><div class='vertical-center'><img style='vertical-align:center; align:center' src=img/fixation3.jpg></div></div>","null","","","","","","",""
"html-keyboard-response","29","96373","0.0-5.0-2.8","615e68b3f55d1cf5f6defc2a","bdp_td","Sat Mar 25 2023 19:23:13 GMT-0700 (Pacific Daylight Time)","163790","","3077","","","","offer","","<div class='trialBorder'><div class='vertical-center'><img style='vertical-align:center; align:center' src=img/fixation3.jpg></div><div class='cl'><div class='vertical-center'>$60<br>in<br>3 weeks</div></div><div class='cr'><div class='vertical-center'>$25<br><br>now</div></div><div class='respDivL'><div class='vertical-center'>(E)</div></div><div class='respDivR'><div class='vertical-center'>(I)</div></div></div>","E","$25<br><br>now","$60<br>in<br>3 weeks","1","25","60","3","THEN"
"html-keyboard-response","30","96630","0.0-5.0-3.8","615e68b3f55d1cf5f6defc2a","bdp_td","Sat Mar 25 2023 19:23:13 GMT-0700 (Pacific Daylight Time)","163790","","null","","","","offerFB","","<div class='trialBorder'><div class='vertical-center'><img style='vertical-align:center; align:center' src=img/fixation3.jpg></div><div class='cl'><div class='vertical-center'><font style='color:orange'>$60<br>in<br>3 weeks</font></div></div><div class='cr'><div class='vertical-center'>$25<br><br>now</div></div><div class='respDivL'><div class='vertical-center'><font style='color:orange'>(E)</font></div></div><div class='respDivR'><div class='vertical-center'>(I)</div></div></div>","null","$25<br><br>now","$60<br>in<br>3 weeks","1","25","60","3",""
"html-keyboard-response","31","97134","0.0-5.0-1.9","615e68b3f55d1cf5f6defc2a","bdp_td","Sat Mar 25 2023 19:23:13 GMT-0700 (Pacific Daylight Time)","163790","","null","","","","FIX","","<div class='trialBorder'><div class='vertical-center'><img style='vertical-align:center; align:center' src=img/fixation3.jpg></div></div>","null","","","","","","",""
"html-keyboard-response","32","99544","0.0-5.0-2.9","615e68b3f55d1cf5f6defc2a","bdp_td","Sat Mar 25 2023 19:23:13 GMT-0700 (Pacific Daylight Time)","163790","","2407","","","","offer","","<div class='trialBorder'><div class='vertical-center'><img style='vertical-align:center; align:center' src=img/fixation3.jpg></div><div class='cl'><div class='vertical-center'>$25<br>in<br>6 weeks</div></div><div class='cr'><div class='vertical-center'>$19<br><br>now</div></div><div class='respDivL'><div class='vertical-center'>(E)</div></div><div class='respDivR'><div class='vertical-center'>(I)</div></div></div>","I","$19<br><br>now","$25<br>in<br>6 weeks","1","19","25","6","NOW"
"html-keyboard-response","33","99798","0.0-5.0-3.9","615e68b3f55d1cf5f6defc2a","bdp_td","Sat Mar 25 2023 19:23:13 GMT-0700 (Pacific Daylight Time)","163790","","null","","","","offerFB","","<div class='trialBorder'><div class='vertical-center'><img style='vertical-align:center; align:center' src=img/fixation3.jpg></div><div class='cl'><div class='vertical-center'>$25<br>in<br>6 weeks</div></div><div class='cr'><div class='vertical-center'><font style='color:orange'>$19<br><br>now</font></div></div><div class='respDivL'><div class='vertical-center'>(E)</div></div><div class='respDivR'><div class='vertical-center'><font style='color:orange'>(I)</font></div></div></div>","null","$19<br><br>now","$25<br>in<br>6 weeks","1","19","25","6",""
"html-keyboard-response","34","100302","0.0-5.0-1.10","615e68b3f55d1cf5f6defc2a","bdp_td","Sat Mar 25 2023 19:23:13 GMT-0700 (Pacific Daylight Time)","163790","","null","","","","FIX","","<div class='trialBorder'><div class='vertical-center'><img style='vertical-align:center; align:center' src=img/fixation3.jpg></div></div>","null","","","","","","",""
"html-keyboard-response","35","102429","0.0-5.0-2.10","615e68b3f55d1cf5f6defc2a","bdp_td","Sat Mar 25 2023 19:23:13 GMT-0700 (Pacific Daylight Time)","163790","","2124","","","","offer","","<div class='trialBorder'><div class='vertical-center'><img style='vertical-align:center; align:center' src=img/fixation3.jpg></div><div class='cl'><div class='vertical-center'>$25<br><br>now</div></div><div class='cr'><div class='vertical-center'>$30<br>in<br>6 weeks</div></div><div class='respDivL'><div class='vertical-center'>(E)</div></div><div class='respDivR'><div class='vertical-center'>(I)</div></div></div>","E","$25<br><br>now","$30<br>in<br>6 weeks","0","25","30","6","NOW"
"html-keyboard-response","36","102686","0.0-5.0-3.10","615e68b3f55d1cf5f6defc2a","bdp_td","Sat Mar 25 2023 19:23:13 GMT-0700 (Pacific Daylight Time)","163790","","null","","","","offerFB","","<div class='trialBorder'><div class='vertical-center'><img style='vertical-align:center; align:center' src=img/fixation3.jpg></div><div class='cl'><div class='vertical-center'><font style='color:orange'>$25<br><br>now</font></div></div><div class='cr'><div class='vertical-center'>$30<br>in<br>6 weeks</div></div><div class='respDivL'><div class='vertical-center'><font style='color:orange'>(E)</font></div></div><div class='respDivR'><div class='vertical-center'>(I)</div></div></div>","null","$25<br><br>now","$30<br>in<br>6 weeks","0","25","30","6",""
"html-keyboard-response","37","103190","0.0-5.0-1.11","615e68b3f55d1cf5f6defc2a","bdp_td","Sat Mar 25 2023 19:23:13 GMT-0700 (Pacific Daylight Time)","163790","","null","","","","FIX","","<div class='trialBorder'><div class='vertical-center'><img style='vertical-align:center; align:center' src=img/fixation3.jpg></div></div>","null","","","","","","",""
"html-keyboard-response","38","107440","0.0-5.0-2.11","615e68b3f55d1cf5f6defc2a","bdp_td","Sat Mar 25 2023 19:23:13 GMT-0700 (Pacific Daylight Time)","163790","","4248","","","","offer","","<div class='trialBorder'><div class='vertical-center'><img style='vertical-align:center; align:center' src=img/fixation3.jpg></div><div class='cl'><div class='vertical-center'>$60<br>in<br>6 weeks</div></div><div class='cr'><div class='vertical-center'>$49<br><br>now</div></div><div class='respDivL'><div class='vertical-center'>(E)</div></div><div class='respDivR'><div class='vertical-center'>(I)</div></div></div>","I","$49<br><br>now","$60<br>in<br>6 weeks","1","49","60","6","NOW"
"html-keyboard-response","39","107694","0.0-5.0-3.11","615e68b3f55d1cf5f6defc2a","bdp_td","Sat Mar 25 2023 19:23:13 GMT-0700 (Pacific Daylight Time)","163790","","null","","","","offerFB","","<div class='trialBorder'><div class='vertical-center'><img style='vertical-align:center; align:center' src=img/fixation3.jpg></div><div class='cl'><div class='vertical-center'>$60<br>in<br>6 weeks</div></div><div class='cr'><div class='vertical-center'><font style='color:orange'>$49<br><br>now</font></div></div><div class='respDivL'><div class='vertical-center'>(E)</div></div><div class='respDivR'><div class='vertical-center'><font style='color:orange'>(I)</font></div></div></div>","null","$49<br><br>now","$60<br>in<br>6 weeks","1","49","60","6",""
"html-keyboard-response","40","108198","0.0-5.0-1.12","615e68b3f55d1cf5f6defc2a","bdp_td","Sat Mar 25 2023 19:23:13 GMT-0700 (Pacific Daylight Time)","163790","","null","","","","FIX","","<div class='trialBorder'><div class='vertical-center'><img style='vertical-align:center; align:center' src=img/fixation3.jpg></div></div>","null","","","","","","",""
"html-keyboard-response","41","111777","0.0-5.0-2.12","615e68b3f55d1cf5f6defc2a","bdp_td","Sat Mar 25 2023 19:23:13 GMT-0700 (Pacific Daylight Time)","163790","","3578","","","","offer","","<div class='trialBorder'><div class='vertical-center'><img style='vertical-align:center; align:center' src=img/fixation3.jpg></div><div class='cl'><div class='vertical-center'>$75<br>in<br>3 weeks</div></div><div class='cr'><div class='vertical-center'>$41<br><br>now</div></div><div class='respDivL'><div class='vertical-center'>(E)</div></div><div class='respDivR'><div class='vertical-center'>(I)</div></div></div>","E","$41<br><br>now","$75<br>in<br>3 weeks","1","41","75","3","THEN"
"html-keyboard-response","42","112038","0.0-5.0-3.12","615e68b3f55d1cf5f6defc2a","bdp_td","Sat Mar 25 2023 19:23:13 GMT-0700 (Pacific Daylight Time)","163790","","null","","","","offerFB","","<div class='trialBorder'><div class='vertical-center'><img style='vertical-align:center; align:center' src=img/fixation3.jpg></div><div class='cl'><div class='vertical-center'><font style='color:orange'>$75<br>in<br>3 weeks</font></div></div><div class='cr'><div class='vertical-center'>$41<br><br>now</div></div><div class='respDivL'><div class='vertical-center'><font style='color:orange'>(E)</font></div></div><div class='respDivR'><div class='vertical-center'>(I)</div></div></div>","null","$41<br><br>now","$75<br>in<br>3 weeks","1","41","75","3",""
"html-keyboard-response","43","112542","0.0-5.0-1.13","615e68b3f55d1cf5f6defc2a","bdp_td","Sat Mar 25 2023 19:23:13 GMT-0700 (Pacific Daylight Time)","163790","","null","","","","FIX","","<div class='trialBorder'><div class='vertical-center'><img style='vertical-align:center; align:center' src=img/fixation3.jpg></div></div>","null","","","","","","",""
"html-keyboard-response","44","115169","0.0-5.0-2.13","615e68b3f55d1cf5f6defc2a","bdp_td","Sat Mar 25 2023 19:23:13 GMT-0700 (Pacific Daylight Time)","163790","","2625","","","","offer","","<div class='trialBorder'><div class='vertical-center'><img style='vertical-align:center; align:center' src=img/fixation3.jpg></div><div class='cl'><div class='vertical-center'>$80<br>in<br>3 weeks</div></div><div class='cr'><div class='vertical-center'>$54<br><br>now</div></div><div class='respDivL'><div class='vertical-center'>(E)</div></div><div class='respDivR'><div class='vertical-center'>(I)</div></div></div>","E","$54<br><br>now","$80<br>in<br>3 weeks","1","54","80","3","THEN"
"html-keyboard-response","45","115422","0.0-5.0-3.13","615e68b3f55d1cf5f6defc2a","bdp_td","Sat Mar 25 2023 19:23:13 GMT-0700 (Pacific Daylight Time)","163790","","null","","","","offerFB","","<div class='trialBorder'><div class='vertical-center'><img style='vertical-align:center; align:center' src=img/fixation3.jpg></div><div class='cl'><div class='vertical-center'><font style='color:orange'>$80<br>in<br>3 weeks</font></div></div><div class='cr'><div class='vertical-center'>$54<br><br>now</div></div><div class='respDivL'><div class='vertical-center'><font style='color:orange'>(E)</font></div></div><div class='respDivR'><div class='vertical-center'>(I)</div></div></div>","null","$54<br><br>now","$80<br>in<br>3 weeks","1","54","80","3",""
"html-keyboard-response","46","115926","0.0-5.0-1.14","615e68b3f55d1cf5f6defc2a","bdp_td","Sat Mar 25 2023 19:23:13 GMT-0700 (Pacific Daylight Time)","163790","","null","","","","FIX","","<div class='trialBorder'><div class='vertical-center'><img style='vertical-align:center; align:center' src=img/fixation3.jpg></div></div>","null","","","","","","",""
"html-keyboard-response","47","117422","0.0-5.0-2.14","615e68b3f55d1cf5f6defc2a","bdp_td","Sat Mar 25 2023 19:23:13 GMT-0700 (Pacific Daylight Time)","163790","","1493","","","","offer","","<div class='trialBorder'><div class='vertical-center'><img style='vertical-align:center; align:center' src=img/fixation3.jpg></div><div class='cl'><div class='vertical-center'>$60<br>in<br>12 weeks</div></div><div class='cr'><div class='vertical-center'>$54<br><br>now</div></div><div class='respDivL'><div class='vertical-center'>(E)</div></div><div class='respDivR'><div class='vertical-center'>(I)</div></div></div>","I","$54<br><br>now","$60<br>in<br>12 weeks","1","54","60","12","NOW"
"html-keyboard-response","48","117678","0.0-5.0-3.14","615e68b3f55d1cf5f6defc2a","bdp_td","Sat Mar 25 2023 19:23:13 GMT-0700 (Pacific Daylight Time)","163790","","null","","","","offerFB","","<div class='trialBorder'><div class='vertical-center'><img style='vertical-align:center; align:center' src=img/fixation3.jpg></div><div class='cl'><div class='vertical-center'>$60<br>in<br>12 weeks</div></div><div class='cr'><div class='vertical-center'><font style='color:orange'>$54<br><br>now</font></div></div><div class='respDivL'><div class='vertical-center'>(E)</div></div><div class='respDivR'><div class='vertical-center'><font style='color:orange'>(I)</font></div></div></div>","null","$54<br><br>now","$60<br>in<br>12 weeks","1","54","60","12",""
"html-keyboard-response","49","118182","0.0-5.0-1.15","615e68b3f55d1cf5f6defc2a","bdp_td","Sat Mar 25 2023 19:23:13 GMT-0700 (Pacific Daylight Time)","163790","","null","","","","FIX","","<div class='trialBorder'><div class='vertical-center'><img style='vertical-align:center; align:center' src=img/fixation3.jpg></div></div>","null","","","","","","",""
"html-keyboard-response","50","123820","0.0-5.0-2.15","615e68b3f55d1cf5f6defc2a","bdp_td","Sat Mar 25 2023 19:23:13 GMT-0700 (Pacific Daylight Time)","163790","","5637","","","","offer","","<div class='trialBorder'><div class='vertical-center'><img style='vertical-align:center; align:center' src=img/fixation3.jpg></div><div class='cl'><div class='vertical-center'>$24<br><br>now</div></div><div class='cr'><div class='vertical-center'>$35<br>in<br>3 weeks</div></div><div class='respDivL'><div class='vertical-center'>(E)</div></div><div class='respDivR'><div class='vertical-center'>(I)</div></div></div>","E","$24<br><br>now","$35<br>in<br>3 weeks","0","24","35","3","NOW"
"html-keyboard-response","51","124078","0.0-5.0-3.15","615e68b3f55d1cf5f6defc2a","bdp_td","Sat Mar 25 2023 19:23:13 GMT-0700 (Pacific Daylight Time)","163790","","null","","","","offerFB","","<div class='trialBorder'><div class='vertical-center'><img style='vertical-align:center; align:center' src=img/fixation3.jpg></div><div class='cl'><div class='vertical-center'><font style='color:orange'>$24<br><br>now</font></div></div><div class='cr'><div class='vertical-center'>$35<br>in<br>3 weeks</div></div><div class='respDivL'><div class='vertical-center'><font style='color:orange'>(E)</font></div></div><div class='respDivR'><div class='vertical-center'>(I)</div></div></div>","null","$24<br><br>now","$35<br>in<br>3 weeks","0","24","35","3",""
"html-keyboard-response","52","124582","0.0-5.0-1.16","615e68b3f55d1cf5f6defc2a","bdp_td","Sat Mar 25 2023 19:23:13 GMT-0700 (Pacific Daylight Time)","163790","","null","","","","FIX","","<div class='trialBorder'><div class='vertical-center'><img style='vertical-align:center; align:center' src=img/fixation3.jpg></div></div>","null","","","","","","",""
"html-keyboard-response","53","126337","0.0-5.0-2.16","615e68b3f55d1cf5f6defc2a","bdp_td","Sat Mar 25 2023 19:23:13 GMT-0700 (Pacific Daylight Time)","163790","","1754","","","","offer","","<div class='trialBorder'><div class='vertical-center'><img style='vertical-align:center; align:center' src=img/fixation3.jpg></div><div class='cl'><div class='vertical-center'>$55<br>in<br>12 weeks</div></div><div class='cr'><div class='vertical-center'>$54<br><br>now</div></div><div class='respDivL'><div class='vertical-center'>(E)</div></div><div class='respDivR'><div class='vertical-center'>(I)</div></div></div>","I","$54<br><br>now","$55<br>in<br>12 weeks","1","54","55","12","NOW"
"html-keyboard-response","54","126590","0.0-5.0-3.16","615e68b3f55d1cf5f6defc2a","bdp_td","Sat Mar 25 2023 19:23:13 GMT-0700 (Pacific Daylight Time)","163790","","null","","","","offerFB","","<div class='trialBorder'><div class='vertical-center'><img style='vertical-align:center; align:center' src=img/fixation3.jpg></div><div class='cl'><div class='vertical-center'>$55<br>in<br>12 weeks</div></div><div class='cr'><div class='vertical-center'><font style='color:orange'>$54<br><br>now</font></div></div><div class='respDivL'><div class='vertical-center'>(E)</div></div><div class='respDivR'><div class='vertical-center'><font style='color:orange'>(I)</font></div></div></div>","null","$54<br><br>now","$55<br>in<br>12 weeks","1","54","55","12",""
"html-keyboard-response","55","127094","0.0-5.0-1.17","615e68b3f55d1cf5f6defc2a","bdp_td","Sat Mar 25 2023 19:23:13 GMT-0700 (Pacific Daylight Time)","163790","","null","","","","FIX","","<div class='trialBorder'><div class='vertical-center'><img style='vertical-align:center; align:center' src=img/fixation3.jpg></div></div>","null","","","","","","",""
"html-keyboard-response","56","129511","0.0-5.0-2.17","615e68b3f55d1cf5f6defc2a","bdp_td","Sat Mar 25 2023 19:23:13 GMT-0700 (Pacific Daylight Time)","163790","","2415","","","","offer","","<div class='trialBorder'><div class='vertical-center'><img style='vertical-align:center; align:center' src=img/fixation3.jpg></div><div class='cl'><div class='vertical-center'>$80<br><br>now</div></div><div class='cr'><div class='vertical-center'>$85<br>in<br>12 weeks</div></div><div class='respDivL'><div class='vertical-center'>(E)</div></div><div class='respDivR'><div class='vertical-center'>(I)</div></div></div>","E","$80<br><br>now","$85<br>in<br>12 weeks","0","80","85","12","NOW"
"html-keyboard-response","57","129766","0.0-5.0-3.17","615e68b3f55d1cf5f6defc2a","bdp_td","Sat Mar 25 2023 19:23:13 GMT-0700 (Pacific Daylight Time)","163790","","null","","","","offerFB","","<div class='trialBorder'><div class='vertical-center'><img style='vertical-align:center; align:center' src=img/fixation3.jpg></div><div class='cl'><div class='vertical-center'><font style='color:orange'>$80<br><br>now</font></div></div><div class='cr'><div class='vertical-center'>$85<br>in<br>12 weeks</div></div><div class='respDivL'><div class='vertical-center'><font style='color:orange'>(E)</font></div></div><div class='respDivR'><div class='vertical-center'>(I)</div></div></div>","null","$80<br><br>now","$85<br>in<br>12 weeks","0","80","85","12",""
"html-keyboard-response","58","130270","0.0-5.0-1.18","615e68b3f55d1cf5f6defc2a","bdp_td","Sat Mar 25 2023 19:23:13 GMT-0700 (Pacific Daylight Time)","163790","","null","","","","FIX","","<div class='trialBorder'><div class='vertical-center'><img style='vertical-align:center; align:center' src=img/fixation3.jpg></div></div>","null","","","","","","",""
"html-keyboard-response","59","132261","0.0-5.0-2.18","615e68b3f55d1cf5f6defc2a","bdp_td","Sat Mar 25 2023 19:23:13 GMT-0700 (Pacific Daylight Time)","163790","","1989","","","","offer","","<div class='trialBorder'><div class='vertical-center'><img style='vertical-align:center; align:center' src=img/fixation3.jpg></div><div class='cl'><div class='vertical-center'>$33<br><br>now</div></div><div class='cr'><div class='vertical-center'>$80<br>in<br>2 weeks</div></div><div class='respDivL'><div class='vertical-center'>(E)</div></div><div class='respDivR'><div class='vertical-center'>(I)</div></div></div>","I","$33<br><br>now","$80<br>in<br>2 weeks","0","33","80","2","THEN"
"html-keyboard-response","60","132518","0.0-5.0-3.18","615e68b3f55d1cf5f6defc2a","bdp_td","Sat Mar 25 2023 19:23:13 GMT-0700 (Pacific Daylight Time)","163790","","null","","","","offerFB","","<div class='trialBorder'><div class='vertical-center'><img style='vertical-align:center; align:center' src=img/fixation3.jpg></div><div class='cl'><div class='vertical-center'>$33<br><br>now</div></div><div class='cr'><div class='vertical-center'><font style='color:orange'>$80<br>in<br>2 weeks</font></div></div><div class='respDivL'><div class='vertical-center'>(E)</div></div><div class='respDivR'><div class='vertical-center'><font style='color:orange'>(I)</font></div></div></div>","null","$33<br><br>now","$80<br>in<br>2 weeks","0","33","80","2",""
"html-keyboard-response","61","133022","0.0-5.0-1.19","615e68b3f55d1cf5f6defc2a","bdp_td","Sat Mar 25 2023 19:23:13 GMT-0700 (Pacific Daylight Time)","163790","","null","","","","FIX","","<div class='trialBorder'><div class='vertical-center'><img style='vertical-align:center; align:center' src=img/fixation3.jpg></div></div>","null","","","","","","",""
"html-keyboard-response","62","136102","0.0-5.0-2.19","615e68b3f55d1cf5f6defc2a","bdp_td","Sat Mar 25 2023 19:23:13 GMT-0700 (Pacific Daylight Time)","163790","","3077","","","","offer","","<div class='trialBorder'><div class='vertical-center'><img style='vertical-align:center; align:center' src=img/fixation3.jpg></div><div class='cl'><div class='vertical-center'>$55<br>in<br>6 weeks</div></div><div class='cr'><div class='vertical-center'>$40<br><br>now</div></div><div class='respDivL'><div class='vertical-center'>(E)</div></div><div class='respDivR'><div class='vertical-center'>(I)</div></div></div>","I","$40<br><br>now","$55<br>in<br>6 weeks","1","40","55","6","NOW"
"html-keyboard-response","63","136358","0.0-5.0-3.19","615e68b3f55d1cf5f6defc2a","bdp_td","Sat Mar 25 2023 19:23:13 GMT-0700 (Pacific Daylight Time)","163790","","null","","","","offerFB","","<div class='trialBorder'><div class='vertical-center'><img style='vertical-align:center; align:center' src=img/fixation3.jpg></div><div class='cl'><div class='vertical-center'>$55<br>in<br>6 weeks</div></div><div class='cr'><div class='vertical-center'><font style='color:orange'>$40<br><br>now</font></div></div><div class='respDivL'><div class='vertical-center'>(E)</div></div><div class='respDivR'><div class='vertical-center'><font style='color:orange'>(I)</font></div></div></div>","null","$40<br><br>now","$55<br>in<br>6 weeks","1","40","55","6",""
"html-keyboard-response","64","136862","0.0-5.0-1.20","615e68b3f55d1cf5f6defc2a","bdp_td","Sat Mar 25 2023 19:23:13 GMT-0700 (Pacific Daylight Time)","163790","","null","","","","FIX","","<div class='trialBorder'><div class='vertical-center'><img style='vertical-align:center; align:center' src=img/fixation3.jpg></div></div>","null","","","","","","",""
"html-keyboard-response","65","139936","0.0-5.0-2.20","615e68b3f55d1cf5f6defc2a","bdp_td","Sat Mar 25 2023 19:23:13 GMT-0700 (Pacific Daylight Time)","163790","","3072","","","","offer","","<div class='trialBorder'><div class='vertical-center'><img style='vertical-align:center; align:center' src=img/fixation3.jpg></div><div class='cl'><div class='vertical-center'>$25<br>in<br>3 weeks</div></div><div class='cr'><div class='vertical-center'>$14<br><br>now</div></div><div class='respDivL'><div class='vertical-center'>(E)</div></div><div class='respDivR'><div class='vertical-center'>(I)</div></div></div>","I","$14<br><br>now","$25<br>in<br>3 weeks","1","14","25","3","NOW"
"html-keyboard-response","66","140190","0.0-5.0-3.20","615e68b3f55d1cf5f6defc2a","bdp_td","Sat Mar 25 2023 19:23:13 GMT-0700 (Pacific Daylight Time)","163790","","null","","","","offerFB","","<div class='trialBorder'><div class='vertical-center'><img style='vertical-align:center; align:center' src=img/fixation3.jpg></div><div class='cl'><div class='vertical-center'>$25<br>in<br>3 weeks</div></div><div class='cr'><div class='vertical-center'><font style='color:orange'>$14<br><br>now</font></div></div><div class='respDivL'><div class='vertical-center'>(E)</div></div><div class='respDivR'><div class='vertical-center'><font style='color:orange'>(I)</font></div></div></div>","null","$14<br><br>now","$25<br>in<br>3 weeks","1","14","25","3",""
"html-keyboard-response","67","140694","0.0-5.0-1.21","615e68b3f55d1cf5f6defc2a","bdp_td","Sat Mar 25 2023 19:23:13 GMT-0700 (Pacific Daylight Time)","163790","","null","","","","FIX","","<div class='trialBorder'><div class='vertical-center'><img style='vertical-align:center; align:center' src=img/fixation3.jpg></div></div>","null","","","","","","",""
"html-keyboard-response","68","142385","0.0-5.0-2.21","615e68b3f55d1cf5f6defc2a","bdp_td","Sat Mar 25 2023 19:23:13 GMT-0700 (Pacific Daylight Time)","163790","","1689","","","","offer","","<div class='trialBorder'><div class='vertical-center'><img style='vertical-align:center; align:center' src=img/fixation3.jpg></div><div class='cl'><div class='vertical-center'>$50<br>in<br>12 weeks</div></div><div class='cr'><div class='vertical-center'>$47<br><br>now</div></div><div class='respDivL'><div class='vertical-center'>(E)</div></div><div class='respDivR'><div class='vertical-center'>(I)</div></div></div>","I","$47<br><br>now","$50<br>in<br>12 weeks","1","47","50","12","NOW"
"html-keyboard-response","69","142638","0.0-5.0-3.21","615e68b3f55d1cf5f6defc2a","bdp_td","Sat Mar 25 2023 19:23:13 GMT-0700 (Pacific Daylight Time)","163790","","null","","","","offerFB","","<div class='trialBorder'><div class='vertical-center'><img style='vertical-align:center; align:center' src=img/fixation3.jpg></div><div class='cl'><div class='vertical-center'>$50<br>in<br>12 weeks</div></div><div class='cr'><div class='vertical-center'><font style='color:orange'>$47<br><br>now</font></div></div><div class='respDivL'><div class='vertical-center'>(E)</div></div><div class='respDivR'><div class='vertical-center'><font style='color:orange'>(I)</font></div></div></div>","null","$47<br><br>now","$50<br>in<br>12 weeks","1","47","50","12",""
"html-keyboard-response","70","143142","0.0-5.0-1.22","615e68b3f55d1cf5f6defc2a","bdp_td","Sat Mar 25 2023 19:23:13 GMT-0700 (Pacific Daylight Time)","163790","","null","","","","FIX","","<div class='trialBorder'><div class='vertical-center'><img style='vertical-align:center; align:center' src=img/fixation3.jpg></div></div>","null","","","","","","",""
"html-keyboard-response","71","148753","0.0-5.0-2.22","615e68b3f55d1cf5f6defc2a","bdp_td","Sat Mar 25 2023 19:23:13 GMT-0700 (Pacific Daylight Time)","163790","","5609","","","","offer","","<div class='trialBorder'><div class='vertical-center'><img style='vertical-align:center; align:center' src=img/fixation3.jpg></div><div class='cl'><div class='vertical-center'>$55<br><br>now</div></div><div class='cr'><div class='vertical-center'>$75<br>in<br>6 weeks</div></div><div class='respDivL'><div class='vertical-center'>(E)</div></div><div class='respDivR'><div class='vertical-center'>(I)</div></div></div>","E","$55<br><br>now","$75<br>in<br>6 weeks","0","55","75","6","NOW"
"html-keyboard-response","72","149014","0.0-5.0-3.22","615e68b3f55d1cf5f6defc2a","bdp_td","Sat Mar 25 2023 19:23:13 GMT-0700 (Pacific Daylight Time)","163790","","null","","","","offerFB","","<div class='trialBorder'><div class='vertical-center'><img style='vertical-align:center; align:center' src=img/fixation3.jpg></div><div class='cl'><div class='vertical-center'><font style='color:orange'>$55<br><br>now</font></div></div><div class='cr'><div class='vertical-center'>$75<br>in<br>6 weeks</div></div><div class='respDivL'><div class='vertical-center'><font style='color:orange'>(E)</font></div></div><div class='respDivR'><div class='vertical-center'>(I)</div></div></div>","null","$55<br><br>now","$75<br>in<br>6 weeks","0","55","75","6",""
"html-keyboard-response","73","149518","0.0-5.0-1.23","615e68b3f55d1cf5f6defc2a","bdp_td","Sat Mar 25 2023 19:23:13 GMT-0700 (Pacific Daylight Time)","163790","","null","","","","FIX","","<div class='trialBorder'><div class='vertical-center'><img style='vertical-align:center; align:center' src=img/fixation3.jpg></div></div>","null","","","","","","",""
"html-keyboard-response","74","153017","0.0-5.0-2.23","615e68b3f55d1cf5f6defc2a","bdp_td","Sat Mar 25 2023 19:23:13 GMT-0700 (Pacific Daylight Time)","163790","","3498","","","","offer","","<div class='trialBorder'><div class='vertical-center'><img style='vertical-align:center; align:center' src=img/fixation3.jpg></div><div class='cl'><div class='vertical-center'>$34<br><br>now</div></div><div class='cr'><div class='vertical-center'>$50<br>in<br>6 weeks</div></div><div class='respDivL'><div class='vertical-center'>(E)</div></div><div class='respDivR'><div class='vertical-center'>(I)</div></div></div>","E","$34<br><br>now","$50<br>in<br>6 weeks","0","34","50","6","NOW"
"html-keyboard-response","75","153278","0.0-5.0-3.23","615e68b3f55d1cf5f6defc2a","bdp_td","Sat Mar 25 2023 19:23:13 GMT-0700 (Pacific Daylight Time)","163790","","null","","","","offerFB","","<div class='trialBorder'><div class='vertical-center'><img style='vertical-align:center; align:center' src=img/fixation3.jpg></div><div class='cl'><div class='vertical-center'><font style='color:orange'>$34<br><br>now</font></div></div><div class='cr'><div class='vertical-center'>$50<br>in<br>6 weeks</div></div><div class='respDivL'><div class='vertical-center'><font style='color:orange'>(E)</font></div></div><div class='respDivR'><div class='vertical-center'>(I)</div></div></div>","null","$34<br><br>now","$50<br>in<br>6 weeks","0","34","50","6",""
"html-keyboard-response","76","153782","0.0-5.0-1.24","615e68b3f55d1cf5f6defc2a","bdp_td","Sat Mar 25 2023 19:23:13 GMT-0700 (Pacific Daylight Time)","163790","","null","","","","FIX","","<div class='trialBorder'><div class='vertical-center'><img style='vertical-align:center; align:center' src=img/fixation3.jpg></div></div>","null","","","","","","",""
"html-keyboard-response","77","155212","0.0-5.0-2.24","615e68b3f55d1cf5f6defc2a","bdp_td","Sat Mar 25 2023 19:23:13 GMT-0700 (Pacific Daylight Time)","163790","","1428","","","","offer","","<div class='trialBorder'><div class='vertical-center'><img style='vertical-align:center; align:center' src=img/fixation3.jpg></div><div class='cl'><div class='vertical-center'>$35<br>in<br>12 weeks</div></div><div class='cr'><div class='vertical-center'>$34<br><br>now</div></div><div class='respDivL'><div class='vertical-center'>(E)</div></div><div class='respDivR'><div class='vertical-center'>(I)</div></div></div>","I","$34<br><br>now","$35<br>in<br>12 weeks","1","34","35","12","NOW"
"html-keyboard-response","78","155470","0.0-5.0-3.24","615e68b3f55d1cf5f6defc2a","bdp_td","Sat Mar 25 2023 19:23:13 GMT-0700 (Pacific Daylight Time)","163790","","null","","","","offerFB","","<div class='trialBorder'><div class='vertical-center'><img style='vertical-align:center; align:center' src=img/fixation3.jpg></div><div class='cl'><div class='vertical-center'>$35<br>in<br>12 weeks</div></div><div class='cr'><div class='vertical-center'><font style='color:orange'>$34<br><br>now</font></div></div><div class='respDivL'><div class='vertical-center'>(E)</div></div><div class='respDivR'><div class='vertical-center'><font style='color:orange'>(I)</font></div></div></div>","null","$34<br><br>now","$35<br>in<br>12 weeks","1","34","35","12",""
"html-keyboard-response","79","155974","0.0-5.0-1.25","615e68b3f55d1cf5f6defc2a","bdp_td","Sat Mar 25 2023 19:23:13 GMT-0700 (Pacific Daylight Time)","163790","","null","","","","FIX","","<div class='trialBorder'><div class='vertical-center'><img style='vertical-align:center; align:center' src=img/fixation3.jpg></div></div>","null","","","","","","",""
"html-keyboard-response","80","159158","0.0-5.0-2.25","615e68b3f55d1cf5f6defc2a","bdp_td","Sat Mar 25 2023 19:23:13 GMT-0700 (Pacific Daylight Time)","163790","","3182","","","","offer","","<div class='trialBorder'><div class='vertical-center'><img style='vertical-align:center; align:center' src=img/fixation3.jpg></div><div class='cl'><div class='vertical-center'>$50<br>in<br>3 weeks</div></div><div class='cr'><div class='vertical-center'>$27<br><br>now</div></div><div class='respDivL'><div class='vertical-center'>(E)</div></div><div class='respDivR'><div class='vertical-center'>(I)</div></div></div>","E","$27<br><br>now","$50<br>in<br>3 weeks","1","27","50","3","THEN"
"html-keyboard-response","81","159414","0.0-5.0-3.25","615e68b3f55d1cf5f6defc2a","bdp_td","Sat Mar 25 2023 19:23:13 GMT-0700 (Pacific Daylight Time)","163790","","null","","","","offerFB","","<div class='trialBorder'><div class='vertical-center'><img style='vertical-align:center; align:center' src=img/fixation3.jpg></div><div class='cl'><div class='vertical-center'><font style='color:orange'>$50<br>in<br>3 weeks</font></div></div><div class='cr'><div class='vertical-center'>$27<br><br>now</div></div><div class='respDivL'><div class='vertical-center'><font style='color:orange'>(E)</font></div></div><div class='respDivR'><div class='vertical-center'>(I)</div></div></div>","null","$27<br><br>now","$50<br>in<br>3 weeks","1","27","50","3",""
"html-keyboard-response","82","159918","0.0-5.0-1.26","615e68b3f55d1cf5f6defc2a","bdp_td","Sat Mar 25 2023 19:23:13 GMT-0700 (Pacific Daylight Time)","163790","","null","","","","FIX","","<div class='trialBorder'><div class='vertical-center'><img style='vertical-align:center; align:center' src=img/fixation3.jpg></div></div>","null","","","","","","",""
"html-keyboard-response","83","162527","0.0-5.0-2.26","615e68b3f55d1cf5f6defc2a","bdp_td","Sat Mar 25 2023 19:23:13 GMT-0700 (Pacific Daylight Time)","163790","","2608","","","","offer","","<div class='trialBorder'><div class='vertical-center'><img style='vertical-align:center; align:center' src=img/fixation3.jpg></div><div class='cl'><div class='vertical-center'>$15<br><br>now</div></div><div class='cr'><div class='vertical-center'>$35<br>in<br>2 weeks</div></div><div class='respDivL'><div class='vertical-center'>(E)</div></div><div class='respDivR'><div class='vertical-center'>(I)</div></div></div>","I","$15<br><br>now","$35<br>in<br>2 weeks","0","15","35","2","THEN"
"html-keyboard-response","84","162782","0.0-5.0-3.26","615e68b3f55d1cf5f6defc2a","bdp_td","Sat Mar 25 2023 19:23:13 GMT-0700 (Pacific Daylight Time)","163790","","null","","","","offerFB","","<div class='trialBorder'><div class='vertical-center'><img style='vertical-align:center; align:center' src=img/fixation3.jpg></div><div class='cl'><div class='vertical-center'>$15<br><br>now</div></div><div class='cr'><div class='vertical-center'><font style='color:orange'>$35<br>in<br>2 weeks</font></div></div><div class='respDivL'><div class='vertical-center'>(E)</div></div><div class='respDivR'><div class='vertical-center'><font style='color:orange'>(I)</font></div></div></div>","null","$15<br><br>now","$35<br>in<br>2 weeks","0","15","35","2",""
"","","","","615e68b3f55d1cf5f6defc2a","bdp_td","Sat Mar 25 2023 19:23:13 GMT-0700 (Pacific Daylight Time)","163790","","","fullscreenexit","85","162800","fullscreenexit","","","","","","","","","",""
"fullscreen","85","163790","0.0-6.0","615e68b3f55d1cf5f6defc2a","bdp_td","Sat Mar 25 2023 19:23:13 GMT-0700 (Pacific Daylight Time)","163790","","","","","","","true","","","","","","","","",""
"html-keyboard-response","86","164294","0.0-7.0","","","","","","null","","","","","","","null","","","","","","",""
