"trial_type","trial_index","time_elapsed","internal_node_id","subject_id","task","startTime","totalTime","view_history","rt","event","trial","time","trialtype","success","stimulus","key_press","nowOffer","thenOffer","thenLeft","nowAmt","thenAmt","thenWeeks","chosen"
"pavlovia","0","8","0.0-0.0","63ed1fa5c88ecae92bf0c920","bdp_td","Sun Mar 26 2023 11:16:54 GMT-0400 (Eastern Daylight Time)","114824","","","","","","","","","","","","","","","",""
"instructions","1","2312","0.0-1.0","63ed1fa5c88ecae92bf0c920","bdp_td","Sun Mar 26 2023 11:16:54 GMT-0400 (Eastern Daylight Time)","114824","[{""page_index"":0,""viewing_time"":2303}]","2303","","","","","","","","","","","","","",""
"","","","","63ed1fa5c88ecae92bf0c920","bdp_td","Sun Mar 26 2023 11:16:54 GMT-0400 (Eastern Daylight Time)","114824","","","fullscreenenter","2","4372","fullscreenenter","","","","","","","","","",""
"fullscreen","2","5360","0.0-2.0","63ed1fa5c88ecae92bf0c920","bdp_td","Sun Mar 26 2023 11:16:54 GMT-0400 (Eastern Daylight Time)","114824","","","","","","","true","","","","","","","","",""
"instructions","3","33665","0.0-4.0","63ed1fa5c88ecae92bf0c920","bdp_td","Sun Mar 26 2023 11:16:54 GMT-0400 (Eastern Daylight Time)","114824","[{""page_index"":0,""viewing_time"":9940},{""page_index"":1,""viewing_time"":10285},{""page_index"":2,""viewing_time"":8079}]","28304","","","","","","","","","","","","","",""
"html-keyboard-response","4","34168","0.0-5.0-1.0","63ed1fa5c88ecae92bf0c920","bdp_td","Sun Mar 26 2023 11:16:54 GMT-0400 (Eastern Daylight Time)","114824","","null","","","","FIX","","<div class='trialBorder'><div class='vertical-center'><img style='vertical-align:center; align:center' src=img/fixation3.jpg></div></div>","null","","","","","","",""
"html-keyboard-response","5","36672","0.0-5.0-2.0","63ed1fa5c88ecae92bf0c920","bdp_td","Sun Mar 26 2023 11:16:54 GMT-0400 (Eastern Daylight Time)","114824","","2502","","","","offer","","<div class='trialBorder'><div class='vertical-center'><img style='vertical-align:center; align:center' src=img/fixation3.jpg></div><div class='cl'><div class='vertical-center'>$35<br>in<br>2 weeks</div></div><div class='cr'><div class='vertical-center'>$15<br><br>now</div></div><div class='respDivL'><div class='vertical-center'>(E)</div></div><div class='respDivR'><div class='vertical-center'>(I)</div></div></div>","E","$15<br><br>now","$35<br>in<br>2 weeks","1","15","35","2","THEN"
"html-keyboard-response","6","36926","0.0-5.0-3.0","63ed1fa5c88ecae92bf0c920","bdp_td","Sun Mar 26 2023 11:16:54 GMT-0400 (Eastern Daylight Time)","114824","","null","","","","offerFB","","<div class='trialBorder'><div class='vertical-center'><img style='vertical-align:center; align:center' src=img/fixation3.jpg></div><div class='cl'><div class='vertical-center'><font style='color:orange'>$35<br>in<br>2 weeks</font></div></div><div class='cr'><div class='vertical-center'>$15<br><br>now</div></div><div class='respDivL'><div class='vertical-center'><font style='color:orange'>(E)</font></div></div><div class='respDivR'><div class='vertical-center'>(I)</div></div></div>","null","$15<br><br>now","$35<br>in<br>2 weeks","1","15","35","2",""
"html-keyboard-response","7","37428","0.0-5.0-1.1","63ed1fa5c88ecae92bf0c920","bdp_td","Sun Mar 26 2023 11:16:54 GMT-0400 (Eastern Daylight Time)","114824","","null","","","","FIX","","<div class='trialBorder'><div class='vertical-center'><img style='vertical-align:center; align:center' src=img/fixation3.jpg></div></div>","null","","","","","","",""
"html-keyboard-response","8","39479","0.0-5.0-2.1","63ed1fa5c88ecae92bf0c920","bdp_td","Sun Mar 26 2023 11:16:54 GMT-0400 (Eastern Daylight Time)","114824","","2049","","","","offer","","<div class='trialBorder'><div class='vertical-center'><img style='vertical-align:center; align:center' src=img/fixation3.jpg></div><div class='cl'><div class='vertical-center'>$30<br>in<br>2 weeks</div></div><div class='cr'><div class='vertical-center'>$11<br><br>now</div></div><div class='respDivL'><div class='vertical-center'>(E)</div></div><div class='respDivR'><div class='vertical-center'>(I)</div></div></div>","E","$11<br><br>now","$30<br>in<br>2 weeks","1","11","30","2","THEN"
"html-keyboard-response","9","39732","0.0-5.0-3.1","63ed1fa5c88ecae92bf0c920","bdp_td","Sun Mar 26 2023 11:16:54 GMT-0400 (Eastern Daylight Time)","114824","","null","","","","offerFB","","<div class='trialBorder'><div class='vertical-center'><img style='vertical-align:center; align:center' src=img/fixation3.jpg></div><div class='cl'><div class='vertical-center'><font style='color:orange'>$30<br>in<br>2 weeks</font></div></div><div class='cr'><div class='vertical-center'>$11<br><br>now</div></div><div class='respDivL'><div class='vertical-center'><font style='color:orange'>(E)</font></div></div><div class='respDivR'><div class='vertical-center'>(I)</div></div></div>","null","$11<br><br>now","$30<br>in<br>2 weeks","1","11","30","2",""
"html-keyboard-response","10","40234","0.0-5.0-1.2","63ed1fa5c88ecae92bf0c920","bdp_td","Sun Mar 26 2023 11:16:54 GMT-0400 (Eastern Daylight Time)","114824","","null","","","","FIX","","<div class='trialBorder'><div class='vertical-center'><img style='vertical-align:center; align:center' src=img/fixation3.jpg></div></div>","null","","","","","","",""
"html-keyboard-response","11","42466","0.0-5.0-2.2","63ed1fa5c88ecae92bf0c920","bdp_td","Sun Mar 26 2023 11:16:54 GMT-0400 (Eastern Daylight Time)","114824","","2229","","","","offer","","<div class='trialBorder'><div class='vertical-center'><img style='vertical-align:center; align:center' src=img/fixation3.jpg></div><div class='cl'><div class='vertical-center'>$30<br>in<br>12 weeks</div></div><div class='cr'><div class='vertical-center'>$28<br><br>now</div></div><div class='respDivL'><div class='vertical-center'>(E)</div></div><div class='respDivR'><div class='vertical-center'>(I)</div></div></div>","I","$28<br><br>now","$30<br>in<br>12 weeks","1","28","30","12","NOW"
"html-keyboard-response","12","42718","0.0-5.0-3.2","63ed1fa5c88ecae92bf0c920","bdp_td","Sun Mar 26 2023 11:16:54 GMT-0400 (Eastern Daylight Time)","114824","","null","","","","offerFB","","<div class='trialBorder'><div class='vertical-center'><img style='vertical-align:center; align:center' src=img/fixation3.jpg></div><div class='cl'><div class='vertical-center'>$30<br>in<br>12 weeks</div></div><div class='cr'><div class='vertical-center'><font style='color:orange'>$28<br><br>now</font></div></div><div class='respDivL'><div class='vertical-center'>(E)</div></div><div class='respDivR'><div class='vertical-center'><font style='color:orange'>(I)</font></div></div></div>","null","$28<br><br>now","$30<br>in<br>12 weeks","1","28","30","12",""
"html-keyboard-response","13","43220","0.0-5.0-1.3","63ed1fa5c88ecae92bf0c920","bdp_td","Sun Mar 26 2023 11:16:54 GMT-0400 (Eastern Daylight Time)","114824","","null","","","","FIX","","<div class='trialBorder'><div class='vertical-center'><img style='vertical-align:center; align:center' src=img/fixation3.jpg></div></div>","null","","","","","","",""
"html-keyboard-response","14","45308","0.0-5.0-2.3","63ed1fa5c88ecae92bf0c920","bdp_td","Sun Mar 26 2023 11:16:54 GMT-0400 (Eastern Daylight Time)","114824","","2086","","","","offer","","<div class='trialBorder'><div class='vertical-center'><img style='vertical-align:center; align:center' src=img/fixation3.jpg></div><div class='cl'><div class='vertical-center'>$60<br>in<br>3 weeks</div></div><div class='cr'><div class='vertical-center'>$25<br><br>now</div></div><div class='respDivL'><div class='vertical-center'>(E)</div></div><div class='respDivR'><div class='vertical-center'>(I)</div></div></div>","E","$25<br><br>now","$60<br>in<br>3 weeks","1","25","60","3","THEN"
"html-keyboard-response","15","45561","0.0-5.0-3.3","63ed1fa5c88ecae92bf0c920","bdp_td","Sun Mar 26 2023 11:16:54 GMT-0400 (Eastern Daylight Time)","114824","","null","","","","offerFB","","<div class='trialBorder'><div class='vertical-center'><img style='vertical-align:center; align:center' src=img/fixation3.jpg></div><div class='cl'><div class='vertical-center'><font style='color:orange'>$60<br>in<br>3 weeks</font></div></div><div class='cr'><div class='vertical-center'>$25<br><br>now</div></div><div class='respDivL'><div class='vertical-center'><font style='color:orange'>(E)</font></div></div><div class='respDivR'><div class='vertical-center'>(I)</div></div></div>","null","$25<br><br>now","$60<br>in<br>3 weeks","1","25","60","3",""
"html-keyboard-response","16","46063","0.0-5.0-1.4","63ed1fa5c88ecae92bf0c920","bdp_td","Sun Mar 26 2023 11:16:54 GMT-0400 (Eastern Daylight Time)","114824","","null","","","","FIX","","<div class='trialBorder'><div class='vertical-center'><img style='vertical-align:center; align:center' src=img/fixation3.jpg></div></div>","null","","","","","","",""
"html-keyboard-response","17","48215","0.0-5.0-2.4","63ed1fa5c88ecae92bf0c920","bdp_td","Sun Mar 26 2023 11:16:54 GMT-0400 (Eastern Daylight Time)","114824","","2151","","","","offer","","<div class='trialBorder'><div class='vertical-center'><img style='vertical-align:center; align:center' src=img/fixation3.jpg></div><div class='cl'><div class='vertical-center'>$49<br><br>now</div></div><div class='cr'><div class='vertical-center'>$60<br>in<br>6 weeks</div></div><div class='respDivL'><div class='vertical-center'>(E)</div></div><div class='respDivR'><div class='vertical-center'>(I)</div></div></div>","E","$49<br><br>now","$60<br>in<br>6 weeks","0","49","60","6","NOW"
"html-keyboard-response","18","48468","0.0-5.0-3.4","63ed1fa5c88ecae92bf0c920","bdp_td","Sun Mar 26 2023 11:16:54 GMT-0400 (Eastern Daylight Time)","114824","","null","","","","offerFB","","<div class='trialBorder'><div class='vertical-center'><img style='vertical-align:center; align:center' src=img/fixation3.jpg></div><div class='cl'><div class='vertical-center'><font style='color:orange'>$49<br><br>now</font></div></div><div class='cr'><div class='vertical-center'>$60<br>in<br>6 weeks</div></div><div class='respDivL'><div class='vertical-center'><font style='color:orange'>(E)</font></div></div><div class='respDivR'><div class='vertical-center'>(I)</div></div></div>","null","$49<br><br>now","$60<br>in<br>6 weeks","0","49","60","6",""
"html-keyboard-response","19","48971","0.0-5.0-1.5","63ed1fa5c88ecae92bf0c920","bdp_td","Sun Mar 26 2023 11:16:54 GMT-0400 (Eastern Daylight Time)","114824","","null","","","","FIX","","<div class='trialBorder'><div class='vertical-center'><img style='vertical-align:center; align:center' src=img/fixation3.jpg></div></div>","null","","","","","","",""
"html-keyboard-response","20","50570","0.0-5.0-2.5","63ed1fa5c88ecae92bf0c920","bdp_td","Sun Mar 26 2023 11:16:54 GMT-0400 (Eastern Daylight Time)","114824","","1597","","","","offer","","<div class='trialBorder'><div class='vertical-center'><img style='vertical-align:center; align:center' src=img/fixation3.jpg></div><div class='cl'><div class='vertical-center'>$80<br><br>now</div></div><div class='cr'><div class='vertical-center'>$85<br>in<br>12 weeks</div></div><div class='respDivL'><div class='vertical-center'>(E)</div></div><div class='respDivR'><div class='vertical-center'>(I)</div></div></div>","E","$80<br><br>now","$85<br>in<br>12 weeks","0","80","85","12","NOW"
"html-keyboard-response","21","50822","0.0-5.0-3.5","63ed1fa5c88ecae92bf0c920","bdp_td","Sun Mar 26 2023 11:16:54 GMT-0400 (Eastern Daylight Time)","114824","","null","","","","offerFB","","<div class='trialBorder'><div class='vertical-center'><img style='vertical-align:center; align:center' src=img/fixation3.jpg></div><div class='cl'><div class='vertical-center'><font style='color:orange'>$80<br><br>now</font></div></div><div class='cr'><div class='vertical-center'>$85<br>in<br>12 weeks</div></div><div class='respDivL'><div class='vertical-center'><font style='color:orange'>(E)</font></div></div><div class='respDivR'><div class='vertical-center'>(I)</div></div></div>","null","$80<br><br>now","$85<br>in<br>12 weeks","0","80","85","12",""
"html-keyboard-response","22","51325","0.0-5.0-1.6","63ed1fa5c88ecae92bf0c920","bdp_td","Sun Mar 26 2023 11:16:54 GMT-0400 (Eastern Daylight Time)","114824","","null","","","","FIX","","<div class='trialBorder'><div class='vertical-center'><img style='vertical-align:center; align:center' src=img/fixation3.jpg></div></div>","null","","","","","","",""
"html-keyboard-response","23","53111","0.0-5.0-2.6","63ed1fa5c88ecae92bf0c920","bdp_td","Sun Mar 26 2023 11:16:54 GMT-0400 (Eastern Daylight Time)","114824","","1784","","","","offer","","<div class='trialBorder'><div class='vertical-center'><img style='vertical-align:center; align:center' src=img/fixation3.jpg></div><div class='cl'><div class='vertical-center'>$25<br>in<br>12 weeks</div></div><div class='cr'><div class='vertical-center'>$22<br><br>now</div></div><div class='respDivL'><div class='vertical-center'>(E)</div></div><div class='respDivR'><div class='vertical-center'>(I)</div></div></div>","I","$22<br><br>now","$25<br>in<br>12 weeks","1","22","25","12","NOW"
"html-keyboard-response","24","53364","0.0-5.0-3.6","63ed1fa5c88ecae92bf0c920","bdp_td","Sun Mar 26 2023 11:16:54 GMT-0400 (Eastern Daylight Time)","114824","","null","","","","offerFB","","<div class='trialBorder'><div class='vertical-center'><img style='vertical-align:center; align:center' src=img/fixation3.jpg></div><div class='cl'><div class='vertical-center'>$25<br>in<br>12 weeks</div></div><div class='cr'><div class='vertical-center'><font style='color:orange'>$22<br><br>now</font></div></div><div class='respDivL'><div class='vertical-center'>(E)</div></div><div class='respDivR'><div class='vertical-center'><font style='color:orange'>(I)</font></div></div></div>","null","$22<br><br>now","$25<br>in<br>12 weeks","1","22","25","12",""
"html-keyboard-response","25","53865","0.0-5.0-1.7","63ed1fa5c88ecae92bf0c920","bdp_td","Sun Mar 26 2023 11:16:54 GMT-0400 (Eastern Daylight Time)","114824","","null","","","","FIX","","<div class='trialBorder'><div class='vertical-center'><img style='vertical-align:center; align:center' src=img/fixation3.jpg></div></div>","null","","","","","","",""
"html-keyboard-response","26","55743","0.0-5.0-2.7","63ed1fa5c88ecae92bf0c920","bdp_td","Sun Mar 26 2023 11:16:54 GMT-0400 (Eastern Daylight Time)","114824","","1876","","","","offer","","<div class='trialBorder'><div class='vertical-center'><img style='vertical-align:center; align:center' src=img/fixation3.jpg></div><div class='cl'><div class='vertical-center'>$27<br><br>now</div></div><div class='cr'><div class='vertical-center'>$50<br>in<br>3 weeks</div></div><div class='respDivL'><div class='vertical-center'>(E)</div></div><div class='respDivR'><div class='vertical-center'>(I)</div></div></div>","I","$27<br><br>now","$50<br>in<br>3 weeks","0","27","50","3","THEN"
"html-keyboard-response","27","55996","0.0-5.0-3.7","63ed1fa5c88ecae92bf0c920","bdp_td","Sun Mar 26 2023 11:16:54 GMT-0400 (Eastern Daylight Time)","114824","","null","","","","offerFB","","<div class='trialBorder'><div class='vertical-center'><img style='vertical-align:center; align:center' src=img/fixation3.jpg></div><div class='cl'><div class='vertical-center'>$27<br><br>now</div></div><div class='cr'><div class='vertical-center'><font style='color:orange'>$50<br>in<br>3 weeks</font></div></div><div class='respDivL'><div class='vertical-center'>(E)</div></div><div class='respDivR'><div class='vertical-center'><font style='color:orange'>(I)</font></div></div></div>","null","$27<br><br>now","$50<br>in<br>3 weeks","0","27","50","3",""
"html-keyboard-response","28","56497","0.0-5.0-1.8","63ed1fa5c88ecae92bf0c920","bdp_td","Sun Mar 26 2023 11:16:54 GMT-0400 (Eastern Daylight Time)","114824","","null","","","","FIX","","<div class='trialBorder'><div class='vertical-center'><img style='vertical-align:center; align:center' src=img/fixation3.jpg></div></div>","null","","","","","","",""
"html-keyboard-response","29","58805","0.0-5.0-2.8","63ed1fa5c88ecae92bf0c920","bdp_td","Sun Mar 26 2023 11:16:54 GMT-0400 (Eastern Daylight Time)","114824","","2306","","","","offer","","<div class='trialBorder'><div class='vertical-center'><img style='vertical-align:center; align:center' src=img/fixation3.jpg></div><div class='cl'><div class='vertical-center'>$25<br>in<br>3 weeks</div></div><div class='cr'><div class='vertical-center'>$14<br><br>now</div></div><div class='respDivL'><div class='vertical-center'>(E)</div></div><div class='respDivR'><div class='vertical-center'>(I)</div></div></div>","E","$14<br><br>now","$25<br>in<br>3 weeks","1","14","25","3","THEN"
"html-keyboard-response","30","59058","0.0-5.0-3.8","63ed1fa5c88ecae92bf0c920","bdp_td","Sun Mar 26 2023 11:16:54 GMT-0400 (Eastern Daylight Time)","114824","","null","","","","offerFB","","<div class='trialBorder'><div class='vertical-center'><img style='vertical-align:center; align:center' src=img/fixation3.jpg></div><div class='cl'><div class='vertical-center'><font style='color:orange'>$25<br>in<br>3 weeks</font></div></div><div class='cr'><div class='vertical-center'>$14<br><br>now</div></div><div class='respDivL'><div class='vertical-center'><font style='color:orange'>(E)</font></div></div><div class='respDivR'><div class='vertical-center'>(I)</div></div></div>","null","$14<br><br>now","$25<br>in<br>3 weeks","1","14","25","3",""
"html-keyboard-response","31","59560","0.0-5.0-1.9","63ed1fa5c88ecae92bf0c920","bdp_td","Sun Mar 26 2023 11:16:54 GMT-0400 (Eastern Daylight Time)","114824","","null","","","","FIX","","<div class='trialBorder'><div class='vertical-center'><img style='vertical-align:center; align:center' src=img/fixation3.jpg></div></div>","null","","","","","","",""
"html-keyboard-response","32","62273","0.0-5.0-2.9","63ed1fa5c88ecae92bf0c920","bdp_td","Sun Mar 26 2023 11:16:54 GMT-0400 (Eastern Daylight Time)","114824","","2711","","","","offer","","<div class='trialBorder'><div class='vertical-center'><img style='vertical-align:center; align:center' src=img/fixation3.jpg></div><div class='cl'><div class='vertical-center'>$30<br>in<br>6 weeks</div></div><div class='cr'><div class='vertical-center'>$25<br><br>now</div></div><div class='respDivL'><div class='vertical-center'>(E)</div></div><div class='respDivR'><div class='vertical-center'>(I)</div></div></div>","I","$25<br><br>now","$30<br>in<br>6 weeks","1","25","30","6","NOW"
"html-keyboard-response","33","62526","0.0-5.0-3.9","63ed1fa5c88ecae92bf0c920","bdp_td","Sun Mar 26 2023 11:16:54 GMT-0400 (Eastern Daylight Time)","114824","","null","","","","offerFB","","<div class='trialBorder'><div class='vertical-center'><img style='vertical-align:center; align:center' src=img/fixation3.jpg></div><div class='cl'><div class='vertical-center'>$30<br>in<br>6 weeks</div></div><div class='cr'><div class='vertical-center'><font style='color:orange'>$25<br><br>now</font></div></div><div class='respDivL'><div class='vertical-center'>(E)</div></div><div class='respDivR'><div class='vertical-center'><font style='color:orange'>(I)</font></div></div></div>","null","$25<br><br>now","$30<br>in<br>6 weeks","1","25","30","6",""
"html-keyboard-response","34","63028","0.0-5.0-1.10","63ed1fa5c88ecae92bf0c920","bdp_td","Sun Mar 26 2023 11:16:54 GMT-0400 (Eastern Daylight Time)","114824","","null","","","","FIX","","<div class='trialBorder'><div class='vertical-center'><img style='vertical-align:center; align:center' src=img/fixation3.jpg></div></div>","null","","","","","","",""
"html-keyboard-response","35","64764","0.0-5.0-2.10","63ed1fa5c88ecae92bf0c920","bdp_td","Sun Mar 26 2023 11:16:54 GMT-0400 (Eastern Daylight Time)","114824","","1734","","","","offer","","<div class='trialBorder'><div class='vertical-center'><img style='vertical-align:center; align:center' src=img/fixation3.jpg></div><div class='cl'><div class='vertical-center'>$55<br>in<br>1 week</div></div><div class='cr'><div class='vertical-center'>$20<br><br>now</div></div><div class='respDivL'><div class='vertical-center'>(E)</div></div><div class='respDivR'><div class='vertical-center'>(I)</div></div></div>","E","$20<br><br>now","$55<br>in<br>1 week","1","20","55","1","THEN"
"html-keyboard-response","36","65022","0.0-5.0-3.10","63ed1fa5c88ecae92bf0c920","bdp_td","Sun Mar 26 2023 11:16:54 GMT-0400 (Eastern Daylight Time)","114824","","null","","","","offerFB","","<div class='trialBorder'><div class='vertical-center'><img style='vertical-align:center; align:center' src=img/fixation3.jpg></div><div class='cl'><div class='vertical-center'><font style='color:orange'>$55<br>in<br>1 week</font></div></div><div class='cr'><div class='vertical-center'>$20<br><br>now</div></div><div class='respDivL'><div class='vertical-center'><font style='color:orange'>(E)</font></div></div><div class='respDivR'><div class='vertical-center'>(I)</div></div></div>","null","$20<br><br>now","$55<br>in<br>1 week","1","20","55","1",""
"html-keyboard-response","37","65523","0.0-5.0-1.11","63ed1fa5c88ecae92bf0c920","bdp_td","Sun Mar 26 2023 11:16:54 GMT-0400 (Eastern Daylight Time)","114824","","null","","","","FIX","","<div class='trialBorder'><div class='vertical-center'><img style='vertical-align:center; align:center' src=img/fixation3.jpg></div></div>","null","","","","","","",""
"html-keyboard-response","38","70016","0.0-5.0-2.11","63ed1fa5c88ecae92bf0c920","bdp_td","Sun Mar 26 2023 11:16:54 GMT-0400 (Eastern Daylight Time)","114824","","4491","","","","offer","","<div class='trialBorder'><div class='vertical-center'><img style='vertical-align:center; align:center' src=img/fixation3.jpg></div><div class='cl'><div class='vertical-center'>$24<br><br>now</div></div><div class='cr'><div class='vertical-center'>$35<br>in<br>3 weeks</div></div><div class='respDivL'><div class='vertical-center'>(E)</div></div><div class='respDivR'><div class='vertical-center'>(I)</div></div></div>","I","$24<br><br>now","$35<br>in<br>3 weeks","0","24","35","3","THEN"
"html-keyboard-response","39","70269","0.0-5.0-3.11","63ed1fa5c88ecae92bf0c920","bdp_td","Sun Mar 26 2023 11:16:54 GMT-0400 (Eastern Daylight Time)","114824","","null","","","","offerFB","","<div class='trialBorder'><div class='vertical-center'><img style='vertical-align:center; align:center' src=img/fixation3.jpg></div><div class='cl'><div class='vertical-center'>$24<br><br>now</div></div><div class='cr'><div class='vertical-center'><font style='color:orange'>$35<br>in<br>3 weeks</font></div></div><div class='respDivL'><div class='vertical-center'>(E)</div></div><div class='respDivR'><div class='vertical-center'><font style='color:orange'>(I)</font></div></div></div>","null","$24<br><br>now","$35<br>in<br>3 weeks","0","24","35","3",""
"html-keyboard-response","40","70770","0.0-5.0-1.12","63ed1fa5c88ecae92bf0c920","bdp_td","Sun Mar 26 2023 11:16:54 GMT-0400 (Eastern Daylight Time)","114824","","null","","","","FIX","","<div class='trialBorder'><div class='vertical-center'><img style='vertical-align:center; align:center' src=img/fixation3.jpg></div></div>","null","","","","","","",""
"html-keyboard-response","41","72748","0.0-5.0-2.12","63ed1fa5c88ecae92bf0c920","bdp_td","Sun Mar 26 2023 11:16:54 GMT-0400 (Eastern Daylight Time)","114824","","1976","","","","offer","","<div class='trialBorder'><div class='vertical-center'><img style='vertical-align:center; align:center' src=img/fixation3.jpg></div><div class='cl'><div class='vertical-center'>$54<br><br>now</div></div><div class='cr'><div class='vertical-center'>$60<br>in<br>12 weeks</div></div><div class='respDivL'><div class='vertical-center'>(E)</div></div><div class='respDivR'><div class='vertical-center'>(I)</div></div></div>","E","$54<br><br>now","$60<br>in<br>12 weeks","0","54","60","12","NOW"
"html-keyboard-response","42","73001","0.0-5.0-3.12","63ed1fa5c88ecae92bf0c920","bdp_td","Sun Mar 26 2023 11:16:54 GMT-0400 (Eastern Daylight Time)","114824","","null","","","","offerFB","","<div class='trialBorder'><div class='vertical-center'><img style='vertical-align:center; align:center' src=img/fixation3.jpg></div><div class='cl'><div class='vertical-center'><font style='color:orange'>$54<br><br>now</font></div></div><div class='cr'><div class='vertical-center'>$60<br>in<br>12 weeks</div></div><div class='respDivL'><div class='vertical-center'><font style='color:orange'>(E)</font></div></div><div class='respDivR'><div class='vertical-center'>(I)</div></div></div>","null","$54<br><br>now","$60<br>in<br>12 weeks","0","54","60","12",""
"html-keyboard-response","43","73502","0.0-5.0-1.13","63ed1fa5c88ecae92bf0c920","bdp_td","Sun Mar 26 2023 11:16:54 GMT-0400 (Eastern Daylight Time)","114824","","null","","","","FIX","","<div class='trialBorder'><div class='vertical-center'><img style='vertical-align:center; align:center' src=img/fixation3.jpg></div></div>","null","","","","","","",""
"html-keyboard-response","44","76251","0.0-5.0-2.13","63ed1fa5c88ecae92bf0c920","bdp_td","Sun Mar 26 2023 11:16:54 GMT-0400 (Eastern Daylight Time)","114824","","2747","","","","offer","","<div class='trialBorder'><div class='vertical-center'><img style='vertical-align:center; align:center' src=img/fixation3.jpg></div><div class='cl'><div class='vertical-center'>$19<br><br>now</div></div><div class='cr'><div class='vertical-center'>$25<br>in<br>6 weeks</div></div><div class='respDivL'><div class='vertical-center'>(E)</div></div><div class='respDivR'><div class='vertical-center'>(I)</div></div></div>","E","$19<br><br>now","$25<br>in<br>6 weeks","0","19","25","6","NOW"
"html-keyboard-response","45","76504","0.0-5.0-3.13","63ed1fa5c88ecae92bf0c920","bdp_td","Sun Mar 26 2023 11:16:54 GMT-0400 (Eastern Daylight Time)","114824","","null","","","","offerFB","","<div class='trialBorder'><div class='vertical-center'><img style='vertical-align:center; align:center' src=img/fixation3.jpg></div><div class='cl'><div class='vertical-center'><font style='color:orange'>$19<br><br>now</font></div></div><div class='cr'><div class='vertical-center'>$25<br>in<br>6 weeks</div></div><div class='respDivL'><div class='vertical-center'><font style='color:orange'>(E)</font></div></div><div class='respDivR'><div class='vertical-center'>(I)</div></div></div>","null","$19<br><br>now","$25<br>in<br>6 weeks","0","19","25","6",""
"html-keyboard-response","46","77006","0.0-5.0-1.14","63ed1fa5c88ecae92bf0c920","bdp_td","Sun Mar 26 2023 11:16:54 GMT-0400 (Eastern Daylight Time)","114824","","null","","","","FIX","","<div class='trialBorder'><div class='vertical-center'><img style='vertical-align:center; align:center' src=img/fixation3.jpg></div></div>","null","","","","","","",""
"html-keyboard-response","47","78522","0.0-5.0-2.14","63ed1fa5c88ecae92bf0c920","bdp_td","Sun Mar 26 2023 11:16:54 GMT-0400 (Eastern Daylight Time)","114824","","1514","","","","offer","","<div class='trialBorder'><div class='vertical-center'><img style='vertical-align:center; align:center' src=img/fixation3.jpg></div><div class='cl'><div class='vertical-center'>$47<br><br>now</div></div><div class='cr'><div class='vertical-center'>$50<br>in<br>12 weeks</div></div><div class='respDivL'><div class='vertical-center'>(E)</div></div><div class='respDivR'><div class='vertical-center'>(I)</div></div></div>","E","$47<br><br>now","$50<br>in<br>12 weeks","0","47","50","12","NOW"
"html-keyboard-response","48","78774","0.0-5.0-3.14","63ed1fa5c88ecae92bf0c920","bdp_td","Sun Mar 26 2023 11:16:54 GMT-0400 (Eastern Daylight Time)","114824","","null","","","","offerFB","","<div class='trialBorder'><div class='vertical-center'><img style='vertical-align:center; align:center' src=img/fixation3.jpg></div><div class='cl'><div class='vertical-center'><font style='color:orange'>$47<br><br>now</font></div></div><div class='cr'><div class='vertical-center'>$50<br>in<br>12 weeks</div></div><div class='respDivL'><div class='vertical-center'><font style='color:orange'>(E)</font></div></div><div class='respDivR'><div class='vertical-center'>(I)</div></div></div>","null","$47<br><br>now","$50<br>in<br>12 weeks","0","47","50","12",""
"html-keyboard-response","49","79277","0.0-5.0-1.15","63ed1fa5c88ecae92bf0c920","bdp_td","Sun Mar 26 2023 11:16:54 GMT-0400 (Eastern Daylight Time)","114824","","null","","","","FIX","","<div class='trialBorder'><div class='vertical-center'><img style='vertical-align:center; align:center' src=img/fixation3.jpg></div></div>","null","","","","","","",""
"html-keyboard-response","50","80807","0.0-5.0-2.15","63ed1fa5c88ecae92bf0c920","bdp_td","Sun Mar 26 2023 11:16:54 GMT-0400 (Eastern Daylight Time)","114824","","1529","","","","offer","","<div class='trialBorder'><div class='vertical-center'><img style='vertical-align:center; align:center' src=img/fixation3.jpg></div><div class='cl'><div class='vertical-center'>$34<br><br>now</div></div><div class='cr'><div class='vertical-center'>$35<br>in<br>12 weeks</div></div><div class='respDivL'><div class='vertical-center'>(E)</div></div><div class='respDivR'><div class='vertical-center'>(I)</div></div></div>","E","$34<br><br>now","$35<br>in<br>12 weeks","0","34","35","12","NOW"
"html-keyboard-response","51","81060","0.0-5.0-3.15","63ed1fa5c88ecae92bf0c920","bdp_td","Sun Mar 26 2023 11:16:54 GMT-0400 (Eastern Daylight Time)","114824","","null","","","","offerFB","","<div class='trialBorder'><div class='vertical-center'><img style='vertical-align:center; align:center' src=img/fixation3.jpg></div><div class='cl'><div class='vertical-center'><font style='color:orange'>$34<br><br>now</font></div></div><div class='cr'><div class='vertical-center'>$35<br>in<br>12 weeks</div></div><div class='respDivL'><div class='vertical-center'><font style='color:orange'>(E)</font></div></div><div class='respDivR'><div class='vertical-center'>(I)</div></div></div>","null","$34<br><br>now","$35<br>in<br>12 weeks","0","34","35","12",""
"html-keyboard-response","52","81561","0.0-5.0-1.16","63ed1fa5c88ecae92bf0c920","bdp_td","Sun Mar 26 2023 11:16:54 GMT-0400 (Eastern Daylight Time)","114824","","null","","","","FIX","","<div class='trialBorder'><div class='vertical-center'><img style='vertical-align:center; align:center' src=img/fixation3.jpg></div></div>","null","","","","","","",""
"html-keyboard-response","53","83037","0.0-5.0-2.16","63ed1fa5c88ecae92bf0c920","bdp_td","Sun Mar 26 2023 11:16:54 GMT-0400 (Eastern Daylight Time)","114824","","1474","","","","offer","","<div class='trialBorder'><div class='vertical-center'><img style='vertical-align:center; align:center' src=img/fixation3.jpg></div><div class='cl'><div class='vertical-center'>$50<br>in<br>6 weeks</div></div><div class='cr'><div class='vertical-center'>$34<br><br>now</div></div><div class='respDivL'><div class='vertical-center'>(E)</div></div><div class='respDivR'><div class='vertical-center'>(I)</div></div></div>","E","$34<br><br>now","$50<br>in<br>6 weeks","1","34","50","6","THEN"
"html-keyboard-response","54","83289","0.0-5.0-3.16","63ed1fa5c88ecae92bf0c920","bdp_td","Sun Mar 26 2023 11:16:54 GMT-0400 (Eastern Daylight Time)","114824","","null","","","","offerFB","","<div class='trialBorder'><div class='vertical-center'><img style='vertical-align:center; align:center' src=img/fixation3.jpg></div><div class='cl'><div class='vertical-center'><font style='color:orange'>$50<br>in<br>6 weeks</font></div></div><div class='cr'><div class='vertical-center'>$34<br><br>now</div></div><div class='respDivL'><div class='vertical-center'><font style='color:orange'>(E)</font></div></div><div class='respDivR'><div class='vertical-center'>(I)</div></div></div>","null","$34<br><br>now","$50<br>in<br>6 weeks","1","34","50","6",""
"html-keyboard-response","55","83791","0.0-5.0-1.17","63ed1fa5c88ecae92bf0c920","bdp_td","Sun Mar 26 2023 11:16:54 GMT-0400 (Eastern Daylight Time)","114824","","null","","","","FIX","","<div class='trialBorder'><div class='vertical-center'><img style='vertical-align:center; align:center' src=img/fixation3.jpg></div></div>","null","","","","","","",""
"html-keyboard-response","56","85137","0.0-5.0-2.17","63ed1fa5c88ecae92bf0c920","bdp_td","Sun Mar 26 2023 11:16:54 GMT-0400 (Eastern Daylight Time)","114824","","1344","","","","offer","","<div class='trialBorder'><div class='vertical-center'><img style='vertical-align:center; align:center' src=img/fixation3.jpg></div><div class='cl'><div class='vertical-center'>$33<br><br>now</div></div><div class='cr'><div class='vertical-center'>$80<br>in<br>2 weeks</div></div><div class='respDivL'><div class='vertical-center'>(E)</div></div><div class='respDivR'><div class='vertical-center'>(I)</div></div></div>","I","$33<br><br>now","$80<br>in<br>2 weeks","0","33","80","2","THEN"
"html-keyboard-response","57","85389","0.0-5.0-3.17","63ed1fa5c88ecae92bf0c920","bdp_td","Sun Mar 26 2023 11:16:54 GMT-0400 (Eastern Daylight Time)","114824","","null","","","","offerFB","","<div class='trialBorder'><div class='vertical-center'><img style='vertical-align:center; align:center' src=img/fixation3.jpg></div><div class='cl'><div class='vertical-center'>$33<br><br>now</div></div><div class='cr'><div class='vertical-center'><font style='color:orange'>$80<br>in<br>2 weeks</font></div></div><div class='respDivL'><div class='vertical-center'>(E)</div></div><div class='respDivR'><div class='vertical-center'><font style='color:orange'>(I)</font></div></div></div>","null","$33<br><br>now","$80<br>in<br>2 weeks","0","33","80","2",""
"html-keyboard-response","58","85892","0.0-5.0-1.18","63ed1fa5c88ecae92bf0c920","bdp_td","Sun Mar 26 2023 11:16:54 GMT-0400 (Eastern Daylight Time)","114824","","null","","","","FIX","","<div class='trialBorder'><div class='vertical-center'><img style='vertical-align:center; align:center' src=img/fixation3.jpg></div></div>","null","","","","","","",""
"html-keyboard-response","59","87773","0.0-5.0-2.18","63ed1fa5c88ecae92bf0c920","bdp_td","Sun Mar 26 2023 11:16:54 GMT-0400 (Eastern Daylight Time)","114824","","1880","","","","offer","","<div class='trialBorder'><div class='vertical-center'><img style='vertical-align:center; align:center' src=img/fixation3.jpg></div><div class='cl'><div class='vertical-center'>$75<br>in<br>3 weeks</div></div><div class='cr'><div class='vertical-center'>$41<br><br>now</div></div><div class='respDivL'><div class='vertical-center'>(E)</div></div><div class='respDivR'><div class='vertical-center'>(I)</div></div></div>","E","$41<br><br>now","$75<br>in<br>3 weeks","1","41","75","3","THEN"
"html-keyboard-response","60","88027","0.0-5.0-3.18","63ed1fa5c88ecae92bf0c920","bdp_td","Sun Mar 26 2023 11:16:54 GMT-0400 (Eastern Daylight Time)","114824","","null","","","","offerFB","","<div class='trialBorder'><div class='vertical-center'><img style='vertical-align:center; align:center' src=img/fixation3.jpg></div><div class='cl'><div class='vertical-center'><font style='color:orange'>$75<br>in<br>3 weeks</font></div></div><div class='cr'><div class='vertical-center'>$41<br><br>now</div></div><div class='respDivL'><div class='vertical-center'><font style='color:orange'>(E)</font></div></div><div class='respDivR'><div class='vertical-center'>(I)</div></div></div>","null","$41<br><br>now","$75<br>in<br>3 weeks","1","41","75","3",""
"html-keyboard-response","61","88529","0.0-5.0-1.19","63ed1fa5c88ecae92bf0c920","bdp_td","Sun Mar 26 2023 11:16:54 GMT-0400 (Eastern Daylight Time)","114824","","null","","","","FIX","","<div class='trialBorder'><div class='vertical-center'><img style='vertical-align:center; align:center' src=img/fixation3.jpg></div></div>","null","","","","","","",""
"html-keyboard-response","62","93843","0.0-5.0-2.19","63ed1fa5c88ecae92bf0c920","bdp_td","Sun Mar 26 2023 11:16:54 GMT-0400 (Eastern Daylight Time)","114824","","5313","","","","offer","","<div class='trialBorder'><div class='vertical-center'><img style='vertical-align:center; align:center' src=img/fixation3.jpg></div><div class='cl'><div class='vertical-center'>$40<br><br>now</div></div><div class='cr'><div class='vertical-center'>$55<br>in<br>6 weeks</div></div><div class='respDivL'><div class='vertical-center'>(E)</div></div><div class='respDivR'><div class='vertical-center'>(I)</div></div></div>","E","$40<br><br>now","$55<br>in<br>6 weeks","0","40","55","6","NOW"
"html-keyboard-response","63","94096","0.0-5.0-3.19","63ed1fa5c88ecae92bf0c920","bdp_td","Sun Mar 26 2023 11:16:54 GMT-0400 (Eastern Daylight Time)","114824","","null","","","","offerFB","","<div class='trialBorder'><div class='vertical-center'><img style='vertical-align:center; align:center' src=img/fixation3.jpg></div><div class='cl'><div class='vertical-center'><font style='color:orange'>$40<br><br>now</font></div></div><div class='cr'><div class='vertical-center'>$55<br>in<br>6 weeks</div></div><div class='respDivL'><div class='vertical-center'><font style='color:orange'>(E)</font></div></div><div class='respDivR'><div class='vertical-center'>(I)</div></div></div>","null","$40<br><br>now","$55<br>in<br>6 weeks","0","40","55","6",""
"html-keyboard-response","64","94598","0.0-5.0-1.20","63ed1fa5c88ecae92bf0c920","bdp_td","Sun Mar 26 2023 11:16:54 GMT-0400 (Eastern Daylight Time)","114824","","null","","","","FIX","","<div class='trialBorder'><div class='vertical-center'><img style='vertical-align:center; align:center' src=img/fixation3.jpg></div></div>","null","","","","","","",""
"html-keyboard-response","65","96414","0.0-5.0-2.20","63ed1fa5c88ecae92bf0c920","bdp_td","Sun Mar 26 2023 11:16:54 GMT-0400 (Eastern Daylight Time)","114824","","1815","","","","offer","","<div class='trialBorder'><div class='vertical-center'><img style='vertical-align:center; align:center' src=img/fixation3.jpg></div><div class='cl'><div class='vertical-center'>$55<br>in<br>12 weeks</div></div><div class='cr'><div class='vertical-center'>$54<br><br>now</div></div><div class='respDivL'><div class='vertical-center'>(E)</div></div><div class='respDivR'><div class='vertical-center'>(I)</div></div></div>","I","$54<br><br>now","$55<br>in<br>12 weeks","1","54","55","12","NOW"
"html-keyboard-response","66","96680","0.0-5.0-3.20","63ed1fa5c88ecae92bf0c920","bdp_td","Sun Mar 26 2023 11:16:54 GMT-0400 (Eastern Daylight Time)","114824","","null","","","","offerFB","","<div class='trialBorder'><div class='vertical-center'><img style='vertical-align:center; align:center' src=img/fixation3.jpg></div><div class='cl'><div class='vertical-center'>$55<br>in<br>12 weeks</div></div><div class='cr'><div class='vertical-center'><font style='color:orange'>$54<br><br>now</font></div></div><div class='respDivL'><div class='vertical-center'>(E)</div></div><div class='respDivR'><div class='vertical-center'><font style='color:orange'>(I)</font></div></div></div>","null","$54<br><br>now","$55<br>in<br>12 weeks","1","54","55","12",""
"html-keyboard-response","67","97182","0.0-5.0-1.21","63ed1fa5c88ecae92bf0c920","bdp_td","Sun Mar 26 2023 11:16:54 GMT-0400 (Eastern Daylight Time)","114824","","null","","","","FIX","","<div class='trialBorder'><div class='vertical-center'><img style='vertical-align:center; align:center' src=img/fixation3.jpg></div></div>","null","","","","","","",""
"html-keyboard-response","68","98644","0.0-5.0-2.21","63ed1fa5c88ecae92bf0c920","bdp_td","Sun Mar 26 2023 11:16:54 GMT-0400 (Eastern Daylight Time)","114824","","1461","","","","offer","","<div class='trialBorder'><div class='vertical-center'><img style='vertical-align:center; align:center' src=img/fixation3.jpg></div><div class='cl'><div class='vertical-center'>$80<br>in<br>3 weeks</div></div><div class='cr'><div class='vertical-center'>$54<br><br>now</div></div><div class='respDivL'><div class='vertical-center'>(E)</div></div><div class='respDivR'><div class='vertical-center'>(I)</div></div></div>","E","$54<br><br>now","$80<br>in<br>3 weeks","1","54","80","3","THEN"
"html-keyboard-response","69","98896","0.0-5.0-3.21","63ed1fa5c88ecae92bf0c920","bdp_td","Sun Mar 26 2023 11:16:54 GMT-0400 (Eastern Daylight Time)","114824","","null","","","","offerFB","","<div class='trialBorder'><div class='vertical-center'><img style='vertical-align:center; align:center' src=img/fixation3.jpg></div><div class='cl'><div class='vertical-center'><font style='color:orange'>$80<br>in<br>3 weeks</font></div></div><div class='cr'><div class='vertical-center'>$54<br><br>now</div></div><div class='respDivL'><div class='vertical-center'><font style='color:orange'>(E)</font></div></div><div class='respDivR'><div class='vertical-center'>(I)</div></div></div>","null","$54<br><br>now","$80<br>in<br>3 weeks","1","54","80","3",""
"html-keyboard-response","70","99399","0.0-5.0-1.22","63ed1fa5c88ecae92bf0c920","bdp_td","Sun Mar 26 2023 11:16:54 GMT-0400 (Eastern Daylight Time)","114824","","null","","","","FIX","","<div class='trialBorder'><div class='vertical-center'><img style='vertical-align:center; align:center' src=img/fixation3.jpg></div></div>","null","","","","","","",""
"html-keyboard-response","71","100865","0.0-5.0-2.22","63ed1fa5c88ecae92bf0c920","bdp_td","Sun Mar 26 2023 11:16:54 GMT-0400 (Eastern Daylight Time)","114824","","1465","","","","offer","","<div class='trialBorder'><div class='vertical-center'><img style='vertical-align:center; align:center' src=img/fixation3.jpg></div><div class='cl'><div class='vertical-center'>$55<br><br>now</div></div><div class='cr'><div class='vertical-center'>$75<br>in<br>6 weeks</div></div><div class='respDivL'><div class='vertical-center'>(E)</div></div><div class='respDivR'><div class='vertical-center'>(I)</div></div></div>","I","$55<br><br>now","$75<br>in<br>6 weeks","0","55","75","6","THEN"
"html-keyboard-response","72","101117","0.0-5.0-3.22","63ed1fa5c88ecae92bf0c920","bdp_td","Sun Mar 26 2023 11:16:54 GMT-0400 (Eastern Daylight Time)","114824","","null","","","","offerFB","","<div class='trialBorder'><div class='vertical-center'><img style='vertical-align:center; align:center' src=img/fixation3.jpg></div><div class='cl'><div class='vertical-center'>$55<br><br>now</div></div><div class='cr'><div class='vertical-center'><font style='color:orange'>$75<br>in<br>6 weeks</font></div></div><div class='respDivL'><div class='vertical-center'>(E)</div></div><div class='respDivR'><div class='vertical-center'><font style='color:orange'>(I)</font></div></div></div>","null","$55<br><br>now","$75<br>in<br>6 weeks","0","55","75","6",""
"html-keyboard-response","73","101619","0.0-5.0-1.23","63ed1fa5c88ecae92bf0c920","bdp_td","Sun Mar 26 2023 11:16:54 GMT-0400 (Eastern Daylight Time)","114824","","null","","","","FIX","","<div class='trialBorder'><div class='vertical-center'><img style='vertical-align:center; align:center' src=img/fixation3.jpg></div></div>","null","","","","","","",""
"html-keyboard-response","74","106964","0.0-5.0-2.23","63ed1fa5c88ecae92bf0c920","bdp_td","Sun Mar 26 2023 11:16:54 GMT-0400 (Eastern Daylight Time)","114824","","5344","","","","offer","","<div class='trialBorder'><div class='vertical-center'><img style='vertical-align:center; align:center' src=img/fixation3.jpg></div><div class='cl'><div class='vertical-center'>$69<br><br>now</div></div><div class='cr'><div class='vertical-center'>$85<br>in<br>6 weeks</div></div><div class='respDivL'><div class='vertical-center'>(E)</div></div><div class='respDivR'><div class='vertical-center'>(I)</div></div></div>","E","$69<br><br>now","$85<br>in<br>6 weeks","0","69","85","6","NOW"
"html-keyboard-response","75","107218","0.0-5.0-3.23","63ed1fa5c88ecae92bf0c920","bdp_td","Sun Mar 26 2023 11:16:54 GMT-0400 (Eastern Daylight Time)","114824","","null","","","","offerFB","","<div class='trialBorder'><div class='vertical-center'><img style='vertical-align:center; align:center' src=img/fixation3.jpg></div><div class='cl'><div class='vertical-center'><font style='color:orange'>$69<br><br>now</font></div></div><div class='cr'><div class='vertical-center'>$85<br>in<br>6 weeks</div></div><div class='respDivL'><div class='vertical-center'><font style='color:orange'>(E)</font></div></div><div class='respDivR'><div class='vertical-center'>(I)</div></div></div>","null","$69<br><br>now","$85<br>in<br>6 weeks","0","69","85","6",""
"html-keyboard-response","76","107719","0.0-5.0-1.24","63ed1fa5c88ecae92bf0c920","bdp_td","Sun Mar 26 2023 11:16:54 GMT-0400 (Eastern Daylight Time)","114824","","null","","","","FIX","","<div class='trialBorder'><div class='vertical-center'><img style='vertical-align:center; align:center' src=img/fixation3.jpg></div></div>","null","","","","","","",""
"html-keyboard-response","77","109220","0.0-5.0-2.24","63ed1fa5c88ecae92bf0c920","bdp_td","Sun Mar 26 2023 11:16:54 GMT-0400 (Eastern Daylight Time)","114824","","1500","","","","offer","","<div class='trialBorder'><div class='vertical-center'><img style='vertical-align:center; align:center' src=img/fixation3.jpg></div><div class='cl'><div class='vertical-center'>$31<br><br>now</div></div><div class='cr'><div class='vertical-center'>$85<br>in<br>1 week</div></div><div class='respDivL'><div class='vertical-center'>(E)</div></div><div class='respDivR'><div class='vertical-center'>(I)</div></div></div>","I","$31<br><br>now","$85<br>in<br>1 week","0","31","85","1","THEN"
"html-keyboard-response","78","109473","0.0-5.0-3.24","63ed1fa5c88ecae92bf0c920","bdp_td","Sun Mar 26 2023 11:16:54 GMT-0400 (Eastern Daylight Time)","114824","","null","","","","offerFB","","<div class='trialBorder'><div class='vertical-center'><img style='vertical-align:center; align:center' src=img/fixation3.jpg></div><div class='cl'><div class='vertical-center'>$31<br><br>now</div></div><div class='cr'><div class='vertical-center'><font style='color:orange'>$85<br>in<br>1 week</font></div></div><div class='respDivL'><div class='vertical-center'>(E)</div></div><div class='respDivR'><div class='vertical-center'><font style='color:orange'>(I)</font></div></div></div>","null","$31<br><br>now","$85<br>in<br>1 week","0","31","85","1",""
"html-keyboard-response","79","109975","0.0-5.0-1.25","63ed1fa5c88ecae92bf0c920","bdp_td","Sun Mar 26 2023 11:16:54 GMT-0400 (Eastern Daylight Time)","114824","","null","","","","FIX","","<div class='trialBorder'><div class='vertical-center'><img style='vertical-align:center; align:center' src=img/fixation3.jpg></div></div>","null","","","","","","",""
"html-keyboard-response","80","111234","0.0-5.0-2.25","63ed1fa5c88ecae92bf0c920","bdp_td","Sun Mar 26 2023 11:16:54 GMT-0400 (Eastern Daylight Time)","114824","","1258","","","","offer","","<div class='trialBorder'><div class='vertical-center'><img style='vertical-align:center; align:center' src=img/fixation3.jpg></div><div class='cl'><div class='vertical-center'>$78<br><br>now</div></div><div class='cr'><div class='vertical-center'>$80<br>in<br>12 weeks</div></div><div class='respDivL'><div class='vertical-center'>(E)</div></div><div class='respDivR'><div class='vertical-center'>(I)</div></div></div>","E","$78<br><br>now","$80<br>in<br>12 weeks","0","78","80","12","NOW"
"html-keyboard-response","81","111486","0.0-5.0-3.25","63ed1fa5c88ecae92bf0c920","bdp_td","Sun Mar 26 2023 11:16:54 GMT-0400 (Eastern Daylight Time)","114824","","null","","","","offerFB","","<div class='trialBorder'><div class='vertical-center'><img style='vertical-align:center; align:center' src=img/fixation3.jpg></div><div class='cl'><div class='vertical-center'><font style='color:orange'>$78<br><br>now</font></div></div><div class='cr'><div class='vertical-center'>$80<br>in<br>12 weeks</div></div><div class='respDivL'><div class='vertical-center'><font style='color:orange'>(E)</font></div></div><div class='respDivR'><div class='vertical-center'>(I)</div></div></div>","null","$78<br><br>now","$80<br>in<br>12 weeks","0","78","80","12",""
"html-keyboard-response","82","111988","0.0-5.0-1.26","63ed1fa5c88ecae92bf0c920","bdp_td","Sun Mar 26 2023 11:16:54 GMT-0400 (Eastern Daylight Time)","114824","","null","","","","FIX","","<div class='trialBorder'><div class='vertical-center'><img style='vertical-align:center; align:center' src=img/fixation3.jpg></div></div>","null","","","","","","",""
"html-keyboard-response","83","113570","0.0-5.0-2.26","63ed1fa5c88ecae92bf0c920","bdp_td","Sun Mar 26 2023 11:16:54 GMT-0400 (Eastern Daylight Time)","114824","","1580","","","","offer","","<div class='trialBorder'><div class='vertical-center'><img style='vertical-align:center; align:center' src=img/fixation3.jpg></div><div class='cl'><div class='vertical-center'>$75<br>in<br>12 weeks</div></div><div class='cr'><div class='vertical-center'>$67<br><br>now</div></div><div class='respDivL'><div class='vertical-center'>(E)</div></div><div class='respDivR'><div class='vertical-center'>(I)</div></div></div>","I","$67<br><br>now","$75<br>in<br>12 weeks","1","67","75","12","NOW"
"html-keyboard-response","84","113822","0.0-5.0-3.26","63ed1fa5c88ecae92bf0c920","bdp_td","Sun Mar 26 2023 11:16:54 GMT-0400 (Eastern Daylight Time)","114824","","null","","","","offerFB","","<div class='trialBorder'><div class='vertical-center'><img style='vertical-align:center; align:center' src=img/fixation3.jpg></div><div class='cl'><div class='vertical-center'>$75<br>in<br>12 weeks</div></div><div class='cr'><div class='vertical-center'><font style='color:orange'>$67<br><br>now</font></div></div><div class='respDivL'><div class='vertical-center'>(E)</div></div><div class='respDivR'><div class='vertical-center'><font style='color:orange'>(I)</font></div></div></div>","null","$67<br><br>now","$75<br>in<br>12 weeks","1","67","75","12",""
"","","","","63ed1fa5c88ecae92bf0c920","bdp_td","Sun Mar 26 2023 11:16:54 GMT-0400 (Eastern Daylight Time)","114824","","","fullscreenexit","85","113872","fullscreenexit","","","","","","","","","",""
"fullscreen","85","114823","0.0-6.0","63ed1fa5c88ecae92bf0c920","bdp_td","Sun Mar 26 2023 11:16:54 GMT-0400 (Eastern Daylight Time)","114824","","","","","","","true","","","","","","","","",""
"html-keyboard-response","86","115326","0.0-7.0","","","","","","null","","","","","","","null","","","","","","",""
