"trial_type","trial_index","time_elapsed","internal_node_id","subject_id","task","startTime","totalTime","view_history","rt","event","trial","time","trialtype","success","stimulus","key_press","nowOffer","thenOffer","thenLeft","nowAmt","thenAmt","thenWeeks","chosen"
"pavlovia","0","2","0.0-0.0","63210b26bd58960c97b47ddc","bdp_td","Thu Apr 13 2023 11:27:15 GMT+0100 (British Summer Time)","177127","","","","","","","","","","","","","","","",""
"instructions","1","42818","0.0-1.0","63210b26bd58960c97b47ddc","bdp_td","Thu Apr 13 2023 11:27:15 GMT+0100 (British Summer Time)","177127","[{""page_index"":0,""viewing_time"":42816}]","42816","","","","","","","","","","","","","",""
"","","","","63210b26bd58960c97b47ddc","bdp_td","Thu Apr 13 2023 11:27:15 GMT+0100 (British Summer Time)","177127","","","fullscreenenter","2","45942","fullscreenenter","","","","","","","","","",""
"fullscreen","2","46919","0.0-2.0","63210b26bd58960c97b47ddc","bdp_td","Thu Apr 13 2023 11:27:15 GMT+0100 (British Summer Time)","177127","","","","","","","true","","","","","","","","",""
"instructions","3","94077","0.0-4.0","63210b26bd58960c97b47ddc","bdp_td","Thu Apr 13 2023 11:27:15 GMT+0100 (British Summer Time)","177127","[{""page_index"":0,""viewing_time"":32548},{""page_index"":1,""viewing_time"":9424},{""page_index"":2,""viewing_time"":5185}]","47157","","","","","","","","","","","","","",""
"html-keyboard-response","4","94579","0.0-5.0-1.0","63210b26bd58960c97b47ddc","bdp_td","Thu Apr 13 2023 11:27:15 GMT+0100 (British Summer Time)","177127","","null","","","","FIX","","<div class='trialBorder'><div class='vertical-center'><img style='vertical-align:center; align:center' src=img/fixation3.jpg></div></div>","null","","","","","","",""
"html-keyboard-response","5","96558","0.0-5.0-2.0","63210b26bd58960c97b47ddc","bdp_td","Thu Apr 13 2023 11:27:15 GMT+0100 (British Summer Time)","177127","","1978","","","","offer","","<div class='trialBorder'><div class='vertical-center'><img style='vertical-align:center; align:center' src=img/fixation3.jpg></div><div class='cl'><div class='vertical-center'>$78<br><br>now</div></div><div class='cr'><div class='vertical-center'>$80<br>in<br>12 weeks</div></div><div class='respDivL'><div class='vertical-center'>(E)</div></div><div class='respDivR'><div class='vertical-center'>(I)</div></div></div>","E","$78<br><br>now","$80<br>in<br>12 weeks","0","78","80","12","NOW"
"html-keyboard-response","6","96810","0.0-5.0-3.0","63210b26bd58960c97b47ddc","bdp_td","Thu Apr 13 2023 11:27:15 GMT+0100 (British Summer Time)","177127","","null","","","","offerFB","","<div class='trialBorder'><div class='vertical-center'><img style='vertical-align:center; align:center' src=img/fixation3.jpg></div><div class='cl'><div class='vertical-center'><font style='color:orange'>$78<br><br>now</font></div></div><div class='cr'><div class='vertical-center'>$80<br>in<br>12 weeks</div></div><div class='respDivL'><div class='vertical-center'><font style='color:orange'>(E)</font></div></div><div class='respDivR'><div class='vertical-center'>(I)</div></div></div>","null","$78<br><br>now","$80<br>in<br>12 weeks","0","78","80","12",""
"html-keyboard-response","7","97312","0.0-5.0-1.1","63210b26bd58960c97b47ddc","bdp_td","Thu Apr 13 2023 11:27:15 GMT+0100 (British Summer Time)","177127","","null","","","","FIX","","<div class='trialBorder'><div class='vertical-center'><img style='vertical-align:center; align:center' src=img/fixation3.jpg></div></div>","null","","","","","","",""
"html-keyboard-response","8","100526","0.0-5.0-2.1","63210b26bd58960c97b47ddc","bdp_td","Thu Apr 13 2023 11:27:15 GMT+0100 (British Summer Time)","177127","","3213","","","","offer","","<div class='trialBorder'><div class='vertical-center'><img style='vertical-align:center; align:center' src=img/fixation3.jpg></div><div class='cl'><div class='vertical-center'>$25<br>in<br>3 weeks</div></div><div class='cr'><div class='vertical-center'>$14<br><br>now</div></div><div class='respDivL'><div class='vertical-center'>(E)</div></div><div class='respDivR'><div class='vertical-center'>(I)</div></div></div>","E","$14<br><br>now","$25<br>in<br>3 weeks","1","14","25","3","THEN"
"html-keyboard-response","9","100778","0.0-5.0-3.1","63210b26bd58960c97b47ddc","bdp_td","Thu Apr 13 2023 11:27:15 GMT+0100 (British Summer Time)","177127","","null","","","","offerFB","","<div class='trialBorder'><div class='vertical-center'><img style='vertical-align:center; align:center' src=img/fixation3.jpg></div><div class='cl'><div class='vertical-center'><font style='color:orange'>$25<br>in<br>3 weeks</font></div></div><div class='cr'><div class='vertical-center'>$14<br><br>now</div></div><div class='respDivL'><div class='vertical-center'><font style='color:orange'>(E)</font></div></div><div class='respDivR'><div class='vertical-center'>(I)</div></div></div>","null","$14<br><br>now","$25<br>in<br>3 weeks","1","14","25","3",""
"html-keyboard-response","10","101279","0.0-5.0-1.2","63210b26bd58960c97b47ddc","bdp_td","Thu Apr 13 2023 11:27:15 GMT+0100 (British Summer Time)","177127","","null","","","","FIX","","<div class='trialBorder'><div class='vertical-center'><img style='vertical-align:center; align:center' src=img/fixation3.jpg></div></div>","null","","","","","","",""
"html-keyboard-response","11","102717","0.0-5.0-2.2","63210b26bd58960c97b47ddc","bdp_td","Thu Apr 13 2023 11:27:15 GMT+0100 (British Summer Time)","177127","","1437","","","","offer","","<div class='trialBorder'><div class='vertical-center'><img style='vertical-align:center; align:center' src=img/fixation3.jpg></div><div class='cl'><div class='vertical-center'>$34<br><br>now</div></div><div class='cr'><div class='vertical-center'>$35<br>in<br>12 weeks</div></div><div class='respDivL'><div class='vertical-center'>(E)</div></div><div class='respDivR'><div class='vertical-center'>(I)</div></div></div>","E","$34<br><br>now","$35<br>in<br>12 weeks","0","34","35","12","NOW"
"html-keyboard-response","12","102969","0.0-5.0-3.2","63210b26bd58960c97b47ddc","bdp_td","Thu Apr 13 2023 11:27:15 GMT+0100 (British Summer Time)","177127","","null","","","","offerFB","","<div class='trialBorder'><div class='vertical-center'><img style='vertical-align:center; align:center' src=img/fixation3.jpg></div><div class='cl'><div class='vertical-center'><font style='color:orange'>$34<br><br>now</font></div></div><div class='cr'><div class='vertical-center'>$35<br>in<br>12 weeks</div></div><div class='respDivL'><div class='vertical-center'><font style='color:orange'>(E)</font></div></div><div class='respDivR'><div class='vertical-center'>(I)</div></div></div>","null","$34<br><br>now","$35<br>in<br>12 weeks","0","34","35","12",""
"html-keyboard-response","13","103471","0.0-5.0-1.3","63210b26bd58960c97b47ddc","bdp_td","Thu Apr 13 2023 11:27:15 GMT+0100 (British Summer Time)","177127","","null","","","","FIX","","<div class='trialBorder'><div class='vertical-center'><img style='vertical-align:center; align:center' src=img/fixation3.jpg></div></div>","null","","","","","","",""
"html-keyboard-response","14","106933","0.0-5.0-2.3","63210b26bd58960c97b47ddc","bdp_td","Thu Apr 13 2023 11:27:15 GMT+0100 (British Summer Time)","177127","","3462","","","","offer","","<div class='trialBorder'><div class='vertical-center'><img style='vertical-align:center; align:center' src=img/fixation3.jpg></div><div class='cl'><div class='vertical-center'>$35<br>in<br>3 weeks</div></div><div class='cr'><div class='vertical-center'>$24<br><br>now</div></div><div class='respDivL'><div class='vertical-center'>(E)</div></div><div class='respDivR'><div class='vertical-center'>(I)</div></div></div>","I","$24<br><br>now","$35<br>in<br>3 weeks","1","24","35","3","NOW"
"html-keyboard-response","15","107184","0.0-5.0-3.3","63210b26bd58960c97b47ddc","bdp_td","Thu Apr 13 2023 11:27:15 GMT+0100 (British Summer Time)","177127","","null","","","","offerFB","","<div class='trialBorder'><div class='vertical-center'><img style='vertical-align:center; align:center' src=img/fixation3.jpg></div><div class='cl'><div class='vertical-center'>$35<br>in<br>3 weeks</div></div><div class='cr'><div class='vertical-center'><font style='color:orange'>$24<br><br>now</font></div></div><div class='respDivL'><div class='vertical-center'>(E)</div></div><div class='respDivR'><div class='vertical-center'><font style='color:orange'>(I)</font></div></div></div>","null","$24<br><br>now","$35<br>in<br>3 weeks","1","24","35","3",""
"html-keyboard-response","16","107686","0.0-5.0-1.4","63210b26bd58960c97b47ddc","bdp_td","Thu Apr 13 2023 11:27:15 GMT+0100 (British Summer Time)","177127","","null","","","","FIX","","<div class='trialBorder'><div class='vertical-center'><img style='vertical-align:center; align:center' src=img/fixation3.jpg></div></div>","null","","","","","","",""
"html-keyboard-response","17","109208","0.0-5.0-2.4","63210b26bd58960c97b47ddc","bdp_td","Thu Apr 13 2023 11:27:15 GMT+0100 (British Summer Time)","177127","","1522","","","","offer","","<div class='trialBorder'><div class='vertical-center'><img style='vertical-align:center; align:center' src=img/fixation3.jpg></div><div class='cl'><div class='vertical-center'>$41<br><br>now</div></div><div class='cr'><div class='vertical-center'>$75<br>in<br>3 weeks</div></div><div class='respDivL'><div class='vertical-center'>(E)</div></div><div class='respDivR'><div class='vertical-center'>(I)</div></div></div>","I","$41<br><br>now","$75<br>in<br>3 weeks","0","41","75","3","THEN"
"html-keyboard-response","18","109460","0.0-5.0-3.4","63210b26bd58960c97b47ddc","bdp_td","Thu Apr 13 2023 11:27:15 GMT+0100 (British Summer Time)","177127","","null","","","","offerFB","","<div class='trialBorder'><div class='vertical-center'><img style='vertical-align:center; align:center' src=img/fixation3.jpg></div><div class='cl'><div class='vertical-center'>$41<br><br>now</div></div><div class='cr'><div class='vertical-center'><font style='color:orange'>$75<br>in<br>3 weeks</font></div></div><div class='respDivL'><div class='vertical-center'>(E)</div></div><div class='respDivR'><div class='vertical-center'><font style='color:orange'>(I)</font></div></div></div>","null","$41<br><br>now","$75<br>in<br>3 weeks","0","41","75","3",""
"html-keyboard-response","19","109961","0.0-5.0-1.5","63210b26bd58960c97b47ddc","bdp_td","Thu Apr 13 2023 11:27:15 GMT+0100 (British Summer Time)","177127","","null","","","","FIX","","<div class='trialBorder'><div class='vertical-center'><img style='vertical-align:center; align:center' src=img/fixation3.jpg></div></div>","null","","","","","","",""
"html-keyboard-response","20","111716","0.0-5.0-2.5","63210b26bd58960c97b47ddc","bdp_td","Thu Apr 13 2023 11:27:15 GMT+0100 (British Summer Time)","177127","","1754","","","","offer","","<div class='trialBorder'><div class='vertical-center'><img style='vertical-align:center; align:center' src=img/fixation3.jpg></div><div class='cl'><div class='vertical-center'>$85<br>in<br>1 week</div></div><div class='cr'><div class='vertical-center'>$31<br><br>now</div></div><div class='respDivL'><div class='vertical-center'>(E)</div></div><div class='respDivR'><div class='vertical-center'>(I)</div></div></div>","E","$31<br><br>now","$85<br>in<br>1 week","1","31","85","1","THEN"
"html-keyboard-response","21","111968","0.0-5.0-3.5","63210b26bd58960c97b47ddc","bdp_td","Thu Apr 13 2023 11:27:15 GMT+0100 (British Summer Time)","177127","","null","","","","offerFB","","<div class='trialBorder'><div class='vertical-center'><img style='vertical-align:center; align:center' src=img/fixation3.jpg></div><div class='cl'><div class='vertical-center'><font style='color:orange'>$85<br>in<br>1 week</font></div></div><div class='cr'><div class='vertical-center'>$31<br><br>now</div></div><div class='respDivL'><div class='vertical-center'><font style='color:orange'>(E)</font></div></div><div class='respDivR'><div class='vertical-center'>(I)</div></div></div>","null","$31<br><br>now","$85<br>in<br>1 week","1","31","85","1",""
"html-keyboard-response","22","112470","0.0-5.0-1.6","63210b26bd58960c97b47ddc","bdp_td","Thu Apr 13 2023 11:27:15 GMT+0100 (British Summer Time)","177127","","null","","","","FIX","","<div class='trialBorder'><div class='vertical-center'><img style='vertical-align:center; align:center' src=img/fixation3.jpg></div></div>","null","","","","","","",""
"html-keyboard-response","23","114808","0.0-5.0-2.6","63210b26bd58960c97b47ddc","bdp_td","Thu Apr 13 2023 11:27:15 GMT+0100 (British Summer Time)","177127","","2337","","","","offer","","<div class='trialBorder'><div class='vertical-center'><img style='vertical-align:center; align:center' src=img/fixation3.jpg></div><div class='cl'><div class='vertical-center'>$34<br><br>now</div></div><div class='cr'><div class='vertical-center'>$50<br>in<br>6 weeks</div></div><div class='respDivL'><div class='vertical-center'>(E)</div></div><div class='respDivR'><div class='vertical-center'>(I)</div></div></div>","E","$34<br><br>now","$50<br>in<br>6 weeks","0","34","50","6","NOW"
"html-keyboard-response","24","115060","0.0-5.0-3.6","63210b26bd58960c97b47ddc","bdp_td","Thu Apr 13 2023 11:27:15 GMT+0100 (British Summer Time)","177127","","null","","","","offerFB","","<div class='trialBorder'><div class='vertical-center'><img style='vertical-align:center; align:center' src=img/fixation3.jpg></div><div class='cl'><div class='vertical-center'><font style='color:orange'>$34<br><br>now</font></div></div><div class='cr'><div class='vertical-center'>$50<br>in<br>6 weeks</div></div><div class='respDivL'><div class='vertical-center'><font style='color:orange'>(E)</font></div></div><div class='respDivR'><div class='vertical-center'>(I)</div></div></div>","null","$34<br><br>now","$50<br>in<br>6 weeks","0","34","50","6",""
"html-keyboard-response","25","115563","0.0-5.0-1.7","63210b26bd58960c97b47ddc","bdp_td","Thu Apr 13 2023 11:27:15 GMT+0100 (British Summer Time)","177127","","null","","","","FIX","","<div class='trialBorder'><div class='vertical-center'><img style='vertical-align:center; align:center' src=img/fixation3.jpg></div></div>","null","","","","","","",""
"html-keyboard-response","26","117692","0.0-5.0-2.7","63210b26bd58960c97b47ddc","bdp_td","Thu Apr 13 2023 11:27:15 GMT+0100 (British Summer Time)","177127","","2128","","","","offer","","<div class='trialBorder'><div class='vertical-center'><img style='vertical-align:center; align:center' src=img/fixation3.jpg></div><div class='cl'><div class='vertical-center'>$55<br>in<br>12 weeks</div></div><div class='cr'><div class='vertical-center'>$54<br><br>now</div></div><div class='respDivL'><div class='vertical-center'>(E)</div></div><div class='respDivR'><div class='vertical-center'>(I)</div></div></div>","I","$54<br><br>now","$55<br>in<br>12 weeks","1","54","55","12","NOW"
"html-keyboard-response","27","117944","0.0-5.0-3.7","63210b26bd58960c97b47ddc","bdp_td","Thu Apr 13 2023 11:27:15 GMT+0100 (British Summer Time)","177127","","null","","","","offerFB","","<div class='trialBorder'><div class='vertical-center'><img style='vertical-align:center; align:center' src=img/fixation3.jpg></div><div class='cl'><div class='vertical-center'>$55<br>in<br>12 weeks</div></div><div class='cr'><div class='vertical-center'><font style='color:orange'>$54<br><br>now</font></div></div><div class='respDivL'><div class='vertical-center'>(E)</div></div><div class='respDivR'><div class='vertical-center'><font style='color:orange'>(I)</font></div></div></div>","null","$54<br><br>now","$55<br>in<br>12 weeks","1","54","55","12",""
"html-keyboard-response","28","118446","0.0-5.0-1.8","63210b26bd58960c97b47ddc","bdp_td","Thu Apr 13 2023 11:27:15 GMT+0100 (British Summer Time)","177127","","null","","","","FIX","","<div class='trialBorder'><div class='vertical-center'><img style='vertical-align:center; align:center' src=img/fixation3.jpg></div></div>","null","","","","","","",""
"html-keyboard-response","29","120212","0.0-5.0-2.8","63210b26bd58960c97b47ddc","bdp_td","Thu Apr 13 2023 11:27:15 GMT+0100 (British Summer Time)","177127","","1766","","","","offer","","<div class='trialBorder'><div class='vertical-center'><img style='vertical-align:center; align:center' src=img/fixation3.jpg></div><div class='cl'><div class='vertical-center'>$75<br>in<br>6 weeks</div></div><div class='cr'><div class='vertical-center'>$55<br><br>now</div></div><div class='respDivL'><div class='vertical-center'>(E)</div></div><div class='respDivR'><div class='vertical-center'>(I)</div></div></div>","E","$55<br><br>now","$75<br>in<br>6 weeks","1","55","75","6","THEN"
"html-keyboard-response","30","120466","0.0-5.0-3.8","63210b26bd58960c97b47ddc","bdp_td","Thu Apr 13 2023 11:27:15 GMT+0100 (British Summer Time)","177127","","null","","","","offerFB","","<div class='trialBorder'><div class='vertical-center'><img style='vertical-align:center; align:center' src=img/fixation3.jpg></div><div class='cl'><div class='vertical-center'><font style='color:orange'>$75<br>in<br>6 weeks</font></div></div><div class='cr'><div class='vertical-center'>$55<br><br>now</div></div><div class='respDivL'><div class='vertical-center'><font style='color:orange'>(E)</font></div></div><div class='respDivR'><div class='vertical-center'>(I)</div></div></div>","null","$55<br><br>now","$75<br>in<br>6 weeks","1","55","75","6",""
"html-keyboard-response","31","120967","0.0-5.0-1.9","63210b26bd58960c97b47ddc","bdp_td","Thu Apr 13 2023 11:27:15 GMT+0100 (British Summer Time)","177127","","null","","","","FIX","","<div class='trialBorder'><div class='vertical-center'><img style='vertical-align:center; align:center' src=img/fixation3.jpg></div></div>","null","","","","","","",""
"html-keyboard-response","32","123019","0.0-5.0-2.9","63210b26bd58960c97b47ddc","bdp_td","Thu Apr 13 2023 11:27:15 GMT+0100 (British Summer Time)","177127","","2051","","","","offer","","<div class='trialBorder'><div class='vertical-center'><img style='vertical-align:center; align:center' src=img/fixation3.jpg></div><div class='cl'><div class='vertical-center'>$19<br><br>now</div></div><div class='cr'><div class='vertical-center'>$25<br>in<br>6 weeks</div></div><div class='respDivL'><div class='vertical-center'>(E)</div></div><div class='respDivR'><div class='vertical-center'>(I)</div></div></div>","E","$19<br><br>now","$25<br>in<br>6 weeks","0","19","25","6","NOW"
"html-keyboard-response","33","123270","0.0-5.0-3.9","63210b26bd58960c97b47ddc","bdp_td","Thu Apr 13 2023 11:27:15 GMT+0100 (British Summer Time)","177127","","null","","","","offerFB","","<div class='trialBorder'><div class='vertical-center'><img style='vertical-align:center; align:center' src=img/fixation3.jpg></div><div class='cl'><div class='vertical-center'><font style='color:orange'>$19<br><br>now</font></div></div><div class='cr'><div class='vertical-center'>$25<br>in<br>6 weeks</div></div><div class='respDivL'><div class='vertical-center'><font style='color:orange'>(E)</font></div></div><div class='respDivR'><div class='vertical-center'>(I)</div></div></div>","null","$19<br><br>now","$25<br>in<br>6 weeks","0","19","25","6",""
"html-keyboard-response","34","123771","0.0-5.0-1.10","63210b26bd58960c97b47ddc","bdp_td","Thu Apr 13 2023 11:27:15 GMT+0100 (British Summer Time)","177127","","null","","","","FIX","","<div class='trialBorder'><div class='vertical-center'><img style='vertical-align:center; align:center' src=img/fixation3.jpg></div></div>","null","","","","","","",""
"html-keyboard-response","35","125327","0.0-5.0-2.10","63210b26bd58960c97b47ddc","bdp_td","Thu Apr 13 2023 11:27:15 GMT+0100 (British Summer Time)","177127","","1555","","","","offer","","<div class='trialBorder'><div class='vertical-center'><img style='vertical-align:center; align:center' src=img/fixation3.jpg></div><div class='cl'><div class='vertical-center'>$80<br>in<br>2 weeks</div></div><div class='cr'><div class='vertical-center'>$33<br><br>now</div></div><div class='respDivL'><div class='vertical-center'>(E)</div></div><div class='respDivR'><div class='vertical-center'>(I)</div></div></div>","E","$33<br><br>now","$80<br>in<br>2 weeks","1","33","80","2","THEN"
"html-keyboard-response","36","125579","0.0-5.0-3.10","63210b26bd58960c97b47ddc","bdp_td","Thu Apr 13 2023 11:27:15 GMT+0100 (British Summer Time)","177127","","null","","","","offerFB","","<div class='trialBorder'><div class='vertical-center'><img style='vertical-align:center; align:center' src=img/fixation3.jpg></div><div class='cl'><div class='vertical-center'><font style='color:orange'>$80<br>in<br>2 weeks</font></div></div><div class='cr'><div class='vertical-center'>$33<br><br>now</div></div><div class='respDivL'><div class='vertical-center'><font style='color:orange'>(E)</font></div></div><div class='respDivR'><div class='vertical-center'>(I)</div></div></div>","null","$33<br><br>now","$80<br>in<br>2 weeks","1","33","80","2",""
"html-keyboard-response","37","126080","0.0-5.0-1.11","63210b26bd58960c97b47ddc","bdp_td","Thu Apr 13 2023 11:27:15 GMT+0100 (British Summer Time)","177127","","null","","","","FIX","","<div class='trialBorder'><div class='vertical-center'><img style='vertical-align:center; align:center' src=img/fixation3.jpg></div></div>","null","","","","","","",""
"html-keyboard-response","38","127662","0.0-5.0-2.11","63210b26bd58960c97b47ddc","bdp_td","Thu Apr 13 2023 11:27:15 GMT+0100 (British Summer Time)","177127","","1581","","","","offer","","<div class='trialBorder'><div class='vertical-center'><img style='vertical-align:center; align:center' src=img/fixation3.jpg></div><div class='cl'><div class='vertical-center'>$47<br><br>now</div></div><div class='cr'><div class='vertical-center'>$50<br>in<br>12 weeks</div></div><div class='respDivL'><div class='vertical-center'>(E)</div></div><div class='respDivR'><div class='vertical-center'>(I)</div></div></div>","E","$47<br><br>now","$50<br>in<br>12 weeks","0","47","50","12","NOW"
"html-keyboard-response","39","127914","0.0-5.0-3.11","63210b26bd58960c97b47ddc","bdp_td","Thu Apr 13 2023 11:27:15 GMT+0100 (British Summer Time)","177127","","null","","","","offerFB","","<div class='trialBorder'><div class='vertical-center'><img style='vertical-align:center; align:center' src=img/fixation3.jpg></div><div class='cl'><div class='vertical-center'><font style='color:orange'>$47<br><br>now</font></div></div><div class='cr'><div class='vertical-center'>$50<br>in<br>12 weeks</div></div><div class='respDivL'><div class='vertical-center'><font style='color:orange'>(E)</font></div></div><div class='respDivR'><div class='vertical-center'>(I)</div></div></div>","null","$47<br><br>now","$50<br>in<br>12 weeks","0","47","50","12",""
"html-keyboard-response","40","128415","0.0-5.0-1.12","63210b26bd58960c97b47ddc","bdp_td","Thu Apr 13 2023 11:27:15 GMT+0100 (British Summer Time)","177127","","null","","","","FIX","","<div class='trialBorder'><div class='vertical-center'><img style='vertical-align:center; align:center' src=img/fixation3.jpg></div></div>","null","","","","","","",""
"html-keyboard-response","41","129719","0.0-5.0-2.12","63210b26bd58960c97b47ddc","bdp_td","Thu Apr 13 2023 11:27:15 GMT+0100 (British Summer Time)","177127","","1303","","","","offer","","<div class='trialBorder'><div class='vertical-center'><img style='vertical-align:center; align:center' src=img/fixation3.jpg></div><div class='cl'><div class='vertical-center'>$85<br>in<br>12 weeks</div></div><div class='cr'><div class='vertical-center'>$80<br><br>now</div></div><div class='respDivL'><div class='vertical-center'>(E)</div></div><div class='respDivR'><div class='vertical-center'>(I)</div></div></div>","E","$80<br><br>now","$85<br>in<br>12 weeks","1","80","85","12","THEN"
"html-keyboard-response","42","129971","0.0-5.0-3.12","63210b26bd58960c97b47ddc","bdp_td","Thu Apr 13 2023 11:27:15 GMT+0100 (British Summer Time)","177127","","null","","","","offerFB","","<div class='trialBorder'><div class='vertical-center'><img style='vertical-align:center; align:center' src=img/fixation3.jpg></div><div class='cl'><div class='vertical-center'><font style='color:orange'>$85<br>in<br>12 weeks</font></div></div><div class='cr'><div class='vertical-center'>$80<br><br>now</div></div><div class='respDivL'><div class='vertical-center'><font style='color:orange'>(E)</font></div></div><div class='respDivR'><div class='vertical-center'>(I)</div></div></div>","null","$80<br><br>now","$85<br>in<br>12 weeks","1","80","85","12",""
"html-keyboard-response","43","130472","0.0-5.0-1.13","63210b26bd58960c97b47ddc","bdp_td","Thu Apr 13 2023 11:27:15 GMT+0100 (British Summer Time)","177127","","null","","","","FIX","","<div class='trialBorder'><div class='vertical-center'><img style='vertical-align:center; align:center' src=img/fixation3.jpg></div></div>","null","","","","","","",""
"html-keyboard-response","44","134843","0.0-5.0-2.13","63210b26bd58960c97b47ddc","bdp_td","Thu Apr 13 2023 11:27:15 GMT+0100 (British Summer Time)","177127","","4370","","","","offer","","<div class='trialBorder'><div class='vertical-center'><img style='vertical-align:center; align:center' src=img/fixation3.jpg></div><div class='cl'><div class='vertical-center'>$55<br>in<br>1 week</div></div><div class='cr'><div class='vertical-center'>$20<br><br>now</div></div><div class='respDivL'><div class='vertical-center'>(E)</div></div><div class='respDivR'><div class='vertical-center'>(I)</div></div></div>","E","$20<br><br>now","$55<br>in<br>1 week","1","20","55","1","THEN"
"html-keyboard-response","45","135094","0.0-5.0-3.13","63210b26bd58960c97b47ddc","bdp_td","Thu Apr 13 2023 11:27:15 GMT+0100 (British Summer Time)","177127","","null","","","","offerFB","","<div class='trialBorder'><div class='vertical-center'><img style='vertical-align:center; align:center' src=img/fixation3.jpg></div><div class='cl'><div class='vertical-center'><font style='color:orange'>$55<br>in<br>1 week</font></div></div><div class='cr'><div class='vertical-center'>$20<br><br>now</div></div><div class='respDivL'><div class='vertical-center'><font style='color:orange'>(E)</font></div></div><div class='respDivR'><div class='vertical-center'>(I)</div></div></div>","null","$20<br><br>now","$55<br>in<br>1 week","1","20","55","1",""
"html-keyboard-response","46","135596","0.0-5.0-1.14","63210b26bd58960c97b47ddc","bdp_td","Thu Apr 13 2023 11:27:15 GMT+0100 (British Summer Time)","177127","","null","","","","FIX","","<div class='trialBorder'><div class='vertical-center'><img style='vertical-align:center; align:center' src=img/fixation3.jpg></div></div>","null","","","","","","",""
"html-keyboard-response","47","137489","0.0-5.0-2.14","63210b26bd58960c97b47ddc","bdp_td","Thu Apr 13 2023 11:27:15 GMT+0100 (British Summer Time)","177127","","1892","","","","offer","","<div class='trialBorder'><div class='vertical-center'><img style='vertical-align:center; align:center' src=img/fixation3.jpg></div><div class='cl'><div class='vertical-center'>$30<br>in<br>2 weeks</div></div><div class='cr'><div class='vertical-center'>$11<br><br>now</div></div><div class='respDivL'><div class='vertical-center'>(E)</div></div><div class='respDivR'><div class='vertical-center'>(I)</div></div></div>","E","$11<br><br>now","$30<br>in<br>2 weeks","1","11","30","2","THEN"
"html-keyboard-response","48","137740","0.0-5.0-3.14","63210b26bd58960c97b47ddc","bdp_td","Thu Apr 13 2023 11:27:15 GMT+0100 (British Summer Time)","177127","","null","","","","offerFB","","<div class='trialBorder'><div class='vertical-center'><img style='vertical-align:center; align:center' src=img/fixation3.jpg></div><div class='cl'><div class='vertical-center'><font style='color:orange'>$30<br>in<br>2 weeks</font></div></div><div class='cr'><div class='vertical-center'>$11<br><br>now</div></div><div class='respDivL'><div class='vertical-center'><font style='color:orange'>(E)</font></div></div><div class='respDivR'><div class='vertical-center'>(I)</div></div></div>","null","$11<br><br>now","$30<br>in<br>2 weeks","1","11","30","2",""
"html-keyboard-response","49","138242","0.0-5.0-1.15","63210b26bd58960c97b47ddc","bdp_td","Thu Apr 13 2023 11:27:15 GMT+0100 (British Summer Time)","177127","","null","","","","FIX","","<div class='trialBorder'><div class='vertical-center'><img style='vertical-align:center; align:center' src=img/fixation3.jpg></div></div>","null","","","","","","",""
"html-keyboard-response","50","140194","0.0-5.0-2.15","63210b26bd58960c97b47ddc","bdp_td","Thu Apr 13 2023 11:27:15 GMT+0100 (British Summer Time)","177127","","1951","","","","offer","","<div class='trialBorder'><div class='vertical-center'><img style='vertical-align:center; align:center' src=img/fixation3.jpg></div><div class='cl'><div class='vertical-center'>$67<br><br>now</div></div><div class='cr'><div class='vertical-center'>$75<br>in<br>12 weeks</div></div><div class='respDivL'><div class='vertical-center'>(E)</div></div><div class='respDivR'><div class='vertical-center'>(I)</div></div></div>","E","$67<br><br>now","$75<br>in<br>12 weeks","0","67","75","12","NOW"
"html-keyboard-response","51","140445","0.0-5.0-3.15","63210b26bd58960c97b47ddc","bdp_td","Thu Apr 13 2023 11:27:15 GMT+0100 (British Summer Time)","177127","","null","","","","offerFB","","<div class='trialBorder'><div class='vertical-center'><img style='vertical-align:center; align:center' src=img/fixation3.jpg></div><div class='cl'><div class='vertical-center'><font style='color:orange'>$67<br><br>now</font></div></div><div class='cr'><div class='vertical-center'>$75<br>in<br>12 weeks</div></div><div class='respDivL'><div class='vertical-center'><font style='color:orange'>(E)</font></div></div><div class='respDivR'><div class='vertical-center'>(I)</div></div></div>","null","$67<br><br>now","$75<br>in<br>12 weeks","0","67","75","12",""
"html-keyboard-response","52","140947","0.0-5.0-1.16","63210b26bd58960c97b47ddc","bdp_td","Thu Apr 13 2023 11:27:15 GMT+0100 (British Summer Time)","177127","","null","","","","FIX","","<div class='trialBorder'><div class='vertical-center'><img style='vertical-align:center; align:center' src=img/fixation3.jpg></div></div>","null","","","","","","",""
"html-keyboard-response","53","143517","0.0-5.0-2.16","63210b26bd58960c97b47ddc","bdp_td","Thu Apr 13 2023 11:27:15 GMT+0100 (British Summer Time)","177127","","2568","","","","offer","","<div class='trialBorder'><div class='vertical-center'><img style='vertical-align:center; align:center' src=img/fixation3.jpg></div><div class='cl'><div class='vertical-center'>$54<br><br>now</div></div><div class='cr'><div class='vertical-center'>$80<br>in<br>3 weeks</div></div><div class='respDivL'><div class='vertical-center'>(E)</div></div><div class='respDivR'><div class='vertical-center'>(I)</div></div></div>","I","$54<br><br>now","$80<br>in<br>3 weeks","0","54","80","3","THEN"
"html-keyboard-response","54","143768","0.0-5.0-3.16","63210b26bd58960c97b47ddc","bdp_td","Thu Apr 13 2023 11:27:15 GMT+0100 (British Summer Time)","177127","","null","","","","offerFB","","<div class='trialBorder'><div class='vertical-center'><img style='vertical-align:center; align:center' src=img/fixation3.jpg></div><div class='cl'><div class='vertical-center'>$54<br><br>now</div></div><div class='cr'><div class='vertical-center'><font style='color:orange'>$80<br>in<br>3 weeks</font></div></div><div class='respDivL'><div class='vertical-center'>(E)</div></div><div class='respDivR'><div class='vertical-center'><font style='color:orange'>(I)</font></div></div></div>","null","$54<br><br>now","$80<br>in<br>3 weeks","0","54","80","3",""
"html-keyboard-response","55","144269","0.0-5.0-1.17","63210b26bd58960c97b47ddc","bdp_td","Thu Apr 13 2023 11:27:15 GMT+0100 (British Summer Time)","177127","","null","","","","FIX","","<div class='trialBorder'><div class='vertical-center'><img style='vertical-align:center; align:center' src=img/fixation3.jpg></div></div>","null","","","","","","",""
"html-keyboard-response","56","148144","0.0-5.0-2.17","63210b26bd58960c97b47ddc","bdp_td","Thu Apr 13 2023 11:27:15 GMT+0100 (British Summer Time)","177127","","3875","","","","offer","","<div class='trialBorder'><div class='vertical-center'><img style='vertical-align:center; align:center' src=img/fixation3.jpg></div><div class='cl'><div class='vertical-center'>$49<br><br>now</div></div><div class='cr'><div class='vertical-center'>$60<br>in<br>6 weeks</div></div><div class='respDivL'><div class='vertical-center'>(E)</div></div><div class='respDivR'><div class='vertical-center'>(I)</div></div></div>","E","$49<br><br>now","$60<br>in<br>6 weeks","0","49","60","6","NOW"
"html-keyboard-response","57","148396","0.0-5.0-3.17","63210b26bd58960c97b47ddc","bdp_td","Thu Apr 13 2023 11:27:15 GMT+0100 (British Summer Time)","177127","","null","","","","offerFB","","<div class='trialBorder'><div class='vertical-center'><img style='vertical-align:center; align:center' src=img/fixation3.jpg></div><div class='cl'><div class='vertical-center'><font style='color:orange'>$49<br><br>now</font></div></div><div class='cr'><div class='vertical-center'>$60<br>in<br>6 weeks</div></div><div class='respDivL'><div class='vertical-center'><font style='color:orange'>(E)</font></div></div><div class='respDivR'><div class='vertical-center'>(I)</div></div></div>","null","$49<br><br>now","$60<br>in<br>6 weeks","0","49","60","6",""
"html-keyboard-response","58","148897","0.0-5.0-1.18","63210b26bd58960c97b47ddc","bdp_td","Thu Apr 13 2023 11:27:15 GMT+0100 (British Summer Time)","177127","","null","","","","FIX","","<div class='trialBorder'><div class='vertical-center'><img style='vertical-align:center; align:center' src=img/fixation3.jpg></div></div>","null","","","","","","",""
"html-keyboard-response","59","151483","0.0-5.0-2.18","63210b26bd58960c97b47ddc","bdp_td","Thu Apr 13 2023 11:27:15 GMT+0100 (British Summer Time)","177127","","2586","","","","offer","","<div class='trialBorder'><div class='vertical-center'><img style='vertical-align:center; align:center' src=img/fixation3.jpg></div><div class='cl'><div class='vertical-center'>$25<br><br>now</div></div><div class='cr'><div class='vertical-center'>$60<br>in<br>3 weeks</div></div><div class='respDivL'><div class='vertical-center'>(E)</div></div><div class='respDivR'><div class='vertical-center'>(I)</div></div></div>","I","$25<br><br>now","$60<br>in<br>3 weeks","0","25","60","3","THEN"
"html-keyboard-response","60","151735","0.0-5.0-3.18","63210b26bd58960c97b47ddc","bdp_td","Thu Apr 13 2023 11:27:15 GMT+0100 (British Summer Time)","177127","","null","","","","offerFB","","<div class='trialBorder'><div class='vertical-center'><img style='vertical-align:center; align:center' src=img/fixation3.jpg></div><div class='cl'><div class='vertical-center'>$25<br><br>now</div></div><div class='cr'><div class='vertical-center'><font style='color:orange'>$60<br>in<br>3 weeks</font></div></div><div class='respDivL'><div class='vertical-center'>(E)</div></div><div class='respDivR'><div class='vertical-center'><font style='color:orange'>(I)</font></div></div></div>","null","$25<br><br>now","$60<br>in<br>3 weeks","0","25","60","3",""
"html-keyboard-response","61","152236","0.0-5.0-1.19","63210b26bd58960c97b47ddc","bdp_td","Thu Apr 13 2023 11:27:15 GMT+0100 (British Summer Time)","177127","","null","","","","FIX","","<div class='trialBorder'><div class='vertical-center'><img style='vertical-align:center; align:center' src=img/fixation3.jpg></div></div>","null","","","","","","",""
"html-keyboard-response","62","154709","0.0-5.0-2.19","63210b26bd58960c97b47ddc","bdp_td","Thu Apr 13 2023 11:27:15 GMT+0100 (British Summer Time)","177127","","2472","","","","offer","","<div class='trialBorder'><div class='vertical-center'><img style='vertical-align:center; align:center' src=img/fixation3.jpg></div><div class='cl'><div class='vertical-center'>$85<br>in<br>6 weeks</div></div><div class='cr'><div class='vertical-center'>$69<br><br>now</div></div><div class='respDivL'><div class='vertical-center'>(E)</div></div><div class='respDivR'><div class='vertical-center'>(I)</div></div></div>","I","$69<br><br>now","$85<br>in<br>6 weeks","1","69","85","6","NOW"
"html-keyboard-response","63","154961","0.0-5.0-3.19","63210b26bd58960c97b47ddc","bdp_td","Thu Apr 13 2023 11:27:15 GMT+0100 (British Summer Time)","177127","","null","","","","offerFB","","<div class='trialBorder'><div class='vertical-center'><img style='vertical-align:center; align:center' src=img/fixation3.jpg></div><div class='cl'><div class='vertical-center'>$85<br>in<br>6 weeks</div></div><div class='cr'><div class='vertical-center'><font style='color:orange'>$69<br><br>now</font></div></div><div class='respDivL'><div class='vertical-center'>(E)</div></div><div class='respDivR'><div class='vertical-center'><font style='color:orange'>(I)</font></div></div></div>","null","$69<br><br>now","$85<br>in<br>6 weeks","1","69","85","6",""
"html-keyboard-response","64","155462","0.0-5.0-1.20","63210b26bd58960c97b47ddc","bdp_td","Thu Apr 13 2023 11:27:15 GMT+0100 (British Summer Time)","177127","","null","","","","FIX","","<div class='trialBorder'><div class='vertical-center'><img style='vertical-align:center; align:center' src=img/fixation3.jpg></div></div>","null","","","","","","",""
"html-keyboard-response","65","157492","0.0-5.0-2.20","63210b26bd58960c97b47ddc","bdp_td","Thu Apr 13 2023 11:27:15 GMT+0100 (British Summer Time)","177127","","2029","","","","offer","","<div class='trialBorder'><div class='vertical-center'><img style='vertical-align:center; align:center' src=img/fixation3.jpg></div><div class='cl'><div class='vertical-center'>$40<br><br>now</div></div><div class='cr'><div class='vertical-center'>$55<br>in<br>6 weeks</div></div><div class='respDivL'><div class='vertical-center'>(E)</div></div><div class='respDivR'><div class='vertical-center'>(I)</div></div></div>","E","$40<br><br>now","$55<br>in<br>6 weeks","0","40","55","6","NOW"
"html-keyboard-response","66","157744","0.0-5.0-3.20","63210b26bd58960c97b47ddc","bdp_td","Thu Apr 13 2023 11:27:15 GMT+0100 (British Summer Time)","177127","","null","","","","offerFB","","<div class='trialBorder'><div class='vertical-center'><img style='vertical-align:center; align:center' src=img/fixation3.jpg></div><div class='cl'><div class='vertical-center'><font style='color:orange'>$40<br><br>now</font></div></div><div class='cr'><div class='vertical-center'>$55<br>in<br>6 weeks</div></div><div class='respDivL'><div class='vertical-center'><font style='color:orange'>(E)</font></div></div><div class='respDivR'><div class='vertical-center'>(I)</div></div></div>","null","$40<br><br>now","$55<br>in<br>6 weeks","0","40","55","6",""
"html-keyboard-response","67","158246","0.0-5.0-1.21","63210b26bd58960c97b47ddc","bdp_td","Thu Apr 13 2023 11:27:15 GMT+0100 (British Summer Time)","177127","","null","","","","FIX","","<div class='trialBorder'><div class='vertical-center'><img style='vertical-align:center; align:center' src=img/fixation3.jpg></div></div>","null","","","","","","",""
"html-keyboard-response","68","161365","0.0-5.0-2.21","63210b26bd58960c97b47ddc","bdp_td","Thu Apr 13 2023 11:27:15 GMT+0100 (British Summer Time)","177127","","3119","","","","offer","","<div class='trialBorder'><div class='vertical-center'><img style='vertical-align:center; align:center' src=img/fixation3.jpg></div><div class='cl'><div class='vertical-center'>$30<br>in<br>6 weeks</div></div><div class='cr'><div class='vertical-center'>$25<br><br>now</div></div><div class='respDivL'><div class='vertical-center'>(E)</div></div><div class='respDivR'><div class='vertical-center'>(I)</div></div></div>","I","$25<br><br>now","$30<br>in<br>6 weeks","1","25","30","6","NOW"
"html-keyboard-response","69","161617","0.0-5.0-3.21","63210b26bd58960c97b47ddc","bdp_td","Thu Apr 13 2023 11:27:15 GMT+0100 (British Summer Time)","177127","","null","","","","offerFB","","<div class='trialBorder'><div class='vertical-center'><img style='vertical-align:center; align:center' src=img/fixation3.jpg></div><div class='cl'><div class='vertical-center'>$30<br>in<br>6 weeks</div></div><div class='cr'><div class='vertical-center'><font style='color:orange'>$25<br><br>now</font></div></div><div class='respDivL'><div class='vertical-center'>(E)</div></div><div class='respDivR'><div class='vertical-center'><font style='color:orange'>(I)</font></div></div></div>","null","$25<br><br>now","$30<br>in<br>6 weeks","1","25","30","6",""
"html-keyboard-response","70","162118","0.0-5.0-1.22","63210b26bd58960c97b47ddc","bdp_td","Thu Apr 13 2023 11:27:15 GMT+0100 (British Summer Time)","177127","","null","","","","FIX","","<div class='trialBorder'><div class='vertical-center'><img style='vertical-align:center; align:center' src=img/fixation3.jpg></div></div>","null","","","","","","",""
"html-keyboard-response","71","164370","0.0-5.0-2.22","63210b26bd58960c97b47ddc","bdp_td","Thu Apr 13 2023 11:27:15 GMT+0100 (British Summer Time)","177127","","2252","","","","offer","","<div class='trialBorder'><div class='vertical-center'><img style='vertical-align:center; align:center' src=img/fixation3.jpg></div><div class='cl'><div class='vertical-center'>$22<br><br>now</div></div><div class='cr'><div class='vertical-center'>$25<br>in<br>12 weeks</div></div><div class='respDivL'><div class='vertical-center'>(E)</div></div><div class='respDivR'><div class='vertical-center'>(I)</div></div></div>","E","$22<br><br>now","$25<br>in<br>12 weeks","0","22","25","12","NOW"
"html-keyboard-response","72","164621","0.0-5.0-3.22","63210b26bd58960c97b47ddc","bdp_td","Thu Apr 13 2023 11:27:15 GMT+0100 (British Summer Time)","177127","","null","","","","offerFB","","<div class='trialBorder'><div class='vertical-center'><img style='vertical-align:center; align:center' src=img/fixation3.jpg></div><div class='cl'><div class='vertical-center'><font style='color:orange'>$22<br><br>now</font></div></div><div class='cr'><div class='vertical-center'>$25<br>in<br>12 weeks</div></div><div class='respDivL'><div class='vertical-center'><font style='color:orange'>(E)</font></div></div><div class='respDivR'><div class='vertical-center'>(I)</div></div></div>","null","$22<br><br>now","$25<br>in<br>12 weeks","0","22","25","12",""
"html-keyboard-response","73","165124","0.0-5.0-1.23","63210b26bd58960c97b47ddc","bdp_td","Thu Apr 13 2023 11:27:15 GMT+0100 (British Summer Time)","177127","","null","","","","FIX","","<div class='trialBorder'><div class='vertical-center'><img style='vertical-align:center; align:center' src=img/fixation3.jpg></div></div>","null","","","","","","",""
"html-keyboard-response","74","166633","0.0-5.0-2.23","63210b26bd58960c97b47ddc","bdp_td","Thu Apr 13 2023 11:27:15 GMT+0100 (British Summer Time)","177127","","1508","","","","offer","","<div class='trialBorder'><div class='vertical-center'><img style='vertical-align:center; align:center' src=img/fixation3.jpg></div><div class='cl'><div class='vertical-center'>$60<br>in<br>12 weeks</div></div><div class='cr'><div class='vertical-center'>$54<br><br>now</div></div><div class='respDivL'><div class='vertical-center'>(E)</div></div><div class='respDivR'><div class='vertical-center'>(I)</div></div></div>","I","$54<br><br>now","$60<br>in<br>12 weeks","1","54","60","12","NOW"
"html-keyboard-response","75","166884","0.0-5.0-3.23","63210b26bd58960c97b47ddc","bdp_td","Thu Apr 13 2023 11:27:15 GMT+0100 (British Summer Time)","177127","","null","","","","offerFB","","<div class='trialBorder'><div class='vertical-center'><img style='vertical-align:center; align:center' src=img/fixation3.jpg></div><div class='cl'><div class='vertical-center'>$60<br>in<br>12 weeks</div></div><div class='cr'><div class='vertical-center'><font style='color:orange'>$54<br><br>now</font></div></div><div class='respDivL'><div class='vertical-center'>(E)</div></div><div class='respDivR'><div class='vertical-center'><font style='color:orange'>(I)</font></div></div></div>","null","$54<br><br>now","$60<br>in<br>12 weeks","1","54","60","12",""
"html-keyboard-response","76","167387","0.0-5.0-1.24","63210b26bd58960c97b47ddc","bdp_td","Thu Apr 13 2023 11:27:15 GMT+0100 (British Summer Time)","177127","","null","","","","FIX","","<div class='trialBorder'><div class='vertical-center'><img style='vertical-align:center; align:center' src=img/fixation3.jpg></div></div>","null","","","","","","",""
"html-keyboard-response","77","169812","0.0-5.0-2.24","63210b26bd58960c97b47ddc","bdp_td","Thu Apr 13 2023 11:27:15 GMT+0100 (British Summer Time)","177127","","2424","","","","offer","","<div class='trialBorder'><div class='vertical-center'><img style='vertical-align:center; align:center' src=img/fixation3.jpg></div><div class='cl'><div class='vertical-center'>$27<br><br>now</div></div><div class='cr'><div class='vertical-center'>$50<br>in<br>3 weeks</div></div><div class='respDivL'><div class='vertical-center'>(E)</div></div><div class='respDivR'><div class='vertical-center'>(I)</div></div></div>","I","$27<br><br>now","$50<br>in<br>3 weeks","0","27","50","3","THEN"
"html-keyboard-response","78","170063","0.0-5.0-3.24","63210b26bd58960c97b47ddc","bdp_td","Thu Apr 13 2023 11:27:15 GMT+0100 (British Summer Time)","177127","","null","","","","offerFB","","<div class='trialBorder'><div class='vertical-center'><img style='vertical-align:center; align:center' src=img/fixation3.jpg></div><div class='cl'><div class='vertical-center'>$27<br><br>now</div></div><div class='cr'><div class='vertical-center'><font style='color:orange'>$50<br>in<br>3 weeks</font></div></div><div class='respDivL'><div class='vertical-center'>(E)</div></div><div class='respDivR'><div class='vertical-center'><font style='color:orange'>(I)</font></div></div></div>","null","$27<br><br>now","$50<br>in<br>3 weeks","0","27","50","3",""
"html-keyboard-response","79","170564","0.0-5.0-1.25","63210b26bd58960c97b47ddc","bdp_td","Thu Apr 13 2023 11:27:15 GMT+0100 (British Summer Time)","177127","","null","","","","FIX","","<div class='trialBorder'><div class='vertical-center'><img style='vertical-align:center; align:center' src=img/fixation3.jpg></div></div>","null","","","","","","",""
"html-keyboard-response","80","172432","0.0-5.0-2.25","63210b26bd58960c97b47ddc","bdp_td","Thu Apr 13 2023 11:27:15 GMT+0100 (British Summer Time)","177127","","1867","","","","offer","","<div class='trialBorder'><div class='vertical-center'><img style='vertical-align:center; align:center' src=img/fixation3.jpg></div><div class='cl'><div class='vertical-center'>$35<br>in<br>2 weeks</div></div><div class='cr'><div class='vertical-center'>$15<br><br>now</div></div><div class='respDivL'><div class='vertical-center'>(E)</div></div><div class='respDivR'><div class='vertical-center'>(I)</div></div></div>","E","$15<br><br>now","$35<br>in<br>2 weeks","1","15","35","2","THEN"
"html-keyboard-response","81","172684","0.0-5.0-3.25","63210b26bd58960c97b47ddc","bdp_td","Thu Apr 13 2023 11:27:15 GMT+0100 (British Summer Time)","177127","","null","","","","offerFB","","<div class='trialBorder'><div class='vertical-center'><img style='vertical-align:center; align:center' src=img/fixation3.jpg></div><div class='cl'><div class='vertical-center'><font style='color:orange'>$35<br>in<br>2 weeks</font></div></div><div class='cr'><div class='vertical-center'>$15<br><br>now</div></div><div class='respDivL'><div class='vertical-center'><font style='color:orange'>(E)</font></div></div><div class='respDivR'><div class='vertical-center'>(I)</div></div></div>","null","$15<br><br>now","$35<br>in<br>2 weeks","1","15","35","2",""
"html-keyboard-response","82","173185","0.0-5.0-1.26","63210b26bd58960c97b47ddc","bdp_td","Thu Apr 13 2023 11:27:15 GMT+0100 (British Summer Time)","177127","","null","","","","FIX","","<div class='trialBorder'><div class='vertical-center'><img style='vertical-align:center; align:center' src=img/fixation3.jpg></div></div>","null","","","","","","",""
"html-keyboard-response","83","175874","0.0-5.0-2.26","63210b26bd58960c97b47ddc","bdp_td","Thu Apr 13 2023 11:27:15 GMT+0100 (British Summer Time)","177127","","2688","","","","offer","","<div class='trialBorder'><div class='vertical-center'><img style='vertical-align:center; align:center' src=img/fixation3.jpg></div><div class='cl'><div class='vertical-center'>$28<br><br>now</div></div><div class='cr'><div class='vertical-center'>$30<br>in<br>12 weeks</div></div><div class='respDivL'><div class='vertical-center'>(E)</div></div><div class='respDivR'><div class='vertical-center'>(I)</div></div></div>","E","$28<br><br>now","$30<br>in<br>12 weeks","0","28","30","12","NOW"
"html-keyboard-response","84","176126","0.0-5.0-3.26","63210b26bd58960c97b47ddc","bdp_td","Thu Apr 13 2023 11:27:15 GMT+0100 (British Summer Time)","177127","","null","","","","offerFB","","<div class='trialBorder'><div class='vertical-center'><img style='vertical-align:center; align:center' src=img/fixation3.jpg></div><div class='cl'><div class='vertical-center'><font style='color:orange'>$28<br><br>now</font></div></div><div class='cr'><div class='vertical-center'>$30<br>in<br>12 weeks</div></div><div class='respDivL'><div class='vertical-center'><font style='color:orange'>(E)</font></div></div><div class='respDivR'><div class='vertical-center'>(I)</div></div></div>","null","$28<br><br>now","$30<br>in<br>12 weeks","0","28","30","12",""
"","","","","63210b26bd58960c97b47ddc","bdp_td","Thu Apr 13 2023 11:27:15 GMT+0100 (British Summer Time)","177127","","","fullscreenexit","85","176147","fullscreenexit","","","","","","","","","",""
"fullscreen","85","177127","0.0-6.0","63210b26bd58960c97b47ddc","bdp_td","Thu Apr 13 2023 11:27:15 GMT+0100 (British Summer Time)","177127","","","","","","","true","","","","","","","","",""
"html-keyboard-response","86","177629","0.0-7.0","","","","","","null","","","","","","","null","","","","","","",""
