"trial_type","trial_index","time_elapsed","internal_node_id","subject_id","task","startTime","totalTime","event","trial","time","trialtype","numBlurs","view_history","rt","success","stimulus","key_press","nowOffer","thenOffer","thenLeft","nowAmt","thenAmt","thenWeeks","chosen"
"pavlovia","0","4","0.0-0.0","5e7fb4743c00ce69510024fb","bdp_td","Sat Apr 01 2023 20:21:06 GMT-0500 (Central Daylight Time)","142671","","","","","","","","","","","","","","","","",""
"","","","","5e7fb4743c00ce69510024fb","bdp_td","Sat Apr 01 2023 20:21:06 GMT-0500 (Central Daylight Time)","142671","blur","1","381","blurevent","1","","","","","","","","","","","",""
"","","","","5e7fb4743c00ce69510024fb","bdp_td","Sat Apr 01 2023 20:21:06 GMT-0500 (Central Daylight Time)","142671","focus","1","3543","focusevent","","","","","","","","","","","","",""
"instructions","1","5313","0.0-1.0","5e7fb4743c00ce69510024fb","bdp_td","Sat Apr 01 2023 20:21:06 GMT-0500 (Central Daylight Time)","142671","","","","","","[{""page_index"":0,""viewing_time"":5307}]","5308","","","","","","","","","",""
"","","","","5e7fb4743c00ce69510024fb","bdp_td","Sat Apr 01 2023 20:21:06 GMT-0500 (Central Daylight Time)","142671","fullscreenenter","2","8383","fullscreenenter","","","","","","","","","","","","",""
"fullscreen","2","9375","0.0-2.0","5e7fb4743c00ce69510024fb","bdp_td","Sat Apr 01 2023 20:21:06 GMT-0500 (Central Daylight Time)","142671","","","","","","","","true","","","","","","","","",""
"instructions","3","29203","0.0-4.0","5e7fb4743c00ce69510024fb","bdp_td","Sat Apr 01 2023 20:21:06 GMT-0500 (Central Daylight Time)","142671","","","","","","[{""page_index"":0,""viewing_time"":9299},{""page_index"":1,""viewing_time"":6921},{""page_index"":2,""viewing_time"":3606}]","19827","","","","","","","","","",""
"image-keyboard-response","4","34827","0.0-5.0-0.0-0.0","5e7fb4743c00ce69510024fb","bdp_td","Sat Apr 01 2023 20:21:06 GMT-0500 (Central Daylight Time)","142671","","","","blurwarn","1","","5621","","","49","","","","","","",""
"html-keyboard-response","5","35584","0.0-5.0-1.0","5e7fb4743c00ce69510024fb","bdp_td","Sat Apr 01 2023 20:21:06 GMT-0500 (Central Daylight Time)","142671","","","","FIX","","","null","","<div class='trialBorder'><div class='vertical-center'><img style='vertical-align:center; align:center' src=img/fixation3.jpg></div></div>","null","","","","","","",""
"html-keyboard-response","6","39703","0.0-5.0-2.0","5e7fb4743c00ce69510024fb","bdp_td","Sat Apr 01 2023 20:21:06 GMT-0500 (Central Daylight Time)","142671","","","","offer","","","4116","","<div class='trialBorder'><div class='vertical-center'><img style='vertical-align:center; align:center' src=img/fixation3.jpg></div><div class='cl'><div class='vertical-center'>$55<br>in<br>1 week</div></div><div class='cr'><div class='vertical-center'>$20<br><br>now</div></div><div class='respDivL'><div class='vertical-center'>(E)</div></div><div class='respDivR'><div class='vertical-center'>(I)</div></div></div>","E","$20<br><br>now","$55<br>in<br>1 week","1","20","55","1","THEN"
"html-keyboard-response","7","39960","0.0-5.0-3.0","5e7fb4743c00ce69510024fb","bdp_td","Sat Apr 01 2023 20:21:06 GMT-0500 (Central Daylight Time)","142671","","","","offerFB","","","null","","<div class='trialBorder'><div class='vertical-center'><img style='vertical-align:center; align:center' src=img/fixation3.jpg></div><div class='cl'><div class='vertical-center'><font style='color:orange'>$55<br>in<br>1 week</font></div></div><div class='cr'><div class='vertical-center'>$20<br><br>now</div></div><div class='respDivL'><div class='vertical-center'><font style='color:orange'>(E)</font></div></div><div class='respDivR'><div class='vertical-center'>(I)</div></div></div>","null","$20<br><br>now","$55<br>in<br>1 week","1","20","55","1",""
"html-keyboard-response","8","40467","0.0-5.0-1.1","5e7fb4743c00ce69510024fb","bdp_td","Sat Apr 01 2023 20:21:06 GMT-0500 (Central Daylight Time)","142671","","","","FIX","","","null","","<div class='trialBorder'><div class='vertical-center'><img style='vertical-align:center; align:center' src=img/fixation3.jpg></div></div>","null","","","","","","",""
"html-keyboard-response","9","44731","0.0-5.0-2.1","5e7fb4743c00ce69510024fb","bdp_td","Sat Apr 01 2023 20:21:06 GMT-0500 (Central Daylight Time)","142671","","","","offer","","","4263","","<div class='trialBorder'><div class='vertical-center'><img style='vertical-align:center; align:center' src=img/fixation3.jpg></div><div class='cl'><div class='vertical-center'>$69<br><br>now</div></div><div class='cr'><div class='vertical-center'>$85<br>in<br>6 weeks</div></div><div class='respDivL'><div class='vertical-center'>(E)</div></div><div class='respDivR'><div class='vertical-center'>(I)</div></div></div>","I","$69<br><br>now","$85<br>in<br>6 weeks","0","69","85","6","THEN"
"html-keyboard-response","10","44985","0.0-5.0-3.1","5e7fb4743c00ce69510024fb","bdp_td","Sat Apr 01 2023 20:21:06 GMT-0500 (Central Daylight Time)","142671","","","","offerFB","","","null","","<div class='trialBorder'><div class='vertical-center'><img style='vertical-align:center; align:center' src=img/fixation3.jpg></div><div class='cl'><div class='vertical-center'>$69<br><br>now</div></div><div class='cr'><div class='vertical-center'><font style='color:orange'>$85<br>in<br>6 weeks</font></div></div><div class='respDivL'><div class='vertical-center'>(E)</div></div><div class='respDivR'><div class='vertical-center'><font style='color:orange'>(I)</font></div></div></div>","null","$69<br><br>now","$85<br>in<br>6 weeks","0","69","85","6",""
"html-keyboard-response","11","45491","0.0-5.0-1.2","5e7fb4743c00ce69510024fb","bdp_td","Sat Apr 01 2023 20:21:06 GMT-0500 (Central Daylight Time)","142671","","","","FIX","","","null","","<div class='trialBorder'><div class='vertical-center'><img style='vertical-align:center; align:center' src=img/fixation3.jpg></div></div>","null","","","","","","",""
"html-keyboard-response","12","51761","0.0-5.0-2.2","5e7fb4743c00ce69510024fb","bdp_td","Sat Apr 01 2023 20:21:06 GMT-0500 (Central Daylight Time)","142671","","","","offer","","","6268","","<div class='trialBorder'><div class='vertical-center'><img style='vertical-align:center; align:center' src=img/fixation3.jpg></div><div class='cl'><div class='vertical-center'>$60<br>in<br>12 weeks</div></div><div class='cr'><div class='vertical-center'>$54<br><br>now</div></div><div class='respDivL'><div class='vertical-center'>(E)</div></div><div class='respDivR'><div class='vertical-center'>(I)</div></div></div>","E","$54<br><br>now","$60<br>in<br>12 weeks","1","54","60","12","THEN"
"html-keyboard-response","13","52017","0.0-5.0-3.2","5e7fb4743c00ce69510024fb","bdp_td","Sat Apr 01 2023 20:21:06 GMT-0500 (Central Daylight Time)","142671","","","","offerFB","","","null","","<div class='trialBorder'><div class='vertical-center'><img style='vertical-align:center; align:center' src=img/fixation3.jpg></div><div class='cl'><div class='vertical-center'><font style='color:orange'>$60<br>in<br>12 weeks</font></div></div><div class='cr'><div class='vertical-center'>$54<br><br>now</div></div><div class='respDivL'><div class='vertical-center'><font style='color:orange'>(E)</font></div></div><div class='respDivR'><div class='vertical-center'>(I)</div></div></div>","null","$54<br><br>now","$60<br>in<br>12 weeks","1","54","60","12",""
"html-keyboard-response","14","52521","0.0-5.0-1.3","5e7fb4743c00ce69510024fb","bdp_td","Sat Apr 01 2023 20:21:06 GMT-0500 (Central Daylight Time)","142671","","","","FIX","","","null","","<div class='trialBorder'><div class='vertical-center'><img style='vertical-align:center; align:center' src=img/fixation3.jpg></div></div>","null","","","","","","",""
"html-keyboard-response","15","54808","0.0-5.0-2.3","5e7fb4743c00ce69510024fb","bdp_td","Sat Apr 01 2023 20:21:06 GMT-0500 (Central Daylight Time)","142671","","","","offer","","","2285","","<div class='trialBorder'><div class='vertical-center'><img style='vertical-align:center; align:center' src=img/fixation3.jpg></div><div class='cl'><div class='vertical-center'>$25<br><br>now</div></div><div class='cr'><div class='vertical-center'>$60<br>in<br>3 weeks</div></div><div class='respDivL'><div class='vertical-center'>(E)</div></div><div class='respDivR'><div class='vertical-center'>(I)</div></div></div>","I","$25<br><br>now","$60<br>in<br>3 weeks","0","25","60","3","THEN"
"html-keyboard-response","16","55065","0.0-5.0-3.3","5e7fb4743c00ce69510024fb","bdp_td","Sat Apr 01 2023 20:21:06 GMT-0500 (Central Daylight Time)","142671","","","","offerFB","","","null","","<div class='trialBorder'><div class='vertical-center'><img style='vertical-align:center; align:center' src=img/fixation3.jpg></div><div class='cl'><div class='vertical-center'>$25<br><br>now</div></div><div class='cr'><div class='vertical-center'><font style='color:orange'>$60<br>in<br>3 weeks</font></div></div><div class='respDivL'><div class='vertical-center'>(E)</div></div><div class='respDivR'><div class='vertical-center'><font style='color:orange'>(I)</font></div></div></div>","null","$25<br><br>now","$60<br>in<br>3 weeks","0","25","60","3",""
"html-keyboard-response","17","55569","0.0-5.0-1.4","5e7fb4743c00ce69510024fb","bdp_td","Sat Apr 01 2023 20:21:06 GMT-0500 (Central Daylight Time)","142671","","","","FIX","","","null","","<div class='trialBorder'><div class='vertical-center'><img style='vertical-align:center; align:center' src=img/fixation3.jpg></div></div>","null","","","","","","",""
"html-keyboard-response","18","57915","0.0-5.0-2.4","5e7fb4743c00ce69510024fb","bdp_td","Sat Apr 01 2023 20:21:06 GMT-0500 (Central Daylight Time)","142671","","","","offer","","","2345","","<div class='trialBorder'><div class='vertical-center'><img style='vertical-align:center; align:center' src=img/fixation3.jpg></div><div class='cl'><div class='vertical-center'>$41<br><br>now</div></div><div class='cr'><div class='vertical-center'>$75<br>in<br>3 weeks</div></div><div class='respDivL'><div class='vertical-center'>(E)</div></div><div class='respDivR'><div class='vertical-center'>(I)</div></div></div>","I","$41<br><br>now","$75<br>in<br>3 weeks","0","41","75","3","THEN"
"html-keyboard-response","19","58171","0.0-5.0-3.4","5e7fb4743c00ce69510024fb","bdp_td","Sat Apr 01 2023 20:21:06 GMT-0500 (Central Daylight Time)","142671","","","","offerFB","","","null","","<div class='trialBorder'><div class='vertical-center'><img style='vertical-align:center; align:center' src=img/fixation3.jpg></div><div class='cl'><div class='vertical-center'>$41<br><br>now</div></div><div class='cr'><div class='vertical-center'><font style='color:orange'>$75<br>in<br>3 weeks</font></div></div><div class='respDivL'><div class='vertical-center'>(E)</div></div><div class='respDivR'><div class='vertical-center'><font style='color:orange'>(I)</font></div></div></div>","null","$41<br><br>now","$75<br>in<br>3 weeks","0","41","75","3",""
"html-keyboard-response","20","58681","0.0-5.0-1.5","5e7fb4743c00ce69510024fb","bdp_td","Sat Apr 01 2023 20:21:06 GMT-0500 (Central Daylight Time)","142671","","","","FIX","","","null","","<div class='trialBorder'><div class='vertical-center'><img style='vertical-align:center; align:center' src=img/fixation3.jpg></div></div>","null","","","","","","",""
"html-keyboard-response","21","61328","0.0-5.0-2.5","5e7fb4743c00ce69510024fb","bdp_td","Sat Apr 01 2023 20:21:06 GMT-0500 (Central Daylight Time)","142671","","","","offer","","","2646","","<div class='trialBorder'><div class='vertical-center'><img style='vertical-align:center; align:center' src=img/fixation3.jpg></div><div class='cl'><div class='vertical-center'>$24<br><br>now</div></div><div class='cr'><div class='vertical-center'>$35<br>in<br>3 weeks</div></div><div class='respDivL'><div class='vertical-center'>(E)</div></div><div class='respDivR'><div class='vertical-center'>(I)</div></div></div>","I","$24<br><br>now","$35<br>in<br>3 weeks","0","24","35","3","THEN"
"html-keyboard-response","22","61588","0.0-5.0-3.5","5e7fb4743c00ce69510024fb","bdp_td","Sat Apr 01 2023 20:21:06 GMT-0500 (Central Daylight Time)","142671","","","","offerFB","","","null","","<div class='trialBorder'><div class='vertical-center'><img style='vertical-align:center; align:center' src=img/fixation3.jpg></div><div class='cl'><div class='vertical-center'>$24<br><br>now</div></div><div class='cr'><div class='vertical-center'><font style='color:orange'>$35<br>in<br>3 weeks</font></div></div><div class='respDivL'><div class='vertical-center'>(E)</div></div><div class='respDivR'><div class='vertical-center'><font style='color:orange'>(I)</font></div></div></div>","null","$24<br><br>now","$35<br>in<br>3 weeks","0","24","35","3",""
"html-keyboard-response","23","62100","0.0-5.0-1.6","5e7fb4743c00ce69510024fb","bdp_td","Sat Apr 01 2023 20:21:06 GMT-0500 (Central Daylight Time)","142671","","","","FIX","","","null","","<div class='trialBorder'><div class='vertical-center'><img style='vertical-align:center; align:center' src=img/fixation3.jpg></div></div>","null","","","","","","",""
"html-keyboard-response","24","65078","0.0-5.0-2.6","5e7fb4743c00ce69510024fb","bdp_td","Sat Apr 01 2023 20:21:06 GMT-0500 (Central Daylight Time)","142671","","","","offer","","","2978","","<div class='trialBorder'><div class='vertical-center'><img style='vertical-align:center; align:center' src=img/fixation3.jpg></div><div class='cl'><div class='vertical-center'>$54<br><br>now</div></div><div class='cr'><div class='vertical-center'>$55<br>in<br>12 weeks</div></div><div class='respDivL'><div class='vertical-center'>(E)</div></div><div class='respDivR'><div class='vertical-center'>(I)</div></div></div>","E","$54<br><br>now","$55<br>in<br>12 weeks","0","54","55","12","NOW"
"html-keyboard-response","25","65337","0.0-5.0-3.6","5e7fb4743c00ce69510024fb","bdp_td","Sat Apr 01 2023 20:21:06 GMT-0500 (Central Daylight Time)","142671","","","","offerFB","","","null","","<div class='trialBorder'><div class='vertical-center'><img style='vertical-align:center; align:center' src=img/fixation3.jpg></div><div class='cl'><div class='vertical-center'><font style='color:orange'>$54<br><br>now</font></div></div><div class='cr'><div class='vertical-center'>$55<br>in<br>12 weeks</div></div><div class='respDivL'><div class='vertical-center'><font style='color:orange'>(E)</font></div></div><div class='respDivR'><div class='vertical-center'>(I)</div></div></div>","null","$54<br><br>now","$55<br>in<br>12 weeks","0","54","55","12",""
"html-keyboard-response","26","65844","0.0-5.0-1.7","5e7fb4743c00ce69510024fb","bdp_td","Sat Apr 01 2023 20:21:06 GMT-0500 (Central Daylight Time)","142671","","","","FIX","","","null","","<div class='trialBorder'><div class='vertical-center'><img style='vertical-align:center; align:center' src=img/fixation3.jpg></div></div>","null","","","","","","",""
"html-keyboard-response","27","69894","0.0-5.0-2.7","5e7fb4743c00ce69510024fb","bdp_td","Sat Apr 01 2023 20:21:06 GMT-0500 (Central Daylight Time)","142671","","","","offer","","","4049","","<div class='trialBorder'><div class='vertical-center'><img style='vertical-align:center; align:center' src=img/fixation3.jpg></div><div class='cl'><div class='vertical-center'>$22<br><br>now</div></div><div class='cr'><div class='vertical-center'>$25<br>in<br>12 weeks</div></div><div class='respDivL'><div class='vertical-center'>(E)</div></div><div class='respDivR'><div class='vertical-center'>(I)</div></div></div>","I","$22<br><br>now","$25<br>in<br>12 weeks","0","22","25","12","THEN"
"html-keyboard-response","28","70153","0.0-5.0-3.7","5e7fb4743c00ce69510024fb","bdp_td","Sat Apr 01 2023 20:21:06 GMT-0500 (Central Daylight Time)","142671","","","","offerFB","","","null","","<div class='trialBorder'><div class='vertical-center'><img style='vertical-align:center; align:center' src=img/fixation3.jpg></div><div class='cl'><div class='vertical-center'>$22<br><br>now</div></div><div class='cr'><div class='vertical-center'><font style='color:orange'>$25<br>in<br>12 weeks</font></div></div><div class='respDivL'><div class='vertical-center'>(E)</div></div><div class='respDivR'><div class='vertical-center'><font style='color:orange'>(I)</font></div></div></div>","null","$22<br><br>now","$25<br>in<br>12 weeks","0","22","25","12",""
"html-keyboard-response","29","70661","0.0-5.0-1.8","5e7fb4743c00ce69510024fb","bdp_td","Sat Apr 01 2023 20:21:06 GMT-0500 (Central Daylight Time)","142671","","","","FIX","","","null","","<div class='trialBorder'><div class='vertical-center'><img style='vertical-align:center; align:center' src=img/fixation3.jpg></div></div>","null","","","","","","",""
"html-keyboard-response","30","77950","0.0-5.0-2.8","5e7fb4743c00ce69510024fb","bdp_td","Sat Apr 01 2023 20:21:06 GMT-0500 (Central Daylight Time)","142671","","","","offer","","","7288","","<div class='trialBorder'><div class='vertical-center'><img style='vertical-align:center; align:center' src=img/fixation3.jpg></div><div class='cl'><div class='vertical-center'>$80<br><br>now</div></div><div class='cr'><div class='vertical-center'>$85<br>in<br>12 weeks</div></div><div class='respDivL'><div class='vertical-center'>(E)</div></div><div class='respDivR'><div class='vertical-center'>(I)</div></div></div>","I","$80<br><br>now","$85<br>in<br>12 weeks","0","80","85","12","THEN"
"html-keyboard-response","31","78210","0.0-5.0-3.8","5e7fb4743c00ce69510024fb","bdp_td","Sat Apr 01 2023 20:21:06 GMT-0500 (Central Daylight Time)","142671","","","","offerFB","","","null","","<div class='trialBorder'><div class='vertical-center'><img style='vertical-align:center; align:center' src=img/fixation3.jpg></div><div class='cl'><div class='vertical-center'>$80<br><br>now</div></div><div class='cr'><div class='vertical-center'><font style='color:orange'>$85<br>in<br>12 weeks</font></div></div><div class='respDivL'><div class='vertical-center'>(E)</div></div><div class='respDivR'><div class='vertical-center'><font style='color:orange'>(I)</font></div></div></div>","null","$80<br><br>now","$85<br>in<br>12 weeks","0","80","85","12",""
"html-keyboard-response","32","78713","0.0-5.0-1.9","5e7fb4743c00ce69510024fb","bdp_td","Sat Apr 01 2023 20:21:06 GMT-0500 (Central Daylight Time)","142671","","","","FIX","","","null","","<div class='trialBorder'><div class='vertical-center'><img style='vertical-align:center; align:center' src=img/fixation3.jpg></div></div>","null","","","","","","",""
"html-keyboard-response","33","81182","0.0-5.0-2.9","5e7fb4743c00ce69510024fb","bdp_td","Sat Apr 01 2023 20:21:06 GMT-0500 (Central Daylight Time)","142671","","","","offer","","","2467","","<div class='trialBorder'><div class='vertical-center'><img style='vertical-align:center; align:center' src=img/fixation3.jpg></div><div class='cl'><div class='vertical-center'>$25<br><br>now</div></div><div class='cr'><div class='vertical-center'>$30<br>in<br>6 weeks</div></div><div class='respDivL'><div class='vertical-center'>(E)</div></div><div class='respDivR'><div class='vertical-center'>(I)</div></div></div>","I","$25<br><br>now","$30<br>in<br>6 weeks","0","25","30","6","THEN"
"html-keyboard-response","34","81442","0.0-5.0-3.9","5e7fb4743c00ce69510024fb","bdp_td","Sat Apr 01 2023 20:21:06 GMT-0500 (Central Daylight Time)","142671","","","","offerFB","","","null","","<div class='trialBorder'><div class='vertical-center'><img style='vertical-align:center; align:center' src=img/fixation3.jpg></div><div class='cl'><div class='vertical-center'>$25<br><br>now</div></div><div class='cr'><div class='vertical-center'><font style='color:orange'>$30<br>in<br>6 weeks</font></div></div><div class='respDivL'><div class='vertical-center'>(E)</div></div><div class='respDivR'><div class='vertical-center'><font style='color:orange'>(I)</font></div></div></div>","null","$25<br><br>now","$30<br>in<br>6 weeks","0","25","30","6",""
"html-keyboard-response","35","81950","0.0-5.0-1.10","5e7fb4743c00ce69510024fb","bdp_td","Sat Apr 01 2023 20:21:06 GMT-0500 (Central Daylight Time)","142671","","","","FIX","","","null","","<div class='trialBorder'><div class='vertical-center'><img style='vertical-align:center; align:center' src=img/fixation3.jpg></div></div>","null","","","","","","",""
"html-keyboard-response","36","84488","0.0-5.0-2.10","5e7fb4743c00ce69510024fb","bdp_td","Sat Apr 01 2023 20:21:06 GMT-0500 (Central Daylight Time)","142671","","","","offer","","","2536","","<div class='trialBorder'><div class='vertical-center'><img style='vertical-align:center; align:center' src=img/fixation3.jpg></div><div class='cl'><div class='vertical-center'>$50<br>in<br>3 weeks</div></div><div class='cr'><div class='vertical-center'>$27<br><br>now</div></div><div class='respDivL'><div class='vertical-center'>(E)</div></div><div class='respDivR'><div class='vertical-center'>(I)</div></div></div>","E","$27<br><br>now","$50<br>in<br>3 weeks","1","27","50","3","THEN"
"html-keyboard-response","37","84746","0.0-5.0-3.10","5e7fb4743c00ce69510024fb","bdp_td","Sat Apr 01 2023 20:21:06 GMT-0500 (Central Daylight Time)","142671","","","","offerFB","","","null","","<div class='trialBorder'><div class='vertical-center'><img style='vertical-align:center; align:center' src=img/fixation3.jpg></div><div class='cl'><div class='vertical-center'><font style='color:orange'>$50<br>in<br>3 weeks</font></div></div><div class='cr'><div class='vertical-center'>$27<br><br>now</div></div><div class='respDivL'><div class='vertical-center'><font style='color:orange'>(E)</font></div></div><div class='respDivR'><div class='vertical-center'>(I)</div></div></div>","null","$27<br><br>now","$50<br>in<br>3 weeks","1","27","50","3",""
"html-keyboard-response","38","85252","0.0-5.0-1.11","5e7fb4743c00ce69510024fb","bdp_td","Sat Apr 01 2023 20:21:06 GMT-0500 (Central Daylight Time)","142671","","","","FIX","","","null","","<div class='trialBorder'><div class='vertical-center'><img style='vertical-align:center; align:center' src=img/fixation3.jpg></div></div>","null","","","","","","",""
"html-keyboard-response","39","91707","0.0-5.0-2.11","5e7fb4743c00ce69510024fb","bdp_td","Sat Apr 01 2023 20:21:06 GMT-0500 (Central Daylight Time)","142671","","","","offer","","","6454","","<div class='trialBorder'><div class='vertical-center'><img style='vertical-align:center; align:center' src=img/fixation3.jpg></div><div class='cl'><div class='vertical-center'>$28<br><br>now</div></div><div class='cr'><div class='vertical-center'>$30<br>in<br>12 weeks</div></div><div class='respDivL'><div class='vertical-center'>(E)</div></div><div class='respDivR'><div class='vertical-center'>(I)</div></div></div>","I","$28<br><br>now","$30<br>in<br>12 weeks","0","28","30","12","THEN"
"html-keyboard-response","40","91962","0.0-5.0-3.11","5e7fb4743c00ce69510024fb","bdp_td","Sat Apr 01 2023 20:21:06 GMT-0500 (Central Daylight Time)","142671","","","","offerFB","","","null","","<div class='trialBorder'><div class='vertical-center'><img style='vertical-align:center; align:center' src=img/fixation3.jpg></div><div class='cl'><div class='vertical-center'>$28<br><br>now</div></div><div class='cr'><div class='vertical-center'><font style='color:orange'>$30<br>in<br>12 weeks</font></div></div><div class='respDivL'><div class='vertical-center'>(E)</div></div><div class='respDivR'><div class='vertical-center'><font style='color:orange'>(I)</font></div></div></div>","null","$28<br><br>now","$30<br>in<br>12 weeks","0","28","30","12",""
"html-keyboard-response","41","92469","0.0-5.0-1.12","5e7fb4743c00ce69510024fb","bdp_td","Sat Apr 01 2023 20:21:06 GMT-0500 (Central Daylight Time)","142671","","","","FIX","","","null","","<div class='trialBorder'><div class='vertical-center'><img style='vertical-align:center; align:center' src=img/fixation3.jpg></div></div>","null","","","","","","",""
"html-keyboard-response","42","96844","0.0-5.0-2.12","5e7fb4743c00ce69510024fb","bdp_td","Sat Apr 01 2023 20:21:06 GMT-0500 (Central Daylight Time)","142671","","","","offer","","","4373","","<div class='trialBorder'><div class='vertical-center'><img style='vertical-align:center; align:center' src=img/fixation3.jpg></div><div class='cl'><div class='vertical-center'>$50<br>in<br>6 weeks</div></div><div class='cr'><div class='vertical-center'>$34<br><br>now</div></div><div class='respDivL'><div class='vertical-center'>(E)</div></div><div class='respDivR'><div class='vertical-center'>(I)</div></div></div>","E","$34<br><br>now","$50<br>in<br>6 weeks","1","34","50","6","THEN"
"html-keyboard-response","43","97098","0.0-5.0-3.12","5e7fb4743c00ce69510024fb","bdp_td","Sat Apr 01 2023 20:21:06 GMT-0500 (Central Daylight Time)","142671","","","","offerFB","","","null","","<div class='trialBorder'><div class='vertical-center'><img style='vertical-align:center; align:center' src=img/fixation3.jpg></div><div class='cl'><div class='vertical-center'><font style='color:orange'>$50<br>in<br>6 weeks</font></div></div><div class='cr'><div class='vertical-center'>$34<br><br>now</div></div><div class='respDivL'><div class='vertical-center'><font style='color:orange'>(E)</font></div></div><div class='respDivR'><div class='vertical-center'>(I)</div></div></div>","null","$34<br><br>now","$50<br>in<br>6 weeks","1","34","50","6",""
"html-keyboard-response","44","97602","0.0-5.0-1.13","5e7fb4743c00ce69510024fb","bdp_td","Sat Apr 01 2023 20:21:06 GMT-0500 (Central Daylight Time)","142671","","","","FIX","","","null","","<div class='trialBorder'><div class='vertical-center'><img style='vertical-align:center; align:center' src=img/fixation3.jpg></div></div>","null","","","","","","",""
"html-keyboard-response","45","101338","0.0-5.0-2.13","5e7fb4743c00ce69510024fb","bdp_td","Sat Apr 01 2023 20:21:06 GMT-0500 (Central Daylight Time)","142671","","","","offer","","","3735","","<div class='trialBorder'><div class='vertical-center'><img style='vertical-align:center; align:center' src=img/fixation3.jpg></div><div class='cl'><div class='vertical-center'>$60<br>in<br>6 weeks</div></div><div class='cr'><div class='vertical-center'>$49<br><br>now</div></div><div class='respDivL'><div class='vertical-center'>(E)</div></div><div class='respDivR'><div class='vertical-center'>(I)</div></div></div>","E","$49<br><br>now","$60<br>in<br>6 weeks","1","49","60","6","THEN"
"html-keyboard-response","46","101594","0.0-5.0-3.13","5e7fb4743c00ce69510024fb","bdp_td","Sat Apr 01 2023 20:21:06 GMT-0500 (Central Daylight Time)","142671","","","","offerFB","","","null","","<div class='trialBorder'><div class='vertical-center'><img style='vertical-align:center; align:center' src=img/fixation3.jpg></div><div class='cl'><div class='vertical-center'><font style='color:orange'>$60<br>in<br>6 weeks</font></div></div><div class='cr'><div class='vertical-center'>$49<br><br>now</div></div><div class='respDivL'><div class='vertical-center'><font style='color:orange'>(E)</font></div></div><div class='respDivR'><div class='vertical-center'>(I)</div></div></div>","null","$49<br><br>now","$60<br>in<br>6 weeks","1","49","60","6",""
"html-keyboard-response","47","102098","0.0-5.0-1.14","5e7fb4743c00ce69510024fb","bdp_td","Sat Apr 01 2023 20:21:06 GMT-0500 (Central Daylight Time)","142671","","","","FIX","","","null","","<div class='trialBorder'><div class='vertical-center'><img style='vertical-align:center; align:center' src=img/fixation3.jpg></div></div>","null","","","","","","",""
"html-keyboard-response","48","104005","0.0-5.0-2.14","5e7fb4743c00ce69510024fb","bdp_td","Sat Apr 01 2023 20:21:06 GMT-0500 (Central Daylight Time)","142671","","","","offer","","","1906","","<div class='trialBorder'><div class='vertical-center'><img style='vertical-align:center; align:center' src=img/fixation3.jpg></div><div class='cl'><div class='vertical-center'>$85<br>in<br>1 week</div></div><div class='cr'><div class='vertical-center'>$31<br><br>now</div></div><div class='respDivL'><div class='vertical-center'>(E)</div></div><div class='respDivR'><div class='vertical-center'>(I)</div></div></div>","E","$31<br><br>now","$85<br>in<br>1 week","1","31","85","1","THEN"
"html-keyboard-response","49","104258","0.0-5.0-3.14","5e7fb4743c00ce69510024fb","bdp_td","Sat Apr 01 2023 20:21:06 GMT-0500 (Central Daylight Time)","142671","","","","offerFB","","","null","","<div class='trialBorder'><div class='vertical-center'><img style='vertical-align:center; align:center' src=img/fixation3.jpg></div><div class='cl'><div class='vertical-center'><font style='color:orange'>$85<br>in<br>1 week</font></div></div><div class='cr'><div class='vertical-center'>$31<br><br>now</div></div><div class='respDivL'><div class='vertical-center'><font style='color:orange'>(E)</font></div></div><div class='respDivR'><div class='vertical-center'>(I)</div></div></div>","null","$31<br><br>now","$85<br>in<br>1 week","1","31","85","1",""
"html-keyboard-response","50","104762","0.0-5.0-1.15","5e7fb4743c00ce69510024fb","bdp_td","Sat Apr 01 2023 20:21:06 GMT-0500 (Central Daylight Time)","142671","","","","FIX","","","null","","<div class='trialBorder'><div class='vertical-center'><img style='vertical-align:center; align:center' src=img/fixation3.jpg></div></div>","null","","","","","","",""
"html-keyboard-response","51","106746","0.0-5.0-2.15","5e7fb4743c00ce69510024fb","bdp_td","Sat Apr 01 2023 20:21:06 GMT-0500 (Central Daylight Time)","142671","","","","offer","","","1982","","<div class='trialBorder'><div class='vertical-center'><img style='vertical-align:center; align:center' src=img/fixation3.jpg></div><div class='cl'><div class='vertical-center'>$30<br>in<br>2 weeks</div></div><div class='cr'><div class='vertical-center'>$11<br><br>now</div></div><div class='respDivL'><div class='vertical-center'>(E)</div></div><div class='respDivR'><div class='vertical-center'>(I)</div></div></div>","E","$11<br><br>now","$30<br>in<br>2 weeks","1","11","30","2","THEN"
"html-keyboard-response","52","107002","0.0-5.0-3.15","5e7fb4743c00ce69510024fb","bdp_td","Sat Apr 01 2023 20:21:06 GMT-0500 (Central Daylight Time)","142671","","","","offerFB","","","null","","<div class='trialBorder'><div class='vertical-center'><img style='vertical-align:center; align:center' src=img/fixation3.jpg></div><div class='cl'><div class='vertical-center'><font style='color:orange'>$30<br>in<br>2 weeks</font></div></div><div class='cr'><div class='vertical-center'>$11<br><br>now</div></div><div class='respDivL'><div class='vertical-center'><font style='color:orange'>(E)</font></div></div><div class='respDivR'><div class='vertical-center'>(I)</div></div></div>","null","$11<br><br>now","$30<br>in<br>2 weeks","1","11","30","2",""
"html-keyboard-response","53","107509","0.0-5.0-1.16","5e7fb4743c00ce69510024fb","bdp_td","Sat Apr 01 2023 20:21:06 GMT-0500 (Central Daylight Time)","142671","","","","FIX","","","null","","<div class='trialBorder'><div class='vertical-center'><img style='vertical-align:center; align:center' src=img/fixation3.jpg></div></div>","null","","","","","","",""
"html-keyboard-response","54","110216","0.0-5.0-2.16","5e7fb4743c00ce69510024fb","bdp_td","Sat Apr 01 2023 20:21:06 GMT-0500 (Central Daylight Time)","142671","","","","offer","","","2705","","<div class='trialBorder'><div class='vertical-center'><img style='vertical-align:center; align:center' src=img/fixation3.jpg></div><div class='cl'><div class='vertical-center'>$75<br>in<br>12 weeks</div></div><div class='cr'><div class='vertical-center'>$67<br><br>now</div></div><div class='respDivL'><div class='vertical-center'>(E)</div></div><div class='respDivR'><div class='vertical-center'>(I)</div></div></div>","E","$67<br><br>now","$75<br>in<br>12 weeks","1","67","75","12","THEN"
"html-keyboard-response","55","110474","0.0-5.0-3.16","5e7fb4743c00ce69510024fb","bdp_td","Sat Apr 01 2023 20:21:06 GMT-0500 (Central Daylight Time)","142671","","","","offerFB","","","null","","<div class='trialBorder'><div class='vertical-center'><img style='vertical-align:center; align:center' src=img/fixation3.jpg></div><div class='cl'><div class='vertical-center'><font style='color:orange'>$75<br>in<br>12 weeks</font></div></div><div class='cr'><div class='vertical-center'>$67<br><br>now</div></div><div class='respDivL'><div class='vertical-center'><font style='color:orange'>(E)</font></div></div><div class='respDivR'><div class='vertical-center'>(I)</div></div></div>","null","$67<br><br>now","$75<br>in<br>12 weeks","1","67","75","12",""
"html-keyboard-response","56","110978","0.0-5.0-1.17","5e7fb4743c00ce69510024fb","bdp_td","Sat Apr 01 2023 20:21:06 GMT-0500 (Central Daylight Time)","142671","","","","FIX","","","null","","<div class='trialBorder'><div class='vertical-center'><img style='vertical-align:center; align:center' src=img/fixation3.jpg></div></div>","null","","","","","","",""
"html-keyboard-response","57","112984","0.0-5.0-2.17","5e7fb4743c00ce69510024fb","bdp_td","Sat Apr 01 2023 20:21:06 GMT-0500 (Central Daylight Time)","142671","","","","offer","","","2005","","<div class='trialBorder'><div class='vertical-center'><img style='vertical-align:center; align:center' src=img/fixation3.jpg></div><div class='cl'><div class='vertical-center'>$15<br><br>now</div></div><div class='cr'><div class='vertical-center'>$35<br>in<br>2 weeks</div></div><div class='respDivL'><div class='vertical-center'>(E)</div></div><div class='respDivR'><div class='vertical-center'>(I)</div></div></div>","I","$15<br><br>now","$35<br>in<br>2 weeks","0","15","35","2","THEN"
"html-keyboard-response","58","113242","0.0-5.0-3.17","5e7fb4743c00ce69510024fb","bdp_td","Sat Apr 01 2023 20:21:06 GMT-0500 (Central Daylight Time)","142671","","","","offerFB","","","null","","<div class='trialBorder'><div class='vertical-center'><img style='vertical-align:center; align:center' src=img/fixation3.jpg></div><div class='cl'><div class='vertical-center'>$15<br><br>now</div></div><div class='cr'><div class='vertical-center'><font style='color:orange'>$35<br>in<br>2 weeks</font></div></div><div class='respDivL'><div class='vertical-center'>(E)</div></div><div class='respDivR'><div class='vertical-center'><font style='color:orange'>(I)</font></div></div></div>","null","$15<br><br>now","$35<br>in<br>2 weeks","0","15","35","2",""
"html-keyboard-response","59","113746","0.0-5.0-1.18","5e7fb4743c00ce69510024fb","bdp_td","Sat Apr 01 2023 20:21:06 GMT-0500 (Central Daylight Time)","142671","","","","FIX","","","null","","<div class='trialBorder'><div class='vertical-center'><img style='vertical-align:center; align:center' src=img/fixation3.jpg></div></div>","null","","","","","","",""
"html-keyboard-response","60","117609","0.0-5.0-2.18","5e7fb4743c00ce69510024fb","bdp_td","Sat Apr 01 2023 20:21:06 GMT-0500 (Central Daylight Time)","142671","","","","offer","","","3862","","<div class='trialBorder'><div class='vertical-center'><img style='vertical-align:center; align:center' src=img/fixation3.jpg></div><div class='cl'><div class='vertical-center'>$55<br>in<br>6 weeks</div></div><div class='cr'><div class='vertical-center'>$40<br><br>now</div></div><div class='respDivL'><div class='vertical-center'>(E)</div></div><div class='respDivR'><div class='vertical-center'>(I)</div></div></div>","E","$40<br><br>now","$55<br>in<br>6 weeks","1","40","55","6","THEN"
"html-keyboard-response","61","117867","0.0-5.0-3.18","5e7fb4743c00ce69510024fb","bdp_td","Sat Apr 01 2023 20:21:06 GMT-0500 (Central Daylight Time)","142671","","","","offerFB","","","null","","<div class='trialBorder'><div class='vertical-center'><img style='vertical-align:center; align:center' src=img/fixation3.jpg></div><div class='cl'><div class='vertical-center'><font style='color:orange'>$55<br>in<br>6 weeks</font></div></div><div class='cr'><div class='vertical-center'>$40<br><br>now</div></div><div class='respDivL'><div class='vertical-center'><font style='color:orange'>(E)</font></div></div><div class='respDivR'><div class='vertical-center'>(I)</div></div></div>","null","$40<br><br>now","$55<br>in<br>6 weeks","1","40","55","6",""
"html-keyboard-response","62","118370","0.0-5.0-1.19","5e7fb4743c00ce69510024fb","bdp_td","Sat Apr 01 2023 20:21:06 GMT-0500 (Central Daylight Time)","142671","","","","FIX","","","null","","<div class='trialBorder'><div class='vertical-center'><img style='vertical-align:center; align:center' src=img/fixation3.jpg></div></div>","null","","","","","","",""
"html-keyboard-response","63","120076","0.0-5.0-2.19","5e7fb4743c00ce69510024fb","bdp_td","Sat Apr 01 2023 20:21:06 GMT-0500 (Central Daylight Time)","142671","","","","offer","","","1705","","<div class='trialBorder'><div class='vertical-center'><img style='vertical-align:center; align:center' src=img/fixation3.jpg></div><div class='cl'><div class='vertical-center'>$33<br><br>now</div></div><div class='cr'><div class='vertical-center'>$80<br>in<br>2 weeks</div></div><div class='respDivL'><div class='vertical-center'>(E)</div></div><div class='respDivR'><div class='vertical-center'>(I)</div></div></div>","I","$33<br><br>now","$80<br>in<br>2 weeks","0","33","80","2","THEN"
"html-keyboard-response","64","120331","0.0-5.0-3.19","5e7fb4743c00ce69510024fb","bdp_td","Sat Apr 01 2023 20:21:06 GMT-0500 (Central Daylight Time)","142671","","","","offerFB","","","null","","<div class='trialBorder'><div class='vertical-center'><img style='vertical-align:center; align:center' src=img/fixation3.jpg></div><div class='cl'><div class='vertical-center'>$33<br><br>now</div></div><div class='cr'><div class='vertical-center'><font style='color:orange'>$80<br>in<br>2 weeks</font></div></div><div class='respDivL'><div class='vertical-center'>(E)</div></div><div class='respDivR'><div class='vertical-center'><font style='color:orange'>(I)</font></div></div></div>","null","$33<br><br>now","$80<br>in<br>2 weeks","0","33","80","2",""
"html-keyboard-response","65","120837","0.0-5.0-1.20","5e7fb4743c00ce69510024fb","bdp_td","Sat Apr 01 2023 20:21:06 GMT-0500 (Central Daylight Time)","142671","","","","FIX","","","null","","<div class='trialBorder'><div class='vertical-center'><img style='vertical-align:center; align:center' src=img/fixation3.jpg></div></div>","null","","","","","","",""
"html-keyboard-response","66","122204","0.0-5.0-2.20","5e7fb4743c00ce69510024fb","bdp_td","Sat Apr 01 2023 20:21:06 GMT-0500 (Central Daylight Time)","142671","","","","offer","","","1366","","<div class='trialBorder'><div class='vertical-center'><img style='vertical-align:center; align:center' src=img/fixation3.jpg></div><div class='cl'><div class='vertical-center'>$75<br>in<br>6 weeks</div></div><div class='cr'><div class='vertical-center'>$55<br><br>now</div></div><div class='respDivL'><div class='vertical-center'>(E)</div></div><div class='respDivR'><div class='vertical-center'>(I)</div></div></div>","E","$55<br><br>now","$75<br>in<br>6 weeks","1","55","75","6","THEN"
"html-keyboard-response","67","122459","0.0-5.0-3.20","5e7fb4743c00ce69510024fb","bdp_td","Sat Apr 01 2023 20:21:06 GMT-0500 (Central Daylight Time)","142671","","","","offerFB","","","null","","<div class='trialBorder'><div class='vertical-center'><img style='vertical-align:center; align:center' src=img/fixation3.jpg></div><div class='cl'><div class='vertical-center'><font style='color:orange'>$75<br>in<br>6 weeks</font></div></div><div class='cr'><div class='vertical-center'>$55<br><br>now</div></div><div class='respDivL'><div class='vertical-center'><font style='color:orange'>(E)</font></div></div><div class='respDivR'><div class='vertical-center'>(I)</div></div></div>","null","$55<br><br>now","$75<br>in<br>6 weeks","1","55","75","6",""
"html-keyboard-response","68","122963","0.0-5.0-1.21","5e7fb4743c00ce69510024fb","bdp_td","Sat Apr 01 2023 20:21:06 GMT-0500 (Central Daylight Time)","142671","","","","FIX","","","null","","<div class='trialBorder'><div class='vertical-center'><img style='vertical-align:center; align:center' src=img/fixation3.jpg></div></div>","null","","","","","","",""
"html-keyboard-response","69","124621","0.0-5.0-2.21","5e7fb4743c00ce69510024fb","bdp_td","Sat Apr 01 2023 20:21:06 GMT-0500 (Central Daylight Time)","142671","","","","offer","","","1657","","<div class='trialBorder'><div class='vertical-center'><img style='vertical-align:center; align:center' src=img/fixation3.jpg></div><div class='cl'><div class='vertical-center'>$25<br>in<br>3 weeks</div></div><div class='cr'><div class='vertical-center'>$14<br><br>now</div></div><div class='respDivL'><div class='vertical-center'>(E)</div></div><div class='respDivR'><div class='vertical-center'>(I)</div></div></div>","E","$14<br><br>now","$25<br>in<br>3 weeks","1","14","25","3","THEN"
"html-keyboard-response","70","124875","0.0-5.0-3.21","5e7fb4743c00ce69510024fb","bdp_td","Sat Apr 01 2023 20:21:06 GMT-0500 (Central Daylight Time)","142671","","","","offerFB","","","null","","<div class='trialBorder'><div class='vertical-center'><img style='vertical-align:center; align:center' src=img/fixation3.jpg></div><div class='cl'><div class='vertical-center'><font style='color:orange'>$25<br>in<br>3 weeks</font></div></div><div class='cr'><div class='vertical-center'>$14<br><br>now</div></div><div class='respDivL'><div class='vertical-center'><font style='color:orange'>(E)</font></div></div><div class='respDivR'><div class='vertical-center'>(I)</div></div></div>","null","$14<br><br>now","$25<br>in<br>3 weeks","1","14","25","3",""
"html-keyboard-response","71","125379","0.0-5.0-1.22","5e7fb4743c00ce69510024fb","bdp_td","Sat Apr 01 2023 20:21:06 GMT-0500 (Central Daylight Time)","142671","","","","FIX","","","null","","<div class='trialBorder'><div class='vertical-center'><img style='vertical-align:center; align:center' src=img/fixation3.jpg></div></div>","null","","","","","","",""
"html-keyboard-response","72","126628","0.0-5.0-2.22","5e7fb4743c00ce69510024fb","bdp_td","Sat Apr 01 2023 20:21:06 GMT-0500 (Central Daylight Time)","142671","","","","offer","","","1248","","<div class='trialBorder'><div class='vertical-center'><img style='vertical-align:center; align:center' src=img/fixation3.jpg></div><div class='cl'><div class='vertical-center'>$34<br><br>now</div></div><div class='cr'><div class='vertical-center'>$35<br>in<br>12 weeks</div></div><div class='respDivL'><div class='vertical-center'>(E)</div></div><div class='respDivR'><div class='vertical-center'>(I)</div></div></div>","I","$34<br><br>now","$35<br>in<br>12 weeks","0","34","35","12","THEN"
"html-keyboard-response","73","126883","0.0-5.0-3.22","5e7fb4743c00ce69510024fb","bdp_td","Sat Apr 01 2023 20:21:06 GMT-0500 (Central Daylight Time)","142671","","","","offerFB","","","null","","<div class='trialBorder'><div class='vertical-center'><img style='vertical-align:center; align:center' src=img/fixation3.jpg></div><div class='cl'><div class='vertical-center'>$34<br><br>now</div></div><div class='cr'><div class='vertical-center'><font style='color:orange'>$35<br>in<br>12 weeks</font></div></div><div class='respDivL'><div class='vertical-center'>(E)</div></div><div class='respDivR'><div class='vertical-center'><font style='color:orange'>(I)</font></div></div></div>","null","$34<br><br>now","$35<br>in<br>12 weeks","0","34","35","12",""
"html-keyboard-response","74","127387","0.0-5.0-1.23","5e7fb4743c00ce69510024fb","bdp_td","Sat Apr 01 2023 20:21:06 GMT-0500 (Central Daylight Time)","142671","","","","FIX","","","null","","<div class='trialBorder'><div class='vertical-center'><img style='vertical-align:center; align:center' src=img/fixation3.jpg></div></div>","null","","","","","","",""
"html-keyboard-response","75","132046","0.0-5.0-2.23","5e7fb4743c00ce69510024fb","bdp_td","Sat Apr 01 2023 20:21:06 GMT-0500 (Central Daylight Time)","142671","","","","offer","","","4658","","<div class='trialBorder'><div class='vertical-center'><img style='vertical-align:center; align:center' src=img/fixation3.jpg></div><div class='cl'><div class='vertical-center'>$80<br>in<br>12 weeks</div></div><div class='cr'><div class='vertical-center'>$78<br><br>now</div></div><div class='respDivL'><div class='vertical-center'>(E)</div></div><div class='respDivR'><div class='vertical-center'>(I)</div></div></div>","E","$78<br><br>now","$80<br>in<br>12 weeks","1","78","80","12","THEN"
"html-keyboard-response","76","132302","0.0-5.0-3.23","5e7fb4743c00ce69510024fb","bdp_td","Sat Apr 01 2023 20:21:06 GMT-0500 (Central Daylight Time)","142671","","","","offerFB","","","null","","<div class='trialBorder'><div class='vertical-center'><img style='vertical-align:center; align:center' src=img/fixation3.jpg></div><div class='cl'><div class='vertical-center'><font style='color:orange'>$80<br>in<br>12 weeks</font></div></div><div class='cr'><div class='vertical-center'>$78<br><br>now</div></div><div class='respDivL'><div class='vertical-center'><font style='color:orange'>(E)</font></div></div><div class='respDivR'><div class='vertical-center'>(I)</div></div></div>","null","$78<br><br>now","$80<br>in<br>12 weeks","1","78","80","12",""
"html-keyboard-response","77","132811","0.0-5.0-1.24","5e7fb4743c00ce69510024fb","bdp_td","Sat Apr 01 2023 20:21:06 GMT-0500 (Central Daylight Time)","142671","","","","FIX","","","null","","<div class='trialBorder'><div class='vertical-center'><img style='vertical-align:center; align:center' src=img/fixation3.jpg></div></div>","null","","","","","","",""
"html-keyboard-response","78","134449","0.0-5.0-2.24","5e7fb4743c00ce69510024fb","bdp_td","Sat Apr 01 2023 20:21:06 GMT-0500 (Central Daylight Time)","142671","","","","offer","","","1636","","<div class='trialBorder'><div class='vertical-center'><img style='vertical-align:center; align:center' src=img/fixation3.jpg></div><div class='cl'><div class='vertical-center'>$25<br>in<br>6 weeks</div></div><div class='cr'><div class='vertical-center'>$19<br><br>now</div></div><div class='respDivL'><div class='vertical-center'>(E)</div></div><div class='respDivR'><div class='vertical-center'>(I)</div></div></div>","E","$19<br><br>now","$25<br>in<br>6 weeks","1","19","25","6","THEN"
"html-keyboard-response","79","134704","0.0-5.0-3.24","5e7fb4743c00ce69510024fb","bdp_td","Sat Apr 01 2023 20:21:06 GMT-0500 (Central Daylight Time)","142671","","","","offerFB","","","null","","<div class='trialBorder'><div class='vertical-center'><img style='vertical-align:center; align:center' src=img/fixation3.jpg></div><div class='cl'><div class='vertical-center'><font style='color:orange'>$25<br>in<br>6 weeks</font></div></div><div class='cr'><div class='vertical-center'>$19<br><br>now</div></div><div class='respDivL'><div class='vertical-center'><font style='color:orange'>(E)</font></div></div><div class='respDivR'><div class='vertical-center'>(I)</div></div></div>","null","$19<br><br>now","$25<br>in<br>6 weeks","1","19","25","6",""
"html-keyboard-response","80","135207","0.0-5.0-1.25","5e7fb4743c00ce69510024fb","bdp_td","Sat Apr 01 2023 20:21:06 GMT-0500 (Central Daylight Time)","142671","","","","FIX","","","null","","<div class='trialBorder'><div class='vertical-center'><img style='vertical-align:center; align:center' src=img/fixation3.jpg></div></div>","null","","","","","","",""
"html-keyboard-response","81","138865","0.0-5.0-2.25","5e7fb4743c00ce69510024fb","bdp_td","Sat Apr 01 2023 20:21:06 GMT-0500 (Central Daylight Time)","142671","","","","offer","","","3657","","<div class='trialBorder'><div class='vertical-center'><img style='vertical-align:center; align:center' src=img/fixation3.jpg></div><div class='cl'><div class='vertical-center'>$54<br><br>now</div></div><div class='cr'><div class='vertical-center'>$80<br>in<br>3 weeks</div></div><div class='respDivL'><div class='vertical-center'>(E)</div></div><div class='respDivR'><div class='vertical-center'>(I)</div></div></div>","I","$54<br><br>now","$80<br>in<br>3 weeks","0","54","80","3","THEN"
"html-keyboard-response","82","139122","0.0-5.0-3.25","5e7fb4743c00ce69510024fb","bdp_td","Sat Apr 01 2023 20:21:06 GMT-0500 (Central Daylight Time)","142671","","","","offerFB","","","null","","<div class='trialBorder'><div class='vertical-center'><img style='vertical-align:center; align:center' src=img/fixation3.jpg></div><div class='cl'><div class='vertical-center'>$54<br><br>now</div></div><div class='cr'><div class='vertical-center'><font style='color:orange'>$80<br>in<br>3 weeks</font></div></div><div class='respDivL'><div class='vertical-center'>(E)</div></div><div class='respDivR'><div class='vertical-center'><font style='color:orange'>(I)</font></div></div></div>","null","$54<br><br>now","$80<br>in<br>3 weeks","0","54","80","3",""
"html-keyboard-response","83","139626","0.0-5.0-1.26","5e7fb4743c00ce69510024fb","bdp_td","Sat Apr 01 2023 20:21:06 GMT-0500 (Central Daylight Time)","142671","","","","FIX","","","null","","<div class='trialBorder'><div class='vertical-center'><img style='vertical-align:center; align:center' src=img/fixation3.jpg></div></div>","null","","","","","","",""
"html-keyboard-response","84","141411","0.0-5.0-2.26","5e7fb4743c00ce69510024fb","bdp_td","Sat Apr 01 2023 20:21:06 GMT-0500 (Central Daylight Time)","142671","","","","offer","","","1784","","<div class='trialBorder'><div class='vertical-center'><img style='vertical-align:center; align:center' src=img/fixation3.jpg></div><div class='cl'><div class='vertical-center'>$50<br>in<br>12 weeks</div></div><div class='cr'><div class='vertical-center'>$47<br><br>now</div></div><div class='respDivL'><div class='vertical-center'>(E)</div></div><div class='respDivR'><div class='vertical-center'>(I)</div></div></div>","E","$47<br><br>now","$50<br>in<br>12 weeks","1","47","50","12","THEN"
"html-keyboard-response","85","141664","0.0-5.0-3.26","5e7fb4743c00ce69510024fb","bdp_td","Sat Apr 01 2023 20:21:06 GMT-0500 (Central Daylight Time)","142671","","","","offerFB","","","null","","<div class='trialBorder'><div class='vertical-center'><img style='vertical-align:center; align:center' src=img/fixation3.jpg></div><div class='cl'><div class='vertical-center'><font style='color:orange'>$50<br>in<br>12 weeks</font></div></div><div class='cr'><div class='vertical-center'>$47<br><br>now</div></div><div class='respDivL'><div class='vertical-center'><font style='color:orange'>(E)</font></div></div><div class='respDivR'><div class='vertical-center'>(I)</div></div></div>","null","$47<br><br>now","$50<br>in<br>12 weeks","1","47","50","12",""
"","","","","5e7fb4743c00ce69510024fb","bdp_td","Sat Apr 01 2023 20:21:06 GMT-0500 (Central Daylight Time)","142671","fullscreenexit","86","141672","fullscreenexit","","","","","","","","","","","","",""
"fullscreen","86","142671","0.0-6.0","5e7fb4743c00ce69510024fb","bdp_td","Sat Apr 01 2023 20:21:06 GMT-0500 (Central Daylight Time)","142671","","","","","","","","true","","","","","","","","",""
"html-keyboard-response","87","143177","0.0-7.0","","","","","","","","","","","null","","","null","","","","","","",""
