"trial_type","trial_index","time_elapsed","internal_node_id","subject_id","task","startTime","totalTime","view_history","rt","event","trial","time","trialtype","success","stimulus","key_press","nowOffer","thenOffer","thenLeft","nowAmt","thenAmt","thenWeeks","chosen"
"pavlovia","0","3","0.0-0.0","63d1401242635aaffe867c4c","bdp_td","Mon Mar 27 2023 10:47:57 GMT-0700 (Mountain Standard Time)","147736","","","","","","","","","","","","","","","",""
"instructions","1","30773","0.0-1.0","63d1401242635aaffe867c4c","bdp_td","Mon Mar 27 2023 10:47:57 GMT-0700 (Mountain Standard Time)","147736","[{""page_index"":0,""viewing_time"":30770}]","30770","","","","","","","","","","","","","",""
"","","","","63d1401242635aaffe867c4c","bdp_td","Mon Mar 27 2023 10:47:57 GMT-0700 (Mountain Standard Time)","147736","","","fullscreenenter","2","36339","fullscreenenter","","","","","","","","","",""
"fullscreen","2","37314","0.0-2.0","63d1401242635aaffe867c4c","bdp_td","Mon Mar 27 2023 10:47:57 GMT-0700 (Mountain Standard Time)","147736","","","","","","","true","","","","","","","","",""
"instructions","3","64763","0.0-4.0","63d1401242635aaffe867c4c","bdp_td","Mon Mar 27 2023 10:47:57 GMT-0700 (Mountain Standard Time)","147736","[{""page_index"":0,""viewing_time"":8219},{""page_index"":1,""viewing_time"":11088},{""page_index"":2,""viewing_time"":8142}]","27449","","","","","","","","","","","","","",""
"html-keyboard-response","4","65265","0.0-5.0-1.0","63d1401242635aaffe867c4c","bdp_td","Mon Mar 27 2023 10:47:57 GMT-0700 (Mountain Standard Time)","147736","","null","","","","FIX","","<div class='trialBorder'><div class='vertical-center'><img style='vertical-align:center; align:center' src=img/fixation3.jpg></div></div>","null","","","","","","",""
"html-keyboard-response","5","67660","0.0-5.0-2.0","63d1401242635aaffe867c4c","bdp_td","Mon Mar 27 2023 10:47:57 GMT-0700 (Mountain Standard Time)","147736","","2394","","","","offer","","<div class='trialBorder'><div class='vertical-center'><img style='vertical-align:center; align:center' src=img/fixation3.jpg></div><div class='cl'><div class='vertical-center'>$80<br>in<br>12 weeks</div></div><div class='cr'><div class='vertical-center'>$78<br><br>now</div></div><div class='respDivL'><div class='vertical-center'>(E)</div></div><div class='respDivR'><div class='vertical-center'>(I)</div></div></div>","I","$78<br><br>now","$80<br>in<br>12 weeks","1","78","80","12","NOW"
"html-keyboard-response","6","67912","0.0-5.0-3.0","63d1401242635aaffe867c4c","bdp_td","Mon Mar 27 2023 10:47:57 GMT-0700 (Mountain Standard Time)","147736","","null","","","","offerFB","","<div class='trialBorder'><div class='vertical-center'><img style='vertical-align:center; align:center' src=img/fixation3.jpg></div><div class='cl'><div class='vertical-center'>$80<br>in<br>12 weeks</div></div><div class='cr'><div class='vertical-center'><font style='color:orange'>$78<br><br>now</font></div></div><div class='respDivL'><div class='vertical-center'>(E)</div></div><div class='respDivR'><div class='vertical-center'><font style='color:orange'>(I)</font></div></div></div>","null","$78<br><br>now","$80<br>in<br>12 weeks","1","78","80","12",""
"html-keyboard-response","7","68414","0.0-5.0-1.1","63d1401242635aaffe867c4c","bdp_td","Mon Mar 27 2023 10:47:57 GMT-0700 (Mountain Standard Time)","147736","","null","","","","FIX","","<div class='trialBorder'><div class='vertical-center'><img style='vertical-align:center; align:center' src=img/fixation3.jpg></div></div>","null","","","","","","",""
"html-keyboard-response","8","71555","0.0-5.0-2.1","63d1401242635aaffe867c4c","bdp_td","Mon Mar 27 2023 10:47:57 GMT-0700 (Mountain Standard Time)","147736","","3140","","","","offer","","<div class='trialBorder'><div class='vertical-center'><img style='vertical-align:center; align:center' src=img/fixation3.jpg></div><div class='cl'><div class='vertical-center'>$80<br>in<br>3 weeks</div></div><div class='cr'><div class='vertical-center'>$54<br><br>now</div></div><div class='respDivL'><div class='vertical-center'>(E)</div></div><div class='respDivR'><div class='vertical-center'>(I)</div></div></div>","E","$54<br><br>now","$80<br>in<br>3 weeks","1","54","80","3","THEN"
"html-keyboard-response","9","71808","0.0-5.0-3.1","63d1401242635aaffe867c4c","bdp_td","Mon Mar 27 2023 10:47:57 GMT-0700 (Mountain Standard Time)","147736","","null","","","","offerFB","","<div class='trialBorder'><div class='vertical-center'><img style='vertical-align:center; align:center' src=img/fixation3.jpg></div><div class='cl'><div class='vertical-center'><font style='color:orange'>$80<br>in<br>3 weeks</font></div></div><div class='cr'><div class='vertical-center'>$54<br><br>now</div></div><div class='respDivL'><div class='vertical-center'><font style='color:orange'>(E)</font></div></div><div class='respDivR'><div class='vertical-center'>(I)</div></div></div>","null","$54<br><br>now","$80<br>in<br>3 weeks","1","54","80","3",""
"html-keyboard-response","10","72309","0.0-5.0-1.2","63d1401242635aaffe867c4c","bdp_td","Mon Mar 27 2023 10:47:57 GMT-0700 (Mountain Standard Time)","147736","","null","","","","FIX","","<div class='trialBorder'><div class='vertical-center'><img style='vertical-align:center; align:center' src=img/fixation3.jpg></div></div>","null","","","","","","",""
"html-keyboard-response","11","74698","0.0-5.0-2.2","63d1401242635aaffe867c4c","bdp_td","Mon Mar 27 2023 10:47:57 GMT-0700 (Mountain Standard Time)","147736","","2388","","","","offer","","<div class='trialBorder'><div class='vertical-center'><img style='vertical-align:center; align:center' src=img/fixation3.jpg></div><div class='cl'><div class='vertical-center'>$80<br><br>now</div></div><div class='cr'><div class='vertical-center'>$85<br>in<br>12 weeks</div></div><div class='respDivL'><div class='vertical-center'>(E)</div></div><div class='respDivR'><div class='vertical-center'>(I)</div></div></div>","E","$80<br><br>now","$85<br>in<br>12 weeks","0","80","85","12","NOW"
"html-keyboard-response","12","74949","0.0-5.0-3.2","63d1401242635aaffe867c4c","bdp_td","Mon Mar 27 2023 10:47:57 GMT-0700 (Mountain Standard Time)","147736","","null","","","","offerFB","","<div class='trialBorder'><div class='vertical-center'><img style='vertical-align:center; align:center' src=img/fixation3.jpg></div><div class='cl'><div class='vertical-center'><font style='color:orange'>$80<br><br>now</font></div></div><div class='cr'><div class='vertical-center'>$85<br>in<br>12 weeks</div></div><div class='respDivL'><div class='vertical-center'><font style='color:orange'>(E)</font></div></div><div class='respDivR'><div class='vertical-center'>(I)</div></div></div>","null","$80<br><br>now","$85<br>in<br>12 weeks","0","80","85","12",""
"html-keyboard-response","13","75450","0.0-5.0-1.3","63d1401242635aaffe867c4c","bdp_td","Mon Mar 27 2023 10:47:57 GMT-0700 (Mountain Standard Time)","147736","","null","","","","FIX","","<div class='trialBorder'><div class='vertical-center'><img style='vertical-align:center; align:center' src=img/fixation3.jpg></div></div>","null","","","","","","",""
"html-keyboard-response","14","79545","0.0-5.0-2.3","63d1401242635aaffe867c4c","bdp_td","Mon Mar 27 2023 10:47:57 GMT-0700 (Mountain Standard Time)","147736","","4095","","","","offer","","<div class='trialBorder'><div class='vertical-center'><img style='vertical-align:center; align:center' src=img/fixation3.jpg></div><div class='cl'><div class='vertical-center'>$50<br>in<br>6 weeks</div></div><div class='cr'><div class='vertical-center'>$34<br><br>now</div></div><div class='respDivL'><div class='vertical-center'>(E)</div></div><div class='respDivR'><div class='vertical-center'>(I)</div></div></div>","E","$34<br><br>now","$50<br>in<br>6 weeks","1","34","50","6","THEN"
"html-keyboard-response","15","79796","0.0-5.0-3.3","63d1401242635aaffe867c4c","bdp_td","Mon Mar 27 2023 10:47:57 GMT-0700 (Mountain Standard Time)","147736","","null","","","","offerFB","","<div class='trialBorder'><div class='vertical-center'><img style='vertical-align:center; align:center' src=img/fixation3.jpg></div><div class='cl'><div class='vertical-center'><font style='color:orange'>$50<br>in<br>6 weeks</font></div></div><div class='cr'><div class='vertical-center'>$34<br><br>now</div></div><div class='respDivL'><div class='vertical-center'><font style='color:orange'>(E)</font></div></div><div class='respDivR'><div class='vertical-center'>(I)</div></div></div>","null","$34<br><br>now","$50<br>in<br>6 weeks","1","34","50","6",""
"html-keyboard-response","16","80298","0.0-5.0-1.4","63d1401242635aaffe867c4c","bdp_td","Mon Mar 27 2023 10:47:57 GMT-0700 (Mountain Standard Time)","147736","","null","","","","FIX","","<div class='trialBorder'><div class='vertical-center'><img style='vertical-align:center; align:center' src=img/fixation3.jpg></div></div>","null","","","","","","",""
"html-keyboard-response","17","82048","0.0-5.0-2.4","63d1401242635aaffe867c4c","bdp_td","Mon Mar 27 2023 10:47:57 GMT-0700 (Mountain Standard Time)","147736","","1749","","","","offer","","<div class='trialBorder'><div class='vertical-center'><img style='vertical-align:center; align:center' src=img/fixation3.jpg></div><div class='cl'><div class='vertical-center'>$50<br>in<br>12 weeks</div></div><div class='cr'><div class='vertical-center'>$47<br><br>now</div></div><div class='respDivL'><div class='vertical-center'>(E)</div></div><div class='respDivR'><div class='vertical-center'>(I)</div></div></div>","I","$47<br><br>now","$50<br>in<br>12 weeks","1","47","50","12","NOW"
"html-keyboard-response","18","82300","0.0-5.0-3.4","63d1401242635aaffe867c4c","bdp_td","Mon Mar 27 2023 10:47:57 GMT-0700 (Mountain Standard Time)","147736","","null","","","","offerFB","","<div class='trialBorder'><div class='vertical-center'><img style='vertical-align:center; align:center' src=img/fixation3.jpg></div><div class='cl'><div class='vertical-center'>$50<br>in<br>12 weeks</div></div><div class='cr'><div class='vertical-center'><font style='color:orange'>$47<br><br>now</font></div></div><div class='respDivL'><div class='vertical-center'>(E)</div></div><div class='respDivR'><div class='vertical-center'><font style='color:orange'>(I)</font></div></div></div>","null","$47<br><br>now","$50<br>in<br>12 weeks","1","47","50","12",""
"html-keyboard-response","19","82802","0.0-5.0-1.5","63d1401242635aaffe867c4c","bdp_td","Mon Mar 27 2023 10:47:57 GMT-0700 (Mountain Standard Time)","147736","","null","","","","FIX","","<div class='trialBorder'><div class='vertical-center'><img style='vertical-align:center; align:center' src=img/fixation3.jpg></div></div>","null","","","","","","",""
"html-keyboard-response","20","84731","0.0-5.0-2.5","63d1401242635aaffe867c4c","bdp_td","Mon Mar 27 2023 10:47:57 GMT-0700 (Mountain Standard Time)","147736","","1929","","","","offer","","<div class='trialBorder'><div class='vertical-center'><img style='vertical-align:center; align:center' src=img/fixation3.jpg></div><div class='cl'><div class='vertical-center'>$34<br><br>now</div></div><div class='cr'><div class='vertical-center'>$35<br>in<br>12 weeks</div></div><div class='respDivL'><div class='vertical-center'>(E)</div></div><div class='respDivR'><div class='vertical-center'>(I)</div></div></div>","E","$34<br><br>now","$35<br>in<br>12 weeks","0","34","35","12","NOW"
"html-keyboard-response","21","84982","0.0-5.0-3.5","63d1401242635aaffe867c4c","bdp_td","Mon Mar 27 2023 10:47:57 GMT-0700 (Mountain Standard Time)","147736","","null","","","","offerFB","","<div class='trialBorder'><div class='vertical-center'><img style='vertical-align:center; align:center' src=img/fixation3.jpg></div><div class='cl'><div class='vertical-center'><font style='color:orange'>$34<br><br>now</font></div></div><div class='cr'><div class='vertical-center'>$35<br>in<br>12 weeks</div></div><div class='respDivL'><div class='vertical-center'><font style='color:orange'>(E)</font></div></div><div class='respDivR'><div class='vertical-center'>(I)</div></div></div>","null","$34<br><br>now","$35<br>in<br>12 weeks","0","34","35","12",""
"html-keyboard-response","22","85484","0.0-5.0-1.6","63d1401242635aaffe867c4c","bdp_td","Mon Mar 27 2023 10:47:57 GMT-0700 (Mountain Standard Time)","147736","","null","","","","FIX","","<div class='trialBorder'><div class='vertical-center'><img style='vertical-align:center; align:center' src=img/fixation3.jpg></div></div>","null","","","","","","",""
"html-keyboard-response","23","88423","0.0-5.0-2.6","63d1401242635aaffe867c4c","bdp_td","Mon Mar 27 2023 10:47:57 GMT-0700 (Mountain Standard Time)","147736","","2938","","","","offer","","<div class='trialBorder'><div class='vertical-center'><img style='vertical-align:center; align:center' src=img/fixation3.jpg></div><div class='cl'><div class='vertical-center'>$25<br>in<br>3 weeks</div></div><div class='cr'><div class='vertical-center'>$14<br><br>now</div></div><div class='respDivL'><div class='vertical-center'>(E)</div></div><div class='respDivR'><div class='vertical-center'>(I)</div></div></div>","E","$14<br><br>now","$25<br>in<br>3 weeks","1","14","25","3","THEN"
"html-keyboard-response","24","88674","0.0-5.0-3.6","63d1401242635aaffe867c4c","bdp_td","Mon Mar 27 2023 10:47:57 GMT-0700 (Mountain Standard Time)","147736","","null","","","","offerFB","","<div class='trialBorder'><div class='vertical-center'><img style='vertical-align:center; align:center' src=img/fixation3.jpg></div><div class='cl'><div class='vertical-center'><font style='color:orange'>$25<br>in<br>3 weeks</font></div></div><div class='cr'><div class='vertical-center'>$14<br><br>now</div></div><div class='respDivL'><div class='vertical-center'><font style='color:orange'>(E)</font></div></div><div class='respDivR'><div class='vertical-center'>(I)</div></div></div>","null","$14<br><br>now","$25<br>in<br>3 weeks","1","14","25","3",""
"html-keyboard-response","25","89176","0.0-5.0-1.7","63d1401242635aaffe867c4c","bdp_td","Mon Mar 27 2023 10:47:57 GMT-0700 (Mountain Standard Time)","147736","","null","","","","FIX","","<div class='trialBorder'><div class='vertical-center'><img style='vertical-align:center; align:center' src=img/fixation3.jpg></div></div>","null","","","","","","",""
"html-keyboard-response","26","91357","0.0-5.0-2.7","63d1401242635aaffe867c4c","bdp_td","Mon Mar 27 2023 10:47:57 GMT-0700 (Mountain Standard Time)","147736","","2180","","","","offer","","<div class='trialBorder'><div class='vertical-center'><img style='vertical-align:center; align:center' src=img/fixation3.jpg></div><div class='cl'><div class='vertical-center'>$33<br><br>now</div></div><div class='cr'><div class='vertical-center'>$80<br>in<br>2 weeks</div></div><div class='respDivL'><div class='vertical-center'>(E)</div></div><div class='respDivR'><div class='vertical-center'>(I)</div></div></div>","I","$33<br><br>now","$80<br>in<br>2 weeks","0","33","80","2","THEN"
"html-keyboard-response","27","91609","0.0-5.0-3.7","63d1401242635aaffe867c4c","bdp_td","Mon Mar 27 2023 10:47:57 GMT-0700 (Mountain Standard Time)","147736","","null","","","","offerFB","","<div class='trialBorder'><div class='vertical-center'><img style='vertical-align:center; align:center' src=img/fixation3.jpg></div><div class='cl'><div class='vertical-center'>$33<br><br>now</div></div><div class='cr'><div class='vertical-center'><font style='color:orange'>$80<br>in<br>2 weeks</font></div></div><div class='respDivL'><div class='vertical-center'>(E)</div></div><div class='respDivR'><div class='vertical-center'><font style='color:orange'>(I)</font></div></div></div>","null","$33<br><br>now","$80<br>in<br>2 weeks","0","33","80","2",""
"html-keyboard-response","28","92111","0.0-5.0-1.8","63d1401242635aaffe867c4c","bdp_td","Mon Mar 27 2023 10:47:57 GMT-0700 (Mountain Standard Time)","147736","","null","","","","FIX","","<div class='trialBorder'><div class='vertical-center'><img style='vertical-align:center; align:center' src=img/fixation3.jpg></div></div>","null","","","","","","",""
"html-keyboard-response","29","94561","0.0-5.0-2.8","63d1401242635aaffe867c4c","bdp_td","Mon Mar 27 2023 10:47:57 GMT-0700 (Mountain Standard Time)","147736","","2450","","","","offer","","<div class='trialBorder'><div class='vertical-center'><img style='vertical-align:center; align:center' src=img/fixation3.jpg></div><div class='cl'><div class='vertical-center'>$30<br>in<br>2 weeks</div></div><div class='cr'><div class='vertical-center'>$11<br><br>now</div></div><div class='respDivL'><div class='vertical-center'>(E)</div></div><div class='respDivR'><div class='vertical-center'>(I)</div></div></div>","E","$11<br><br>now","$30<br>in<br>2 weeks","1","11","30","2","THEN"
"html-keyboard-response","30","94812","0.0-5.0-3.8","63d1401242635aaffe867c4c","bdp_td","Mon Mar 27 2023 10:47:57 GMT-0700 (Mountain Standard Time)","147736","","null","","","","offerFB","","<div class='trialBorder'><div class='vertical-center'><img style='vertical-align:center; align:center' src=img/fixation3.jpg></div><div class='cl'><div class='vertical-center'><font style='color:orange'>$30<br>in<br>2 weeks</font></div></div><div class='cr'><div class='vertical-center'>$11<br><br>now</div></div><div class='respDivL'><div class='vertical-center'><font style='color:orange'>(E)</font></div></div><div class='respDivR'><div class='vertical-center'>(I)</div></div></div>","null","$11<br><br>now","$30<br>in<br>2 weeks","1","11","30","2",""
"html-keyboard-response","31","95313","0.0-5.0-1.9","63d1401242635aaffe867c4c","bdp_td","Mon Mar 27 2023 10:47:57 GMT-0700 (Mountain Standard Time)","147736","","null","","","","FIX","","<div class='trialBorder'><div class='vertical-center'><img style='vertical-align:center; align:center' src=img/fixation3.jpg></div></div>","null","","","","","","",""
"html-keyboard-response","32","97201","0.0-5.0-2.9","63d1401242635aaffe867c4c","bdp_td","Mon Mar 27 2023 10:47:57 GMT-0700 (Mountain Standard Time)","147736","","1887","","","","offer","","<div class='trialBorder'><div class='vertical-center'><img style='vertical-align:center; align:center' src=img/fixation3.jpg></div><div class='cl'><div class='vertical-center'>$15<br><br>now</div></div><div class='cr'><div class='vertical-center'>$35<br>in<br>2 weeks</div></div><div class='respDivL'><div class='vertical-center'>(E)</div></div><div class='respDivR'><div class='vertical-center'>(I)</div></div></div>","I","$15<br><br>now","$35<br>in<br>2 weeks","0","15","35","2","THEN"
"html-keyboard-response","33","97452","0.0-5.0-3.9","63d1401242635aaffe867c4c","bdp_td","Mon Mar 27 2023 10:47:57 GMT-0700 (Mountain Standard Time)","147736","","null","","","","offerFB","","<div class='trialBorder'><div class='vertical-center'><img style='vertical-align:center; align:center' src=img/fixation3.jpg></div><div class='cl'><div class='vertical-center'>$15<br><br>now</div></div><div class='cr'><div class='vertical-center'><font style='color:orange'>$35<br>in<br>2 weeks</font></div></div><div class='respDivL'><div class='vertical-center'>(E)</div></div><div class='respDivR'><div class='vertical-center'><font style='color:orange'>(I)</font></div></div></div>","null","$15<br><br>now","$35<br>in<br>2 weeks","0","15","35","2",""
"html-keyboard-response","34","97954","0.0-5.0-1.10","63d1401242635aaffe867c4c","bdp_td","Mon Mar 27 2023 10:47:57 GMT-0700 (Mountain Standard Time)","147736","","null","","","","FIX","","<div class='trialBorder'><div class='vertical-center'><img style='vertical-align:center; align:center' src=img/fixation3.jpg></div></div>","null","","","","","","",""
"html-keyboard-response","35","100203","0.0-5.0-2.10","63d1401242635aaffe867c4c","bdp_td","Mon Mar 27 2023 10:47:57 GMT-0700 (Mountain Standard Time)","147736","","2248","","","","offer","","<div class='trialBorder'><div class='vertical-center'><img style='vertical-align:center; align:center' src=img/fixation3.jpg></div><div class='cl'><div class='vertical-center'>$30<br>in<br>12 weeks</div></div><div class='cr'><div class='vertical-center'>$28<br><br>now</div></div><div class='respDivL'><div class='vertical-center'>(E)</div></div><div class='respDivR'><div class='vertical-center'>(I)</div></div></div>","I","$28<br><br>now","$30<br>in<br>12 weeks","1","28","30","12","NOW"
"html-keyboard-response","36","100455","0.0-5.0-3.10","63d1401242635aaffe867c4c","bdp_td","Mon Mar 27 2023 10:47:57 GMT-0700 (Mountain Standard Time)","147736","","null","","","","offerFB","","<div class='trialBorder'><div class='vertical-center'><img style='vertical-align:center; align:center' src=img/fixation3.jpg></div><div class='cl'><div class='vertical-center'>$30<br>in<br>12 weeks</div></div><div class='cr'><div class='vertical-center'><font style='color:orange'>$28<br><br>now</font></div></div><div class='respDivL'><div class='vertical-center'>(E)</div></div><div class='respDivR'><div class='vertical-center'><font style='color:orange'>(I)</font></div></div></div>","null","$28<br><br>now","$30<br>in<br>12 weeks","1","28","30","12",""
"html-keyboard-response","37","100956","0.0-5.0-1.11","63d1401242635aaffe867c4c","bdp_td","Mon Mar 27 2023 10:47:57 GMT-0700 (Mountain Standard Time)","147736","","null","","","","FIX","","<div class='trialBorder'><div class='vertical-center'><img style='vertical-align:center; align:center' src=img/fixation3.jpg></div></div>","null","","","","","","",""
"html-keyboard-response","38","103207","0.0-5.0-2.11","63d1401242635aaffe867c4c","bdp_td","Mon Mar 27 2023 10:47:57 GMT-0700 (Mountain Standard Time)","147736","","2250","","","","offer","","<div class='trialBorder'><div class='vertical-center'><img style='vertical-align:center; align:center' src=img/fixation3.jpg></div><div class='cl'><div class='vertical-center'>$40<br><br>now</div></div><div class='cr'><div class='vertical-center'>$55<br>in<br>6 weeks</div></div><div class='respDivL'><div class='vertical-center'>(E)</div></div><div class='respDivR'><div class='vertical-center'>(I)</div></div></div>","I","$40<br><br>now","$55<br>in<br>6 weeks","0","40","55","6","THEN"
"html-keyboard-response","39","103458","0.0-5.0-3.11","63d1401242635aaffe867c4c","bdp_td","Mon Mar 27 2023 10:47:57 GMT-0700 (Mountain Standard Time)","147736","","null","","","","offerFB","","<div class='trialBorder'><div class='vertical-center'><img style='vertical-align:center; align:center' src=img/fixation3.jpg></div><div class='cl'><div class='vertical-center'>$40<br><br>now</div></div><div class='cr'><div class='vertical-center'><font style='color:orange'>$55<br>in<br>6 weeks</font></div></div><div class='respDivL'><div class='vertical-center'>(E)</div></div><div class='respDivR'><div class='vertical-center'><font style='color:orange'>(I)</font></div></div></div>","null","$40<br><br>now","$55<br>in<br>6 weeks","0","40","55","6",""
"html-keyboard-response","40","103960","0.0-5.0-1.12","63d1401242635aaffe867c4c","bdp_td","Mon Mar 27 2023 10:47:57 GMT-0700 (Mountain Standard Time)","147736","","null","","","","FIX","","<div class='trialBorder'><div class='vertical-center'><img style='vertical-align:center; align:center' src=img/fixation3.jpg></div></div>","null","","","","","","",""
"html-keyboard-response","41","105734","0.0-5.0-2.12","63d1401242635aaffe867c4c","bdp_td","Mon Mar 27 2023 10:47:57 GMT-0700 (Mountain Standard Time)","147736","","1774","","","","offer","","<div class='trialBorder'><div class='vertical-center'><img style='vertical-align:center; align:center' src=img/fixation3.jpg></div><div class='cl'><div class='vertical-center'>$54<br><br>now</div></div><div class='cr'><div class='vertical-center'>$60<br>in<br>12 weeks</div></div><div class='respDivL'><div class='vertical-center'>(E)</div></div><div class='respDivR'><div class='vertical-center'>(I)</div></div></div>","E","$54<br><br>now","$60<br>in<br>12 weeks","0","54","60","12","NOW"
"html-keyboard-response","42","105985","0.0-5.0-3.12","63d1401242635aaffe867c4c","bdp_td","Mon Mar 27 2023 10:47:57 GMT-0700 (Mountain Standard Time)","147736","","null","","","","offerFB","","<div class='trialBorder'><div class='vertical-center'><img style='vertical-align:center; align:center' src=img/fixation3.jpg></div><div class='cl'><div class='vertical-center'><font style='color:orange'>$54<br><br>now</font></div></div><div class='cr'><div class='vertical-center'>$60<br>in<br>12 weeks</div></div><div class='respDivL'><div class='vertical-center'><font style='color:orange'>(E)</font></div></div><div class='respDivR'><div class='vertical-center'>(I)</div></div></div>","null","$54<br><br>now","$60<br>in<br>12 weeks","0","54","60","12",""
"html-keyboard-response","43","106487","0.0-5.0-1.13","63d1401242635aaffe867c4c","bdp_td","Mon Mar 27 2023 10:47:57 GMT-0700 (Mountain Standard Time)","147736","","null","","","","FIX","","<div class='trialBorder'><div class='vertical-center'><img style='vertical-align:center; align:center' src=img/fixation3.jpg></div></div>","null","","","","","","",""
"html-keyboard-response","44","108940","0.0-5.0-2.13","63d1401242635aaffe867c4c","bdp_td","Mon Mar 27 2023 10:47:57 GMT-0700 (Mountain Standard Time)","147736","","2453","","","","offer","","<div class='trialBorder'><div class='vertical-center'><img style='vertical-align:center; align:center' src=img/fixation3.jpg></div><div class='cl'><div class='vertical-center'>$49<br><br>now</div></div><div class='cr'><div class='vertical-center'>$60<br>in<br>6 weeks</div></div><div class='respDivL'><div class='vertical-center'>(E)</div></div><div class='respDivR'><div class='vertical-center'>(I)</div></div></div>","E","$49<br><br>now","$60<br>in<br>6 weeks","0","49","60","6","NOW"
"html-keyboard-response","45","109191","0.0-5.0-3.13","63d1401242635aaffe867c4c","bdp_td","Mon Mar 27 2023 10:47:57 GMT-0700 (Mountain Standard Time)","147736","","null","","","","offerFB","","<div class='trialBorder'><div class='vertical-center'><img style='vertical-align:center; align:center' src=img/fixation3.jpg></div><div class='cl'><div class='vertical-center'><font style='color:orange'>$49<br><br>now</font></div></div><div class='cr'><div class='vertical-center'>$60<br>in<br>6 weeks</div></div><div class='respDivL'><div class='vertical-center'><font style='color:orange'>(E)</font></div></div><div class='respDivR'><div class='vertical-center'>(I)</div></div></div>","null","$49<br><br>now","$60<br>in<br>6 weeks","0","49","60","6",""
"html-keyboard-response","46","109693","0.0-5.0-1.14","63d1401242635aaffe867c4c","bdp_td","Mon Mar 27 2023 10:47:57 GMT-0700 (Mountain Standard Time)","147736","","null","","","","FIX","","<div class='trialBorder'><div class='vertical-center'><img style='vertical-align:center; align:center' src=img/fixation3.jpg></div></div>","null","","","","","","",""
"html-keyboard-response","47","111917","0.0-5.0-2.14","63d1401242635aaffe867c4c","bdp_td","Mon Mar 27 2023 10:47:57 GMT-0700 (Mountain Standard Time)","147736","","2223","","","","offer","","<div class='trialBorder'><div class='vertical-center'><img style='vertical-align:center; align:center' src=img/fixation3.jpg></div><div class='cl'><div class='vertical-center'>$27<br><br>now</div></div><div class='cr'><div class='vertical-center'>$50<br>in<br>3 weeks</div></div><div class='respDivL'><div class='vertical-center'>(E)</div></div><div class='respDivR'><div class='vertical-center'>(I)</div></div></div>","I","$27<br><br>now","$50<br>in<br>3 weeks","0","27","50","3","THEN"
"html-keyboard-response","48","112168","0.0-5.0-3.14","63d1401242635aaffe867c4c","bdp_td","Mon Mar 27 2023 10:47:57 GMT-0700 (Mountain Standard Time)","147736","","null","","","","offerFB","","<div class='trialBorder'><div class='vertical-center'><img style='vertical-align:center; align:center' src=img/fixation3.jpg></div><div class='cl'><div class='vertical-center'>$27<br><br>now</div></div><div class='cr'><div class='vertical-center'><font style='color:orange'>$50<br>in<br>3 weeks</font></div></div><div class='respDivL'><div class='vertical-center'>(E)</div></div><div class='respDivR'><div class='vertical-center'><font style='color:orange'>(I)</font></div></div></div>","null","$27<br><br>now","$50<br>in<br>3 weeks","0","27","50","3",""
"html-keyboard-response","49","112670","0.0-5.0-1.15","63d1401242635aaffe867c4c","bdp_td","Mon Mar 27 2023 10:47:57 GMT-0700 (Mountain Standard Time)","147736","","null","","","","FIX","","<div class='trialBorder'><div class='vertical-center'><img style='vertical-align:center; align:center' src=img/fixation3.jpg></div></div>","null","","","","","","",""
"html-keyboard-response","50","114802","0.0-5.0-2.15","63d1401242635aaffe867c4c","bdp_td","Mon Mar 27 2023 10:47:57 GMT-0700 (Mountain Standard Time)","147736","","2132","","","","offer","","<div class='trialBorder'><div class='vertical-center'><img style='vertical-align:center; align:center' src=img/fixation3.jpg></div><div class='cl'><div class='vertical-center'>$22<br><br>now</div></div><div class='cr'><div class='vertical-center'>$25<br>in<br>12 weeks</div></div><div class='respDivL'><div class='vertical-center'>(E)</div></div><div class='respDivR'><div class='vertical-center'>(I)</div></div></div>","E","$22<br><br>now","$25<br>in<br>12 weeks","0","22","25","12","NOW"
"html-keyboard-response","51","115054","0.0-5.0-3.15","63d1401242635aaffe867c4c","bdp_td","Mon Mar 27 2023 10:47:57 GMT-0700 (Mountain Standard Time)","147736","","null","","","","offerFB","","<div class='trialBorder'><div class='vertical-center'><img style='vertical-align:center; align:center' src=img/fixation3.jpg></div><div class='cl'><div class='vertical-center'><font style='color:orange'>$22<br><br>now</font></div></div><div class='cr'><div class='vertical-center'>$25<br>in<br>12 weeks</div></div><div class='respDivL'><div class='vertical-center'><font style='color:orange'>(E)</font></div></div><div class='respDivR'><div class='vertical-center'>(I)</div></div></div>","null","$22<br><br>now","$25<br>in<br>12 weeks","0","22","25","12",""
"html-keyboard-response","52","115556","0.0-5.0-1.16","63d1401242635aaffe867c4c","bdp_td","Mon Mar 27 2023 10:47:57 GMT-0700 (Mountain Standard Time)","147736","","null","","","","FIX","","<div class='trialBorder'><div class='vertical-center'><img style='vertical-align:center; align:center' src=img/fixation3.jpg></div></div>","null","","","","","","",""
"html-keyboard-response","53","117732","0.0-5.0-2.16","63d1401242635aaffe867c4c","bdp_td","Mon Mar 27 2023 10:47:57 GMT-0700 (Mountain Standard Time)","147736","","2175","","","","offer","","<div class='trialBorder'><div class='vertical-center'><img style='vertical-align:center; align:center' src=img/fixation3.jpg></div><div class='cl'><div class='vertical-center'>$67<br><br>now</div></div><div class='cr'><div class='vertical-center'>$75<br>in<br>12 weeks</div></div><div class='respDivL'><div class='vertical-center'>(E)</div></div><div class='respDivR'><div class='vertical-center'>(I)</div></div></div>","E","$67<br><br>now","$75<br>in<br>12 weeks","0","67","75","12","NOW"
"html-keyboard-response","54","117983","0.0-5.0-3.16","63d1401242635aaffe867c4c","bdp_td","Mon Mar 27 2023 10:47:57 GMT-0700 (Mountain Standard Time)","147736","","null","","","","offerFB","","<div class='trialBorder'><div class='vertical-center'><img style='vertical-align:center; align:center' src=img/fixation3.jpg></div><div class='cl'><div class='vertical-center'><font style='color:orange'>$67<br><br>now</font></div></div><div class='cr'><div class='vertical-center'>$75<br>in<br>12 weeks</div></div><div class='respDivL'><div class='vertical-center'><font style='color:orange'>(E)</font></div></div><div class='respDivR'><div class='vertical-center'>(I)</div></div></div>","null","$67<br><br>now","$75<br>in<br>12 weeks","0","67","75","12",""
"html-keyboard-response","55","118484","0.0-5.0-1.17","63d1401242635aaffe867c4c","bdp_td","Mon Mar 27 2023 10:47:57 GMT-0700 (Mountain Standard Time)","147736","","null","","","","FIX","","<div class='trialBorder'><div class='vertical-center'><img style='vertical-align:center; align:center' src=img/fixation3.jpg></div></div>","null","","","","","","",""
"html-keyboard-response","56","120432","0.0-5.0-2.17","63d1401242635aaffe867c4c","bdp_td","Mon Mar 27 2023 10:47:57 GMT-0700 (Mountain Standard Time)","147736","","1947","","","","offer","","<div class='trialBorder'><div class='vertical-center'><img style='vertical-align:center; align:center' src=img/fixation3.jpg></div><div class='cl'><div class='vertical-center'>$25<br><br>now</div></div><div class='cr'><div class='vertical-center'>$60<br>in<br>3 weeks</div></div><div class='respDivL'><div class='vertical-center'>(E)</div></div><div class='respDivR'><div class='vertical-center'>(I)</div></div></div>","I","$25<br><br>now","$60<br>in<br>3 weeks","0","25","60","3","THEN"
"html-keyboard-response","57","120683","0.0-5.0-3.17","63d1401242635aaffe867c4c","bdp_td","Mon Mar 27 2023 10:47:57 GMT-0700 (Mountain Standard Time)","147736","","null","","","","offerFB","","<div class='trialBorder'><div class='vertical-center'><img style='vertical-align:center; align:center' src=img/fixation3.jpg></div><div class='cl'><div class='vertical-center'>$25<br><br>now</div></div><div class='cr'><div class='vertical-center'><font style='color:orange'>$60<br>in<br>3 weeks</font></div></div><div class='respDivL'><div class='vertical-center'>(E)</div></div><div class='respDivR'><div class='vertical-center'><font style='color:orange'>(I)</font></div></div></div>","null","$25<br><br>now","$60<br>in<br>3 weeks","0","25","60","3",""
"html-keyboard-response","58","121184","0.0-5.0-1.18","63d1401242635aaffe867c4c","bdp_td","Mon Mar 27 2023 10:47:57 GMT-0700 (Mountain Standard Time)","147736","","null","","","","FIX","","<div class='trialBorder'><div class='vertical-center'><img style='vertical-align:center; align:center' src=img/fixation3.jpg></div></div>","null","","","","","","",""
"html-keyboard-response","59","123721","0.0-5.0-2.18","63d1401242635aaffe867c4c","bdp_td","Mon Mar 27 2023 10:47:57 GMT-0700 (Mountain Standard Time)","147736","","2536","","","","offer","","<div class='trialBorder'><div class='vertical-center'><img style='vertical-align:center; align:center' src=img/fixation3.jpg></div><div class='cl'><div class='vertical-center'>$35<br>in<br>3 weeks</div></div><div class='cr'><div class='vertical-center'>$24<br><br>now</div></div><div class='respDivL'><div class='vertical-center'>(E)</div></div><div class='respDivR'><div class='vertical-center'>(I)</div></div></div>","E","$24<br><br>now","$35<br>in<br>3 weeks","1","24","35","3","THEN"
"html-keyboard-response","60","123973","0.0-5.0-3.18","63d1401242635aaffe867c4c","bdp_td","Mon Mar 27 2023 10:47:57 GMT-0700 (Mountain Standard Time)","147736","","null","","","","offerFB","","<div class='trialBorder'><div class='vertical-center'><img style='vertical-align:center; align:center' src=img/fixation3.jpg></div><div class='cl'><div class='vertical-center'><font style='color:orange'>$35<br>in<br>3 weeks</font></div></div><div class='cr'><div class='vertical-center'>$24<br><br>now</div></div><div class='respDivL'><div class='vertical-center'><font style='color:orange'>(E)</font></div></div><div class='respDivR'><div class='vertical-center'>(I)</div></div></div>","null","$24<br><br>now","$35<br>in<br>3 weeks","1","24","35","3",""
"html-keyboard-response","61","124474","0.0-5.0-1.19","63d1401242635aaffe867c4c","bdp_td","Mon Mar 27 2023 10:47:57 GMT-0700 (Mountain Standard Time)","147736","","null","","","","FIX","","<div class='trialBorder'><div class='vertical-center'><img style='vertical-align:center; align:center' src=img/fixation3.jpg></div></div>","null","","","","","","",""
"html-keyboard-response","62","126269","0.0-5.0-2.19","63d1401242635aaffe867c4c","bdp_td","Mon Mar 27 2023 10:47:57 GMT-0700 (Mountain Standard Time)","147736","","1795","","","","offer","","<div class='trialBorder'><div class='vertical-center'><img style='vertical-align:center; align:center' src=img/fixation3.jpg></div><div class='cl'><div class='vertical-center'>$55<br>in<br>12 weeks</div></div><div class='cr'><div class='vertical-center'>$54<br><br>now</div></div><div class='respDivL'><div class='vertical-center'>(E)</div></div><div class='respDivR'><div class='vertical-center'>(I)</div></div></div>","I","$54<br><br>now","$55<br>in<br>12 weeks","1","54","55","12","NOW"
"html-keyboard-response","63","126520","0.0-5.0-3.19","63d1401242635aaffe867c4c","bdp_td","Mon Mar 27 2023 10:47:57 GMT-0700 (Mountain Standard Time)","147736","","null","","","","offerFB","","<div class='trialBorder'><div class='vertical-center'><img style='vertical-align:center; align:center' src=img/fixation3.jpg></div><div class='cl'><div class='vertical-center'>$55<br>in<br>12 weeks</div></div><div class='cr'><div class='vertical-center'><font style='color:orange'>$54<br><br>now</font></div></div><div class='respDivL'><div class='vertical-center'>(E)</div></div><div class='respDivR'><div class='vertical-center'><font style='color:orange'>(I)</font></div></div></div>","null","$54<br><br>now","$55<br>in<br>12 weeks","1","54","55","12",""
"html-keyboard-response","64","127022","0.0-5.0-1.20","63d1401242635aaffe867c4c","bdp_td","Mon Mar 27 2023 10:47:57 GMT-0700 (Mountain Standard Time)","147736","","null","","","","FIX","","<div class='trialBorder'><div class='vertical-center'><img style='vertical-align:center; align:center' src=img/fixation3.jpg></div></div>","null","","","","","","",""
"html-keyboard-response","65","128645","0.0-5.0-2.20","63d1401242635aaffe867c4c","bdp_td","Mon Mar 27 2023 10:47:57 GMT-0700 (Mountain Standard Time)","147736","","1623","","","","offer","","<div class='trialBorder'><div class='vertical-center'><img style='vertical-align:center; align:center' src=img/fixation3.jpg></div><div class='cl'><div class='vertical-center'>$75<br>in<br>3 weeks</div></div><div class='cr'><div class='vertical-center'>$41<br><br>now</div></div><div class='respDivL'><div class='vertical-center'>(E)</div></div><div class='respDivR'><div class='vertical-center'>(I)</div></div></div>","E","$41<br><br>now","$75<br>in<br>3 weeks","1","41","75","3","THEN"
"html-keyboard-response","66","128897","0.0-5.0-3.20","63d1401242635aaffe867c4c","bdp_td","Mon Mar 27 2023 10:47:57 GMT-0700 (Mountain Standard Time)","147736","","null","","","","offerFB","","<div class='trialBorder'><div class='vertical-center'><img style='vertical-align:center; align:center' src=img/fixation3.jpg></div><div class='cl'><div class='vertical-center'><font style='color:orange'>$75<br>in<br>3 weeks</font></div></div><div class='cr'><div class='vertical-center'>$41<br><br>now</div></div><div class='respDivL'><div class='vertical-center'><font style='color:orange'>(E)</font></div></div><div class='respDivR'><div class='vertical-center'>(I)</div></div></div>","null","$41<br><br>now","$75<br>in<br>3 weeks","1","41","75","3",""
"html-keyboard-response","67","129399","0.0-5.0-1.21","63d1401242635aaffe867c4c","bdp_td","Mon Mar 27 2023 10:47:57 GMT-0700 (Mountain Standard Time)","147736","","null","","","","FIX","","<div class='trialBorder'><div class='vertical-center'><img style='vertical-align:center; align:center' src=img/fixation3.jpg></div></div>","null","","","","","","",""
"html-keyboard-response","68","131767","0.0-5.0-2.21","63d1401242635aaffe867c4c","bdp_td","Mon Mar 27 2023 10:47:57 GMT-0700 (Mountain Standard Time)","147736","","2367","","","","offer","","<div class='trialBorder'><div class='vertical-center'><img style='vertical-align:center; align:center' src=img/fixation3.jpg></div><div class='cl'><div class='vertical-center'>$20<br><br>now</div></div><div class='cr'><div class='vertical-center'>$55<br>in<br>1 week</div></div><div class='respDivL'><div class='vertical-center'>(E)</div></div><div class='respDivR'><div class='vertical-center'>(I)</div></div></div>","I","$20<br><br>now","$55<br>in<br>1 week","0","20","55","1","THEN"
"html-keyboard-response","69","132019","0.0-5.0-3.21","63d1401242635aaffe867c4c","bdp_td","Mon Mar 27 2023 10:47:57 GMT-0700 (Mountain Standard Time)","147736","","null","","","","offerFB","","<div class='trialBorder'><div class='vertical-center'><img style='vertical-align:center; align:center' src=img/fixation3.jpg></div><div class='cl'><div class='vertical-center'>$20<br><br>now</div></div><div class='cr'><div class='vertical-center'><font style='color:orange'>$55<br>in<br>1 week</font></div></div><div class='respDivL'><div class='vertical-center'>(E)</div></div><div class='respDivR'><div class='vertical-center'><font style='color:orange'>(I)</font></div></div></div>","null","$20<br><br>now","$55<br>in<br>1 week","0","20","55","1",""
"html-keyboard-response","70","132521","0.0-5.0-1.22","63d1401242635aaffe867c4c","bdp_td","Mon Mar 27 2023 10:47:57 GMT-0700 (Mountain Standard Time)","147736","","null","","","","FIX","","<div class='trialBorder'><div class='vertical-center'><img style='vertical-align:center; align:center' src=img/fixation3.jpg></div></div>","null","","","","","","",""
"html-keyboard-response","71","134669","0.0-5.0-2.22","63d1401242635aaffe867c4c","bdp_td","Mon Mar 27 2023 10:47:57 GMT-0700 (Mountain Standard Time)","147736","","2147","","","","offer","","<div class='trialBorder'><div class='vertical-center'><img style='vertical-align:center; align:center' src=img/fixation3.jpg></div><div class='cl'><div class='vertical-center'>$85<br>in<br>6 weeks</div></div><div class='cr'><div class='vertical-center'>$69<br><br>now</div></div><div class='respDivL'><div class='vertical-center'>(E)</div></div><div class='respDivR'><div class='vertical-center'>(I)</div></div></div>","E","$69<br><br>now","$85<br>in<br>6 weeks","1","69","85","6","THEN"
"html-keyboard-response","72","134920","0.0-5.0-3.22","63d1401242635aaffe867c4c","bdp_td","Mon Mar 27 2023 10:47:57 GMT-0700 (Mountain Standard Time)","147736","","null","","","","offerFB","","<div class='trialBorder'><div class='vertical-center'><img style='vertical-align:center; align:center' src=img/fixation3.jpg></div><div class='cl'><div class='vertical-center'><font style='color:orange'>$85<br>in<br>6 weeks</font></div></div><div class='cr'><div class='vertical-center'>$69<br><br>now</div></div><div class='respDivL'><div class='vertical-center'><font style='color:orange'>(E)</font></div></div><div class='respDivR'><div class='vertical-center'>(I)</div></div></div>","null","$69<br><br>now","$85<br>in<br>6 weeks","1","69","85","6",""
"html-keyboard-response","73","135422","0.0-5.0-1.23","63d1401242635aaffe867c4c","bdp_td","Mon Mar 27 2023 10:47:57 GMT-0700 (Mountain Standard Time)","147736","","null","","","","FIX","","<div class='trialBorder'><div class='vertical-center'><img style='vertical-align:center; align:center' src=img/fixation3.jpg></div></div>","null","","","","","","",""
"html-keyboard-response","74","138054","0.0-5.0-2.23","63d1401242635aaffe867c4c","bdp_td","Mon Mar 27 2023 10:47:57 GMT-0700 (Mountain Standard Time)","147736","","2631","","","","offer","","<div class='trialBorder'><div class='vertical-center'><img style='vertical-align:center; align:center' src=img/fixation3.jpg></div><div class='cl'><div class='vertical-center'>$30<br>in<br>6 weeks</div></div><div class='cr'><div class='vertical-center'>$25<br><br>now</div></div><div class='respDivL'><div class='vertical-center'>(E)</div></div><div class='respDivR'><div class='vertical-center'>(I)</div></div></div>","I","$25<br><br>now","$30<br>in<br>6 weeks","1","25","30","6","NOW"
"html-keyboard-response","75","138306","0.0-5.0-3.23","63d1401242635aaffe867c4c","bdp_td","Mon Mar 27 2023 10:47:57 GMT-0700 (Mountain Standard Time)","147736","","null","","","","offerFB","","<div class='trialBorder'><div class='vertical-center'><img style='vertical-align:center; align:center' src=img/fixation3.jpg></div><div class='cl'><div class='vertical-center'>$30<br>in<br>6 weeks</div></div><div class='cr'><div class='vertical-center'><font style='color:orange'>$25<br><br>now</font></div></div><div class='respDivL'><div class='vertical-center'>(E)</div></div><div class='respDivR'><div class='vertical-center'><font style='color:orange'>(I)</font></div></div></div>","null","$25<br><br>now","$30<br>in<br>6 weeks","1","25","30","6",""
"html-keyboard-response","76","138807","0.0-5.0-1.24","63d1401242635aaffe867c4c","bdp_td","Mon Mar 27 2023 10:47:57 GMT-0700 (Mountain Standard Time)","147736","","null","","","","FIX","","<div class='trialBorder'><div class='vertical-center'><img style='vertical-align:center; align:center' src=img/fixation3.jpg></div></div>","null","","","","","","",""
"html-keyboard-response","77","140537","0.0-5.0-2.24","63d1401242635aaffe867c4c","bdp_td","Mon Mar 27 2023 10:47:57 GMT-0700 (Mountain Standard Time)","147736","","1729","","","","offer","","<div class='trialBorder'><div class='vertical-center'><img style='vertical-align:center; align:center' src=img/fixation3.jpg></div><div class='cl'><div class='vertical-center'>$19<br><br>now</div></div><div class='cr'><div class='vertical-center'>$25<br>in<br>6 weeks</div></div><div class='respDivL'><div class='vertical-center'>(E)</div></div><div class='respDivR'><div class='vertical-center'>(I)</div></div></div>","E","$19<br><br>now","$25<br>in<br>6 weeks","0","19","25","6","NOW"
"html-keyboard-response","78","140789","0.0-5.0-3.24","63d1401242635aaffe867c4c","bdp_td","Mon Mar 27 2023 10:47:57 GMT-0700 (Mountain Standard Time)","147736","","null","","","","offerFB","","<div class='trialBorder'><div class='vertical-center'><img style='vertical-align:center; align:center' src=img/fixation3.jpg></div><div class='cl'><div class='vertical-center'><font style='color:orange'>$19<br><br>now</font></div></div><div class='cr'><div class='vertical-center'>$25<br>in<br>6 weeks</div></div><div class='respDivL'><div class='vertical-center'><font style='color:orange'>(E)</font></div></div><div class='respDivR'><div class='vertical-center'>(I)</div></div></div>","null","$19<br><br>now","$25<br>in<br>6 weeks","0","19","25","6",""
"html-keyboard-response","79","141290","0.0-5.0-1.25","63d1401242635aaffe867c4c","bdp_td","Mon Mar 27 2023 10:47:57 GMT-0700 (Mountain Standard Time)","147736","","null","","","","FIX","","<div class='trialBorder'><div class='vertical-center'><img style='vertical-align:center; align:center' src=img/fixation3.jpg></div></div>","null","","","","","","",""
"html-keyboard-response","80","143314","0.0-5.0-2.25","63d1401242635aaffe867c4c","bdp_td","Mon Mar 27 2023 10:47:57 GMT-0700 (Mountain Standard Time)","147736","","2023","","","","offer","","<div class='trialBorder'><div class='vertical-center'><img style='vertical-align:center; align:center' src=img/fixation3.jpg></div><div class='cl'><div class='vertical-center'>$85<br>in<br>1 week</div></div><div class='cr'><div class='vertical-center'>$31<br><br>now</div></div><div class='respDivL'><div class='vertical-center'>(E)</div></div><div class='respDivR'><div class='vertical-center'>(I)</div></div></div>","E","$31<br><br>now","$85<br>in<br>1 week","1","31","85","1","THEN"
"html-keyboard-response","81","143566","0.0-5.0-3.25","63d1401242635aaffe867c4c","bdp_td","Mon Mar 27 2023 10:47:57 GMT-0700 (Mountain Standard Time)","147736","","null","","","","offerFB","","<div class='trialBorder'><div class='vertical-center'><img style='vertical-align:center; align:center' src=img/fixation3.jpg></div><div class='cl'><div class='vertical-center'><font style='color:orange'>$85<br>in<br>1 week</font></div></div><div class='cr'><div class='vertical-center'>$31<br><br>now</div></div><div class='respDivL'><div class='vertical-center'><font style='color:orange'>(E)</font></div></div><div class='respDivR'><div class='vertical-center'>(I)</div></div></div>","null","$31<br><br>now","$85<br>in<br>1 week","1","31","85","1",""
"html-keyboard-response","82","144067","0.0-5.0-1.26","63d1401242635aaffe867c4c","bdp_td","Mon Mar 27 2023 10:47:57 GMT-0700 (Mountain Standard Time)","147736","","null","","","","FIX","","<div class='trialBorder'><div class='vertical-center'><img style='vertical-align:center; align:center' src=img/fixation3.jpg></div></div>","null","","","","","","",""
"html-keyboard-response","83","146483","0.0-5.0-2.26","63d1401242635aaffe867c4c","bdp_td","Mon Mar 27 2023 10:47:57 GMT-0700 (Mountain Standard Time)","147736","","2415","","","","offer","","<div class='trialBorder'><div class='vertical-center'><img style='vertical-align:center; align:center' src=img/fixation3.jpg></div><div class='cl'><div class='vertical-center'>$55<br><br>now</div></div><div class='cr'><div class='vertical-center'>$75<br>in<br>6 weeks</div></div><div class='respDivL'><div class='vertical-center'>(E)</div></div><div class='respDivR'><div class='vertical-center'>(I)</div></div></div>","I","$55<br><br>now","$75<br>in<br>6 weeks","0","55","75","6","THEN"
"html-keyboard-response","84","146735","0.0-5.0-3.26","63d1401242635aaffe867c4c","bdp_td","Mon Mar 27 2023 10:47:57 GMT-0700 (Mountain Standard Time)","147736","","null","","","","offerFB","","<div class='trialBorder'><div class='vertical-center'><img style='vertical-align:center; align:center' src=img/fixation3.jpg></div><div class='cl'><div class='vertical-center'>$55<br><br>now</div></div><div class='cr'><div class='vertical-center'><font style='color:orange'>$75<br>in<br>6 weeks</font></div></div><div class='respDivL'><div class='vertical-center'>(E)</div></div><div class='respDivR'><div class='vertical-center'><font style='color:orange'>(I)</font></div></div></div>","null","$55<br><br>now","$75<br>in<br>6 weeks","0","55","75","6",""
"","","","","63d1401242635aaffe867c4c","bdp_td","Mon Mar 27 2023 10:47:57 GMT-0700 (Mountain Standard Time)","147736","","","fullscreenexit","85","146749","fullscreenexit","","","","","","","","","",""
"fullscreen","85","147735","0.0-6.0","63d1401242635aaffe867c4c","bdp_td","Mon Mar 27 2023 10:47:57 GMT-0700 (Mountain Standard Time)","147736","","","","","","","true","","","","","","","","",""
"html-keyboard-response","86","148237","0.0-7.0","","","","","","null","","","","","","","null","","","","","","",""
