"trial_type","trial_index","time_elapsed","internal_node_id","subject_id","task","startTime","totalTime","view_history","rt","event","trial","time","trialtype","success","stimulus","key_press","nowOffer","thenOffer","thenLeft","nowAmt","thenAmt","thenWeeks","chosen"
"pavlovia","0","2","0.0-0.0","5df1133b99b28201e0a1181c","bdp_td","Sat Mar 25 2023 23:47:20 GMT-0400 (Eastern Daylight Time)","78934","","","","","","","","","","","","","","","",""
"instructions","1","1157","0.0-1.0","5df1133b99b28201e0a1181c","bdp_td","Sat Mar 25 2023 23:47:20 GMT-0400 (Eastern Daylight Time)","78934","[{""page_index"":0,""viewing_time"":1155}]","1155","","","","","","","","","","","","","",""
"","","","","5df1133b99b28201e0a1181c","bdp_td","Sat Mar 25 2023 23:47:20 GMT-0400 (Eastern Daylight Time)","78934","","","fullscreenenter","2","2541","fullscreenenter","","","","","","","","","",""
"fullscreen","2","3525","0.0-2.0","5df1133b99b28201e0a1181c","bdp_td","Sat Mar 25 2023 23:47:20 GMT-0400 (Eastern Daylight Time)","78934","","","","","","","true","","","","","","","","",""
"instructions","3","13919","0.0-4.0","5df1133b99b28201e0a1181c","bdp_td","Sat Mar 25 2023 23:47:20 GMT-0400 (Eastern Daylight Time)","78934","[{""page_index"":0,""viewing_time"":3144},{""page_index"":1,""viewing_time"":4964},{""page_index"":2,""viewing_time"":2286}]","10394","","","","","","","","","","","","","",""
"html-keyboard-response","4","14421","0.0-5.0-1.0","5df1133b99b28201e0a1181c","bdp_td","Sat Mar 25 2023 23:47:20 GMT-0400 (Eastern Daylight Time)","78934","","null","","","","FIX","","<div class='trialBorder'><div class='vertical-center'><img style='vertical-align:center; align:center' src=img/fixation3.jpg></div></div>","null","","","","","","",""
"html-keyboard-response","5","16629","0.0-5.0-2.0","5df1133b99b28201e0a1181c","bdp_td","Sat Mar 25 2023 23:47:20 GMT-0400 (Eastern Daylight Time)","78934","","2208","","","","offer","","<div class='trialBorder'><div class='vertical-center'><img style='vertical-align:center; align:center' src=img/fixation3.jpg></div><div class='cl'><div class='vertical-center'>$60<br>in<br>3 weeks</div></div><div class='cr'><div class='vertical-center'>$25<br><br>now</div></div><div class='respDivL'><div class='vertical-center'>(E)</div></div><div class='respDivR'><div class='vertical-center'>(I)</div></div></div>","E","$25<br><br>now","$60<br>in<br>3 weeks","1","25","60","3","THEN"
"html-keyboard-response","6","16881","0.0-5.0-3.0","5df1133b99b28201e0a1181c","bdp_td","Sat Mar 25 2023 23:47:20 GMT-0400 (Eastern Daylight Time)","78934","","null","","","","offerFB","","<div class='trialBorder'><div class='vertical-center'><img style='vertical-align:center; align:center' src=img/fixation3.jpg></div><div class='cl'><div class='vertical-center'><font style='color:orange'>$60<br>in<br>3 weeks</font></div></div><div class='cr'><div class='vertical-center'>$25<br><br>now</div></div><div class='respDivL'><div class='vertical-center'><font style='color:orange'>(E)</font></div></div><div class='respDivR'><div class='vertical-center'>(I)</div></div></div>","null","$25<br><br>now","$60<br>in<br>3 weeks","1","25","60","3",""
"html-keyboard-response","7","17383","0.0-5.0-1.1","5df1133b99b28201e0a1181c","bdp_td","Sat Mar 25 2023 23:47:20 GMT-0400 (Eastern Daylight Time)","78934","","null","","","","FIX","","<div class='trialBorder'><div class='vertical-center'><img style='vertical-align:center; align:center' src=img/fixation3.jpg></div></div>","null","","","","","","",""
"html-keyboard-response","8","19094","0.0-5.0-2.1","5df1133b99b28201e0a1181c","bdp_td","Sat Mar 25 2023 23:47:20 GMT-0400 (Eastern Daylight Time)","78934","","1711","","","","offer","","<div class='trialBorder'><div class='vertical-center'><img style='vertical-align:center; align:center' src=img/fixation3.jpg></div><div class='cl'><div class='vertical-center'>$67<br><br>now</div></div><div class='cr'><div class='vertical-center'>$75<br>in<br>12 weeks</div></div><div class='respDivL'><div class='vertical-center'>(E)</div></div><div class='respDivR'><div class='vertical-center'>(I)</div></div></div>","I","$67<br><br>now","$75<br>in<br>12 weeks","0","67","75","12","THEN"
"html-keyboard-response","9","19346","0.0-5.0-3.1","5df1133b99b28201e0a1181c","bdp_td","Sat Mar 25 2023 23:47:20 GMT-0400 (Eastern Daylight Time)","78934","","null","","","","offerFB","","<div class='trialBorder'><div class='vertical-center'><img style='vertical-align:center; align:center' src=img/fixation3.jpg></div><div class='cl'><div class='vertical-center'>$67<br><br>now</div></div><div class='cr'><div class='vertical-center'><font style='color:orange'>$75<br>in<br>12 weeks</font></div></div><div class='respDivL'><div class='vertical-center'>(E)</div></div><div class='respDivR'><div class='vertical-center'><font style='color:orange'>(I)</font></div></div></div>","null","$67<br><br>now","$75<br>in<br>12 weeks","0","67","75","12",""
"html-keyboard-response","10","19848","0.0-5.0-1.2","5df1133b99b28201e0a1181c","bdp_td","Sat Mar 25 2023 23:47:20 GMT-0400 (Eastern Daylight Time)","78934","","null","","","","FIX","","<div class='trialBorder'><div class='vertical-center'><img style='vertical-align:center; align:center' src=img/fixation3.jpg></div></div>","null","","","","","","",""
"html-keyboard-response","11","22435","0.0-5.0-2.2","5df1133b99b28201e0a1181c","bdp_td","Sat Mar 25 2023 23:47:20 GMT-0400 (Eastern Daylight Time)","78934","","2586","","","","offer","","<div class='trialBorder'><div class='vertical-center'><img style='vertical-align:center; align:center' src=img/fixation3.jpg></div><div class='cl'><div class='vertical-center'>$60<br>in<br>12 weeks</div></div><div class='cr'><div class='vertical-center'>$54<br><br>now</div></div><div class='respDivL'><div class='vertical-center'>(E)</div></div><div class='respDivR'><div class='vertical-center'>(I)</div></div></div>","I","$54<br><br>now","$60<br>in<br>12 weeks","1","54","60","12","NOW"
"html-keyboard-response","12","22686","0.0-5.0-3.2","5df1133b99b28201e0a1181c","bdp_td","Sat Mar 25 2023 23:47:20 GMT-0400 (Eastern Daylight Time)","78934","","null","","","","offerFB","","<div class='trialBorder'><div class='vertical-center'><img style='vertical-align:center; align:center' src=img/fixation3.jpg></div><div class='cl'><div class='vertical-center'>$60<br>in<br>12 weeks</div></div><div class='cr'><div class='vertical-center'><font style='color:orange'>$54<br><br>now</font></div></div><div class='respDivL'><div class='vertical-center'>(E)</div></div><div class='respDivR'><div class='vertical-center'><font style='color:orange'>(I)</font></div></div></div>","null","$54<br><br>now","$60<br>in<br>12 weeks","1","54","60","12",""
"html-keyboard-response","13","23187","0.0-5.0-1.3","5df1133b99b28201e0a1181c","bdp_td","Sat Mar 25 2023 23:47:20 GMT-0400 (Eastern Daylight Time)","78934","","null","","","","FIX","","<div class='trialBorder'><div class='vertical-center'><img style='vertical-align:center; align:center' src=img/fixation3.jpg></div></div>","null","","","","","","",""
"html-keyboard-response","14","24628","0.0-5.0-2.3","5df1133b99b28201e0a1181c","bdp_td","Sat Mar 25 2023 23:47:20 GMT-0400 (Eastern Daylight Time)","78934","","1440","","","","offer","","<div class='trialBorder'><div class='vertical-center'><img style='vertical-align:center; align:center' src=img/fixation3.jpg></div><div class='cl'><div class='vertical-center'>$80<br>in<br>2 weeks</div></div><div class='cr'><div class='vertical-center'>$33<br><br>now</div></div><div class='respDivL'><div class='vertical-center'>(E)</div></div><div class='respDivR'><div class='vertical-center'>(I)</div></div></div>","E","$33<br><br>now","$80<br>in<br>2 weeks","1","33","80","2","THEN"
"html-keyboard-response","15","24880","0.0-5.0-3.3","5df1133b99b28201e0a1181c","bdp_td","Sat Mar 25 2023 23:47:20 GMT-0400 (Eastern Daylight Time)","78934","","null","","","","offerFB","","<div class='trialBorder'><div class='vertical-center'><img style='vertical-align:center; align:center' src=img/fixation3.jpg></div><div class='cl'><div class='vertical-center'><font style='color:orange'>$80<br>in<br>2 weeks</font></div></div><div class='cr'><div class='vertical-center'>$33<br><br>now</div></div><div class='respDivL'><div class='vertical-center'><font style='color:orange'>(E)</font></div></div><div class='respDivR'><div class='vertical-center'>(I)</div></div></div>","null","$33<br><br>now","$80<br>in<br>2 weeks","1","33","80","2",""
"html-keyboard-response","16","25381","0.0-5.0-1.4","5df1133b99b28201e0a1181c","bdp_td","Sat Mar 25 2023 23:47:20 GMT-0400 (Eastern Daylight Time)","78934","","null","","","","FIX","","<div class='trialBorder'><div class='vertical-center'><img style='vertical-align:center; align:center' src=img/fixation3.jpg></div></div>","null","","","","","","",""
"html-keyboard-response","17","26850","0.0-5.0-2.4","5df1133b99b28201e0a1181c","bdp_td","Sat Mar 25 2023 23:47:20 GMT-0400 (Eastern Daylight Time)","78934","","1469","","","","offer","","<div class='trialBorder'><div class='vertical-center'><img style='vertical-align:center; align:center' src=img/fixation3.jpg></div><div class='cl'><div class='vertical-center'>$54<br><br>now</div></div><div class='cr'><div class='vertical-center'>$80<br>in<br>3 weeks</div></div><div class='respDivL'><div class='vertical-center'>(E)</div></div><div class='respDivR'><div class='vertical-center'>(I)</div></div></div>","I","$54<br><br>now","$80<br>in<br>3 weeks","0","54","80","3","THEN"
"html-keyboard-response","18","27101","0.0-5.0-3.4","5df1133b99b28201e0a1181c","bdp_td","Sat Mar 25 2023 23:47:20 GMT-0400 (Eastern Daylight Time)","78934","","null","","","","offerFB","","<div class='trialBorder'><div class='vertical-center'><img style='vertical-align:center; align:center' src=img/fixation3.jpg></div><div class='cl'><div class='vertical-center'>$54<br><br>now</div></div><div class='cr'><div class='vertical-center'><font style='color:orange'>$80<br>in<br>3 weeks</font></div></div><div class='respDivL'><div class='vertical-center'>(E)</div></div><div class='respDivR'><div class='vertical-center'><font style='color:orange'>(I)</font></div></div></div>","null","$54<br><br>now","$80<br>in<br>3 weeks","0","54","80","3",""
"html-keyboard-response","19","27602","0.0-5.0-1.5","5df1133b99b28201e0a1181c","bdp_td","Sat Mar 25 2023 23:47:20 GMT-0400 (Eastern Daylight Time)","78934","","null","","","","FIX","","<div class='trialBorder'><div class='vertical-center'><img style='vertical-align:center; align:center' src=img/fixation3.jpg></div></div>","null","","","","","","",""
"html-keyboard-response","20","29222","0.0-5.0-2.5","5df1133b99b28201e0a1181c","bdp_td","Sat Mar 25 2023 23:47:20 GMT-0400 (Eastern Daylight Time)","78934","","1619","","","","offer","","<div class='trialBorder'><div class='vertical-center'><img style='vertical-align:center; align:center' src=img/fixation3.jpg></div><div class='cl'><div class='vertical-center'>$35<br>in<br>3 weeks</div></div><div class='cr'><div class='vertical-center'>$24<br><br>now</div></div><div class='respDivL'><div class='vertical-center'>(E)</div></div><div class='respDivR'><div class='vertical-center'>(I)</div></div></div>","E","$24<br><br>now","$35<br>in<br>3 weeks","1","24","35","3","THEN"
"html-keyboard-response","21","29473","0.0-5.0-3.5","5df1133b99b28201e0a1181c","bdp_td","Sat Mar 25 2023 23:47:20 GMT-0400 (Eastern Daylight Time)","78934","","null","","","","offerFB","","<div class='trialBorder'><div class='vertical-center'><img style='vertical-align:center; align:center' src=img/fixation3.jpg></div><div class='cl'><div class='vertical-center'><font style='color:orange'>$35<br>in<br>3 weeks</font></div></div><div class='cr'><div class='vertical-center'>$24<br><br>now</div></div><div class='respDivL'><div class='vertical-center'><font style='color:orange'>(E)</font></div></div><div class='respDivR'><div class='vertical-center'>(I)</div></div></div>","null","$24<br><br>now","$35<br>in<br>3 weeks","1","24","35","3",""
"html-keyboard-response","22","29974","0.0-5.0-1.6","5df1133b99b28201e0a1181c","bdp_td","Sat Mar 25 2023 23:47:20 GMT-0400 (Eastern Daylight Time)","78934","","null","","","","FIX","","<div class='trialBorder'><div class='vertical-center'><img style='vertical-align:center; align:center' src=img/fixation3.jpg></div></div>","null","","","","","","",""
"html-keyboard-response","23","31508","0.0-5.0-2.6","5df1133b99b28201e0a1181c","bdp_td","Sat Mar 25 2023 23:47:20 GMT-0400 (Eastern Daylight Time)","78934","","1534","","","","offer","","<div class='trialBorder'><div class='vertical-center'><img style='vertical-align:center; align:center' src=img/fixation3.jpg></div><div class='cl'><div class='vertical-center'>$20<br><br>now</div></div><div class='cr'><div class='vertical-center'>$55<br>in<br>1 week</div></div><div class='respDivL'><div class='vertical-center'>(E)</div></div><div class='respDivR'><div class='vertical-center'>(I)</div></div></div>","I","$20<br><br>now","$55<br>in<br>1 week","0","20","55","1","THEN"
"html-keyboard-response","24","31760","0.0-5.0-3.6","5df1133b99b28201e0a1181c","bdp_td","Sat Mar 25 2023 23:47:20 GMT-0400 (Eastern Daylight Time)","78934","","null","","","","offerFB","","<div class='trialBorder'><div class='vertical-center'><img style='vertical-align:center; align:center' src=img/fixation3.jpg></div><div class='cl'><div class='vertical-center'>$20<br><br>now</div></div><div class='cr'><div class='vertical-center'><font style='color:orange'>$55<br>in<br>1 week</font></div></div><div class='respDivL'><div class='vertical-center'>(E)</div></div><div class='respDivR'><div class='vertical-center'><font style='color:orange'>(I)</font></div></div></div>","null","$20<br><br>now","$55<br>in<br>1 week","0","20","55","1",""
"html-keyboard-response","25","32261","0.0-5.0-1.7","5df1133b99b28201e0a1181c","bdp_td","Sat Mar 25 2023 23:47:20 GMT-0400 (Eastern Daylight Time)","78934","","null","","","","FIX","","<div class='trialBorder'><div class='vertical-center'><img style='vertical-align:center; align:center' src=img/fixation3.jpg></div></div>","null","","","","","","",""
"html-keyboard-response","26","35363","0.0-5.0-2.7","5df1133b99b28201e0a1181c","bdp_td","Sat Mar 25 2023 23:47:20 GMT-0400 (Eastern Daylight Time)","78934","","3102","","","","offer","","<div class='trialBorder'><div class='vertical-center'><img style='vertical-align:center; align:center' src=img/fixation3.jpg></div><div class='cl'><div class='vertical-center'>$25<br>in<br>6 weeks</div></div><div class='cr'><div class='vertical-center'>$19<br><br>now</div></div><div class='respDivL'><div class='vertical-center'>(E)</div></div><div class='respDivR'><div class='vertical-center'>(I)</div></div></div>","I","$19<br><br>now","$25<br>in<br>6 weeks","1","19","25","6","NOW"
"html-keyboard-response","27","35615","0.0-5.0-3.7","5df1133b99b28201e0a1181c","bdp_td","Sat Mar 25 2023 23:47:20 GMT-0400 (Eastern Daylight Time)","78934","","null","","","","offerFB","","<div class='trialBorder'><div class='vertical-center'><img style='vertical-align:center; align:center' src=img/fixation3.jpg></div><div class='cl'><div class='vertical-center'>$25<br>in<br>6 weeks</div></div><div class='cr'><div class='vertical-center'><font style='color:orange'>$19<br><br>now</font></div></div><div class='respDivL'><div class='vertical-center'>(E)</div></div><div class='respDivR'><div class='vertical-center'><font style='color:orange'>(I)</font></div></div></div>","null","$19<br><br>now","$25<br>in<br>6 weeks","1","19","25","6",""
"html-keyboard-response","28","36116","0.0-5.0-1.8","5df1133b99b28201e0a1181c","bdp_td","Sat Mar 25 2023 23:47:20 GMT-0400 (Eastern Daylight Time)","78934","","null","","","","FIX","","<div class='trialBorder'><div class='vertical-center'><img style='vertical-align:center; align:center' src=img/fixation3.jpg></div></div>","null","","","","","","",""
"html-keyboard-response","29","37472","0.0-5.0-2.8","5df1133b99b28201e0a1181c","bdp_td","Sat Mar 25 2023 23:47:20 GMT-0400 (Eastern Daylight Time)","78934","","1355","","","","offer","","<div class='trialBorder'><div class='vertical-center'><img style='vertical-align:center; align:center' src=img/fixation3.jpg></div><div class='cl'><div class='vertical-center'>$31<br><br>now</div></div><div class='cr'><div class='vertical-center'>$85<br>in<br>1 week</div></div><div class='respDivL'><div class='vertical-center'>(E)</div></div><div class='respDivR'><div class='vertical-center'>(I)</div></div></div>","I","$31<br><br>now","$85<br>in<br>1 week","0","31","85","1","THEN"
"html-keyboard-response","30","37723","0.0-5.0-3.8","5df1133b99b28201e0a1181c","bdp_td","Sat Mar 25 2023 23:47:20 GMT-0400 (Eastern Daylight Time)","78934","","null","","","","offerFB","","<div class='trialBorder'><div class='vertical-center'><img style='vertical-align:center; align:center' src=img/fixation3.jpg></div><div class='cl'><div class='vertical-center'>$31<br><br>now</div></div><div class='cr'><div class='vertical-center'><font style='color:orange'>$85<br>in<br>1 week</font></div></div><div class='respDivL'><div class='vertical-center'>(E)</div></div><div class='respDivR'><div class='vertical-center'><font style='color:orange'>(I)</font></div></div></div>","null","$31<br><br>now","$85<br>in<br>1 week","0","31","85","1",""
"html-keyboard-response","31","38225","0.0-5.0-1.9","5df1133b99b28201e0a1181c","bdp_td","Sat Mar 25 2023 23:47:20 GMT-0400 (Eastern Daylight Time)","78934","","null","","","","FIX","","<div class='trialBorder'><div class='vertical-center'><img style='vertical-align:center; align:center' src=img/fixation3.jpg></div></div>","null","","","","","","",""
"html-keyboard-response","32","39408","0.0-5.0-2.9","5df1133b99b28201e0a1181c","bdp_td","Sat Mar 25 2023 23:47:20 GMT-0400 (Eastern Daylight Time)","78934","","1183","","","","offer","","<div class='trialBorder'><div class='vertical-center'><img style='vertical-align:center; align:center' src=img/fixation3.jpg></div><div class='cl'><div class='vertical-center'>$85<br>in<br>6 weeks</div></div><div class='cr'><div class='vertical-center'>$69<br><br>now</div></div><div class='respDivL'><div class='vertical-center'>(E)</div></div><div class='respDivR'><div class='vertical-center'>(I)</div></div></div>","E","$69<br><br>now","$85<br>in<br>6 weeks","1","69","85","6","THEN"
"html-keyboard-response","33","39660","0.0-5.0-3.9","5df1133b99b28201e0a1181c","bdp_td","Sat Mar 25 2023 23:47:20 GMT-0400 (Eastern Daylight Time)","78934","","null","","","","offerFB","","<div class='trialBorder'><div class='vertical-center'><img style='vertical-align:center; align:center' src=img/fixation3.jpg></div><div class='cl'><div class='vertical-center'><font style='color:orange'>$85<br>in<br>6 weeks</font></div></div><div class='cr'><div class='vertical-center'>$69<br><br>now</div></div><div class='respDivL'><div class='vertical-center'><font style='color:orange'>(E)</font></div></div><div class='respDivR'><div class='vertical-center'>(I)</div></div></div>","null","$69<br><br>now","$85<br>in<br>6 weeks","1","69","85","6",""
"html-keyboard-response","34","40161","0.0-5.0-1.10","5df1133b99b28201e0a1181c","bdp_td","Sat Mar 25 2023 23:47:20 GMT-0400 (Eastern Daylight Time)","78934","","null","","","","FIX","","<div class='trialBorder'><div class='vertical-center'><img style='vertical-align:center; align:center' src=img/fixation3.jpg></div></div>","null","","","","","","",""
"html-keyboard-response","35","41238","0.0-5.0-2.10","5df1133b99b28201e0a1181c","bdp_td","Sat Mar 25 2023 23:47:20 GMT-0400 (Eastern Daylight Time)","78934","","1077","","","","offer","","<div class='trialBorder'><div class='vertical-center'><img style='vertical-align:center; align:center' src=img/fixation3.jpg></div><div class='cl'><div class='vertical-center'>$34<br><br>now</div></div><div class='cr'><div class='vertical-center'>$50<br>in<br>6 weeks</div></div><div class='respDivL'><div class='vertical-center'>(E)</div></div><div class='respDivR'><div class='vertical-center'>(I)</div></div></div>","I","$34<br><br>now","$50<br>in<br>6 weeks","0","34","50","6","THEN"
"html-keyboard-response","36","41489","0.0-5.0-3.10","5df1133b99b28201e0a1181c","bdp_td","Sat Mar 25 2023 23:47:20 GMT-0400 (Eastern Daylight Time)","78934","","null","","","","offerFB","","<div class='trialBorder'><div class='vertical-center'><img style='vertical-align:center; align:center' src=img/fixation3.jpg></div><div class='cl'><div class='vertical-center'>$34<br><br>now</div></div><div class='cr'><div class='vertical-center'><font style='color:orange'>$50<br>in<br>6 weeks</font></div></div><div class='respDivL'><div class='vertical-center'>(E)</div></div><div class='respDivR'><div class='vertical-center'><font style='color:orange'>(I)</font></div></div></div>","null","$34<br><br>now","$50<br>in<br>6 weeks","0","34","50","6",""
"html-keyboard-response","37","41991","0.0-5.0-1.11","5df1133b99b28201e0a1181c","bdp_td","Sat Mar 25 2023 23:47:20 GMT-0400 (Eastern Daylight Time)","78934","","null","","","","FIX","","<div class='trialBorder'><div class='vertical-center'><img style='vertical-align:center; align:center' src=img/fixation3.jpg></div></div>","null","","","","","","",""
"html-keyboard-response","38","43371","0.0-5.0-2.11","5df1133b99b28201e0a1181c","bdp_td","Sat Mar 25 2023 23:47:20 GMT-0400 (Eastern Daylight Time)","78934","","1379","","","","offer","","<div class='trialBorder'><div class='vertical-center'><img style='vertical-align:center; align:center' src=img/fixation3.jpg></div><div class='cl'><div class='vertical-center'>$50<br>in<br>12 weeks</div></div><div class='cr'><div class='vertical-center'>$47<br><br>now</div></div><div class='respDivL'><div class='vertical-center'>(E)</div></div><div class='respDivR'><div class='vertical-center'>(I)</div></div></div>","E","$47<br><br>now","$50<br>in<br>12 weeks","1","47","50","12","THEN"
"html-keyboard-response","39","43622","0.0-5.0-3.11","5df1133b99b28201e0a1181c","bdp_td","Sat Mar 25 2023 23:47:20 GMT-0400 (Eastern Daylight Time)","78934","","null","","","","offerFB","","<div class='trialBorder'><div class='vertical-center'><img style='vertical-align:center; align:center' src=img/fixation3.jpg></div><div class='cl'><div class='vertical-center'><font style='color:orange'>$50<br>in<br>12 weeks</font></div></div><div class='cr'><div class='vertical-center'>$47<br><br>now</div></div><div class='respDivL'><div class='vertical-center'><font style='color:orange'>(E)</font></div></div><div class='respDivR'><div class='vertical-center'>(I)</div></div></div>","null","$47<br><br>now","$50<br>in<br>12 weeks","1","47","50","12",""
"html-keyboard-response","40","44123","0.0-5.0-1.12","5df1133b99b28201e0a1181c","bdp_td","Sat Mar 25 2023 23:47:20 GMT-0400 (Eastern Daylight Time)","78934","","null","","","","FIX","","<div class='trialBorder'><div class='vertical-center'><img style='vertical-align:center; align:center' src=img/fixation3.jpg></div></div>","null","","","","","","",""
"html-keyboard-response","41","47378","0.0-5.0-2.12","5df1133b99b28201e0a1181c","bdp_td","Sat Mar 25 2023 23:47:20 GMT-0400 (Eastern Daylight Time)","78934","","3254","","","","offer","","<div class='trialBorder'><div class='vertical-center'><img style='vertical-align:center; align:center' src=img/fixation3.jpg></div><div class='cl'><div class='vertical-center'>$25<br>in<br>12 weeks</div></div><div class='cr'><div class='vertical-center'>$22<br><br>now</div></div><div class='respDivL'><div class='vertical-center'>(E)</div></div><div class='respDivR'><div class='vertical-center'>(I)</div></div></div>","I","$22<br><br>now","$25<br>in<br>12 weeks","1","22","25","12","NOW"
"html-keyboard-response","42","47629","0.0-5.0-3.12","5df1133b99b28201e0a1181c","bdp_td","Sat Mar 25 2023 23:47:20 GMT-0400 (Eastern Daylight Time)","78934","","null","","","","offerFB","","<div class='trialBorder'><div class='vertical-center'><img style='vertical-align:center; align:center' src=img/fixation3.jpg></div><div class='cl'><div class='vertical-center'>$25<br>in<br>12 weeks</div></div><div class='cr'><div class='vertical-center'><font style='color:orange'>$22<br><br>now</font></div></div><div class='respDivL'><div class='vertical-center'>(E)</div></div><div class='respDivR'><div class='vertical-center'><font style='color:orange'>(I)</font></div></div></div>","null","$22<br><br>now","$25<br>in<br>12 weeks","1","22","25","12",""
"html-keyboard-response","43","48131","0.0-5.0-1.13","5df1133b99b28201e0a1181c","bdp_td","Sat Mar 25 2023 23:47:20 GMT-0400 (Eastern Daylight Time)","78934","","null","","","","FIX","","<div class='trialBorder'><div class='vertical-center'><img style='vertical-align:center; align:center' src=img/fixation3.jpg></div></div>","null","","","","","","",""
"html-keyboard-response","44","50115","0.0-5.0-2.13","5df1133b99b28201e0a1181c","bdp_td","Sat Mar 25 2023 23:47:20 GMT-0400 (Eastern Daylight Time)","78934","","1984","","","","offer","","<div class='trialBorder'><div class='vertical-center'><img style='vertical-align:center; align:center' src=img/fixation3.jpg></div><div class='cl'><div class='vertical-center'>$60<br>in<br>6 weeks</div></div><div class='cr'><div class='vertical-center'>$49<br><br>now</div></div><div class='respDivL'><div class='vertical-center'>(E)</div></div><div class='respDivR'><div class='vertical-center'>(I)</div></div></div>","E","$49<br><br>now","$60<br>in<br>6 weeks","1","49","60","6","THEN"
"html-keyboard-response","45","50366","0.0-5.0-3.13","5df1133b99b28201e0a1181c","bdp_td","Sat Mar 25 2023 23:47:20 GMT-0400 (Eastern Daylight Time)","78934","","null","","","","offerFB","","<div class='trialBorder'><div class='vertical-center'><img style='vertical-align:center; align:center' src=img/fixation3.jpg></div><div class='cl'><div class='vertical-center'><font style='color:orange'>$60<br>in<br>6 weeks</font></div></div><div class='cr'><div class='vertical-center'>$49<br><br>now</div></div><div class='respDivL'><div class='vertical-center'><font style='color:orange'>(E)</font></div></div><div class='respDivR'><div class='vertical-center'>(I)</div></div></div>","null","$49<br><br>now","$60<br>in<br>6 weeks","1","49","60","6",""
"html-keyboard-response","46","50869","0.0-5.0-1.14","5df1133b99b28201e0a1181c","bdp_td","Sat Mar 25 2023 23:47:20 GMT-0400 (Eastern Daylight Time)","78934","","null","","","","FIX","","<div class='trialBorder'><div class='vertical-center'><img style='vertical-align:center; align:center' src=img/fixation3.jpg></div></div>","null","","","","","","",""
"html-keyboard-response","47","52232","0.0-5.0-2.14","5df1133b99b28201e0a1181c","bdp_td","Sat Mar 25 2023 23:47:20 GMT-0400 (Eastern Daylight Time)","78934","","1363","","","","offer","","<div class='trialBorder'><div class='vertical-center'><img style='vertical-align:center; align:center' src=img/fixation3.jpg></div><div class='cl'><div class='vertical-center'>$41<br><br>now</div></div><div class='cr'><div class='vertical-center'>$75<br>in<br>3 weeks</div></div><div class='respDivL'><div class='vertical-center'>(E)</div></div><div class='respDivR'><div class='vertical-center'>(I)</div></div></div>","I","$41<br><br>now","$75<br>in<br>3 weeks","0","41","75","3","THEN"
"html-keyboard-response","48","52483","0.0-5.0-3.14","5df1133b99b28201e0a1181c","bdp_td","Sat Mar 25 2023 23:47:20 GMT-0400 (Eastern Daylight Time)","78934","","null","","","","offerFB","","<div class='trialBorder'><div class='vertical-center'><img style='vertical-align:center; align:center' src=img/fixation3.jpg></div><div class='cl'><div class='vertical-center'>$41<br><br>now</div></div><div class='cr'><div class='vertical-center'><font style='color:orange'>$75<br>in<br>3 weeks</font></div></div><div class='respDivL'><div class='vertical-center'>(E)</div></div><div class='respDivR'><div class='vertical-center'><font style='color:orange'>(I)</font></div></div></div>","null","$41<br><br>now","$75<br>in<br>3 weeks","0","41","75","3",""
"html-keyboard-response","49","52984","0.0-5.0-1.15","5df1133b99b28201e0a1181c","bdp_td","Sat Mar 25 2023 23:47:20 GMT-0400 (Eastern Daylight Time)","78934","","null","","","","FIX","","<div class='trialBorder'><div class='vertical-center'><img style='vertical-align:center; align:center' src=img/fixation3.jpg></div></div>","null","","","","","","",""
"html-keyboard-response","50","54205","0.0-5.0-2.15","5df1133b99b28201e0a1181c","bdp_td","Sat Mar 25 2023 23:47:20 GMT-0400 (Eastern Daylight Time)","78934","","1219","","","","offer","","<div class='trialBorder'><div class='vertical-center'><img style='vertical-align:center; align:center' src=img/fixation3.jpg></div><div class='cl'><div class='vertical-center'>$11<br><br>now</div></div><div class='cr'><div class='vertical-center'>$30<br>in<br>2 weeks</div></div><div class='respDivL'><div class='vertical-center'>(E)</div></div><div class='respDivR'><div class='vertical-center'>(I)</div></div></div>","I","$11<br><br>now","$30<br>in<br>2 weeks","0","11","30","2","THEN"
"html-keyboard-response","51","54457","0.0-5.0-3.15","5df1133b99b28201e0a1181c","bdp_td","Sat Mar 25 2023 23:47:20 GMT-0400 (Eastern Daylight Time)","78934","","null","","","","offerFB","","<div class='trialBorder'><div class='vertical-center'><img style='vertical-align:center; align:center' src=img/fixation3.jpg></div><div class='cl'><div class='vertical-center'>$11<br><br>now</div></div><div class='cr'><div class='vertical-center'><font style='color:orange'>$30<br>in<br>2 weeks</font></div></div><div class='respDivL'><div class='vertical-center'>(E)</div></div><div class='respDivR'><div class='vertical-center'><font style='color:orange'>(I)</font></div></div></div>","null","$11<br><br>now","$30<br>in<br>2 weeks","0","11","30","2",""
"html-keyboard-response","52","54958","0.0-5.0-1.16","5df1133b99b28201e0a1181c","bdp_td","Sat Mar 25 2023 23:47:20 GMT-0400 (Eastern Daylight Time)","78934","","null","","","","FIX","","<div class='trialBorder'><div class='vertical-center'><img style='vertical-align:center; align:center' src=img/fixation3.jpg></div></div>","null","","","","","","",""
"html-keyboard-response","53","55971","0.0-5.0-2.16","5df1133b99b28201e0a1181c","bdp_td","Sat Mar 25 2023 23:47:20 GMT-0400 (Eastern Daylight Time)","78934","","1012","","","","offer","","<div class='trialBorder'><div class='vertical-center'><img style='vertical-align:center; align:center' src=img/fixation3.jpg></div><div class='cl'><div class='vertical-center'>$85<br>in<br>12 weeks</div></div><div class='cr'><div class='vertical-center'>$80<br><br>now</div></div><div class='respDivL'><div class='vertical-center'>(E)</div></div><div class='respDivR'><div class='vertical-center'>(I)</div></div></div>","E","$80<br><br>now","$85<br>in<br>12 weeks","1","80","85","12","THEN"
"html-keyboard-response","54","56222","0.0-5.0-3.16","5df1133b99b28201e0a1181c","bdp_td","Sat Mar 25 2023 23:47:20 GMT-0400 (Eastern Daylight Time)","78934","","null","","","","offerFB","","<div class='trialBorder'><div class='vertical-center'><img style='vertical-align:center; align:center' src=img/fixation3.jpg></div><div class='cl'><div class='vertical-center'><font style='color:orange'>$85<br>in<br>12 weeks</font></div></div><div class='cr'><div class='vertical-center'>$80<br><br>now</div></div><div class='respDivL'><div class='vertical-center'><font style='color:orange'>(E)</font></div></div><div class='respDivR'><div class='vertical-center'>(I)</div></div></div>","null","$80<br><br>now","$85<br>in<br>12 weeks","1","80","85","12",""
"html-keyboard-response","55","56724","0.0-5.0-1.17","5df1133b99b28201e0a1181c","bdp_td","Sat Mar 25 2023 23:47:20 GMT-0400 (Eastern Daylight Time)","78934","","null","","","","FIX","","<div class='trialBorder'><div class='vertical-center'><img style='vertical-align:center; align:center' src=img/fixation3.jpg></div></div>","null","","","","","","",""
"html-keyboard-response","56","58215","0.0-5.0-2.17","5df1133b99b28201e0a1181c","bdp_td","Sat Mar 25 2023 23:47:20 GMT-0400 (Eastern Daylight Time)","78934","","1490","","","","offer","","<div class='trialBorder'><div class='vertical-center'><img style='vertical-align:center; align:center' src=img/fixation3.jpg></div><div class='cl'><div class='vertical-center'>$40<br><br>now</div></div><div class='cr'><div class='vertical-center'>$55<br>in<br>6 weeks</div></div><div class='respDivL'><div class='vertical-center'>(E)</div></div><div class='respDivR'><div class='vertical-center'>(I)</div></div></div>","I","$40<br><br>now","$55<br>in<br>6 weeks","0","40","55","6","THEN"
"html-keyboard-response","57","58467","0.0-5.0-3.17","5df1133b99b28201e0a1181c","bdp_td","Sat Mar 25 2023 23:47:20 GMT-0400 (Eastern Daylight Time)","78934","","null","","","","offerFB","","<div class='trialBorder'><div class='vertical-center'><img style='vertical-align:center; align:center' src=img/fixation3.jpg></div><div class='cl'><div class='vertical-center'>$40<br><br>now</div></div><div class='cr'><div class='vertical-center'><font style='color:orange'>$55<br>in<br>6 weeks</font></div></div><div class='respDivL'><div class='vertical-center'>(E)</div></div><div class='respDivR'><div class='vertical-center'><font style='color:orange'>(I)</font></div></div></div>","null","$40<br><br>now","$55<br>in<br>6 weeks","0","40","55","6",""
"html-keyboard-response","58","58969","0.0-5.0-1.18","5df1133b99b28201e0a1181c","bdp_td","Sat Mar 25 2023 23:47:20 GMT-0400 (Eastern Daylight Time)","78934","","null","","","","FIX","","<div class='trialBorder'><div class='vertical-center'><img style='vertical-align:center; align:center' src=img/fixation3.jpg></div></div>","null","","","","","","",""
"html-keyboard-response","59","60612","0.0-5.0-2.18","5df1133b99b28201e0a1181c","bdp_td","Sat Mar 25 2023 23:47:20 GMT-0400 (Eastern Daylight Time)","78934","","1643","","","","offer","","<div class='trialBorder'><div class='vertical-center'><img style='vertical-align:center; align:center' src=img/fixation3.jpg></div><div class='cl'><div class='vertical-center'>$80<br>in<br>12 weeks</div></div><div class='cr'><div class='vertical-center'>$78<br><br>now</div></div><div class='respDivL'><div class='vertical-center'>(E)</div></div><div class='respDivR'><div class='vertical-center'>(I)</div></div></div>","I","$78<br><br>now","$80<br>in<br>12 weeks","1","78","80","12","NOW"
"html-keyboard-response","60","60863","0.0-5.0-3.18","5df1133b99b28201e0a1181c","bdp_td","Sat Mar 25 2023 23:47:20 GMT-0400 (Eastern Daylight Time)","78934","","null","","","","offerFB","","<div class='trialBorder'><div class='vertical-center'><img style='vertical-align:center; align:center' src=img/fixation3.jpg></div><div class='cl'><div class='vertical-center'>$80<br>in<br>12 weeks</div></div><div class='cr'><div class='vertical-center'><font style='color:orange'>$78<br><br>now</font></div></div><div class='respDivL'><div class='vertical-center'>(E)</div></div><div class='respDivR'><div class='vertical-center'><font style='color:orange'>(I)</font></div></div></div>","null","$78<br><br>now","$80<br>in<br>12 weeks","1","78","80","12",""
"html-keyboard-response","61","61364","0.0-5.0-1.19","5df1133b99b28201e0a1181c","bdp_td","Sat Mar 25 2023 23:47:20 GMT-0400 (Eastern Daylight Time)","78934","","null","","","","FIX","","<div class='trialBorder'><div class='vertical-center'><img style='vertical-align:center; align:center' src=img/fixation3.jpg></div></div>","null","","","","","","",""
"html-keyboard-response","62","62600","0.0-5.0-2.19","5df1133b99b28201e0a1181c","bdp_td","Sat Mar 25 2023 23:47:20 GMT-0400 (Eastern Daylight Time)","78934","","1235","","","","offer","","<div class='trialBorder'><div class='vertical-center'><img style='vertical-align:center; align:center' src=img/fixation3.jpg></div><div class='cl'><div class='vertical-center'>$14<br><br>now</div></div><div class='cr'><div class='vertical-center'>$25<br>in<br>3 weeks</div></div><div class='respDivL'><div class='vertical-center'>(E)</div></div><div class='respDivR'><div class='vertical-center'>(I)</div></div></div>","I","$14<br><br>now","$25<br>in<br>3 weeks","0","14","25","3","THEN"
"html-keyboard-response","63","62851","0.0-5.0-3.19","5df1133b99b28201e0a1181c","bdp_td","Sat Mar 25 2023 23:47:20 GMT-0400 (Eastern Daylight Time)","78934","","null","","","","offerFB","","<div class='trialBorder'><div class='vertical-center'><img style='vertical-align:center; align:center' src=img/fixation3.jpg></div><div class='cl'><div class='vertical-center'>$14<br><br>now</div></div><div class='cr'><div class='vertical-center'><font style='color:orange'>$25<br>in<br>3 weeks</font></div></div><div class='respDivL'><div class='vertical-center'>(E)</div></div><div class='respDivR'><div class='vertical-center'><font style='color:orange'>(I)</font></div></div></div>","null","$14<br><br>now","$25<br>in<br>3 weeks","0","14","25","3",""
"html-keyboard-response","64","63353","0.0-5.0-1.20","5df1133b99b28201e0a1181c","bdp_td","Sat Mar 25 2023 23:47:20 GMT-0400 (Eastern Daylight Time)","78934","","null","","","","FIX","","<div class='trialBorder'><div class='vertical-center'><img style='vertical-align:center; align:center' src=img/fixation3.jpg></div></div>","null","","","","","","",""
"html-keyboard-response","65","64768","0.0-5.0-2.20","5df1133b99b28201e0a1181c","bdp_td","Sat Mar 25 2023 23:47:20 GMT-0400 (Eastern Daylight Time)","78934","","1415","","","","offer","","<div class='trialBorder'><div class='vertical-center'><img style='vertical-align:center; align:center' src=img/fixation3.jpg></div><div class='cl'><div class='vertical-center'>$55<br><br>now</div></div><div class='cr'><div class='vertical-center'>$75<br>in<br>6 weeks</div></div><div class='respDivL'><div class='vertical-center'>(E)</div></div><div class='respDivR'><div class='vertical-center'>(I)</div></div></div>","I","$55<br><br>now","$75<br>in<br>6 weeks","0","55","75","6","THEN"
"html-keyboard-response","66","65020","0.0-5.0-3.20","5df1133b99b28201e0a1181c","bdp_td","Sat Mar 25 2023 23:47:20 GMT-0400 (Eastern Daylight Time)","78934","","null","","","","offerFB","","<div class='trialBorder'><div class='vertical-center'><img style='vertical-align:center; align:center' src=img/fixation3.jpg></div><div class='cl'><div class='vertical-center'>$55<br><br>now</div></div><div class='cr'><div class='vertical-center'><font style='color:orange'>$75<br>in<br>6 weeks</font></div></div><div class='respDivL'><div class='vertical-center'>(E)</div></div><div class='respDivR'><div class='vertical-center'><font style='color:orange'>(I)</font></div></div></div>","null","$55<br><br>now","$75<br>in<br>6 weeks","0","55","75","6",""
"html-keyboard-response","67","65521","0.0-5.0-1.21","5df1133b99b28201e0a1181c","bdp_td","Sat Mar 25 2023 23:47:20 GMT-0400 (Eastern Daylight Time)","78934","","null","","","","FIX","","<div class='trialBorder'><div class='vertical-center'><img style='vertical-align:center; align:center' src=img/fixation3.jpg></div></div>","null","","","","","","",""
"html-keyboard-response","68","66650","0.0-5.0-2.21","5df1133b99b28201e0a1181c","bdp_td","Sat Mar 25 2023 23:47:20 GMT-0400 (Eastern Daylight Time)","78934","","1129","","","","offer","","<div class='trialBorder'><div class='vertical-center'><img style='vertical-align:center; align:center' src=img/fixation3.jpg></div><div class='cl'><div class='vertical-center'>$27<br><br>now</div></div><div class='cr'><div class='vertical-center'>$50<br>in<br>3 weeks</div></div><div class='respDivL'><div class='vertical-center'>(E)</div></div><div class='respDivR'><div class='vertical-center'>(I)</div></div></div>","I","$27<br><br>now","$50<br>in<br>3 weeks","0","27","50","3","THEN"
"html-keyboard-response","69","66902","0.0-5.0-3.21","5df1133b99b28201e0a1181c","bdp_td","Sat Mar 25 2023 23:47:20 GMT-0400 (Eastern Daylight Time)","78934","","null","","","","offerFB","","<div class='trialBorder'><div class='vertical-center'><img style='vertical-align:center; align:center' src=img/fixation3.jpg></div><div class='cl'><div class='vertical-center'>$27<br><br>now</div></div><div class='cr'><div class='vertical-center'><font style='color:orange'>$50<br>in<br>3 weeks</font></div></div><div class='respDivL'><div class='vertical-center'>(E)</div></div><div class='respDivR'><div class='vertical-center'><font style='color:orange'>(I)</font></div></div></div>","null","$27<br><br>now","$50<br>in<br>3 weeks","0","27","50","3",""
"html-keyboard-response","70","67403","0.0-5.0-1.22","5df1133b99b28201e0a1181c","bdp_td","Sat Mar 25 2023 23:47:20 GMT-0400 (Eastern Daylight Time)","78934","","null","","","","FIX","","<div class='trialBorder'><div class='vertical-center'><img style='vertical-align:center; align:center' src=img/fixation3.jpg></div></div>","null","","","","","","",""
"html-keyboard-response","71","68323","0.0-5.0-2.22","5df1133b99b28201e0a1181c","bdp_td","Sat Mar 25 2023 23:47:20 GMT-0400 (Eastern Daylight Time)","78934","","919","","","","offer","","<div class='trialBorder'><div class='vertical-center'><img style='vertical-align:center; align:center' src=img/fixation3.jpg></div><div class='cl'><div class='vertical-center'>$34<br><br>now</div></div><div class='cr'><div class='vertical-center'>$35<br>in<br>12 weeks</div></div><div class='respDivL'><div class='vertical-center'>(E)</div></div><div class='respDivR'><div class='vertical-center'>(I)</div></div></div>","I","$34<br><br>now","$35<br>in<br>12 weeks","0","34","35","12","THEN"
"html-keyboard-response","72","68575","0.0-5.0-3.22","5df1133b99b28201e0a1181c","bdp_td","Sat Mar 25 2023 23:47:20 GMT-0400 (Eastern Daylight Time)","78934","","null","","","","offerFB","","<div class='trialBorder'><div class='vertical-center'><img style='vertical-align:center; align:center' src=img/fixation3.jpg></div><div class='cl'><div class='vertical-center'>$34<br><br>now</div></div><div class='cr'><div class='vertical-center'><font style='color:orange'>$35<br>in<br>12 weeks</font></div></div><div class='respDivL'><div class='vertical-center'>(E)</div></div><div class='respDivR'><div class='vertical-center'><font style='color:orange'>(I)</font></div></div></div>","null","$34<br><br>now","$35<br>in<br>12 weeks","0","34","35","12",""
"html-keyboard-response","73","69077","0.0-5.0-1.23","5df1133b99b28201e0a1181c","bdp_td","Sat Mar 25 2023 23:47:20 GMT-0400 (Eastern Daylight Time)","78934","","null","","","","FIX","","<div class='trialBorder'><div class='vertical-center'><img style='vertical-align:center; align:center' src=img/fixation3.jpg></div></div>","null","","","","","","",""
"html-keyboard-response","74","69862","0.0-5.0-2.23","5df1133b99b28201e0a1181c","bdp_td","Sat Mar 25 2023 23:47:20 GMT-0400 (Eastern Daylight Time)","78934","","785","","","","offer","","<div class='trialBorder'><div class='vertical-center'><img style='vertical-align:center; align:center' src=img/fixation3.jpg></div><div class='cl'><div class='vertical-center'>$25<br><br>now</div></div><div class='cr'><div class='vertical-center'>$30<br>in<br>6 weeks</div></div><div class='respDivL'><div class='vertical-center'>(E)</div></div><div class='respDivR'><div class='vertical-center'>(I)</div></div></div>","I","$25<br><br>now","$30<br>in<br>6 weeks","0","25","30","6","THEN"
"html-keyboard-response","75","70114","0.0-5.0-3.23","5df1133b99b28201e0a1181c","bdp_td","Sat Mar 25 2023 23:47:20 GMT-0400 (Eastern Daylight Time)","78934","","null","","","","offerFB","","<div class='trialBorder'><div class='vertical-center'><img style='vertical-align:center; align:center' src=img/fixation3.jpg></div><div class='cl'><div class='vertical-center'>$25<br><br>now</div></div><div class='cr'><div class='vertical-center'><font style='color:orange'>$30<br>in<br>6 weeks</font></div></div><div class='respDivL'><div class='vertical-center'>(E)</div></div><div class='respDivR'><div class='vertical-center'><font style='color:orange'>(I)</font></div></div></div>","null","$25<br><br>now","$30<br>in<br>6 weeks","0","25","30","6",""
"html-keyboard-response","76","70616","0.0-5.0-1.24","5df1133b99b28201e0a1181c","bdp_td","Sat Mar 25 2023 23:47:20 GMT-0400 (Eastern Daylight Time)","78934","","null","","","","FIX","","<div class='trialBorder'><div class='vertical-center'><img style='vertical-align:center; align:center' src=img/fixation3.jpg></div></div>","null","","","","","","",""
"html-keyboard-response","77","71896","0.0-5.0-2.24","5df1133b99b28201e0a1181c","bdp_td","Sat Mar 25 2023 23:47:20 GMT-0400 (Eastern Daylight Time)","78934","","1279","","","","offer","","<div class='trialBorder'><div class='vertical-center'><img style='vertical-align:center; align:center' src=img/fixation3.jpg></div><div class='cl'><div class='vertical-center'>$30<br>in<br>12 weeks</div></div><div class='cr'><div class='vertical-center'>$28<br><br>now</div></div><div class='respDivL'><div class='vertical-center'>(E)</div></div><div class='respDivR'><div class='vertical-center'>(I)</div></div></div>","E","$28<br><br>now","$30<br>in<br>12 weeks","1","28","30","12","THEN"
"html-keyboard-response","78","72148","0.0-5.0-3.24","5df1133b99b28201e0a1181c","bdp_td","Sat Mar 25 2023 23:47:20 GMT-0400 (Eastern Daylight Time)","78934","","null","","","","offerFB","","<div class='trialBorder'><div class='vertical-center'><img style='vertical-align:center; align:center' src=img/fixation3.jpg></div><div class='cl'><div class='vertical-center'><font style='color:orange'>$30<br>in<br>12 weeks</font></div></div><div class='cr'><div class='vertical-center'>$28<br><br>now</div></div><div class='respDivL'><div class='vertical-center'><font style='color:orange'>(E)</font></div></div><div class='respDivR'><div class='vertical-center'>(I)</div></div></div>","null","$28<br><br>now","$30<br>in<br>12 weeks","1","28","30","12",""
"html-keyboard-response","79","72650","0.0-5.0-1.25","5df1133b99b28201e0a1181c","bdp_td","Sat Mar 25 2023 23:47:20 GMT-0400 (Eastern Daylight Time)","78934","","null","","","","FIX","","<div class='trialBorder'><div class='vertical-center'><img style='vertical-align:center; align:center' src=img/fixation3.jpg></div></div>","null","","","","","","",""
"html-keyboard-response","80","75366","0.0-5.0-2.25","5df1133b99b28201e0a1181c","bdp_td","Sat Mar 25 2023 23:47:20 GMT-0400 (Eastern Daylight Time)","78934","","2716","","","","offer","","<div class='trialBorder'><div class='vertical-center'><img style='vertical-align:center; align:center' src=img/fixation3.jpg></div><div class='cl'><div class='vertical-center'>$55<br>in<br>12 weeks</div></div><div class='cr'><div class='vertical-center'>$54<br><br>now</div></div><div class='respDivL'><div class='vertical-center'>(E)</div></div><div class='respDivR'><div class='vertical-center'>(I)</div></div></div>","I","$54<br><br>now","$55<br>in<br>12 weeks","1","54","55","12","NOW"
"html-keyboard-response","81","75617","0.0-5.0-3.25","5df1133b99b28201e0a1181c","bdp_td","Sat Mar 25 2023 23:47:20 GMT-0400 (Eastern Daylight Time)","78934","","null","","","","offerFB","","<div class='trialBorder'><div class='vertical-center'><img style='vertical-align:center; align:center' src=img/fixation3.jpg></div><div class='cl'><div class='vertical-center'>$55<br>in<br>12 weeks</div></div><div class='cr'><div class='vertical-center'><font style='color:orange'>$54<br><br>now</font></div></div><div class='respDivL'><div class='vertical-center'>(E)</div></div><div class='respDivR'><div class='vertical-center'><font style='color:orange'>(I)</font></div></div></div>","null","$54<br><br>now","$55<br>in<br>12 weeks","1","54","55","12",""
"html-keyboard-response","82","76119","0.0-5.0-1.26","5df1133b99b28201e0a1181c","bdp_td","Sat Mar 25 2023 23:47:20 GMT-0400 (Eastern Daylight Time)","78934","","null","","","","FIX","","<div class='trialBorder'><div class='vertical-center'><img style='vertical-align:center; align:center' src=img/fixation3.jpg></div></div>","null","","","","","","",""
"html-keyboard-response","83","77682","0.0-5.0-2.26","5df1133b99b28201e0a1181c","bdp_td","Sat Mar 25 2023 23:47:20 GMT-0400 (Eastern Daylight Time)","78934","","1562","","","","offer","","<div class='trialBorder'><div class='vertical-center'><img style='vertical-align:center; align:center' src=img/fixation3.jpg></div><div class='cl'><div class='vertical-center'>$15<br><br>now</div></div><div class='cr'><div class='vertical-center'>$35<br>in<br>2 weeks</div></div><div class='respDivL'><div class='vertical-center'>(E)</div></div><div class='respDivR'><div class='vertical-center'>(I)</div></div></div>","I","$15<br><br>now","$35<br>in<br>2 weeks","0","15","35","2","THEN"
"html-keyboard-response","84","77933","0.0-5.0-3.26","5df1133b99b28201e0a1181c","bdp_td","Sat Mar 25 2023 23:47:20 GMT-0400 (Eastern Daylight Time)","78934","","null","","","","offerFB","","<div class='trialBorder'><div class='vertical-center'><img style='vertical-align:center; align:center' src=img/fixation3.jpg></div><div class='cl'><div class='vertical-center'>$15<br><br>now</div></div><div class='cr'><div class='vertical-center'><font style='color:orange'>$35<br>in<br>2 weeks</font></div></div><div class='respDivL'><div class='vertical-center'>(E)</div></div><div class='respDivR'><div class='vertical-center'><font style='color:orange'>(I)</font></div></div></div>","null","$15<br><br>now","$35<br>in<br>2 weeks","0","15","35","2",""
"","","","","5df1133b99b28201e0a1181c","bdp_td","Sat Mar 25 2023 23:47:20 GMT-0400 (Eastern Daylight Time)","78934","","","fullscreenexit","85","77951","fullscreenexit","","","","","","","","","",""
"fullscreen","85","78934","0.0-6.0","5df1133b99b28201e0a1181c","bdp_td","Sat Mar 25 2023 23:47:20 GMT-0400 (Eastern Daylight Time)","78934","","","","","","","true","","","","","","","","",""
"html-keyboard-response","86","79435","0.0-7.0","","","","","","null","","","","","","","null","","","","","","",""
