"trial_type","trial_index","time_elapsed","internal_node_id","subject_id","task","startTime","totalTime","view_history","rt","event","trial","time","trialtype","success","stimulus","key_press","nowOffer","thenOffer","thenLeft","nowAmt","thenAmt","thenWeeks","chosen"
"pavlovia","0","3","0.0-0.0","61086469e5457fed4f164b8e","bdp_td","Wed Mar 29 2023 12:18:39 GMT-0700 (Pacific Daylight Time)","142756","","","","","","","","","","","","","","","",""
"instructions","1","2343","0.0-1.0","61086469e5457fed4f164b8e","bdp_td","Wed Mar 29 2023 12:18:39 GMT-0700 (Pacific Daylight Time)","142756","[{""page_index"":0,""viewing_time"":2339}]","2339","","","","","","","","","","","","","",""
"","","","","61086469e5457fed4f164b8e","bdp_td","Wed Mar 29 2023 12:18:39 GMT-0700 (Pacific Daylight Time)","142756","","","fullscreenenter","2","7896","fullscreenenter","","","","","","","","","",""
"fullscreen","2","8862","0.0-2.0","61086469e5457fed4f164b8e","bdp_td","Wed Mar 29 2023 12:18:39 GMT-0700 (Pacific Daylight Time)","142756","","","","","","","true","","","","","","","","",""
"instructions","3","65256","0.0-4.0","61086469e5457fed4f164b8e","bdp_td","Wed Mar 29 2023 12:18:39 GMT-0700 (Pacific Daylight Time)","142756","[{""page_index"":0,""viewing_time"":28074},{""page_index"":1,""viewing_time"":21879},{""page_index"":2,""viewing_time"":6438}]","56392","","","","","","","","","","","","","",""
"html-keyboard-response","4","65761","0.0-5.0-1.0","61086469e5457fed4f164b8e","bdp_td","Wed Mar 29 2023 12:18:39 GMT-0700 (Pacific Daylight Time)","142756","","null","","","","FIX","","<div class='trialBorder'><div class='vertical-center'><img style='vertical-align:center; align:center' src=img/fixation3.jpg></div></div>","null","","","","","","",""
"html-keyboard-response","5","68703","0.0-5.0-2.0","61086469e5457fed4f164b8e","bdp_td","Wed Mar 29 2023 12:18:39 GMT-0700 (Pacific Daylight Time)","142756","","2940","","","","offer","","<div class='trialBorder'><div class='vertical-center'><img style='vertical-align:center; align:center' src=img/fixation3.jpg></div><div class='cl'><div class='vertical-center'>$27<br><br>now</div></div><div class='cr'><div class='vertical-center'>$50<br>in<br>3 weeks</div></div><div class='respDivL'><div class='vertical-center'>(E)</div></div><div class='respDivR'><div class='vertical-center'>(I)</div></div></div>","I","$27<br><br>now","$50<br>in<br>3 weeks","0","27","50","3","THEN"
"html-keyboard-response","6","68960","0.0-5.0-3.0","61086469e5457fed4f164b8e","bdp_td","Wed Mar 29 2023 12:18:39 GMT-0700 (Pacific Daylight Time)","142756","","null","","","","offerFB","","<div class='trialBorder'><div class='vertical-center'><img style='vertical-align:center; align:center' src=img/fixation3.jpg></div><div class='cl'><div class='vertical-center'>$27<br><br>now</div></div><div class='cr'><div class='vertical-center'><font style='color:orange'>$50<br>in<br>3 weeks</font></div></div><div class='respDivL'><div class='vertical-center'>(E)</div></div><div class='respDivR'><div class='vertical-center'><font style='color:orange'>(I)</font></div></div></div>","null","$27<br><br>now","$50<br>in<br>3 weeks","0","27","50","3",""
"html-keyboard-response","7","69463","0.0-5.0-1.1","61086469e5457fed4f164b8e","bdp_td","Wed Mar 29 2023 12:18:39 GMT-0700 (Pacific Daylight Time)","142756","","null","","","","FIX","","<div class='trialBorder'><div class='vertical-center'><img style='vertical-align:center; align:center' src=img/fixation3.jpg></div></div>","null","","","","","","",""
"html-keyboard-response","8","71341","0.0-5.0-2.1","61086469e5457fed4f164b8e","bdp_td","Wed Mar 29 2023 12:18:39 GMT-0700 (Pacific Daylight Time)","142756","","1877","","","","offer","","<div class='trialBorder'><div class='vertical-center'><img style='vertical-align:center; align:center' src=img/fixation3.jpg></div><div class='cl'><div class='vertical-center'>$41<br><br>now</div></div><div class='cr'><div class='vertical-center'>$75<br>in<br>3 weeks</div></div><div class='respDivL'><div class='vertical-center'>(E)</div></div><div class='respDivR'><div class='vertical-center'>(I)</div></div></div>","I","$41<br><br>now","$75<br>in<br>3 weeks","0","41","75","3","THEN"
"html-keyboard-response","9","71597","0.0-5.0-3.1","61086469e5457fed4f164b8e","bdp_td","Wed Mar 29 2023 12:18:39 GMT-0700 (Pacific Daylight Time)","142756","","null","","","","offerFB","","<div class='trialBorder'><div class='vertical-center'><img style='vertical-align:center; align:center' src=img/fixation3.jpg></div><div class='cl'><div class='vertical-center'>$41<br><br>now</div></div><div class='cr'><div class='vertical-center'><font style='color:orange'>$75<br>in<br>3 weeks</font></div></div><div class='respDivL'><div class='vertical-center'>(E)</div></div><div class='respDivR'><div class='vertical-center'><font style='color:orange'>(I)</font></div></div></div>","null","$41<br><br>now","$75<br>in<br>3 weeks","0","41","75","3",""
"html-keyboard-response","10","72104","0.0-5.0-1.2","61086469e5457fed4f164b8e","bdp_td","Wed Mar 29 2023 12:18:39 GMT-0700 (Pacific Daylight Time)","142756","","null","","","","FIX","","<div class='trialBorder'><div class='vertical-center'><img style='vertical-align:center; align:center' src=img/fixation3.jpg></div></div>","null","","","","","","",""
"html-keyboard-response","11","73887","0.0-5.0-2.2","61086469e5457fed4f164b8e","bdp_td","Wed Mar 29 2023 12:18:39 GMT-0700 (Pacific Daylight Time)","142756","","1782","","","","offer","","<div class='trialBorder'><div class='vertical-center'><img style='vertical-align:center; align:center' src=img/fixation3.jpg></div><div class='cl'><div class='vertical-center'>$85<br>in<br>1 week</div></div><div class='cr'><div class='vertical-center'>$31<br><br>now</div></div><div class='respDivL'><div class='vertical-center'>(E)</div></div><div class='respDivR'><div class='vertical-center'>(I)</div></div></div>","E","$31<br><br>now","$85<br>in<br>1 week","1","31","85","1","THEN"
"html-keyboard-response","12","74142","0.0-5.0-3.2","61086469e5457fed4f164b8e","bdp_td","Wed Mar 29 2023 12:18:39 GMT-0700 (Pacific Daylight Time)","142756","","null","","","","offerFB","","<div class='trialBorder'><div class='vertical-center'><img style='vertical-align:center; align:center' src=img/fixation3.jpg></div><div class='cl'><div class='vertical-center'><font style='color:orange'>$85<br>in<br>1 week</font></div></div><div class='cr'><div class='vertical-center'>$31<br><br>now</div></div><div class='respDivL'><div class='vertical-center'><font style='color:orange'>(E)</font></div></div><div class='respDivR'><div class='vertical-center'>(I)</div></div></div>","null","$31<br><br>now","$85<br>in<br>1 week","1","31","85","1",""
"html-keyboard-response","13","74644","0.0-5.0-1.3","61086469e5457fed4f164b8e","bdp_td","Wed Mar 29 2023 12:18:39 GMT-0700 (Pacific Daylight Time)","142756","","null","","","","FIX","","<div class='trialBorder'><div class='vertical-center'><img style='vertical-align:center; align:center' src=img/fixation3.jpg></div></div>","null","","","","","","",""
"html-keyboard-response","14","75841","0.0-5.0-2.3","61086469e5457fed4f164b8e","bdp_td","Wed Mar 29 2023 12:18:39 GMT-0700 (Pacific Daylight Time)","142756","","1195","","","","offer","","<div class='trialBorder'><div class='vertical-center'><img style='vertical-align:center; align:center' src=img/fixation3.jpg></div><div class='cl'><div class='vertical-center'>$33<br><br>now</div></div><div class='cr'><div class='vertical-center'>$80<br>in<br>2 weeks</div></div><div class='respDivL'><div class='vertical-center'>(E)</div></div><div class='respDivR'><div class='vertical-center'>(I)</div></div></div>","I","$33<br><br>now","$80<br>in<br>2 weeks","0","33","80","2","THEN"
"html-keyboard-response","15","76108","0.0-5.0-3.3","61086469e5457fed4f164b8e","bdp_td","Wed Mar 29 2023 12:18:39 GMT-0700 (Pacific Daylight Time)","142756","","null","","","","offerFB","","<div class='trialBorder'><div class='vertical-center'><img style='vertical-align:center; align:center' src=img/fixation3.jpg></div><div class='cl'><div class='vertical-center'>$33<br><br>now</div></div><div class='cr'><div class='vertical-center'><font style='color:orange'>$80<br>in<br>2 weeks</font></div></div><div class='respDivL'><div class='vertical-center'>(E)</div></div><div class='respDivR'><div class='vertical-center'><font style='color:orange'>(I)</font></div></div></div>","null","$33<br><br>now","$80<br>in<br>2 weeks","0","33","80","2",""
"html-keyboard-response","16","76617","0.0-5.0-1.4","61086469e5457fed4f164b8e","bdp_td","Wed Mar 29 2023 12:18:39 GMT-0700 (Pacific Daylight Time)","142756","","null","","","","FIX","","<div class='trialBorder'><div class='vertical-center'><img style='vertical-align:center; align:center' src=img/fixation3.jpg></div></div>","null","","","","","","",""
"html-keyboard-response","17","78719","0.0-5.0-2.4","61086469e5457fed4f164b8e","bdp_td","Wed Mar 29 2023 12:18:39 GMT-0700 (Pacific Daylight Time)","142756","","2099","","","","offer","","<div class='trialBorder'><div class='vertical-center'><img style='vertical-align:center; align:center' src=img/fixation3.jpg></div><div class='cl'><div class='vertical-center'>$80<br>in<br>3 weeks</div></div><div class='cr'><div class='vertical-center'>$54<br><br>now</div></div><div class='respDivL'><div class='vertical-center'>(E)</div></div><div class='respDivR'><div class='vertical-center'>(I)</div></div></div>","E","$54<br><br>now","$80<br>in<br>3 weeks","1","54","80","3","THEN"
"html-keyboard-response","18","78975","0.0-5.0-3.4","61086469e5457fed4f164b8e","bdp_td","Wed Mar 29 2023 12:18:39 GMT-0700 (Pacific Daylight Time)","142756","","null","","","","offerFB","","<div class='trialBorder'><div class='vertical-center'><img style='vertical-align:center; align:center' src=img/fixation3.jpg></div><div class='cl'><div class='vertical-center'><font style='color:orange'>$80<br>in<br>3 weeks</font></div></div><div class='cr'><div class='vertical-center'>$54<br><br>now</div></div><div class='respDivL'><div class='vertical-center'><font style='color:orange'>(E)</font></div></div><div class='respDivR'><div class='vertical-center'>(I)</div></div></div>","null","$54<br><br>now","$80<br>in<br>3 weeks","1","54","80","3",""
"html-keyboard-response","19","79482","0.0-5.0-1.5","61086469e5457fed4f164b8e","bdp_td","Wed Mar 29 2023 12:18:39 GMT-0700 (Pacific Daylight Time)","142756","","null","","","","FIX","","<div class='trialBorder'><div class='vertical-center'><img style='vertical-align:center; align:center' src=img/fixation3.jpg></div></div>","null","","","","","","",""
"html-keyboard-response","20","80926","0.0-5.0-2.5","61086469e5457fed4f164b8e","bdp_td","Wed Mar 29 2023 12:18:39 GMT-0700 (Pacific Daylight Time)","142756","","1443","","","","offer","","<div class='trialBorder'><div class='vertical-center'><img style='vertical-align:center; align:center' src=img/fixation3.jpg></div><div class='cl'><div class='vertical-center'>$25<br>in<br>12 weeks</div></div><div class='cr'><div class='vertical-center'>$22<br><br>now</div></div><div class='respDivL'><div class='vertical-center'>(E)</div></div><div class='respDivR'><div class='vertical-center'>(I)</div></div></div>","I","$22<br><br>now","$25<br>in<br>12 weeks","1","22","25","12","NOW"
"html-keyboard-response","21","81188","0.0-5.0-3.5","61086469e5457fed4f164b8e","bdp_td","Wed Mar 29 2023 12:18:39 GMT-0700 (Pacific Daylight Time)","142756","","null","","","","offerFB","","<div class='trialBorder'><div class='vertical-center'><img style='vertical-align:center; align:center' src=img/fixation3.jpg></div><div class='cl'><div class='vertical-center'>$25<br>in<br>12 weeks</div></div><div class='cr'><div class='vertical-center'><font style='color:orange'>$22<br><br>now</font></div></div><div class='respDivL'><div class='vertical-center'>(E)</div></div><div class='respDivR'><div class='vertical-center'><font style='color:orange'>(I)</font></div></div></div>","null","$22<br><br>now","$25<br>in<br>12 weeks","1","22","25","12",""
"html-keyboard-response","22","81694","0.0-5.0-1.6","61086469e5457fed4f164b8e","bdp_td","Wed Mar 29 2023 12:18:39 GMT-0700 (Pacific Daylight Time)","142756","","null","","","","FIX","","<div class='trialBorder'><div class='vertical-center'><img style='vertical-align:center; align:center' src=img/fixation3.jpg></div></div>","null","","","","","","",""
"html-keyboard-response","23","83619","0.0-5.0-2.6","61086469e5457fed4f164b8e","bdp_td","Wed Mar 29 2023 12:18:39 GMT-0700 (Pacific Daylight Time)","142756","","1924","","","","offer","","<div class='trialBorder'><div class='vertical-center'><img style='vertical-align:center; align:center' src=img/fixation3.jpg></div><div class='cl'><div class='vertical-center'>$85<br>in<br>12 weeks</div></div><div class='cr'><div class='vertical-center'>$80<br><br>now</div></div><div class='respDivL'><div class='vertical-center'>(E)</div></div><div class='respDivR'><div class='vertical-center'>(I)</div></div></div>","I","$80<br><br>now","$85<br>in<br>12 weeks","1","80","85","12","NOW"
"html-keyboard-response","24","83875","0.0-5.0-3.6","61086469e5457fed4f164b8e","bdp_td","Wed Mar 29 2023 12:18:39 GMT-0700 (Pacific Daylight Time)","142756","","null","","","","offerFB","","<div class='trialBorder'><div class='vertical-center'><img style='vertical-align:center; align:center' src=img/fixation3.jpg></div><div class='cl'><div class='vertical-center'>$85<br>in<br>12 weeks</div></div><div class='cr'><div class='vertical-center'><font style='color:orange'>$80<br><br>now</font></div></div><div class='respDivL'><div class='vertical-center'>(E)</div></div><div class='respDivR'><div class='vertical-center'><font style='color:orange'>(I)</font></div></div></div>","null","$80<br><br>now","$85<br>in<br>12 weeks","1","80","85","12",""
"html-keyboard-response","25","84385","0.0-5.0-1.7","61086469e5457fed4f164b8e","bdp_td","Wed Mar 29 2023 12:18:39 GMT-0700 (Pacific Daylight Time)","142756","","null","","","","FIX","","<div class='trialBorder'><div class='vertical-center'><img style='vertical-align:center; align:center' src=img/fixation3.jpg></div></div>","null","","","","","","",""
"html-keyboard-response","26","86287","0.0-5.0-2.7","61086469e5457fed4f164b8e","bdp_td","Wed Mar 29 2023 12:18:39 GMT-0700 (Pacific Daylight Time)","142756","","1900","","","","offer","","<div class='trialBorder'><div class='vertical-center'><img style='vertical-align:center; align:center' src=img/fixation3.jpg></div><div class='cl'><div class='vertical-center'>$19<br><br>now</div></div><div class='cr'><div class='vertical-center'>$25<br>in<br>6 weeks</div></div><div class='respDivL'><div class='vertical-center'>(E)</div></div><div class='respDivR'><div class='vertical-center'>(I)</div></div></div>","E","$19<br><br>now","$25<br>in<br>6 weeks","0","19","25","6","NOW"
"html-keyboard-response","27","86545","0.0-5.0-3.7","61086469e5457fed4f164b8e","bdp_td","Wed Mar 29 2023 12:18:39 GMT-0700 (Pacific Daylight Time)","142756","","null","","","","offerFB","","<div class='trialBorder'><div class='vertical-center'><img style='vertical-align:center; align:center' src=img/fixation3.jpg></div><div class='cl'><div class='vertical-center'><font style='color:orange'>$19<br><br>now</font></div></div><div class='cr'><div class='vertical-center'>$25<br>in<br>6 weeks</div></div><div class='respDivL'><div class='vertical-center'><font style='color:orange'>(E)</font></div></div><div class='respDivR'><div class='vertical-center'>(I)</div></div></div>","null","$19<br><br>now","$25<br>in<br>6 weeks","0","19","25","6",""
"html-keyboard-response","28","87050","0.0-5.0-1.8","61086469e5457fed4f164b8e","bdp_td","Wed Mar 29 2023 12:18:39 GMT-0700 (Pacific Daylight Time)","142756","","null","","","","FIX","","<div class='trialBorder'><div class='vertical-center'><img style='vertical-align:center; align:center' src=img/fixation3.jpg></div></div>","null","","","","","","",""
"html-keyboard-response","29","89658","0.0-5.0-2.8","61086469e5457fed4f164b8e","bdp_td","Wed Mar 29 2023 12:18:39 GMT-0700 (Pacific Daylight Time)","142756","","2607","","","","offer","","<div class='trialBorder'><div class='vertical-center'><img style='vertical-align:center; align:center' src=img/fixation3.jpg></div><div class='cl'><div class='vertical-center'>$75<br>in<br>6 weeks</div></div><div class='cr'><div class='vertical-center'>$55<br><br>now</div></div><div class='respDivL'><div class='vertical-center'>(E)</div></div><div class='respDivR'><div class='vertical-center'>(I)</div></div></div>","I","$55<br><br>now","$75<br>in<br>6 weeks","1","55","75","6","NOW"
"html-keyboard-response","30","89916","0.0-5.0-3.8","61086469e5457fed4f164b8e","bdp_td","Wed Mar 29 2023 12:18:39 GMT-0700 (Pacific Daylight Time)","142756","","null","","","","offerFB","","<div class='trialBorder'><div class='vertical-center'><img style='vertical-align:center; align:center' src=img/fixation3.jpg></div><div class='cl'><div class='vertical-center'>$75<br>in<br>6 weeks</div></div><div class='cr'><div class='vertical-center'><font style='color:orange'>$55<br><br>now</font></div></div><div class='respDivL'><div class='vertical-center'>(E)</div></div><div class='respDivR'><div class='vertical-center'><font style='color:orange'>(I)</font></div></div></div>","null","$55<br><br>now","$75<br>in<br>6 weeks","1","55","75","6",""
"html-keyboard-response","31","90423","0.0-5.0-1.9","61086469e5457fed4f164b8e","bdp_td","Wed Mar 29 2023 12:18:39 GMT-0700 (Pacific Daylight Time)","142756","","null","","","","FIX","","<div class='trialBorder'><div class='vertical-center'><img style='vertical-align:center; align:center' src=img/fixation3.jpg></div></div>","null","","","","","","",""
"html-keyboard-response","32","92551","0.0-5.0-2.9","61086469e5457fed4f164b8e","bdp_td","Wed Mar 29 2023 12:18:39 GMT-0700 (Pacific Daylight Time)","142756","","2127","","","","offer","","<div class='trialBorder'><div class='vertical-center'><img style='vertical-align:center; align:center' src=img/fixation3.jpg></div><div class='cl'><div class='vertical-center'>$28<br><br>now</div></div><div class='cr'><div class='vertical-center'>$30<br>in<br>12 weeks</div></div><div class='respDivL'><div class='vertical-center'>(E)</div></div><div class='respDivR'><div class='vertical-center'>(I)</div></div></div>","E","$28<br><br>now","$30<br>in<br>12 weeks","0","28","30","12","NOW"
"html-keyboard-response","33","92803","0.0-5.0-3.9","61086469e5457fed4f164b8e","bdp_td","Wed Mar 29 2023 12:18:39 GMT-0700 (Pacific Daylight Time)","142756","","null","","","","offerFB","","<div class='trialBorder'><div class='vertical-center'><img style='vertical-align:center; align:center' src=img/fixation3.jpg></div><div class='cl'><div class='vertical-center'><font style='color:orange'>$28<br><br>now</font></div></div><div class='cr'><div class='vertical-center'>$30<br>in<br>12 weeks</div></div><div class='respDivL'><div class='vertical-center'><font style='color:orange'>(E)</font></div></div><div class='respDivR'><div class='vertical-center'>(I)</div></div></div>","null","$28<br><br>now","$30<br>in<br>12 weeks","0","28","30","12",""
"html-keyboard-response","34","93312","0.0-5.0-1.10","61086469e5457fed4f164b8e","bdp_td","Wed Mar 29 2023 12:18:39 GMT-0700 (Pacific Daylight Time)","142756","","null","","","","FIX","","<div class='trialBorder'><div class='vertical-center'><img style='vertical-align:center; align:center' src=img/fixation3.jpg></div></div>","null","","","","","","",""
"html-keyboard-response","35","96323","0.0-5.0-2.10","61086469e5457fed4f164b8e","bdp_td","Wed Mar 29 2023 12:18:39 GMT-0700 (Pacific Daylight Time)","142756","","3008","","","","offer","","<div class='trialBorder'><div class='vertical-center'><img style='vertical-align:center; align:center' src=img/fixation3.jpg></div><div class='cl'><div class='vertical-center'>$75<br>in<br>12 weeks</div></div><div class='cr'><div class='vertical-center'>$67<br><br>now</div></div><div class='respDivL'><div class='vertical-center'>(E)</div></div><div class='respDivR'><div class='vertical-center'>(I)</div></div></div>","I","$67<br><br>now","$75<br>in<br>12 weeks","1","67","75","12","NOW"
"html-keyboard-response","36","96574","0.0-5.0-3.10","61086469e5457fed4f164b8e","bdp_td","Wed Mar 29 2023 12:18:39 GMT-0700 (Pacific Daylight Time)","142756","","null","","","","offerFB","","<div class='trialBorder'><div class='vertical-center'><img style='vertical-align:center; align:center' src=img/fixation3.jpg></div><div class='cl'><div class='vertical-center'>$75<br>in<br>12 weeks</div></div><div class='cr'><div class='vertical-center'><font style='color:orange'>$67<br><br>now</font></div></div><div class='respDivL'><div class='vertical-center'>(E)</div></div><div class='respDivR'><div class='vertical-center'><font style='color:orange'>(I)</font></div></div></div>","null","$67<br><br>now","$75<br>in<br>12 weeks","1","67","75","12",""
"html-keyboard-response","37","97077","0.0-5.0-1.11","61086469e5457fed4f164b8e","bdp_td","Wed Mar 29 2023 12:18:39 GMT-0700 (Pacific Daylight Time)","142756","","null","","","","FIX","","<div class='trialBorder'><div class='vertical-center'><img style='vertical-align:center; align:center' src=img/fixation3.jpg></div></div>","null","","","","","","",""
"html-keyboard-response","38","99510","0.0-5.0-2.11","61086469e5457fed4f164b8e","bdp_td","Wed Mar 29 2023 12:18:39 GMT-0700 (Pacific Daylight Time)","142756","","2431","","","","offer","","<div class='trialBorder'><div class='vertical-center'><img style='vertical-align:center; align:center' src=img/fixation3.jpg></div><div class='cl'><div class='vertical-center'>$25<br>in<br>3 weeks</div></div><div class='cr'><div class='vertical-center'>$14<br><br>now</div></div><div class='respDivL'><div class='vertical-center'>(E)</div></div><div class='respDivR'><div class='vertical-center'>(I)</div></div></div>","I","$14<br><br>now","$25<br>in<br>3 weeks","1","14","25","3","NOW"
"html-keyboard-response","39","99768","0.0-5.0-3.11","61086469e5457fed4f164b8e","bdp_td","Wed Mar 29 2023 12:18:39 GMT-0700 (Pacific Daylight Time)","142756","","null","","","","offerFB","","<div class='trialBorder'><div class='vertical-center'><img style='vertical-align:center; align:center' src=img/fixation3.jpg></div><div class='cl'><div class='vertical-center'>$25<br>in<br>3 weeks</div></div><div class='cr'><div class='vertical-center'><font style='color:orange'>$14<br><br>now</font></div></div><div class='respDivL'><div class='vertical-center'>(E)</div></div><div class='respDivR'><div class='vertical-center'><font style='color:orange'>(I)</font></div></div></div>","null","$14<br><br>now","$25<br>in<br>3 weeks","1","14","25","3",""
"html-keyboard-response","40","100275","0.0-5.0-1.12","61086469e5457fed4f164b8e","bdp_td","Wed Mar 29 2023 12:18:39 GMT-0700 (Pacific Daylight Time)","142756","","null","","","","FIX","","<div class='trialBorder'><div class='vertical-center'><img style='vertical-align:center; align:center' src=img/fixation3.jpg></div></div>","null","","","","","","",""
"html-keyboard-response","41","102522","0.0-5.0-2.12","61086469e5457fed4f164b8e","bdp_td","Wed Mar 29 2023 12:18:39 GMT-0700 (Pacific Daylight Time)","142756","","2245","","","","offer","","<div class='trialBorder'><div class='vertical-center'><img style='vertical-align:center; align:center' src=img/fixation3.jpg></div><div class='cl'><div class='vertical-center'>$78<br><br>now</div></div><div class='cr'><div class='vertical-center'>$80<br>in<br>12 weeks</div></div><div class='respDivL'><div class='vertical-center'>(E)</div></div><div class='respDivR'><div class='vertical-center'>(I)</div></div></div>","E","$78<br><br>now","$80<br>in<br>12 weeks","0","78","80","12","NOW"
"html-keyboard-response","42","102776","0.0-5.0-3.12","61086469e5457fed4f164b8e","bdp_td","Wed Mar 29 2023 12:18:39 GMT-0700 (Pacific Daylight Time)","142756","","null","","","","offerFB","","<div class='trialBorder'><div class='vertical-center'><img style='vertical-align:center; align:center' src=img/fixation3.jpg></div><div class='cl'><div class='vertical-center'><font style='color:orange'>$78<br><br>now</font></div></div><div class='cr'><div class='vertical-center'>$80<br>in<br>12 weeks</div></div><div class='respDivL'><div class='vertical-center'><font style='color:orange'>(E)</font></div></div><div class='respDivR'><div class='vertical-center'>(I)</div></div></div>","null","$78<br><br>now","$80<br>in<br>12 weeks","0","78","80","12",""
"html-keyboard-response","43","103282","0.0-5.0-1.13","61086469e5457fed4f164b8e","bdp_td","Wed Mar 29 2023 12:18:39 GMT-0700 (Pacific Daylight Time)","142756","","null","","","","FIX","","<div class='trialBorder'><div class='vertical-center'><img style='vertical-align:center; align:center' src=img/fixation3.jpg></div></div>","null","","","","","","",""
"html-keyboard-response","44","106328","0.0-5.0-2.13","61086469e5457fed4f164b8e","bdp_td","Wed Mar 29 2023 12:18:39 GMT-0700 (Pacific Daylight Time)","142756","","3045","","","","offer","","<div class='trialBorder'><div class='vertical-center'><img style='vertical-align:center; align:center' src=img/fixation3.jpg></div><div class='cl'><div class='vertical-center'>$54<br><br>now</div></div><div class='cr'><div class='vertical-center'>$60<br>in<br>12 weeks</div></div><div class='respDivL'><div class='vertical-center'>(E)</div></div><div class='respDivR'><div class='vertical-center'>(I)</div></div></div>","E","$54<br><br>now","$60<br>in<br>12 weeks","0","54","60","12","NOW"
"html-keyboard-response","45","106585","0.0-5.0-3.13","61086469e5457fed4f164b8e","bdp_td","Wed Mar 29 2023 12:18:39 GMT-0700 (Pacific Daylight Time)","142756","","null","","","","offerFB","","<div class='trialBorder'><div class='vertical-center'><img style='vertical-align:center; align:center' src=img/fixation3.jpg></div><div class='cl'><div class='vertical-center'><font style='color:orange'>$54<br><br>now</font></div></div><div class='cr'><div class='vertical-center'>$60<br>in<br>12 weeks</div></div><div class='respDivL'><div class='vertical-center'><font style='color:orange'>(E)</font></div></div><div class='respDivR'><div class='vertical-center'>(I)</div></div></div>","null","$54<br><br>now","$60<br>in<br>12 weeks","0","54","60","12",""
"html-keyboard-response","46","107095","0.0-5.0-1.14","61086469e5457fed4f164b8e","bdp_td","Wed Mar 29 2023 12:18:39 GMT-0700 (Pacific Daylight Time)","142756","","null","","","","FIX","","<div class='trialBorder'><div class='vertical-center'><img style='vertical-align:center; align:center' src=img/fixation3.jpg></div></div>","null","","","","","","",""
"html-keyboard-response","47","108397","0.0-5.0-2.14","61086469e5457fed4f164b8e","bdp_td","Wed Mar 29 2023 12:18:39 GMT-0700 (Pacific Daylight Time)","142756","","1301","","","","offer","","<div class='trialBorder'><div class='vertical-center'><img style='vertical-align:center; align:center' src=img/fixation3.jpg></div><div class='cl'><div class='vertical-center'>$24<br><br>now</div></div><div class='cr'><div class='vertical-center'>$35<br>in<br>3 weeks</div></div><div class='respDivL'><div class='vertical-center'>(E)</div></div><div class='respDivR'><div class='vertical-center'>(I)</div></div></div>","I","$24<br><br>now","$35<br>in<br>3 weeks","0","24","35","3","THEN"
"html-keyboard-response","48","108651","0.0-5.0-3.14","61086469e5457fed4f164b8e","bdp_td","Wed Mar 29 2023 12:18:39 GMT-0700 (Pacific Daylight Time)","142756","","null","","","","offerFB","","<div class='trialBorder'><div class='vertical-center'><img style='vertical-align:center; align:center' src=img/fixation3.jpg></div><div class='cl'><div class='vertical-center'>$24<br><br>now</div></div><div class='cr'><div class='vertical-center'><font style='color:orange'>$35<br>in<br>3 weeks</font></div></div><div class='respDivL'><div class='vertical-center'>(E)</div></div><div class='respDivR'><div class='vertical-center'><font style='color:orange'>(I)</font></div></div></div>","null","$24<br><br>now","$35<br>in<br>3 weeks","0","24","35","3",""
"html-keyboard-response","49","109157","0.0-5.0-1.15","61086469e5457fed4f164b8e","bdp_td","Wed Mar 29 2023 12:18:39 GMT-0700 (Pacific Daylight Time)","142756","","null","","","","FIX","","<div class='trialBorder'><div class='vertical-center'><img style='vertical-align:center; align:center' src=img/fixation3.jpg></div></div>","null","","","","","","",""
"html-keyboard-response","50","110844","0.0-5.0-2.15","61086469e5457fed4f164b8e","bdp_td","Wed Mar 29 2023 12:18:39 GMT-0700 (Pacific Daylight Time)","142756","","1684","","","","offer","","<div class='trialBorder'><div class='vertical-center'><img style='vertical-align:center; align:center' src=img/fixation3.jpg></div><div class='cl'><div class='vertical-center'>$49<br><br>now</div></div><div class='cr'><div class='vertical-center'>$60<br>in<br>6 weeks</div></div><div class='respDivL'><div class='vertical-center'>(E)</div></div><div class='respDivR'><div class='vertical-center'>(I)</div></div></div>","E","$49<br><br>now","$60<br>in<br>6 weeks","0","49","60","6","NOW"
"html-keyboard-response","51","111099","0.0-5.0-3.15","61086469e5457fed4f164b8e","bdp_td","Wed Mar 29 2023 12:18:39 GMT-0700 (Pacific Daylight Time)","142756","","null","","","","offerFB","","<div class='trialBorder'><div class='vertical-center'><img style='vertical-align:center; align:center' src=img/fixation3.jpg></div><div class='cl'><div class='vertical-center'><font style='color:orange'>$49<br><br>now</font></div></div><div class='cr'><div class='vertical-center'>$60<br>in<br>6 weeks</div></div><div class='respDivL'><div class='vertical-center'><font style='color:orange'>(E)</font></div></div><div class='respDivR'><div class='vertical-center'>(I)</div></div></div>","null","$49<br><br>now","$60<br>in<br>6 weeks","0","49","60","6",""
"html-keyboard-response","52","111602","0.0-5.0-1.16","61086469e5457fed4f164b8e","bdp_td","Wed Mar 29 2023 12:18:39 GMT-0700 (Pacific Daylight Time)","142756","","null","","","","FIX","","<div class='trialBorder'><div class='vertical-center'><img style='vertical-align:center; align:center' src=img/fixation3.jpg></div></div>","null","","","","","","",""
"html-keyboard-response","53","112742","0.0-5.0-2.16","61086469e5457fed4f164b8e","bdp_td","Wed Mar 29 2023 12:18:39 GMT-0700 (Pacific Daylight Time)","142756","","1139","","","","offer","","<div class='trialBorder'><div class='vertical-center'><img style='vertical-align:center; align:center' src=img/fixation3.jpg></div><div class='cl'><div class='vertical-center'>$15<br><br>now</div></div><div class='cr'><div class='vertical-center'>$35<br>in<br>2 weeks</div></div><div class='respDivL'><div class='vertical-center'>(E)</div></div><div class='respDivR'><div class='vertical-center'>(I)</div></div></div>","I","$15<br><br>now","$35<br>in<br>2 weeks","0","15","35","2","THEN"
"html-keyboard-response","54","113003","0.0-5.0-3.16","61086469e5457fed4f164b8e","bdp_td","Wed Mar 29 2023 12:18:39 GMT-0700 (Pacific Daylight Time)","142756","","null","","","","offerFB","","<div class='trialBorder'><div class='vertical-center'><img style='vertical-align:center; align:center' src=img/fixation3.jpg></div><div class='cl'><div class='vertical-center'>$15<br><br>now</div></div><div class='cr'><div class='vertical-center'><font style='color:orange'>$35<br>in<br>2 weeks</font></div></div><div class='respDivL'><div class='vertical-center'>(E)</div></div><div class='respDivR'><div class='vertical-center'><font style='color:orange'>(I)</font></div></div></div>","null","$15<br><br>now","$35<br>in<br>2 weeks","0","15","35","2",""
"html-keyboard-response","55","113515","0.0-5.0-1.17","61086469e5457fed4f164b8e","bdp_td","Wed Mar 29 2023 12:18:39 GMT-0700 (Pacific Daylight Time)","142756","","null","","","","FIX","","<div class='trialBorder'><div class='vertical-center'><img style='vertical-align:center; align:center' src=img/fixation3.jpg></div></div>","null","","","","","","",""
"html-keyboard-response","56","114900","0.0-5.0-2.17","61086469e5457fed4f164b8e","bdp_td","Wed Mar 29 2023 12:18:39 GMT-0700 (Pacific Daylight Time)","142756","","1383","","","","offer","","<div class='trialBorder'><div class='vertical-center'><img style='vertical-align:center; align:center' src=img/fixation3.jpg></div><div class='cl'><div class='vertical-center'>$55<br>in<br>1 week</div></div><div class='cr'><div class='vertical-center'>$20<br><br>now</div></div><div class='respDivL'><div class='vertical-center'>(E)</div></div><div class='respDivR'><div class='vertical-center'>(I)</div></div></div>","E","$20<br><br>now","$55<br>in<br>1 week","1","20","55","1","THEN"
"html-keyboard-response","57","115160","0.0-5.0-3.17","61086469e5457fed4f164b8e","bdp_td","Wed Mar 29 2023 12:18:39 GMT-0700 (Pacific Daylight Time)","142756","","null","","","","offerFB","","<div class='trialBorder'><div class='vertical-center'><img style='vertical-align:center; align:center' src=img/fixation3.jpg></div><div class='cl'><div class='vertical-center'><font style='color:orange'>$55<br>in<br>1 week</font></div></div><div class='cr'><div class='vertical-center'>$20<br><br>now</div></div><div class='respDivL'><div class='vertical-center'><font style='color:orange'>(E)</font></div></div><div class='respDivR'><div class='vertical-center'>(I)</div></div></div>","null","$20<br><br>now","$55<br>in<br>1 week","1","20","55","1",""
"html-keyboard-response","58","115673","0.0-5.0-1.18","61086469e5457fed4f164b8e","bdp_td","Wed Mar 29 2023 12:18:39 GMT-0700 (Pacific Daylight Time)","142756","","null","","","","FIX","","<div class='trialBorder'><div class='vertical-center'><img style='vertical-align:center; align:center' src=img/fixation3.jpg></div></div>","null","","","","","","",""
"html-keyboard-response","59","118152","0.0-5.0-2.18","61086469e5457fed4f164b8e","bdp_td","Wed Mar 29 2023 12:18:39 GMT-0700 (Pacific Daylight Time)","142756","","2477","","","","offer","","<div class='trialBorder'><div class='vertical-center'><img style='vertical-align:center; align:center' src=img/fixation3.jpg></div><div class='cl'><div class='vertical-center'>$40<br><br>now</div></div><div class='cr'><div class='vertical-center'>$55<br>in<br>6 weeks</div></div><div class='respDivL'><div class='vertical-center'>(E)</div></div><div class='respDivR'><div class='vertical-center'>(I)</div></div></div>","I","$40<br><br>now","$55<br>in<br>6 weeks","0","40","55","6","THEN"
"html-keyboard-response","60","118409","0.0-5.0-3.18","61086469e5457fed4f164b8e","bdp_td","Wed Mar 29 2023 12:18:39 GMT-0700 (Pacific Daylight Time)","142756","","null","","","","offerFB","","<div class='trialBorder'><div class='vertical-center'><img style='vertical-align:center; align:center' src=img/fixation3.jpg></div><div class='cl'><div class='vertical-center'>$40<br><br>now</div></div><div class='cr'><div class='vertical-center'><font style='color:orange'>$55<br>in<br>6 weeks</font></div></div><div class='respDivL'><div class='vertical-center'>(E)</div></div><div class='respDivR'><div class='vertical-center'><font style='color:orange'>(I)</font></div></div></div>","null","$40<br><br>now","$55<br>in<br>6 weeks","0","40","55","6",""
"html-keyboard-response","61","118918","0.0-5.0-1.19","61086469e5457fed4f164b8e","bdp_td","Wed Mar 29 2023 12:18:39 GMT-0700 (Pacific Daylight Time)","142756","","null","","","","FIX","","<div class='trialBorder'><div class='vertical-center'><img style='vertical-align:center; align:center' src=img/fixation3.jpg></div></div>","null","","","","","","",""
"html-keyboard-response","62","120356","0.0-5.0-2.19","61086469e5457fed4f164b8e","bdp_td","Wed Mar 29 2023 12:18:39 GMT-0700 (Pacific Daylight Time)","142756","","1437","","","","offer","","<div class='trialBorder'><div class='vertical-center'><img style='vertical-align:center; align:center' src=img/fixation3.jpg></div><div class='cl'><div class='vertical-center'>$30<br>in<br>2 weeks</div></div><div class='cr'><div class='vertical-center'>$11<br><br>now</div></div><div class='respDivL'><div class='vertical-center'>(E)</div></div><div class='respDivR'><div class='vertical-center'>(I)</div></div></div>","E","$11<br><br>now","$30<br>in<br>2 weeks","1","11","30","2","THEN"
"html-keyboard-response","63","120610","0.0-5.0-3.19","61086469e5457fed4f164b8e","bdp_td","Wed Mar 29 2023 12:18:39 GMT-0700 (Pacific Daylight Time)","142756","","null","","","","offerFB","","<div class='trialBorder'><div class='vertical-center'><img style='vertical-align:center; align:center' src=img/fixation3.jpg></div><div class='cl'><div class='vertical-center'><font style='color:orange'>$30<br>in<br>2 weeks</font></div></div><div class='cr'><div class='vertical-center'>$11<br><br>now</div></div><div class='respDivL'><div class='vertical-center'><font style='color:orange'>(E)</font></div></div><div class='respDivR'><div class='vertical-center'>(I)</div></div></div>","null","$11<br><br>now","$30<br>in<br>2 weeks","1","11","30","2",""
"html-keyboard-response","64","121114","0.0-5.0-1.20","61086469e5457fed4f164b8e","bdp_td","Wed Mar 29 2023 12:18:39 GMT-0700 (Pacific Daylight Time)","142756","","null","","","","FIX","","<div class='trialBorder'><div class='vertical-center'><img style='vertical-align:center; align:center' src=img/fixation3.jpg></div></div>","null","","","","","","",""
"html-keyboard-response","65","122932","0.0-5.0-2.20","61086469e5457fed4f164b8e","bdp_td","Wed Mar 29 2023 12:18:39 GMT-0700 (Pacific Daylight Time)","142756","","1817","","","","offer","","<div class='trialBorder'><div class='vertical-center'><img style='vertical-align:center; align:center' src=img/fixation3.jpg></div><div class='cl'><div class='vertical-center'>$85<br>in<br>6 weeks</div></div><div class='cr'><div class='vertical-center'>$69<br><br>now</div></div><div class='respDivL'><div class='vertical-center'>(E)</div></div><div class='respDivR'><div class='vertical-center'>(I)</div></div></div>","I","$69<br><br>now","$85<br>in<br>6 weeks","1","69","85","6","NOW"
"html-keyboard-response","66","123191","0.0-5.0-3.20","61086469e5457fed4f164b8e","bdp_td","Wed Mar 29 2023 12:18:39 GMT-0700 (Pacific Daylight Time)","142756","","null","","","","offerFB","","<div class='trialBorder'><div class='vertical-center'><img style='vertical-align:center; align:center' src=img/fixation3.jpg></div><div class='cl'><div class='vertical-center'>$85<br>in<br>6 weeks</div></div><div class='cr'><div class='vertical-center'><font style='color:orange'>$69<br><br>now</font></div></div><div class='respDivL'><div class='vertical-center'>(E)</div></div><div class='respDivR'><div class='vertical-center'><font style='color:orange'>(I)</font></div></div></div>","null","$69<br><br>now","$85<br>in<br>6 weeks","1","69","85","6",""
"html-keyboard-response","67","123698","0.0-5.0-1.21","61086469e5457fed4f164b8e","bdp_td","Wed Mar 29 2023 12:18:39 GMT-0700 (Pacific Daylight Time)","142756","","null","","","","FIX","","<div class='trialBorder'><div class='vertical-center'><img style='vertical-align:center; align:center' src=img/fixation3.jpg></div></div>","null","","","","","","",""
"html-keyboard-response","68","125595","0.0-5.0-2.21","61086469e5457fed4f164b8e","bdp_td","Wed Mar 29 2023 12:18:39 GMT-0700 (Pacific Daylight Time)","142756","","1895","","","","offer","","<div class='trialBorder'><div class='vertical-center'><img style='vertical-align:center; align:center' src=img/fixation3.jpg></div><div class='cl'><div class='vertical-center'>$54<br><br>now</div></div><div class='cr'><div class='vertical-center'>$55<br>in<br>12 weeks</div></div><div class='respDivL'><div class='vertical-center'>(E)</div></div><div class='respDivR'><div class='vertical-center'>(I)</div></div></div>","E","$54<br><br>now","$55<br>in<br>12 weeks","0","54","55","12","NOW"
"html-keyboard-response","69","125854","0.0-5.0-3.21","61086469e5457fed4f164b8e","bdp_td","Wed Mar 29 2023 12:18:39 GMT-0700 (Pacific Daylight Time)","142756","","null","","","","offerFB","","<div class='trialBorder'><div class='vertical-center'><img style='vertical-align:center; align:center' src=img/fixation3.jpg></div><div class='cl'><div class='vertical-center'><font style='color:orange'>$54<br><br>now</font></div></div><div class='cr'><div class='vertical-center'>$55<br>in<br>12 weeks</div></div><div class='respDivL'><div class='vertical-center'><font style='color:orange'>(E)</font></div></div><div class='respDivR'><div class='vertical-center'>(I)</div></div></div>","null","$54<br><br>now","$55<br>in<br>12 weeks","0","54","55","12",""
"html-keyboard-response","70","126357","0.0-5.0-1.22","61086469e5457fed4f164b8e","bdp_td","Wed Mar 29 2023 12:18:39 GMT-0700 (Pacific Daylight Time)","142756","","null","","","","FIX","","<div class='trialBorder'><div class='vertical-center'><img style='vertical-align:center; align:center' src=img/fixation3.jpg></div></div>","null","","","","","","",""
"html-keyboard-response","71","128237","0.0-5.0-2.22","61086469e5457fed4f164b8e","bdp_td","Wed Mar 29 2023 12:18:39 GMT-0700 (Pacific Daylight Time)","142756","","1878","","","","offer","","<div class='trialBorder'><div class='vertical-center'><img style='vertical-align:center; align:center' src=img/fixation3.jpg></div><div class='cl'><div class='vertical-center'>$50<br>in<br>12 weeks</div></div><div class='cr'><div class='vertical-center'>$47<br><br>now</div></div><div class='respDivL'><div class='vertical-center'>(E)</div></div><div class='respDivR'><div class='vertical-center'>(I)</div></div></div>","I","$47<br><br>now","$50<br>in<br>12 weeks","1","47","50","12","NOW"
"html-keyboard-response","72","128496","0.0-5.0-3.22","61086469e5457fed4f164b8e","bdp_td","Wed Mar 29 2023 12:18:39 GMT-0700 (Pacific Daylight Time)","142756","","null","","","","offerFB","","<div class='trialBorder'><div class='vertical-center'><img style='vertical-align:center; align:center' src=img/fixation3.jpg></div><div class='cl'><div class='vertical-center'>$50<br>in<br>12 weeks</div></div><div class='cr'><div class='vertical-center'><font style='color:orange'>$47<br><br>now</font></div></div><div class='respDivL'><div class='vertical-center'>(E)</div></div><div class='respDivR'><div class='vertical-center'><font style='color:orange'>(I)</font></div></div></div>","null","$47<br><br>now","$50<br>in<br>12 weeks","1","47","50","12",""
"html-keyboard-response","73","129006","0.0-5.0-1.23","61086469e5457fed4f164b8e","bdp_td","Wed Mar 29 2023 12:18:39 GMT-0700 (Pacific Daylight Time)","142756","","null","","","","FIX","","<div class='trialBorder'><div class='vertical-center'><img style='vertical-align:center; align:center' src=img/fixation3.jpg></div></div>","null","","","","","","",""
"html-keyboard-response","74","131689","0.0-5.0-2.23","61086469e5457fed4f164b8e","bdp_td","Wed Mar 29 2023 12:18:39 GMT-0700 (Pacific Daylight Time)","142756","","2681","","","","offer","","<div class='trialBorder'><div class='vertical-center'><img style='vertical-align:center; align:center' src=img/fixation3.jpg></div><div class='cl'><div class='vertical-center'>$35<br>in<br>12 weeks</div></div><div class='cr'><div class='vertical-center'>$34<br><br>now</div></div><div class='respDivL'><div class='vertical-center'>(E)</div></div><div class='respDivR'><div class='vertical-center'>(I)</div></div></div>","I","$34<br><br>now","$35<br>in<br>12 weeks","1","34","35","12","NOW"
"html-keyboard-response","75","131950","0.0-5.0-3.23","61086469e5457fed4f164b8e","bdp_td","Wed Mar 29 2023 12:18:39 GMT-0700 (Pacific Daylight Time)","142756","","null","","","","offerFB","","<div class='trialBorder'><div class='vertical-center'><img style='vertical-align:center; align:center' src=img/fixation3.jpg></div><div class='cl'><div class='vertical-center'>$35<br>in<br>12 weeks</div></div><div class='cr'><div class='vertical-center'><font style='color:orange'>$34<br><br>now</font></div></div><div class='respDivL'><div class='vertical-center'>(E)</div></div><div class='respDivR'><div class='vertical-center'><font style='color:orange'>(I)</font></div></div></div>","null","$34<br><br>now","$35<br>in<br>12 weeks","1","34","35","12",""
"html-keyboard-response","76","132457","0.0-5.0-1.24","61086469e5457fed4f164b8e","bdp_td","Wed Mar 29 2023 12:18:39 GMT-0700 (Pacific Daylight Time)","142756","","null","","","","FIX","","<div class='trialBorder'><div class='vertical-center'><img style='vertical-align:center; align:center' src=img/fixation3.jpg></div></div>","null","","","","","","",""
"html-keyboard-response","77","135095","0.0-5.0-2.24","61086469e5457fed4f164b8e","bdp_td","Wed Mar 29 2023 12:18:39 GMT-0700 (Pacific Daylight Time)","142756","","2636","","","","offer","","<div class='trialBorder'><div class='vertical-center'><img style='vertical-align:center; align:center' src=img/fixation3.jpg></div><div class='cl'><div class='vertical-center'>$50<br>in<br>6 weeks</div></div><div class='cr'><div class='vertical-center'>$34<br><br>now</div></div><div class='respDivL'><div class='vertical-center'>(E)</div></div><div class='respDivR'><div class='vertical-center'>(I)</div></div></div>","E","$34<br><br>now","$50<br>in<br>6 weeks","1","34","50","6","THEN"
"html-keyboard-response","78","135346","0.0-5.0-3.24","61086469e5457fed4f164b8e","bdp_td","Wed Mar 29 2023 12:18:39 GMT-0700 (Pacific Daylight Time)","142756","","null","","","","offerFB","","<div class='trialBorder'><div class='vertical-center'><img style='vertical-align:center; align:center' src=img/fixation3.jpg></div><div class='cl'><div class='vertical-center'><font style='color:orange'>$50<br>in<br>6 weeks</font></div></div><div class='cr'><div class='vertical-center'>$34<br><br>now</div></div><div class='respDivL'><div class='vertical-center'><font style='color:orange'>(E)</font></div></div><div class='respDivR'><div class='vertical-center'>(I)</div></div></div>","null","$34<br><br>now","$50<br>in<br>6 weeks","1","34","50","6",""
"html-keyboard-response","79","135849","0.0-5.0-1.25","61086469e5457fed4f164b8e","bdp_td","Wed Mar 29 2023 12:18:39 GMT-0700 (Pacific Daylight Time)","142756","","null","","","","FIX","","<div class='trialBorder'><div class='vertical-center'><img style='vertical-align:center; align:center' src=img/fixation3.jpg></div></div>","null","","","","","","",""
"html-keyboard-response","80","136878","0.0-5.0-2.25","61086469e5457fed4f164b8e","bdp_td","Wed Mar 29 2023 12:18:39 GMT-0700 (Pacific Daylight Time)","142756","","1028","","","","offer","","<div class='trialBorder'><div class='vertical-center'><img style='vertical-align:center; align:center' src=img/fixation3.jpg></div><div class='cl'><div class='vertical-center'>$25<br><br>now</div></div><div class='cr'><div class='vertical-center'>$30<br>in<br>6 weeks</div></div><div class='respDivL'><div class='vertical-center'>(E)</div></div><div class='respDivR'><div class='vertical-center'>(I)</div></div></div>","I","$25<br><br>now","$30<br>in<br>6 weeks","0","25","30","6","THEN"
"html-keyboard-response","81","137134","0.0-5.0-3.25","61086469e5457fed4f164b8e","bdp_td","Wed Mar 29 2023 12:18:39 GMT-0700 (Pacific Daylight Time)","142756","","null","","","","offerFB","","<div class='trialBorder'><div class='vertical-center'><img style='vertical-align:center; align:center' src=img/fixation3.jpg></div><div class='cl'><div class='vertical-center'>$25<br><br>now</div></div><div class='cr'><div class='vertical-center'><font style='color:orange'>$30<br>in<br>6 weeks</font></div></div><div class='respDivL'><div class='vertical-center'>(E)</div></div><div class='respDivR'><div class='vertical-center'><font style='color:orange'>(I)</font></div></div></div>","null","$25<br><br>now","$30<br>in<br>6 weeks","0","25","30","6",""
"html-keyboard-response","82","137642","0.0-5.0-1.26","61086469e5457fed4f164b8e","bdp_td","Wed Mar 29 2023 12:18:39 GMT-0700 (Pacific Daylight Time)","142756","","null","","","","FIX","","<div class='trialBorder'><div class='vertical-center'><img style='vertical-align:center; align:center' src=img/fixation3.jpg></div></div>","null","","","","","","",""
"html-keyboard-response","83","141494","0.0-5.0-2.26","61086469e5457fed4f164b8e","bdp_td","Wed Mar 29 2023 12:18:39 GMT-0700 (Pacific Daylight Time)","142756","","3851","","","","offer","","<div class='trialBorder'><div class='vertical-center'><img style='vertical-align:center; align:center' src=img/fixation3.jpg></div><div class='cl'><div class='vertical-center'>$60<br>in<br>3 weeks</div></div><div class='cr'><div class='vertical-center'>$25<br><br>now</div></div><div class='respDivL'><div class='vertical-center'>(E)</div></div><div class='respDivR'><div class='vertical-center'>(I)</div></div></div>","E","$25<br><br>now","$60<br>in<br>3 weeks","1","25","60","3","THEN"
"html-keyboard-response","84","141752","0.0-5.0-3.26","61086469e5457fed4f164b8e","bdp_td","Wed Mar 29 2023 12:18:39 GMT-0700 (Pacific Daylight Time)","142756","","null","","","","offerFB","","<div class='trialBorder'><div class='vertical-center'><img style='vertical-align:center; align:center' src=img/fixation3.jpg></div><div class='cl'><div class='vertical-center'><font style='color:orange'>$60<br>in<br>3 weeks</font></div></div><div class='cr'><div class='vertical-center'>$25<br><br>now</div></div><div class='respDivL'><div class='vertical-center'><font style='color:orange'>(E)</font></div></div><div class='respDivR'><div class='vertical-center'>(I)</div></div></div>","null","$25<br><br>now","$60<br>in<br>3 weeks","1","25","60","3",""
"","","","","61086469e5457fed4f164b8e","bdp_td","Wed Mar 29 2023 12:18:39 GMT-0700 (Pacific Daylight Time)","142756","","","fullscreenexit","85","141842","fullscreenexit","","","","","","","","","",""
"fullscreen","85","142755","0.0-6.0","61086469e5457fed4f164b8e","bdp_td","Wed Mar 29 2023 12:18:39 GMT-0700 (Pacific Daylight Time)","142756","","","","","","","true","","","","","","","","",""
"html-keyboard-response","86","143260","0.0-7.0","","","","","","null","","","","","","","null","","","","","","",""
