"trial_type","trial_index","time_elapsed","internal_node_id","subject_id","task","startTime","totalTime","view_history","rt","event","trial","time","trialtype","success","stimulus","key_press","nowOffer","thenOffer","thenLeft","nowAmt","thenAmt","thenWeeks","chosen"
"pavlovia","0","2","0.0-0.0","60fd738c235e974993ad455c","bdp_td","Tue Mar 28 2023 16:41:03 GMT-0500 (Central Daylight Time)","132024","","","","","","","","","","","","","","","",""
"instructions","1","1957","0.0-1.0","60fd738c235e974993ad455c","bdp_td","Tue Mar 28 2023 16:41:03 GMT-0500 (Central Daylight Time)","132024","[{""page_index"":0,""viewing_time"":1955}]","1955","","","","","","","","","","","","","",""
"","","","","60fd738c235e974993ad455c","bdp_td","Tue Mar 28 2023 16:41:03 GMT-0500 (Central Daylight Time)","132024","","","fullscreenenter","2","4501","fullscreenenter","","","","","","","","","",""
"fullscreen","2","5500","0.0-2.0","60fd738c235e974993ad455c","bdp_td","Tue Mar 28 2023 16:41:03 GMT-0500 (Central Daylight Time)","132024","","","","","","","true","","","","","","","","",""
"instructions","3","45938","0.0-4.0","60fd738c235e974993ad455c","bdp_td","Tue Mar 28 2023 16:41:03 GMT-0500 (Central Daylight Time)","132024","[{""page_index"":0,""viewing_time"":25175},{""page_index"":1,""viewing_time"":2334},{""page_index"":2,""viewing_time"":3360},{""page_index"":1,""viewing_time"":1136},{""page_index"":2,""viewing_time"":8432}]","40437","","","","","","","","","","","","","",""
"html-keyboard-response","4","46441","0.0-5.0-1.0","60fd738c235e974993ad455c","bdp_td","Tue Mar 28 2023 16:41:03 GMT-0500 (Central Daylight Time)","132024","","null","","","","FIX","","<div class='trialBorder'><div class='vertical-center'><img style='vertical-align:center; align:center' src=img/fixation3.jpg></div></div>","null","","","","","","",""
"html-keyboard-response","5","53202","0.0-5.0-2.0","60fd738c235e974993ad455c","bdp_td","Tue Mar 28 2023 16:41:03 GMT-0500 (Central Daylight Time)","132024","","6759","","","","offer","","<div class='trialBorder'><div class='vertical-center'><img style='vertical-align:center; align:center' src=img/fixation3.jpg></div><div class='cl'><div class='vertical-center'>$34<br><br>now</div></div><div class='cr'><div class='vertical-center'>$35<br>in<br>12 weeks</div></div><div class='respDivL'><div class='vertical-center'>(E)</div></div><div class='respDivR'><div class='vertical-center'>(I)</div></div></div>","E","$34<br><br>now","$35<br>in<br>12 weeks","0","34","35","12","NOW"
"html-keyboard-response","6","53455","0.0-5.0-3.0","60fd738c235e974993ad455c","bdp_td","Tue Mar 28 2023 16:41:03 GMT-0500 (Central Daylight Time)","132024","","null","","","","offerFB","","<div class='trialBorder'><div class='vertical-center'><img style='vertical-align:center; align:center' src=img/fixation3.jpg></div><div class='cl'><div class='vertical-center'><font style='color:orange'>$34<br><br>now</font></div></div><div class='cr'><div class='vertical-center'>$35<br>in<br>12 weeks</div></div><div class='respDivL'><div class='vertical-center'><font style='color:orange'>(E)</font></div></div><div class='respDivR'><div class='vertical-center'>(I)</div></div></div>","null","$34<br><br>now","$35<br>in<br>12 weeks","0","34","35","12",""
"html-keyboard-response","7","53958","0.0-5.0-1.1","60fd738c235e974993ad455c","bdp_td","Tue Mar 28 2023 16:41:03 GMT-0500 (Central Daylight Time)","132024","","null","","","","FIX","","<div class='trialBorder'><div class='vertical-center'><img style='vertical-align:center; align:center' src=img/fixation3.jpg></div></div>","null","","","","","","",""
"html-keyboard-response","8","57060","0.0-5.0-2.1","60fd738c235e974993ad455c","bdp_td","Tue Mar 28 2023 16:41:03 GMT-0500 (Central Daylight Time)","132024","","3100","","","","offer","","<div class='trialBorder'><div class='vertical-center'><img style='vertical-align:center; align:center' src=img/fixation3.jpg></div><div class='cl'><div class='vertical-center'>$60<br>in<br>12 weeks</div></div><div class='cr'><div class='vertical-center'>$54<br><br>now</div></div><div class='respDivL'><div class='vertical-center'>(E)</div></div><div class='respDivR'><div class='vertical-center'>(I)</div></div></div>","I","$54<br><br>now","$60<br>in<br>12 weeks","1","54","60","12","NOW"
"html-keyboard-response","9","57312","0.0-5.0-3.1","60fd738c235e974993ad455c","bdp_td","Tue Mar 28 2023 16:41:03 GMT-0500 (Central Daylight Time)","132024","","null","","","","offerFB","","<div class='trialBorder'><div class='vertical-center'><img style='vertical-align:center; align:center' src=img/fixation3.jpg></div><div class='cl'><div class='vertical-center'>$60<br>in<br>12 weeks</div></div><div class='cr'><div class='vertical-center'><font style='color:orange'>$54<br><br>now</font></div></div><div class='respDivL'><div class='vertical-center'>(E)</div></div><div class='respDivR'><div class='vertical-center'><font style='color:orange'>(I)</font></div></div></div>","null","$54<br><br>now","$60<br>in<br>12 weeks","1","54","60","12",""
"html-keyboard-response","10","57815","0.0-5.0-1.2","60fd738c235e974993ad455c","bdp_td","Tue Mar 28 2023 16:41:03 GMT-0500 (Central Daylight Time)","132024","","null","","","","FIX","","<div class='trialBorder'><div class='vertical-center'><img style='vertical-align:center; align:center' src=img/fixation3.jpg></div></div>","null","","","","","","",""
"html-keyboard-response","11","59730","0.0-5.0-2.2","60fd738c235e974993ad455c","bdp_td","Tue Mar 28 2023 16:41:03 GMT-0500 (Central Daylight Time)","132024","","1914","","","","offer","","<div class='trialBorder'><div class='vertical-center'><img style='vertical-align:center; align:center' src=img/fixation3.jpg></div><div class='cl'><div class='vertical-center'>$30<br>in<br>6 weeks</div></div><div class='cr'><div class='vertical-center'>$25<br><br>now</div></div><div class='respDivL'><div class='vertical-center'>(E)</div></div><div class='respDivR'><div class='vertical-center'>(I)</div></div></div>","I","$25<br><br>now","$30<br>in<br>6 weeks","1","25","30","6","NOW"
"html-keyboard-response","12","59983","0.0-5.0-3.2","60fd738c235e974993ad455c","bdp_td","Tue Mar 28 2023 16:41:03 GMT-0500 (Central Daylight Time)","132024","","null","","","","offerFB","","<div class='trialBorder'><div class='vertical-center'><img style='vertical-align:center; align:center' src=img/fixation3.jpg></div><div class='cl'><div class='vertical-center'>$30<br>in<br>6 weeks</div></div><div class='cr'><div class='vertical-center'><font style='color:orange'>$25<br><br>now</font></div></div><div class='respDivL'><div class='vertical-center'>(E)</div></div><div class='respDivR'><div class='vertical-center'><font style='color:orange'>(I)</font></div></div></div>","null","$25<br><br>now","$30<br>in<br>6 weeks","1","25","30","6",""
"html-keyboard-response","13","60486","0.0-5.0-1.3","60fd738c235e974993ad455c","bdp_td","Tue Mar 28 2023 16:41:03 GMT-0500 (Central Daylight Time)","132024","","null","","","","FIX","","<div class='trialBorder'><div class='vertical-center'><img style='vertical-align:center; align:center' src=img/fixation3.jpg></div></div>","null","","","","","","",""
"html-keyboard-response","14","62002","0.0-5.0-2.3","60fd738c235e974993ad455c","bdp_td","Tue Mar 28 2023 16:41:03 GMT-0500 (Central Daylight Time)","132024","","1514","","","","offer","","<div class='trialBorder'><div class='vertical-center'><img style='vertical-align:center; align:center' src=img/fixation3.jpg></div><div class='cl'><div class='vertical-center'>$67<br><br>now</div></div><div class='cr'><div class='vertical-center'>$75<br>in<br>12 weeks</div></div><div class='respDivL'><div class='vertical-center'>(E)</div></div><div class='respDivR'><div class='vertical-center'>(I)</div></div></div>","I","$67<br><br>now","$75<br>in<br>12 weeks","0","67","75","12","THEN"
"html-keyboard-response","15","62253","0.0-5.0-3.3","60fd738c235e974993ad455c","bdp_td","Tue Mar 28 2023 16:41:03 GMT-0500 (Central Daylight Time)","132024","","null","","","","offerFB","","<div class='trialBorder'><div class='vertical-center'><img style='vertical-align:center; align:center' src=img/fixation3.jpg></div><div class='cl'><div class='vertical-center'>$67<br><br>now</div></div><div class='cr'><div class='vertical-center'><font style='color:orange'>$75<br>in<br>12 weeks</font></div></div><div class='respDivL'><div class='vertical-center'>(E)</div></div><div class='respDivR'><div class='vertical-center'><font style='color:orange'>(I)</font></div></div></div>","null","$67<br><br>now","$75<br>in<br>12 weeks","0","67","75","12",""
"html-keyboard-response","16","62755","0.0-5.0-1.4","60fd738c235e974993ad455c","bdp_td","Tue Mar 28 2023 16:41:03 GMT-0500 (Central Daylight Time)","132024","","null","","","","FIX","","<div class='trialBorder'><div class='vertical-center'><img style='vertical-align:center; align:center' src=img/fixation3.jpg></div></div>","null","","","","","","",""
"html-keyboard-response","17","66850","0.0-5.0-2.4","60fd738c235e974993ad455c","bdp_td","Tue Mar 28 2023 16:41:03 GMT-0500 (Central Daylight Time)","132024","","4093","","","","offer","","<div class='trialBorder'><div class='vertical-center'><img style='vertical-align:center; align:center' src=img/fixation3.jpg></div><div class='cl'><div class='vertical-center'>$30<br>in<br>12 weeks</div></div><div class='cr'><div class='vertical-center'>$28<br><br>now</div></div><div class='respDivL'><div class='vertical-center'>(E)</div></div><div class='respDivR'><div class='vertical-center'>(I)</div></div></div>","I","$28<br><br>now","$30<br>in<br>12 weeks","1","28","30","12","NOW"
"html-keyboard-response","18","67102","0.0-5.0-3.4","60fd738c235e974993ad455c","bdp_td","Tue Mar 28 2023 16:41:03 GMT-0500 (Central Daylight Time)","132024","","null","","","","offerFB","","<div class='trialBorder'><div class='vertical-center'><img style='vertical-align:center; align:center' src=img/fixation3.jpg></div><div class='cl'><div class='vertical-center'>$30<br>in<br>12 weeks</div></div><div class='cr'><div class='vertical-center'><font style='color:orange'>$28<br><br>now</font></div></div><div class='respDivL'><div class='vertical-center'>(E)</div></div><div class='respDivR'><div class='vertical-center'><font style='color:orange'>(I)</font></div></div></div>","null","$28<br><br>now","$30<br>in<br>12 weeks","1","28","30","12",""
"html-keyboard-response","19","67604","0.0-5.0-1.5","60fd738c235e974993ad455c","bdp_td","Tue Mar 28 2023 16:41:03 GMT-0500 (Central Daylight Time)","132024","","null","","","","FIX","","<div class='trialBorder'><div class='vertical-center'><img style='vertical-align:center; align:center' src=img/fixation3.jpg></div></div>","null","","","","","","",""
"html-keyboard-response","20","70163","0.0-5.0-2.5","60fd738c235e974993ad455c","bdp_td","Tue Mar 28 2023 16:41:03 GMT-0500 (Central Daylight Time)","132024","","2558","","","","offer","","<div class='trialBorder'><div class='vertical-center'><img style='vertical-align:center; align:center' src=img/fixation3.jpg></div><div class='cl'><div class='vertical-center'>$33<br><br>now</div></div><div class='cr'><div class='vertical-center'>$80<br>in<br>2 weeks</div></div><div class='respDivL'><div class='vertical-center'>(E)</div></div><div class='respDivR'><div class='vertical-center'>(I)</div></div></div>","I","$33<br><br>now","$80<br>in<br>2 weeks","0","33","80","2","THEN"
"html-keyboard-response","21","70416","0.0-5.0-3.5","60fd738c235e974993ad455c","bdp_td","Tue Mar 28 2023 16:41:03 GMT-0500 (Central Daylight Time)","132024","","null","","","","offerFB","","<div class='trialBorder'><div class='vertical-center'><img style='vertical-align:center; align:center' src=img/fixation3.jpg></div><div class='cl'><div class='vertical-center'>$33<br><br>now</div></div><div class='cr'><div class='vertical-center'><font style='color:orange'>$80<br>in<br>2 weeks</font></div></div><div class='respDivL'><div class='vertical-center'>(E)</div></div><div class='respDivR'><div class='vertical-center'><font style='color:orange'>(I)</font></div></div></div>","null","$33<br><br>now","$80<br>in<br>2 weeks","0","33","80","2",""
"html-keyboard-response","22","70918","0.0-5.0-1.6","60fd738c235e974993ad455c","bdp_td","Tue Mar 28 2023 16:41:03 GMT-0500 (Central Daylight Time)","132024","","null","","","","FIX","","<div class='trialBorder'><div class='vertical-center'><img style='vertical-align:center; align:center' src=img/fixation3.jpg></div></div>","null","","","","","","",""
"html-keyboard-response","23","76131","0.0-5.0-2.6","60fd738c235e974993ad455c","bdp_td","Tue Mar 28 2023 16:41:03 GMT-0500 (Central Daylight Time)","132024","","5210","","","","offer","","<div class='trialBorder'><div class='vertical-center'><img style='vertical-align:center; align:center' src=img/fixation3.jpg></div><div class='cl'><div class='vertical-center'>$55<br><br>now</div></div><div class='cr'><div class='vertical-center'>$75<br>in<br>6 weeks</div></div><div class='respDivL'><div class='vertical-center'>(E)</div></div><div class='respDivR'><div class='vertical-center'>(I)</div></div></div>","I","$55<br><br>now","$75<br>in<br>6 weeks","0","55","75","6","THEN"
"html-keyboard-response","24","76384","0.0-5.0-3.6","60fd738c235e974993ad455c","bdp_td","Tue Mar 28 2023 16:41:03 GMT-0500 (Central Daylight Time)","132024","","null","","","","offerFB","","<div class='trialBorder'><div class='vertical-center'><img style='vertical-align:center; align:center' src=img/fixation3.jpg></div><div class='cl'><div class='vertical-center'>$55<br><br>now</div></div><div class='cr'><div class='vertical-center'><font style='color:orange'>$75<br>in<br>6 weeks</font></div></div><div class='respDivL'><div class='vertical-center'>(E)</div></div><div class='respDivR'><div class='vertical-center'><font style='color:orange'>(I)</font></div></div></div>","null","$55<br><br>now","$75<br>in<br>6 weeks","0","55","75","6",""
"html-keyboard-response","25","76885","0.0-5.0-1.7","60fd738c235e974993ad455c","bdp_td","Tue Mar 28 2023 16:41:03 GMT-0500 (Central Daylight Time)","132024","","null","","","","FIX","","<div class='trialBorder'><div class='vertical-center'><img style='vertical-align:center; align:center' src=img/fixation3.jpg></div></div>","null","","","","","","",""
"html-keyboard-response","26","79267","0.0-5.0-2.7","60fd738c235e974993ad455c","bdp_td","Tue Mar 28 2023 16:41:03 GMT-0500 (Central Daylight Time)","132024","","2380","","","","offer","","<div class='trialBorder'><div class='vertical-center'><img style='vertical-align:center; align:center' src=img/fixation3.jpg></div><div class='cl'><div class='vertical-center'>$60<br>in<br>6 weeks</div></div><div class='cr'><div class='vertical-center'>$49<br><br>now</div></div><div class='respDivL'><div class='vertical-center'>(E)</div></div><div class='respDivR'><div class='vertical-center'>(I)</div></div></div>","E","$49<br><br>now","$60<br>in<br>6 weeks","1","49","60","6","THEN"
"html-keyboard-response","27","79519","0.0-5.0-3.7","60fd738c235e974993ad455c","bdp_td","Tue Mar 28 2023 16:41:03 GMT-0500 (Central Daylight Time)","132024","","null","","","","offerFB","","<div class='trialBorder'><div class='vertical-center'><img style='vertical-align:center; align:center' src=img/fixation3.jpg></div><div class='cl'><div class='vertical-center'><font style='color:orange'>$60<br>in<br>6 weeks</font></div></div><div class='cr'><div class='vertical-center'>$49<br><br>now</div></div><div class='respDivL'><div class='vertical-center'><font style='color:orange'>(E)</font></div></div><div class='respDivR'><div class='vertical-center'>(I)</div></div></div>","null","$49<br><br>now","$60<br>in<br>6 weeks","1","49","60","6",""
"html-keyboard-response","28","80020","0.0-5.0-1.8","60fd738c235e974993ad455c","bdp_td","Tue Mar 28 2023 16:41:03 GMT-0500 (Central Daylight Time)","132024","","null","","","","FIX","","<div class='trialBorder'><div class='vertical-center'><img style='vertical-align:center; align:center' src=img/fixation3.jpg></div></div>","null","","","","","","",""
"html-keyboard-response","29","81908","0.0-5.0-2.8","60fd738c235e974993ad455c","bdp_td","Tue Mar 28 2023 16:41:03 GMT-0500 (Central Daylight Time)","132024","","1887","","","","offer","","<div class='trialBorder'><div class='vertical-center'><img style='vertical-align:center; align:center' src=img/fixation3.jpg></div><div class='cl'><div class='vertical-center'>$54<br><br>now</div></div><div class='cr'><div class='vertical-center'>$55<br>in<br>12 weeks</div></div><div class='respDivL'><div class='vertical-center'>(E)</div></div><div class='respDivR'><div class='vertical-center'>(I)</div></div></div>","E","$54<br><br>now","$55<br>in<br>12 weeks","0","54","55","12","NOW"
"html-keyboard-response","30","82162","0.0-5.0-3.8","60fd738c235e974993ad455c","bdp_td","Tue Mar 28 2023 16:41:03 GMT-0500 (Central Daylight Time)","132024","","null","","","","offerFB","","<div class='trialBorder'><div class='vertical-center'><img style='vertical-align:center; align:center' src=img/fixation3.jpg></div><div class='cl'><div class='vertical-center'><font style='color:orange'>$54<br><br>now</font></div></div><div class='cr'><div class='vertical-center'>$55<br>in<br>12 weeks</div></div><div class='respDivL'><div class='vertical-center'><font style='color:orange'>(E)</font></div></div><div class='respDivR'><div class='vertical-center'>(I)</div></div></div>","null","$54<br><br>now","$55<br>in<br>12 weeks","0","54","55","12",""
"html-keyboard-response","31","82663","0.0-5.0-1.9","60fd738c235e974993ad455c","bdp_td","Tue Mar 28 2023 16:41:03 GMT-0500 (Central Daylight Time)","132024","","null","","","","FIX","","<div class='trialBorder'><div class='vertical-center'><img style='vertical-align:center; align:center' src=img/fixation3.jpg></div></div>","null","","","","","","",""
"html-keyboard-response","32","84882","0.0-5.0-2.9","60fd738c235e974993ad455c","bdp_td","Tue Mar 28 2023 16:41:03 GMT-0500 (Central Daylight Time)","132024","","2219","","","","offer","","<div class='trialBorder'><div class='vertical-center'><img style='vertical-align:center; align:center' src=img/fixation3.jpg></div><div class='cl'><div class='vertical-center'>$22<br><br>now</div></div><div class='cr'><div class='vertical-center'>$25<br>in<br>12 weeks</div></div><div class='respDivL'><div class='vertical-center'>(E)</div></div><div class='respDivR'><div class='vertical-center'>(I)</div></div></div>","E","$22<br><br>now","$25<br>in<br>12 weeks","0","22","25","12","NOW"
"html-keyboard-response","33","85148","0.0-5.0-3.9","60fd738c235e974993ad455c","bdp_td","Tue Mar 28 2023 16:41:03 GMT-0500 (Central Daylight Time)","132024","","null","","","","offerFB","","<div class='trialBorder'><div class='vertical-center'><img style='vertical-align:center; align:center' src=img/fixation3.jpg></div><div class='cl'><div class='vertical-center'><font style='color:orange'>$22<br><br>now</font></div></div><div class='cr'><div class='vertical-center'>$25<br>in<br>12 weeks</div></div><div class='respDivL'><div class='vertical-center'><font style='color:orange'>(E)</font></div></div><div class='respDivR'><div class='vertical-center'>(I)</div></div></div>","null","$22<br><br>now","$25<br>in<br>12 weeks","0","22","25","12",""
"html-keyboard-response","34","85651","0.0-5.0-1.10","60fd738c235e974993ad455c","bdp_td","Tue Mar 28 2023 16:41:03 GMT-0500 (Central Daylight Time)","132024","","null","","","","FIX","","<div class='trialBorder'><div class='vertical-center'><img style='vertical-align:center; align:center' src=img/fixation3.jpg></div></div>","null","","","","","","",""
"html-keyboard-response","35","92291","0.0-5.0-2.10","60fd738c235e974993ad455c","bdp_td","Tue Mar 28 2023 16:41:03 GMT-0500 (Central Daylight Time)","132024","","6639","","","","offer","","<div class='trialBorder'><div class='vertical-center'><img style='vertical-align:center; align:center' src=img/fixation3.jpg></div><div class='cl'><div class='vertical-center'>$55<br>in<br>6 weeks</div></div><div class='cr'><div class='vertical-center'>$40<br><br>now</div></div><div class='respDivL'><div class='vertical-center'>(E)</div></div><div class='respDivR'><div class='vertical-center'>(I)</div></div></div>","I","$40<br><br>now","$55<br>in<br>6 weeks","1","40","55","6","NOW"
"html-keyboard-response","36","92544","0.0-5.0-3.10","60fd738c235e974993ad455c","bdp_td","Tue Mar 28 2023 16:41:03 GMT-0500 (Central Daylight Time)","132024","","null","","","","offerFB","","<div class='trialBorder'><div class='vertical-center'><img style='vertical-align:center; align:center' src=img/fixation3.jpg></div><div class='cl'><div class='vertical-center'>$55<br>in<br>6 weeks</div></div><div class='cr'><div class='vertical-center'><font style='color:orange'>$40<br><br>now</font></div></div><div class='respDivL'><div class='vertical-center'>(E)</div></div><div class='respDivR'><div class='vertical-center'><font style='color:orange'>(I)</font></div></div></div>","null","$40<br><br>now","$55<br>in<br>6 weeks","1","40","55","6",""
"html-keyboard-response","37","93046","0.0-5.0-1.11","60fd738c235e974993ad455c","bdp_td","Tue Mar 28 2023 16:41:03 GMT-0500 (Central Daylight Time)","132024","","null","","","","FIX","","<div class='trialBorder'><div class='vertical-center'><img style='vertical-align:center; align:center' src=img/fixation3.jpg></div></div>","null","","","","","","",""
"html-keyboard-response","38","94242","0.0-5.0-2.11","60fd738c235e974993ad455c","bdp_td","Tue Mar 28 2023 16:41:03 GMT-0500 (Central Daylight Time)","132024","","1193","","","","offer","","<div class='trialBorder'><div class='vertical-center'><img style='vertical-align:center; align:center' src=img/fixation3.jpg></div><div class='cl'><div class='vertical-center'>$47<br><br>now</div></div><div class='cr'><div class='vertical-center'>$50<br>in<br>12 weeks</div></div><div class='respDivL'><div class='vertical-center'>(E)</div></div><div class='respDivR'><div class='vertical-center'>(I)</div></div></div>","I","$47<br><br>now","$50<br>in<br>12 weeks","0","47","50","12","THEN"
"html-keyboard-response","39","94493","0.0-5.0-3.11","60fd738c235e974993ad455c","bdp_td","Tue Mar 28 2023 16:41:03 GMT-0500 (Central Daylight Time)","132024","","null","","","","offerFB","","<div class='trialBorder'><div class='vertical-center'><img style='vertical-align:center; align:center' src=img/fixation3.jpg></div><div class='cl'><div class='vertical-center'>$47<br><br>now</div></div><div class='cr'><div class='vertical-center'><font style='color:orange'>$50<br>in<br>12 weeks</font></div></div><div class='respDivL'><div class='vertical-center'>(E)</div></div><div class='respDivR'><div class='vertical-center'><font style='color:orange'>(I)</font></div></div></div>","null","$47<br><br>now","$50<br>in<br>12 weeks","0","47","50","12",""
"html-keyboard-response","40","94995","0.0-5.0-1.12","60fd738c235e974993ad455c","bdp_td","Tue Mar 28 2023 16:41:03 GMT-0500 (Central Daylight Time)","132024","","null","","","","FIX","","<div class='trialBorder'><div class='vertical-center'><img style='vertical-align:center; align:center' src=img/fixation3.jpg></div></div>","null","","","","","","",""
"html-keyboard-response","41","96258","0.0-5.0-2.12","60fd738c235e974993ad455c","bdp_td","Tue Mar 28 2023 16:41:03 GMT-0500 (Central Daylight Time)","132024","","1261","","","","offer","","<div class='trialBorder'><div class='vertical-center'><img style='vertical-align:center; align:center' src=img/fixation3.jpg></div><div class='cl'><div class='vertical-center'>$11<br><br>now</div></div><div class='cr'><div class='vertical-center'>$30<br>in<br>2 weeks</div></div><div class='respDivL'><div class='vertical-center'>(E)</div></div><div class='respDivR'><div class='vertical-center'>(I)</div></div></div>","I","$11<br><br>now","$30<br>in<br>2 weeks","0","11","30","2","THEN"
"html-keyboard-response","42","96509","0.0-5.0-3.12","60fd738c235e974993ad455c","bdp_td","Tue Mar 28 2023 16:41:03 GMT-0500 (Central Daylight Time)","132024","","null","","","","offerFB","","<div class='trialBorder'><div class='vertical-center'><img style='vertical-align:center; align:center' src=img/fixation3.jpg></div><div class='cl'><div class='vertical-center'>$11<br><br>now</div></div><div class='cr'><div class='vertical-center'><font style='color:orange'>$30<br>in<br>2 weeks</font></div></div><div class='respDivL'><div class='vertical-center'>(E)</div></div><div class='respDivR'><div class='vertical-center'><font style='color:orange'>(I)</font></div></div></div>","null","$11<br><br>now","$30<br>in<br>2 weeks","0","11","30","2",""
"html-keyboard-response","43","97011","0.0-5.0-1.13","60fd738c235e974993ad455c","bdp_td","Tue Mar 28 2023 16:41:03 GMT-0500 (Central Daylight Time)","132024","","null","","","","FIX","","<div class='trialBorder'><div class='vertical-center'><img style='vertical-align:center; align:center' src=img/fixation3.jpg></div></div>","null","","","","","","",""
"html-keyboard-response","44","98226","0.0-5.0-2.13","60fd738c235e974993ad455c","bdp_td","Tue Mar 28 2023 16:41:03 GMT-0500 (Central Daylight Time)","132024","","1213","","","","offer","","<div class='trialBorder'><div class='vertical-center'><img style='vertical-align:center; align:center' src=img/fixation3.jpg></div><div class='cl'><div class='vertical-center'>$35<br>in<br>2 weeks</div></div><div class='cr'><div class='vertical-center'>$15<br><br>now</div></div><div class='respDivL'><div class='vertical-center'>(E)</div></div><div class='respDivR'><div class='vertical-center'>(I)</div></div></div>","E","$15<br><br>now","$35<br>in<br>2 weeks","1","15","35","2","THEN"
"html-keyboard-response","45","98478","0.0-5.0-3.13","60fd738c235e974993ad455c","bdp_td","Tue Mar 28 2023 16:41:03 GMT-0500 (Central Daylight Time)","132024","","null","","","","offerFB","","<div class='trialBorder'><div class='vertical-center'><img style='vertical-align:center; align:center' src=img/fixation3.jpg></div><div class='cl'><div class='vertical-center'><font style='color:orange'>$35<br>in<br>2 weeks</font></div></div><div class='cr'><div class='vertical-center'>$15<br><br>now</div></div><div class='respDivL'><div class='vertical-center'><font style='color:orange'>(E)</font></div></div><div class='respDivR'><div class='vertical-center'>(I)</div></div></div>","null","$15<br><br>now","$35<br>in<br>2 weeks","1","15","35","2",""
"html-keyboard-response","46","98979","0.0-5.0-1.14","60fd738c235e974993ad455c","bdp_td","Tue Mar 28 2023 16:41:03 GMT-0500 (Central Daylight Time)","132024","","null","","","","FIX","","<div class='trialBorder'><div class='vertical-center'><img style='vertical-align:center; align:center' src=img/fixation3.jpg></div></div>","null","","","","","","",""
"html-keyboard-response","47","101266","0.0-5.0-2.14","60fd738c235e974993ad455c","bdp_td","Tue Mar 28 2023 16:41:03 GMT-0500 (Central Daylight Time)","132024","","2285","","","","offer","","<div class='trialBorder'><div class='vertical-center'><img style='vertical-align:center; align:center' src=img/fixation3.jpg></div><div class='cl'><div class='vertical-center'>$69<br><br>now</div></div><div class='cr'><div class='vertical-center'>$85<br>in<br>6 weeks</div></div><div class='respDivL'><div class='vertical-center'>(E)</div></div><div class='respDivR'><div class='vertical-center'>(I)</div></div></div>","I","$69<br><br>now","$85<br>in<br>6 weeks","0","69","85","6","THEN"
"html-keyboard-response","48","101518","0.0-5.0-3.14","60fd738c235e974993ad455c","bdp_td","Tue Mar 28 2023 16:41:03 GMT-0500 (Central Daylight Time)","132024","","null","","","","offerFB","","<div class='trialBorder'><div class='vertical-center'><img style='vertical-align:center; align:center' src=img/fixation3.jpg></div><div class='cl'><div class='vertical-center'>$69<br><br>now</div></div><div class='cr'><div class='vertical-center'><font style='color:orange'>$85<br>in<br>6 weeks</font></div></div><div class='respDivL'><div class='vertical-center'>(E)</div></div><div class='respDivR'><div class='vertical-center'><font style='color:orange'>(I)</font></div></div></div>","null","$69<br><br>now","$85<br>in<br>6 weeks","0","69","85","6",""
"html-keyboard-response","49","102019","0.0-5.0-1.15","60fd738c235e974993ad455c","bdp_td","Tue Mar 28 2023 16:41:03 GMT-0500 (Central Daylight Time)","132024","","null","","","","FIX","","<div class='trialBorder'><div class='vertical-center'><img style='vertical-align:center; align:center' src=img/fixation3.jpg></div></div>","null","","","","","","",""
"html-keyboard-response","50","104915","0.0-5.0-2.15","60fd738c235e974993ad455c","bdp_td","Tue Mar 28 2023 16:41:03 GMT-0500 (Central Daylight Time)","132024","","2895","","","","offer","","<div class='trialBorder'><div class='vertical-center'><img style='vertical-align:center; align:center' src=img/fixation3.jpg></div><div class='cl'><div class='vertical-center'>$14<br><br>now</div></div><div class='cr'><div class='vertical-center'>$25<br>in<br>3 weeks</div></div><div class='respDivL'><div class='vertical-center'>(E)</div></div><div class='respDivR'><div class='vertical-center'>(I)</div></div></div>","I","$14<br><br>now","$25<br>in<br>3 weeks","0","14","25","3","THEN"
"html-keyboard-response","51","105168","0.0-5.0-3.15","60fd738c235e974993ad455c","bdp_td","Tue Mar 28 2023 16:41:03 GMT-0500 (Central Daylight Time)","132024","","null","","","","offerFB","","<div class='trialBorder'><div class='vertical-center'><img style='vertical-align:center; align:center' src=img/fixation3.jpg></div><div class='cl'><div class='vertical-center'>$14<br><br>now</div></div><div class='cr'><div class='vertical-center'><font style='color:orange'>$25<br>in<br>3 weeks</font></div></div><div class='respDivL'><div class='vertical-center'>(E)</div></div><div class='respDivR'><div class='vertical-center'><font style='color:orange'>(I)</font></div></div></div>","null","$14<br><br>now","$25<br>in<br>3 weeks","0","14","25","3",""
"html-keyboard-response","52","105670","0.0-5.0-1.16","60fd738c235e974993ad455c","bdp_td","Tue Mar 28 2023 16:41:03 GMT-0500 (Central Daylight Time)","132024","","null","","","","FIX","","<div class='trialBorder'><div class='vertical-center'><img style='vertical-align:center; align:center' src=img/fixation3.jpg></div></div>","null","","","","","","",""
"html-keyboard-response","53","107202","0.0-5.0-2.16","60fd738c235e974993ad455c","bdp_td","Tue Mar 28 2023 16:41:03 GMT-0500 (Central Daylight Time)","132024","","1531","","","","offer","","<div class='trialBorder'><div class='vertical-center'><img style='vertical-align:center; align:center' src=img/fixation3.jpg></div><div class='cl'><div class='vertical-center'>$80<br>in<br>12 weeks</div></div><div class='cr'><div class='vertical-center'>$78<br><br>now</div></div><div class='respDivL'><div class='vertical-center'>(E)</div></div><div class='respDivR'><div class='vertical-center'>(I)</div></div></div>","I","$78<br><br>now","$80<br>in<br>12 weeks","1","78","80","12","NOW"
"html-keyboard-response","54","107455","0.0-5.0-3.16","60fd738c235e974993ad455c","bdp_td","Tue Mar 28 2023 16:41:03 GMT-0500 (Central Daylight Time)","132024","","null","","","","offerFB","","<div class='trialBorder'><div class='vertical-center'><img style='vertical-align:center; align:center' src=img/fixation3.jpg></div><div class='cl'><div class='vertical-center'>$80<br>in<br>12 weeks</div></div><div class='cr'><div class='vertical-center'><font style='color:orange'>$78<br><br>now</font></div></div><div class='respDivL'><div class='vertical-center'>(E)</div></div><div class='respDivR'><div class='vertical-center'><font style='color:orange'>(I)</font></div></div></div>","null","$78<br><br>now","$80<br>in<br>12 weeks","1","78","80","12",""
"html-keyboard-response","55","107957","0.0-5.0-1.17","60fd738c235e974993ad455c","bdp_td","Tue Mar 28 2023 16:41:03 GMT-0500 (Central Daylight Time)","132024","","null","","","","FIX","","<div class='trialBorder'><div class='vertical-center'><img style='vertical-align:center; align:center' src=img/fixation3.jpg></div></div>","null","","","","","","",""
"html-keyboard-response","56","109650","0.0-5.0-2.17","60fd738c235e974993ad455c","bdp_td","Tue Mar 28 2023 16:41:03 GMT-0500 (Central Daylight Time)","132024","","1693","","","","offer","","<div class='trialBorder'><div class='vertical-center'><img style='vertical-align:center; align:center' src=img/fixation3.jpg></div><div class='cl'><div class='vertical-center'>$19<br><br>now</div></div><div class='cr'><div class='vertical-center'>$25<br>in<br>6 weeks</div></div><div class='respDivL'><div class='vertical-center'>(E)</div></div><div class='respDivR'><div class='vertical-center'>(I)</div></div></div>","E","$19<br><br>now","$25<br>in<br>6 weeks","0","19","25","6","NOW"
"html-keyboard-response","57","109902","0.0-5.0-3.17","60fd738c235e974993ad455c","bdp_td","Tue Mar 28 2023 16:41:03 GMT-0500 (Central Daylight Time)","132024","","null","","","","offerFB","","<div class='trialBorder'><div class='vertical-center'><img style='vertical-align:center; align:center' src=img/fixation3.jpg></div><div class='cl'><div class='vertical-center'><font style='color:orange'>$19<br><br>now</font></div></div><div class='cr'><div class='vertical-center'>$25<br>in<br>6 weeks</div></div><div class='respDivL'><div class='vertical-center'><font style='color:orange'>(E)</font></div></div><div class='respDivR'><div class='vertical-center'>(I)</div></div></div>","null","$19<br><br>now","$25<br>in<br>6 weeks","0","19","25","6",""
"html-keyboard-response","58","110406","0.0-5.0-1.18","60fd738c235e974993ad455c","bdp_td","Tue Mar 28 2023 16:41:03 GMT-0500 (Central Daylight Time)","132024","","null","","","","FIX","","<div class='trialBorder'><div class='vertical-center'><img style='vertical-align:center; align:center' src=img/fixation3.jpg></div></div>","null","","","","","","",""
"html-keyboard-response","59","113171","0.0-5.0-2.18","60fd738c235e974993ad455c","bdp_td","Tue Mar 28 2023 16:41:03 GMT-0500 (Central Daylight Time)","132024","","2763","","","","offer","","<div class='trialBorder'><div class='vertical-center'><img style='vertical-align:center; align:center' src=img/fixation3.jpg></div><div class='cl'><div class='vertical-center'>$50<br>in<br>6 weeks</div></div><div class='cr'><div class='vertical-center'>$34<br><br>now</div></div><div class='respDivL'><div class='vertical-center'>(E)</div></div><div class='respDivR'><div class='vertical-center'>(I)</div></div></div>","E","$34<br><br>now","$50<br>in<br>6 weeks","1","34","50","6","THEN"
"html-keyboard-response","60","113423","0.0-5.0-3.18","60fd738c235e974993ad455c","bdp_td","Tue Mar 28 2023 16:41:03 GMT-0500 (Central Daylight Time)","132024","","null","","","","offerFB","","<div class='trialBorder'><div class='vertical-center'><img style='vertical-align:center; align:center' src=img/fixation3.jpg></div><div class='cl'><div class='vertical-center'><font style='color:orange'>$50<br>in<br>6 weeks</font></div></div><div class='cr'><div class='vertical-center'>$34<br><br>now</div></div><div class='respDivL'><div class='vertical-center'><font style='color:orange'>(E)</font></div></div><div class='respDivR'><div class='vertical-center'>(I)</div></div></div>","null","$34<br><br>now","$50<br>in<br>6 weeks","1","34","50","6",""
"html-keyboard-response","61","113925","0.0-5.0-1.19","60fd738c235e974993ad455c","bdp_td","Tue Mar 28 2023 16:41:03 GMT-0500 (Central Daylight Time)","132024","","null","","","","FIX","","<div class='trialBorder'><div class='vertical-center'><img style='vertical-align:center; align:center' src=img/fixation3.jpg></div></div>","null","","","","","","",""
"html-keyboard-response","62","115123","0.0-5.0-2.19","60fd738c235e974993ad455c","bdp_td","Tue Mar 28 2023 16:41:03 GMT-0500 (Central Daylight Time)","132024","","1196","","","","offer","","<div class='trialBorder'><div class='vertical-center'><img style='vertical-align:center; align:center' src=img/fixation3.jpg></div><div class='cl'><div class='vertical-center'>$85<br>in<br>12 weeks</div></div><div class='cr'><div class='vertical-center'>$80<br><br>now</div></div><div class='respDivL'><div class='vertical-center'>(E)</div></div><div class='respDivR'><div class='vertical-center'>(I)</div></div></div>","E","$80<br><br>now","$85<br>in<br>12 weeks","1","80","85","12","THEN"
"html-keyboard-response","63","115375","0.0-5.0-3.19","60fd738c235e974993ad455c","bdp_td","Tue Mar 28 2023 16:41:03 GMT-0500 (Central Daylight Time)","132024","","null","","","","offerFB","","<div class='trialBorder'><div class='vertical-center'><img style='vertical-align:center; align:center' src=img/fixation3.jpg></div><div class='cl'><div class='vertical-center'><font style='color:orange'>$85<br>in<br>12 weeks</font></div></div><div class='cr'><div class='vertical-center'>$80<br><br>now</div></div><div class='respDivL'><div class='vertical-center'><font style='color:orange'>(E)</font></div></div><div class='respDivR'><div class='vertical-center'>(I)</div></div></div>","null","$80<br><br>now","$85<br>in<br>12 weeks","1","80","85","12",""
"html-keyboard-response","64","115876","0.0-5.0-1.20","60fd738c235e974993ad455c","bdp_td","Tue Mar 28 2023 16:41:03 GMT-0500 (Central Daylight Time)","132024","","null","","","","FIX","","<div class='trialBorder'><div class='vertical-center'><img style='vertical-align:center; align:center' src=img/fixation3.jpg></div></div>","null","","","","","","",""
"html-keyboard-response","65","120051","0.0-5.0-2.20","60fd738c235e974993ad455c","bdp_td","Tue Mar 28 2023 16:41:03 GMT-0500 (Central Daylight Time)","132024","","4173","","","","offer","","<div class='trialBorder'><div class='vertical-center'><img style='vertical-align:center; align:center' src=img/fixation3.jpg></div><div class='cl'><div class='vertical-center'>$50<br>in<br>3 weeks</div></div><div class='cr'><div class='vertical-center'>$27<br><br>now</div></div><div class='respDivL'><div class='vertical-center'>(E)</div></div><div class='respDivR'><div class='vertical-center'>(I)</div></div></div>","E","$27<br><br>now","$50<br>in<br>3 weeks","1","27","50","3","THEN"
"html-keyboard-response","66","120304","0.0-5.0-3.20","60fd738c235e974993ad455c","bdp_td","Tue Mar 28 2023 16:41:03 GMT-0500 (Central Daylight Time)","132024","","null","","","","offerFB","","<div class='trialBorder'><div class='vertical-center'><img style='vertical-align:center; align:center' src=img/fixation3.jpg></div><div class='cl'><div class='vertical-center'><font style='color:orange'>$50<br>in<br>3 weeks</font></div></div><div class='cr'><div class='vertical-center'>$27<br><br>now</div></div><div class='respDivL'><div class='vertical-center'><font style='color:orange'>(E)</font></div></div><div class='respDivR'><div class='vertical-center'>(I)</div></div></div>","null","$27<br><br>now","$50<br>in<br>3 weeks","1","27","50","3",""
"html-keyboard-response","67","120806","0.0-5.0-1.21","60fd738c235e974993ad455c","bdp_td","Tue Mar 28 2023 16:41:03 GMT-0500 (Central Daylight Time)","132024","","null","","","","FIX","","<div class='trialBorder'><div class='vertical-center'><img style='vertical-align:center; align:center' src=img/fixation3.jpg></div></div>","null","","","","","","",""
"html-keyboard-response","68","121635","0.0-5.0-2.21","60fd738c235e974993ad455c","bdp_td","Tue Mar 28 2023 16:41:03 GMT-0500 (Central Daylight Time)","132024","","827","","","","offer","","<div class='trialBorder'><div class='vertical-center'><img style='vertical-align:center; align:center' src=img/fixation3.jpg></div><div class='cl'><div class='vertical-center'>$24<br><br>now</div></div><div class='cr'><div class='vertical-center'>$35<br>in<br>3 weeks</div></div><div class='respDivL'><div class='vertical-center'>(E)</div></div><div class='respDivR'><div class='vertical-center'>(I)</div></div></div>","I","$24<br><br>now","$35<br>in<br>3 weeks","0","24","35","3","THEN"
"html-keyboard-response","69","121887","0.0-5.0-3.21","60fd738c235e974993ad455c","bdp_td","Tue Mar 28 2023 16:41:03 GMT-0500 (Central Daylight Time)","132024","","null","","","","offerFB","","<div class='trialBorder'><div class='vertical-center'><img style='vertical-align:center; align:center' src=img/fixation3.jpg></div><div class='cl'><div class='vertical-center'>$24<br><br>now</div></div><div class='cr'><div class='vertical-center'><font style='color:orange'>$35<br>in<br>3 weeks</font></div></div><div class='respDivL'><div class='vertical-center'>(E)</div></div><div class='respDivR'><div class='vertical-center'><font style='color:orange'>(I)</font></div></div></div>","null","$24<br><br>now","$35<br>in<br>3 weeks","0","24","35","3",""
"html-keyboard-response","70","122389","0.0-5.0-1.22","60fd738c235e974993ad455c","bdp_td","Tue Mar 28 2023 16:41:03 GMT-0500 (Central Daylight Time)","132024","","null","","","","FIX","","<div class='trialBorder'><div class='vertical-center'><img style='vertical-align:center; align:center' src=img/fixation3.jpg></div></div>","null","","","","","","",""
"html-keyboard-response","71","123731","0.0-5.0-2.22","60fd738c235e974993ad455c","bdp_td","Tue Mar 28 2023 16:41:03 GMT-0500 (Central Daylight Time)","132024","","1340","","","","offer","","<div class='trialBorder'><div class='vertical-center'><img style='vertical-align:center; align:center' src=img/fixation3.jpg></div><div class='cl'><div class='vertical-center'>$55<br>in<br>1 week</div></div><div class='cr'><div class='vertical-center'>$20<br><br>now</div></div><div class='respDivL'><div class='vertical-center'>(E)</div></div><div class='respDivR'><div class='vertical-center'>(I)</div></div></div>","E","$20<br><br>now","$55<br>in<br>1 week","1","20","55","1","THEN"
"html-keyboard-response","72","123983","0.0-5.0-3.22","60fd738c235e974993ad455c","bdp_td","Tue Mar 28 2023 16:41:03 GMT-0500 (Central Daylight Time)","132024","","null","","","","offerFB","","<div class='trialBorder'><div class='vertical-center'><img style='vertical-align:center; align:center' src=img/fixation3.jpg></div><div class='cl'><div class='vertical-center'><font style='color:orange'>$55<br>in<br>1 week</font></div></div><div class='cr'><div class='vertical-center'>$20<br><br>now</div></div><div class='respDivL'><div class='vertical-center'><font style='color:orange'>(E)</font></div></div><div class='respDivR'><div class='vertical-center'>(I)</div></div></div>","null","$20<br><br>now","$55<br>in<br>1 week","1","20","55","1",""
"html-keyboard-response","73","124487","0.0-5.0-1.23","60fd738c235e974993ad455c","bdp_td","Tue Mar 28 2023 16:41:03 GMT-0500 (Central Daylight Time)","132024","","null","","","","FIX","","<div class='trialBorder'><div class='vertical-center'><img style='vertical-align:center; align:center' src=img/fixation3.jpg></div></div>","null","","","","","","",""
"html-keyboard-response","74","125649","0.0-5.0-2.23","60fd738c235e974993ad455c","bdp_td","Tue Mar 28 2023 16:41:03 GMT-0500 (Central Daylight Time)","132024","","1162","","","","offer","","<div class='trialBorder'><div class='vertical-center'><img style='vertical-align:center; align:center' src=img/fixation3.jpg></div><div class='cl'><div class='vertical-center'>$80<br>in<br>3 weeks</div></div><div class='cr'><div class='vertical-center'>$54<br><br>now</div></div><div class='respDivL'><div class='vertical-center'>(E)</div></div><div class='respDivR'><div class='vertical-center'>(I)</div></div></div>","E","$54<br><br>now","$80<br>in<br>3 weeks","1","54","80","3","THEN"
"html-keyboard-response","75","125901","0.0-5.0-3.23","60fd738c235e974993ad455c","bdp_td","Tue Mar 28 2023 16:41:03 GMT-0500 (Central Daylight Time)","132024","","null","","","","offerFB","","<div class='trialBorder'><div class='vertical-center'><img style='vertical-align:center; align:center' src=img/fixation3.jpg></div><div class='cl'><div class='vertical-center'><font style='color:orange'>$80<br>in<br>3 weeks</font></div></div><div class='cr'><div class='vertical-center'>$54<br><br>now</div></div><div class='respDivL'><div class='vertical-center'><font style='color:orange'>(E)</font></div></div><div class='respDivR'><div class='vertical-center'>(I)</div></div></div>","null","$54<br><br>now","$80<br>in<br>3 weeks","1","54","80","3",""
"html-keyboard-response","76","126402","0.0-5.0-1.24","60fd738c235e974993ad455c","bdp_td","Tue Mar 28 2023 16:41:03 GMT-0500 (Central Daylight Time)","132024","","null","","","","FIX","","<div class='trialBorder'><div class='vertical-center'><img style='vertical-align:center; align:center' src=img/fixation3.jpg></div></div>","null","","","","","","",""
"html-keyboard-response","77","127377","0.0-5.0-2.24","60fd738c235e974993ad455c","bdp_td","Tue Mar 28 2023 16:41:03 GMT-0500 (Central Daylight Time)","132024","","974","","","","offer","","<div class='trialBorder'><div class='vertical-center'><img style='vertical-align:center; align:center' src=img/fixation3.jpg></div><div class='cl'><div class='vertical-center'>$31<br><br>now</div></div><div class='cr'><div class='vertical-center'>$85<br>in<br>1 week</div></div><div class='respDivL'><div class='vertical-center'>(E)</div></div><div class='respDivR'><div class='vertical-center'>(I)</div></div></div>","I","$31<br><br>now","$85<br>in<br>1 week","0","31","85","1","THEN"
"html-keyboard-response","78","127629","0.0-5.0-3.24","60fd738c235e974993ad455c","bdp_td","Tue Mar 28 2023 16:41:03 GMT-0500 (Central Daylight Time)","132024","","null","","","","offerFB","","<div class='trialBorder'><div class='vertical-center'><img style='vertical-align:center; align:center' src=img/fixation3.jpg></div><div class='cl'><div class='vertical-center'>$31<br><br>now</div></div><div class='cr'><div class='vertical-center'><font style='color:orange'>$85<br>in<br>1 week</font></div></div><div class='respDivL'><div class='vertical-center'>(E)</div></div><div class='respDivR'><div class='vertical-center'><font style='color:orange'>(I)</font></div></div></div>","null","$31<br><br>now","$85<br>in<br>1 week","0","31","85","1",""
"html-keyboard-response","79","128131","0.0-5.0-1.25","60fd738c235e974993ad455c","bdp_td","Tue Mar 28 2023 16:41:03 GMT-0500 (Central Daylight Time)","132024","","null","","","","FIX","","<div class='trialBorder'><div class='vertical-center'><img style='vertical-align:center; align:center' src=img/fixation3.jpg></div></div>","null","","","","","","",""
"html-keyboard-response","80","129169","0.0-5.0-2.25","60fd738c235e974993ad455c","bdp_td","Tue Mar 28 2023 16:41:03 GMT-0500 (Central Daylight Time)","132024","","1036","","","","offer","","<div class='trialBorder'><div class='vertical-center'><img style='vertical-align:center; align:center' src=img/fixation3.jpg></div><div class='cl'><div class='vertical-center'>$60<br>in<br>3 weeks</div></div><div class='cr'><div class='vertical-center'>$25<br><br>now</div></div><div class='respDivL'><div class='vertical-center'>(E)</div></div><div class='respDivR'><div class='vertical-center'>(I)</div></div></div>","E","$25<br><br>now","$60<br>in<br>3 weeks","1","25","60","3","THEN"
"html-keyboard-response","81","129420","0.0-5.0-3.25","60fd738c235e974993ad455c","bdp_td","Tue Mar 28 2023 16:41:03 GMT-0500 (Central Daylight Time)","132024","","null","","","","offerFB","","<div class='trialBorder'><div class='vertical-center'><img style='vertical-align:center; align:center' src=img/fixation3.jpg></div><div class='cl'><div class='vertical-center'><font style='color:orange'>$60<br>in<br>3 weeks</font></div></div><div class='cr'><div class='vertical-center'>$25<br><br>now</div></div><div class='respDivL'><div class='vertical-center'><font style='color:orange'>(E)</font></div></div><div class='respDivR'><div class='vertical-center'>(I)</div></div></div>","null","$25<br><br>now","$60<br>in<br>3 weeks","1","25","60","3",""
"html-keyboard-response","82","129922","0.0-5.0-1.26","60fd738c235e974993ad455c","bdp_td","Tue Mar 28 2023 16:41:03 GMT-0500 (Central Daylight Time)","132024","","null","","","","FIX","","<div class='trialBorder'><div class='vertical-center'><img style='vertical-align:center; align:center' src=img/fixation3.jpg></div></div>","null","","","","","","",""
"html-keyboard-response","83","130770","0.0-5.0-2.26","60fd738c235e974993ad455c","bdp_td","Tue Mar 28 2023 16:41:03 GMT-0500 (Central Daylight Time)","132024","","848","","","","offer","","<div class='trialBorder'><div class='vertical-center'><img style='vertical-align:center; align:center' src=img/fixation3.jpg></div><div class='cl'><div class='vertical-center'>$41<br><br>now</div></div><div class='cr'><div class='vertical-center'>$75<br>in<br>3 weeks</div></div><div class='respDivL'><div class='vertical-center'>(E)</div></div><div class='respDivR'><div class='vertical-center'>(I)</div></div></div>","I","$41<br><br>now","$75<br>in<br>3 weeks","0","41","75","3","THEN"
"html-keyboard-response","84","131022","0.0-5.0-3.26","60fd738c235e974993ad455c","bdp_td","Tue Mar 28 2023 16:41:03 GMT-0500 (Central Daylight Time)","132024","","null","","","","offerFB","","<div class='trialBorder'><div class='vertical-center'><img style='vertical-align:center; align:center' src=img/fixation3.jpg></div><div class='cl'><div class='vertical-center'>$41<br><br>now</div></div><div class='cr'><div class='vertical-center'><font style='color:orange'>$75<br>in<br>3 weeks</font></div></div><div class='respDivL'><div class='vertical-center'>(E)</div></div><div class='respDivR'><div class='vertical-center'><font style='color:orange'>(I)</font></div></div></div>","null","$41<br><br>now","$75<br>in<br>3 weeks","0","41","75","3",""
"","","","","60fd738c235e974993ad455c","bdp_td","Tue Mar 28 2023 16:41:03 GMT-0500 (Central Daylight Time)","132024","","","fullscreenexit","85","131035","fullscreenexit","","","","","","","","","",""
"fullscreen","85","132024","0.0-6.0","60fd738c235e974993ad455c","bdp_td","Tue Mar 28 2023 16:41:03 GMT-0500 (Central Daylight Time)","132024","","","","","","","true","","","","","","","","",""
"html-keyboard-response","86","132525","0.0-7.0","","","","","","null","","","","","","","null","","","","","","",""
