"trial_type","trial_index","time_elapsed","internal_node_id","subject_id","task","startTime","totalTime","view_history","rt","event","trial","time","trialtype","success","stimulus","key_press","nowOffer","thenOffer","thenLeft","nowAmt","thenAmt","thenWeeks","chosen"
"pavlovia","0","5","0.0-0.0","63f794e7d8d24753edbbb136","bdp_td","Sun Mar 26 2023 08:30:35 GMT-0400 (Eastern Daylight Time)","154704","","","","","","","","","","","","","","","",""
"instructions","1","3118","0.0-1.0","63f794e7d8d24753edbbb136","bdp_td","Sun Mar 26 2023 08:30:35 GMT-0400 (Eastern Daylight Time)","154704","[{""page_index"":0,""viewing_time"":3112}]","3112","","","","","","","","","","","","","",""
"","","","","63f794e7d8d24753edbbb136","bdp_td","Sun Mar 26 2023 08:30:35 GMT-0400 (Eastern Daylight Time)","154704","","","fullscreenenter","2","5621","fullscreenenter","","","","","","","","","",""
"fullscreen","2","6619","0.0-2.0","63f794e7d8d24753edbbb136","bdp_td","Sun Mar 26 2023 08:30:35 GMT-0400 (Eastern Daylight Time)","154704","","","","","","","true","","","","","","","","",""
"instructions","3","39678","0.0-4.0","63f794e7d8d24753edbbb136","bdp_td","Sun Mar 26 2023 08:30:35 GMT-0400 (Eastern Daylight Time)","154704","[{""page_index"":0,""viewing_time"":7934},{""page_index"":1,""viewing_time"":14321},{""page_index"":2,""viewing_time"":10803}]","33058","","","","","","","","","","","","","",""
"html-keyboard-response","4","40189","0.0-5.0-1.0","63f794e7d8d24753edbbb136","bdp_td","Sun Mar 26 2023 08:30:35 GMT-0400 (Eastern Daylight Time)","154704","","null","","","","FIX","","<div class='trialBorder'><div class='vertical-center'><img style='vertical-align:center; align:center' src=img/fixation3.jpg></div></div>","null","","","","","","",""
"html-keyboard-response","5","43327","0.0-5.0-2.0","63f794e7d8d24753edbbb136","bdp_td","Sun Mar 26 2023 08:30:35 GMT-0400 (Eastern Daylight Time)","154704","","3136","","","","offer","","<div class='trialBorder'><div class='vertical-center'><img style='vertical-align:center; align:center' src=img/fixation3.jpg></div><div class='cl'><div class='vertical-center'>$78<br><br>now</div></div><div class='cr'><div class='vertical-center'>$80<br>in<br>12 weeks</div></div><div class='respDivL'><div class='vertical-center'>(E)</div></div><div class='respDivR'><div class='vertical-center'>(I)</div></div></div>","I","$78<br><br>now","$80<br>in<br>12 weeks","0","78","80","12","THEN"
"html-keyboard-response","6","43587","0.0-5.0-3.0","63f794e7d8d24753edbbb136","bdp_td","Sun Mar 26 2023 08:30:35 GMT-0400 (Eastern Daylight Time)","154704","","null","","","","offerFB","","<div class='trialBorder'><div class='vertical-center'><img style='vertical-align:center; align:center' src=img/fixation3.jpg></div><div class='cl'><div class='vertical-center'>$78<br><br>now</div></div><div class='cr'><div class='vertical-center'><font style='color:orange'>$80<br>in<br>12 weeks</font></div></div><div class='respDivL'><div class='vertical-center'>(E)</div></div><div class='respDivR'><div class='vertical-center'><font style='color:orange'>(I)</font></div></div></div>","null","$78<br><br>now","$80<br>in<br>12 weeks","0","78","80","12",""
"html-keyboard-response","7","44091","0.0-5.0-1.1","63f794e7d8d24753edbbb136","bdp_td","Sun Mar 26 2023 08:30:35 GMT-0400 (Eastern Daylight Time)","154704","","null","","","","FIX","","<div class='trialBorder'><div class='vertical-center'><img style='vertical-align:center; align:center' src=img/fixation3.jpg></div></div>","null","","","","","","",""
"html-keyboard-response","8","47107","0.0-5.0-2.1","63f794e7d8d24753edbbb136","bdp_td","Sun Mar 26 2023 08:30:35 GMT-0400 (Eastern Daylight Time)","154704","","3015","","","","offer","","<div class='trialBorder'><div class='vertical-center'><img style='vertical-align:center; align:center' src=img/fixation3.jpg></div><div class='cl'><div class='vertical-center'>$55<br><br>now</div></div><div class='cr'><div class='vertical-center'>$75<br>in<br>6 weeks</div></div><div class='respDivL'><div class='vertical-center'>(E)</div></div><div class='respDivR'><div class='vertical-center'>(I)</div></div></div>","I","$55<br><br>now","$75<br>in<br>6 weeks","0","55","75","6","THEN"
"html-keyboard-response","9","47366","0.0-5.0-3.1","63f794e7d8d24753edbbb136","bdp_td","Sun Mar 26 2023 08:30:35 GMT-0400 (Eastern Daylight Time)","154704","","null","","","","offerFB","","<div class='trialBorder'><div class='vertical-center'><img style='vertical-align:center; align:center' src=img/fixation3.jpg></div><div class='cl'><div class='vertical-center'>$55<br><br>now</div></div><div class='cr'><div class='vertical-center'><font style='color:orange'>$75<br>in<br>6 weeks</font></div></div><div class='respDivL'><div class='vertical-center'>(E)</div></div><div class='respDivR'><div class='vertical-center'><font style='color:orange'>(I)</font></div></div></div>","null","$55<br><br>now","$75<br>in<br>6 weeks","0","55","75","6",""
"html-keyboard-response","10","47877","0.0-5.0-1.2","63f794e7d8d24753edbbb136","bdp_td","Sun Mar 26 2023 08:30:35 GMT-0400 (Eastern Daylight Time)","154704","","null","","","","FIX","","<div class='trialBorder'><div class='vertical-center'><img style='vertical-align:center; align:center' src=img/fixation3.jpg></div></div>","null","","","","","","",""
"html-keyboard-response","11","51531","0.0-5.0-2.2","63f794e7d8d24753edbbb136","bdp_td","Sun Mar 26 2023 08:30:35 GMT-0400 (Eastern Daylight Time)","154704","","3653","","","","offer","","<div class='trialBorder'><div class='vertical-center'><img style='vertical-align:center; align:center' src=img/fixation3.jpg></div><div class='cl'><div class='vertical-center'>$19<br><br>now</div></div><div class='cr'><div class='vertical-center'>$25<br>in<br>6 weeks</div></div><div class='respDivL'><div class='vertical-center'>(E)</div></div><div class='respDivR'><div class='vertical-center'>(I)</div></div></div>","I","$19<br><br>now","$25<br>in<br>6 weeks","0","19","25","6","THEN"
"html-keyboard-response","12","51787","0.0-5.0-3.2","63f794e7d8d24753edbbb136","bdp_td","Sun Mar 26 2023 08:30:35 GMT-0400 (Eastern Daylight Time)","154704","","null","","","","offerFB","","<div class='trialBorder'><div class='vertical-center'><img style='vertical-align:center; align:center' src=img/fixation3.jpg></div><div class='cl'><div class='vertical-center'>$19<br><br>now</div></div><div class='cr'><div class='vertical-center'><font style='color:orange'>$25<br>in<br>6 weeks</font></div></div><div class='respDivL'><div class='vertical-center'>(E)</div></div><div class='respDivR'><div class='vertical-center'><font style='color:orange'>(I)</font></div></div></div>","null","$19<br><br>now","$25<br>in<br>6 weeks","0","19","25","6",""
"html-keyboard-response","13","52295","0.0-5.0-1.3","63f794e7d8d24753edbbb136","bdp_td","Sun Mar 26 2023 08:30:35 GMT-0400 (Eastern Daylight Time)","154704","","null","","","","FIX","","<div class='trialBorder'><div class='vertical-center'><img style='vertical-align:center; align:center' src=img/fixation3.jpg></div></div>","null","","","","","","",""
"html-keyboard-response","14","56992","0.0-5.0-2.3","63f794e7d8d24753edbbb136","bdp_td","Sun Mar 26 2023 08:30:35 GMT-0400 (Eastern Daylight Time)","154704","","4696","","","","offer","","<div class='trialBorder'><div class='vertical-center'><img style='vertical-align:center; align:center' src=img/fixation3.jpg></div><div class='cl'><div class='vertical-center'>$75<br>in<br>3 weeks</div></div><div class='cr'><div class='vertical-center'>$41<br><br>now</div></div><div class='respDivL'><div class='vertical-center'>(E)</div></div><div class='respDivR'><div class='vertical-center'>(I)</div></div></div>","E","$41<br><br>now","$75<br>in<br>3 weeks","1","41","75","3","THEN"
"html-keyboard-response","15","57251","0.0-5.0-3.3","63f794e7d8d24753edbbb136","bdp_td","Sun Mar 26 2023 08:30:35 GMT-0400 (Eastern Daylight Time)","154704","","null","","","","offerFB","","<div class='trialBorder'><div class='vertical-center'><img style='vertical-align:center; align:center' src=img/fixation3.jpg></div><div class='cl'><div class='vertical-center'><font style='color:orange'>$75<br>in<br>3 weeks</font></div></div><div class='cr'><div class='vertical-center'>$41<br><br>now</div></div><div class='respDivL'><div class='vertical-center'><font style='color:orange'>(E)</font></div></div><div class='respDivR'><div class='vertical-center'>(I)</div></div></div>","null","$41<br><br>now","$75<br>in<br>3 weeks","1","41","75","3",""
"html-keyboard-response","16","57754","0.0-5.0-1.4","63f794e7d8d24753edbbb136","bdp_td","Sun Mar 26 2023 08:30:35 GMT-0400 (Eastern Daylight Time)","154704","","null","","","","FIX","","<div class='trialBorder'><div class='vertical-center'><img style='vertical-align:center; align:center' src=img/fixation3.jpg></div></div>","null","","","","","","",""
"html-keyboard-response","17","60728","0.0-5.0-2.4","63f794e7d8d24753edbbb136","bdp_td","Sun Mar 26 2023 08:30:35 GMT-0400 (Eastern Daylight Time)","154704","","2973","","","","offer","","<div class='trialBorder'><div class='vertical-center'><img style='vertical-align:center; align:center' src=img/fixation3.jpg></div><div class='cl'><div class='vertical-center'>$75<br>in<br>12 weeks</div></div><div class='cr'><div class='vertical-center'>$67<br><br>now</div></div><div class='respDivL'><div class='vertical-center'>(E)</div></div><div class='respDivR'><div class='vertical-center'>(I)</div></div></div>","E","$67<br><br>now","$75<br>in<br>12 weeks","1","67","75","12","THEN"
"html-keyboard-response","18","60987","0.0-5.0-3.4","63f794e7d8d24753edbbb136","bdp_td","Sun Mar 26 2023 08:30:35 GMT-0400 (Eastern Daylight Time)","154704","","null","","","","offerFB","","<div class='trialBorder'><div class='vertical-center'><img style='vertical-align:center; align:center' src=img/fixation3.jpg></div><div class='cl'><div class='vertical-center'><font style='color:orange'>$75<br>in<br>12 weeks</font></div></div><div class='cr'><div class='vertical-center'>$67<br><br>now</div></div><div class='respDivL'><div class='vertical-center'><font style='color:orange'>(E)</font></div></div><div class='respDivR'><div class='vertical-center'>(I)</div></div></div>","null","$67<br><br>now","$75<br>in<br>12 weeks","1","67","75","12",""
"html-keyboard-response","19","61494","0.0-5.0-1.5","63f794e7d8d24753edbbb136","bdp_td","Sun Mar 26 2023 08:30:35 GMT-0400 (Eastern Daylight Time)","154704","","null","","","","FIX","","<div class='trialBorder'><div class='vertical-center'><img style='vertical-align:center; align:center' src=img/fixation3.jpg></div></div>","null","","","","","","",""
"html-keyboard-response","20","63850","0.0-5.0-2.5","63f794e7d8d24753edbbb136","bdp_td","Sun Mar 26 2023 08:30:35 GMT-0400 (Eastern Daylight Time)","154704","","2355","","","","offer","","<div class='trialBorder'><div class='vertical-center'><img style='vertical-align:center; align:center' src=img/fixation3.jpg></div><div class='cl'><div class='vertical-center'>$34<br><br>now</div></div><div class='cr'><div class='vertical-center'>$50<br>in<br>6 weeks</div></div><div class='respDivL'><div class='vertical-center'>(E)</div></div><div class='respDivR'><div class='vertical-center'>(I)</div></div></div>","I","$34<br><br>now","$50<br>in<br>6 weeks","0","34","50","6","THEN"
"html-keyboard-response","21","64102","0.0-5.0-3.5","63f794e7d8d24753edbbb136","bdp_td","Sun Mar 26 2023 08:30:35 GMT-0400 (Eastern Daylight Time)","154704","","null","","","","offerFB","","<div class='trialBorder'><div class='vertical-center'><img style='vertical-align:center; align:center' src=img/fixation3.jpg></div><div class='cl'><div class='vertical-center'>$34<br><br>now</div></div><div class='cr'><div class='vertical-center'><font style='color:orange'>$50<br>in<br>6 weeks</font></div></div><div class='respDivL'><div class='vertical-center'>(E)</div></div><div class='respDivR'><div class='vertical-center'><font style='color:orange'>(I)</font></div></div></div>","null","$34<br><br>now","$50<br>in<br>6 weeks","0","34","50","6",""
"html-keyboard-response","22","64613","0.0-5.0-1.6","63f794e7d8d24753edbbb136","bdp_td","Sun Mar 26 2023 08:30:35 GMT-0400 (Eastern Daylight Time)","154704","","null","","","","FIX","","<div class='trialBorder'><div class='vertical-center'><img style='vertical-align:center; align:center' src=img/fixation3.jpg></div></div>","null","","","","","","",""
"html-keyboard-response","23","70823","0.0-5.0-2.6","63f794e7d8d24753edbbb136","bdp_td","Sun Mar 26 2023 08:30:35 GMT-0400 (Eastern Daylight Time)","154704","","6209","","","","offer","","<div class='trialBorder'><div class='vertical-center'><img style='vertical-align:center; align:center' src=img/fixation3.jpg></div><div class='cl'><div class='vertical-center'>$60<br>in<br>12 weeks</div></div><div class='cr'><div class='vertical-center'>$54<br><br>now</div></div><div class='respDivL'><div class='vertical-center'>(E)</div></div><div class='respDivR'><div class='vertical-center'>(I)</div></div></div>","E","$54<br><br>now","$60<br>in<br>12 weeks","1","54","60","12","THEN"
"html-keyboard-response","24","71086","0.0-5.0-3.6","63f794e7d8d24753edbbb136","bdp_td","Sun Mar 26 2023 08:30:35 GMT-0400 (Eastern Daylight Time)","154704","","null","","","","offerFB","","<div class='trialBorder'><div class='vertical-center'><img style='vertical-align:center; align:center' src=img/fixation3.jpg></div><div class='cl'><div class='vertical-center'><font style='color:orange'>$60<br>in<br>12 weeks</font></div></div><div class='cr'><div class='vertical-center'>$54<br><br>now</div></div><div class='respDivL'><div class='vertical-center'><font style='color:orange'>(E)</font></div></div><div class='respDivR'><div class='vertical-center'>(I)</div></div></div>","null","$54<br><br>now","$60<br>in<br>12 weeks","1","54","60","12",""
"html-keyboard-response","25","71597","0.0-5.0-1.7","63f794e7d8d24753edbbb136","bdp_td","Sun Mar 26 2023 08:30:35 GMT-0400 (Eastern Daylight Time)","154704","","null","","","","FIX","","<div class='trialBorder'><div class='vertical-center'><img style='vertical-align:center; align:center' src=img/fixation3.jpg></div></div>","null","","","","","","",""
"html-keyboard-response","26","74031","0.0-5.0-2.7","63f794e7d8d24753edbbb136","bdp_td","Sun Mar 26 2023 08:30:35 GMT-0400 (Eastern Daylight Time)","154704","","2433","","","","offer","","<div class='trialBorder'><div class='vertical-center'><img style='vertical-align:center; align:center' src=img/fixation3.jpg></div><div class='cl'><div class='vertical-center'>$50<br>in<br>3 weeks</div></div><div class='cr'><div class='vertical-center'>$27<br><br>now</div></div><div class='respDivL'><div class='vertical-center'>(E)</div></div><div class='respDivR'><div class='vertical-center'>(I)</div></div></div>","E","$27<br><br>now","$50<br>in<br>3 weeks","1","27","50","3","THEN"
"html-keyboard-response","27","74290","0.0-5.0-3.7","63f794e7d8d24753edbbb136","bdp_td","Sun Mar 26 2023 08:30:35 GMT-0400 (Eastern Daylight Time)","154704","","null","","","","offerFB","","<div class='trialBorder'><div class='vertical-center'><img style='vertical-align:center; align:center' src=img/fixation3.jpg></div><div class='cl'><div class='vertical-center'><font style='color:orange'>$50<br>in<br>3 weeks</font></div></div><div class='cr'><div class='vertical-center'>$27<br><br>now</div></div><div class='respDivL'><div class='vertical-center'><font style='color:orange'>(E)</font></div></div><div class='respDivR'><div class='vertical-center'>(I)</div></div></div>","null","$27<br><br>now","$50<br>in<br>3 weeks","1","27","50","3",""
"html-keyboard-response","28","74799","0.0-5.0-1.8","63f794e7d8d24753edbbb136","bdp_td","Sun Mar 26 2023 08:30:35 GMT-0400 (Eastern Daylight Time)","154704","","null","","","","FIX","","<div class='trialBorder'><div class='vertical-center'><img style='vertical-align:center; align:center' src=img/fixation3.jpg></div></div>","null","","","","","","",""
"html-keyboard-response","29","77334","0.0-5.0-2.8","63f794e7d8d24753edbbb136","bdp_td","Sun Mar 26 2023 08:30:35 GMT-0400 (Eastern Daylight Time)","154704","","2534","","","","offer","","<div class='trialBorder'><div class='vertical-center'><img style='vertical-align:center; align:center' src=img/fixation3.jpg></div><div class='cl'><div class='vertical-center'>$35<br>in<br>2 weeks</div></div><div class='cr'><div class='vertical-center'>$15<br><br>now</div></div><div class='respDivL'><div class='vertical-center'>(E)</div></div><div class='respDivR'><div class='vertical-center'>(I)</div></div></div>","E","$15<br><br>now","$35<br>in<br>2 weeks","1","15","35","2","THEN"
"html-keyboard-response","30","77590","0.0-5.0-3.8","63f794e7d8d24753edbbb136","bdp_td","Sun Mar 26 2023 08:30:35 GMT-0400 (Eastern Daylight Time)","154704","","null","","","","offerFB","","<div class='trialBorder'><div class='vertical-center'><img style='vertical-align:center; align:center' src=img/fixation3.jpg></div><div class='cl'><div class='vertical-center'><font style='color:orange'>$35<br>in<br>2 weeks</font></div></div><div class='cr'><div class='vertical-center'>$15<br><br>now</div></div><div class='respDivL'><div class='vertical-center'><font style='color:orange'>(E)</font></div></div><div class='respDivR'><div class='vertical-center'>(I)</div></div></div>","null","$15<br><br>now","$35<br>in<br>2 weeks","1","15","35","2",""
"html-keyboard-response","31","78102","0.0-5.0-1.9","63f794e7d8d24753edbbb136","bdp_td","Sun Mar 26 2023 08:30:35 GMT-0400 (Eastern Daylight Time)","154704","","null","","","","FIX","","<div class='trialBorder'><div class='vertical-center'><img style='vertical-align:center; align:center' src=img/fixation3.jpg></div></div>","null","","","","","","",""
"html-keyboard-response","32","84800","0.0-5.0-2.9","63f794e7d8d24753edbbb136","bdp_td","Sun Mar 26 2023 08:30:35 GMT-0400 (Eastern Daylight Time)","154704","","6697","","","","offer","","<div class='trialBorder'><div class='vertical-center'><img style='vertical-align:center; align:center' src=img/fixation3.jpg></div><div class='cl'><div class='vertical-center'>$33<br><br>now</div></div><div class='cr'><div class='vertical-center'>$80<br>in<br>2 weeks</div></div><div class='respDivL'><div class='vertical-center'>(E)</div></div><div class='respDivR'><div class='vertical-center'>(I)</div></div></div>","I","$33<br><br>now","$80<br>in<br>2 weeks","0","33","80","2","THEN"
"html-keyboard-response","33","85062","0.0-5.0-3.9","63f794e7d8d24753edbbb136","bdp_td","Sun Mar 26 2023 08:30:35 GMT-0400 (Eastern Daylight Time)","154704","","null","","","","offerFB","","<div class='trialBorder'><div class='vertical-center'><img style='vertical-align:center; align:center' src=img/fixation3.jpg></div><div class='cl'><div class='vertical-center'>$33<br><br>now</div></div><div class='cr'><div class='vertical-center'><font style='color:orange'>$80<br>in<br>2 weeks</font></div></div><div class='respDivL'><div class='vertical-center'>(E)</div></div><div class='respDivR'><div class='vertical-center'><font style='color:orange'>(I)</font></div></div></div>","null","$33<br><br>now","$80<br>in<br>2 weeks","0","33","80","2",""
"html-keyboard-response","34","85575","0.0-5.0-1.10","63f794e7d8d24753edbbb136","bdp_td","Sun Mar 26 2023 08:30:35 GMT-0400 (Eastern Daylight Time)","154704","","null","","","","FIX","","<div class='trialBorder'><div class='vertical-center'><img style='vertical-align:center; align:center' src=img/fixation3.jpg></div></div>","null","","","","","","",""
"html-keyboard-response","35","89258","0.0-5.0-2.10","63f794e7d8d24753edbbb136","bdp_td","Sun Mar 26 2023 08:30:35 GMT-0400 (Eastern Daylight Time)","154704","","3682","","","","offer","","<div class='trialBorder'><div class='vertical-center'><img style='vertical-align:center; align:center' src=img/fixation3.jpg></div><div class='cl'><div class='vertical-center'>$31<br><br>now</div></div><div class='cr'><div class='vertical-center'>$85<br>in<br>1 week</div></div><div class='respDivL'><div class='vertical-center'>(E)</div></div><div class='respDivR'><div class='vertical-center'>(I)</div></div></div>","I","$31<br><br>now","$85<br>in<br>1 week","0","31","85","1","THEN"
"html-keyboard-response","36","89517","0.0-5.0-3.10","63f794e7d8d24753edbbb136","bdp_td","Sun Mar 26 2023 08:30:35 GMT-0400 (Eastern Daylight Time)","154704","","null","","","","offerFB","","<div class='trialBorder'><div class='vertical-center'><img style='vertical-align:center; align:center' src=img/fixation3.jpg></div><div class='cl'><div class='vertical-center'>$31<br><br>now</div></div><div class='cr'><div class='vertical-center'><font style='color:orange'>$85<br>in<br>1 week</font></div></div><div class='respDivL'><div class='vertical-center'>(E)</div></div><div class='respDivR'><div class='vertical-center'><font style='color:orange'>(I)</font></div></div></div>","null","$31<br><br>now","$85<br>in<br>1 week","0","31","85","1",""
"html-keyboard-response","37","90021","0.0-5.0-1.11","63f794e7d8d24753edbbb136","bdp_td","Sun Mar 26 2023 08:30:35 GMT-0400 (Eastern Daylight Time)","154704","","null","","","","FIX","","<div class='trialBorder'><div class='vertical-center'><img style='vertical-align:center; align:center' src=img/fixation3.jpg></div></div>","null","","","","","","",""
"html-keyboard-response","38","92811","0.0-5.0-2.11","63f794e7d8d24753edbbb136","bdp_td","Sun Mar 26 2023 08:30:35 GMT-0400 (Eastern Daylight Time)","154704","","2789","","","","offer","","<div class='trialBorder'><div class='vertical-center'><img style='vertical-align:center; align:center' src=img/fixation3.jpg></div><div class='cl'><div class='vertical-center'>$80<br><br>now</div></div><div class='cr'><div class='vertical-center'>$85<br>in<br>12 weeks</div></div><div class='respDivL'><div class='vertical-center'>(E)</div></div><div class='respDivR'><div class='vertical-center'>(I)</div></div></div>","I","$80<br><br>now","$85<br>in<br>12 weeks","0","80","85","12","THEN"
"html-keyboard-response","39","93070","0.0-5.0-3.11","63f794e7d8d24753edbbb136","bdp_td","Sun Mar 26 2023 08:30:35 GMT-0400 (Eastern Daylight Time)","154704","","null","","","","offerFB","","<div class='trialBorder'><div class='vertical-center'><img style='vertical-align:center; align:center' src=img/fixation3.jpg></div><div class='cl'><div class='vertical-center'>$80<br><br>now</div></div><div class='cr'><div class='vertical-center'><font style='color:orange'>$85<br>in<br>12 weeks</font></div></div><div class='respDivL'><div class='vertical-center'>(E)</div></div><div class='respDivR'><div class='vertical-center'><font style='color:orange'>(I)</font></div></div></div>","null","$80<br><br>now","$85<br>in<br>12 weeks","0","80","85","12",""
"html-keyboard-response","40","93574","0.0-5.0-1.12","63f794e7d8d24753edbbb136","bdp_td","Sun Mar 26 2023 08:30:35 GMT-0400 (Eastern Daylight Time)","154704","","null","","","","FIX","","<div class='trialBorder'><div class='vertical-center'><img style='vertical-align:center; align:center' src=img/fixation3.jpg></div></div>","null","","","","","","",""
"html-keyboard-response","41","98894","0.0-5.0-2.12","63f794e7d8d24753edbbb136","bdp_td","Sun Mar 26 2023 08:30:35 GMT-0400 (Eastern Daylight Time)","154704","","5319","","","","offer","","<div class='trialBorder'><div class='vertical-center'><img style='vertical-align:center; align:center' src=img/fixation3.jpg></div><div class='cl'><div class='vertical-center'>$55<br>in<br>6 weeks</div></div><div class='cr'><div class='vertical-center'>$40<br><br>now</div></div><div class='respDivL'><div class='vertical-center'>(E)</div></div><div class='respDivR'><div class='vertical-center'>(I)</div></div></div>","E","$40<br><br>now","$55<br>in<br>6 weeks","1","40","55","6","THEN"
"html-keyboard-response","42","99151","0.0-5.0-3.12","63f794e7d8d24753edbbb136","bdp_td","Sun Mar 26 2023 08:30:35 GMT-0400 (Eastern Daylight Time)","154704","","null","","","","offerFB","","<div class='trialBorder'><div class='vertical-center'><img style='vertical-align:center; align:center' src=img/fixation3.jpg></div><div class='cl'><div class='vertical-center'><font style='color:orange'>$55<br>in<br>6 weeks</font></div></div><div class='cr'><div class='vertical-center'>$40<br><br>now</div></div><div class='respDivL'><div class='vertical-center'><font style='color:orange'>(E)</font></div></div><div class='respDivR'><div class='vertical-center'>(I)</div></div></div>","null","$40<br><br>now","$55<br>in<br>6 weeks","1","40","55","6",""
"html-keyboard-response","43","99662","0.0-5.0-1.13","63f794e7d8d24753edbbb136","bdp_td","Sun Mar 26 2023 08:30:35 GMT-0400 (Eastern Daylight Time)","154704","","null","","","","FIX","","<div class='trialBorder'><div class='vertical-center'><img style='vertical-align:center; align:center' src=img/fixation3.jpg></div></div>","null","","","","","","",""
"html-keyboard-response","44","102300","0.0-5.0-2.13","63f794e7d8d24753edbbb136","bdp_td","Sun Mar 26 2023 08:30:35 GMT-0400 (Eastern Daylight Time)","154704","","2637","","","","offer","","<div class='trialBorder'><div class='vertical-center'><img style='vertical-align:center; align:center' src=img/fixation3.jpg></div><div class='cl'><div class='vertical-center'>$14<br><br>now</div></div><div class='cr'><div class='vertical-center'>$25<br>in<br>3 weeks</div></div><div class='respDivL'><div class='vertical-center'>(E)</div></div><div class='respDivR'><div class='vertical-center'>(I)</div></div></div>","I","$14<br><br>now","$25<br>in<br>3 weeks","0","14","25","3","THEN"
"html-keyboard-response","45","102559","0.0-5.0-3.13","63f794e7d8d24753edbbb136","bdp_td","Sun Mar 26 2023 08:30:35 GMT-0400 (Eastern Daylight Time)","154704","","null","","","","offerFB","","<div class='trialBorder'><div class='vertical-center'><img style='vertical-align:center; align:center' src=img/fixation3.jpg></div><div class='cl'><div class='vertical-center'>$14<br><br>now</div></div><div class='cr'><div class='vertical-center'><font style='color:orange'>$25<br>in<br>3 weeks</font></div></div><div class='respDivL'><div class='vertical-center'>(E)</div></div><div class='respDivR'><div class='vertical-center'><font style='color:orange'>(I)</font></div></div></div>","null","$14<br><br>now","$25<br>in<br>3 weeks","0","14","25","3",""
"html-keyboard-response","46","103070","0.0-5.0-1.14","63f794e7d8d24753edbbb136","bdp_td","Sun Mar 26 2023 08:30:35 GMT-0400 (Eastern Daylight Time)","154704","","null","","","","FIX","","<div class='trialBorder'><div class='vertical-center'><img style='vertical-align:center; align:center' src=img/fixation3.jpg></div></div>","null","","","","","","",""
"html-keyboard-response","47","105111","0.0-5.0-2.14","63f794e7d8d24753edbbb136","bdp_td","Sun Mar 26 2023 08:30:35 GMT-0400 (Eastern Daylight Time)","154704","","2039","","","","offer","","<div class='trialBorder'><div class='vertical-center'><img style='vertical-align:center; align:center' src=img/fixation3.jpg></div><div class='cl'><div class='vertical-center'>$50<br>in<br>12 weeks</div></div><div class='cr'><div class='vertical-center'>$47<br><br>now</div></div><div class='respDivL'><div class='vertical-center'>(E)</div></div><div class='respDivR'><div class='vertical-center'>(I)</div></div></div>","E","$47<br><br>now","$50<br>in<br>12 weeks","1","47","50","12","THEN"
"html-keyboard-response","48","105365","0.0-5.0-3.14","63f794e7d8d24753edbbb136","bdp_td","Sun Mar 26 2023 08:30:35 GMT-0400 (Eastern Daylight Time)","154704","","null","","","","offerFB","","<div class='trialBorder'><div class='vertical-center'><img style='vertical-align:center; align:center' src=img/fixation3.jpg></div><div class='cl'><div class='vertical-center'><font style='color:orange'>$50<br>in<br>12 weeks</font></div></div><div class='cr'><div class='vertical-center'>$47<br><br>now</div></div><div class='respDivL'><div class='vertical-center'><font style='color:orange'>(E)</font></div></div><div class='respDivR'><div class='vertical-center'>(I)</div></div></div>","null","$47<br><br>now","$50<br>in<br>12 weeks","1","47","50","12",""
"html-keyboard-response","49","105870","0.0-5.0-1.15","63f794e7d8d24753edbbb136","bdp_td","Sun Mar 26 2023 08:30:35 GMT-0400 (Eastern Daylight Time)","154704","","null","","","","FIX","","<div class='trialBorder'><div class='vertical-center'><img style='vertical-align:center; align:center' src=img/fixation3.jpg></div></div>","null","","","","","","",""
"html-keyboard-response","50","110419","0.0-5.0-2.15","63f794e7d8d24753edbbb136","bdp_td","Sun Mar 26 2023 08:30:35 GMT-0400 (Eastern Daylight Time)","154704","","4548","","","","offer","","<div class='trialBorder'><div class='vertical-center'><img style='vertical-align:center; align:center' src=img/fixation3.jpg></div><div class='cl'><div class='vertical-center'>$54<br><br>now</div></div><div class='cr'><div class='vertical-center'>$55<br>in<br>12 weeks</div></div><div class='respDivL'><div class='vertical-center'>(E)</div></div><div class='respDivR'><div class='vertical-center'>(I)</div></div></div>","I","$54<br><br>now","$55<br>in<br>12 weeks","0","54","55","12","THEN"
"html-keyboard-response","51","110677","0.0-5.0-3.15","63f794e7d8d24753edbbb136","bdp_td","Sun Mar 26 2023 08:30:35 GMT-0400 (Eastern Daylight Time)","154704","","null","","","","offerFB","","<div class='trialBorder'><div class='vertical-center'><img style='vertical-align:center; align:center' src=img/fixation3.jpg></div><div class='cl'><div class='vertical-center'>$54<br><br>now</div></div><div class='cr'><div class='vertical-center'><font style='color:orange'>$55<br>in<br>12 weeks</font></div></div><div class='respDivL'><div class='vertical-center'>(E)</div></div><div class='respDivR'><div class='vertical-center'><font style='color:orange'>(I)</font></div></div></div>","null","$54<br><br>now","$55<br>in<br>12 weeks","0","54","55","12",""
"html-keyboard-response","52","111182","0.0-5.0-1.16","63f794e7d8d24753edbbb136","bdp_td","Sun Mar 26 2023 08:30:35 GMT-0400 (Eastern Daylight Time)","154704","","null","","","","FIX","","<div class='trialBorder'><div class='vertical-center'><img style='vertical-align:center; align:center' src=img/fixation3.jpg></div></div>","null","","","","","","",""
"html-keyboard-response","53","114289","0.0-5.0-2.16","63f794e7d8d24753edbbb136","bdp_td","Sun Mar 26 2023 08:30:35 GMT-0400 (Eastern Daylight Time)","154704","","3106","","","","offer","","<div class='trialBorder'><div class='vertical-center'><img style='vertical-align:center; align:center' src=img/fixation3.jpg></div><div class='cl'><div class='vertical-center'>$35<br>in<br>3 weeks</div></div><div class='cr'><div class='vertical-center'>$24<br><br>now</div></div><div class='respDivL'><div class='vertical-center'>(E)</div></div><div class='respDivR'><div class='vertical-center'>(I)</div></div></div>","E","$24<br><br>now","$35<br>in<br>3 weeks","1","24","35","3","THEN"
"html-keyboard-response","54","114549","0.0-5.0-3.16","63f794e7d8d24753edbbb136","bdp_td","Sun Mar 26 2023 08:30:35 GMT-0400 (Eastern Daylight Time)","154704","","null","","","","offerFB","","<div class='trialBorder'><div class='vertical-center'><img style='vertical-align:center; align:center' src=img/fixation3.jpg></div><div class='cl'><div class='vertical-center'><font style='color:orange'>$35<br>in<br>3 weeks</font></div></div><div class='cr'><div class='vertical-center'>$24<br><br>now</div></div><div class='respDivL'><div class='vertical-center'><font style='color:orange'>(E)</font></div></div><div class='respDivR'><div class='vertical-center'>(I)</div></div></div>","null","$24<br><br>now","$35<br>in<br>3 weeks","1","24","35","3",""
"html-keyboard-response","55","115054","0.0-5.0-1.17","63f794e7d8d24753edbbb136","bdp_td","Sun Mar 26 2023 08:30:35 GMT-0400 (Eastern Daylight Time)","154704","","null","","","","FIX","","<div class='trialBorder'><div class='vertical-center'><img style='vertical-align:center; align:center' src=img/fixation3.jpg></div></div>","null","","","","","","",""
"html-keyboard-response","56","118204","0.0-5.0-2.17","63f794e7d8d24753edbbb136","bdp_td","Sun Mar 26 2023 08:30:35 GMT-0400 (Eastern Daylight Time)","154704","","3148","","","","offer","","<div class='trialBorder'><div class='vertical-center'><img style='vertical-align:center; align:center' src=img/fixation3.jpg></div><div class='cl'><div class='vertical-center'>$30<br>in<br>12 weeks</div></div><div class='cr'><div class='vertical-center'>$28<br><br>now</div></div><div class='respDivL'><div class='vertical-center'>(E)</div></div><div class='respDivR'><div class='vertical-center'>(I)</div></div></div>","E","$28<br><br>now","$30<br>in<br>12 weeks","1","28","30","12","THEN"
"html-keyboard-response","57","118461","0.0-5.0-3.17","63f794e7d8d24753edbbb136","bdp_td","Sun Mar 26 2023 08:30:35 GMT-0400 (Eastern Daylight Time)","154704","","null","","","","offerFB","","<div class='trialBorder'><div class='vertical-center'><img style='vertical-align:center; align:center' src=img/fixation3.jpg></div><div class='cl'><div class='vertical-center'><font style='color:orange'>$30<br>in<br>12 weeks</font></div></div><div class='cr'><div class='vertical-center'>$28<br><br>now</div></div><div class='respDivL'><div class='vertical-center'><font style='color:orange'>(E)</font></div></div><div class='respDivR'><div class='vertical-center'>(I)</div></div></div>","null","$28<br><br>now","$30<br>in<br>12 weeks","1","28","30","12",""
"html-keyboard-response","58","118967","0.0-5.0-1.18","63f794e7d8d24753edbbb136","bdp_td","Sun Mar 26 2023 08:30:35 GMT-0400 (Eastern Daylight Time)","154704","","null","","","","FIX","","<div class='trialBorder'><div class='vertical-center'><img style='vertical-align:center; align:center' src=img/fixation3.jpg></div></div>","null","","","","","","",""
"html-keyboard-response","59","122365","0.0-5.0-2.18","63f794e7d8d24753edbbb136","bdp_td","Sun Mar 26 2023 08:30:35 GMT-0400 (Eastern Daylight Time)","154704","","3398","","","","offer","","<div class='trialBorder'><div class='vertical-center'><img style='vertical-align:center; align:center' src=img/fixation3.jpg></div><div class='cl'><div class='vertical-center'>$85<br>in<br>6 weeks</div></div><div class='cr'><div class='vertical-center'>$69<br><br>now</div></div><div class='respDivL'><div class='vertical-center'>(E)</div></div><div class='respDivR'><div class='vertical-center'>(I)</div></div></div>","E","$69<br><br>now","$85<br>in<br>6 weeks","1","69","85","6","THEN"
"html-keyboard-response","60","122623","0.0-5.0-3.18","63f794e7d8d24753edbbb136","bdp_td","Sun Mar 26 2023 08:30:35 GMT-0400 (Eastern Daylight Time)","154704","","null","","","","offerFB","","<div class='trialBorder'><div class='vertical-center'><img style='vertical-align:center; align:center' src=img/fixation3.jpg></div><div class='cl'><div class='vertical-center'><font style='color:orange'>$85<br>in<br>6 weeks</font></div></div><div class='cr'><div class='vertical-center'>$69<br><br>now</div></div><div class='respDivL'><div class='vertical-center'><font style='color:orange'>(E)</font></div></div><div class='respDivR'><div class='vertical-center'>(I)</div></div></div>","null","$69<br><br>now","$85<br>in<br>6 weeks","1","69","85","6",""
"html-keyboard-response","61","123134","0.0-5.0-1.19","63f794e7d8d24753edbbb136","bdp_td","Sun Mar 26 2023 08:30:35 GMT-0400 (Eastern Daylight Time)","154704","","null","","","","FIX","","<div class='trialBorder'><div class='vertical-center'><img style='vertical-align:center; align:center' src=img/fixation3.jpg></div></div>","null","","","","","","",""
"html-keyboard-response","62","126311","0.0-5.0-2.19","63f794e7d8d24753edbbb136","bdp_td","Sun Mar 26 2023 08:30:35 GMT-0400 (Eastern Daylight Time)","154704","","3176","","","","offer","","<div class='trialBorder'><div class='vertical-center'><img style='vertical-align:center; align:center' src=img/fixation3.jpg></div><div class='cl'><div class='vertical-center'>$60<br>in<br>6 weeks</div></div><div class='cr'><div class='vertical-center'>$49<br><br>now</div></div><div class='respDivL'><div class='vertical-center'>(E)</div></div><div class='respDivR'><div class='vertical-center'>(I)</div></div></div>","E","$49<br><br>now","$60<br>in<br>6 weeks","1","49","60","6","THEN"
"html-keyboard-response","63","126565","0.0-5.0-3.19","63f794e7d8d24753edbbb136","bdp_td","Sun Mar 26 2023 08:30:35 GMT-0400 (Eastern Daylight Time)","154704","","null","","","","offerFB","","<div class='trialBorder'><div class='vertical-center'><img style='vertical-align:center; align:center' src=img/fixation3.jpg></div><div class='cl'><div class='vertical-center'><font style='color:orange'>$60<br>in<br>6 weeks</font></div></div><div class='cr'><div class='vertical-center'>$49<br><br>now</div></div><div class='respDivL'><div class='vertical-center'><font style='color:orange'>(E)</font></div></div><div class='respDivR'><div class='vertical-center'>(I)</div></div></div>","null","$49<br><br>now","$60<br>in<br>6 weeks","1","49","60","6",""
"html-keyboard-response","64","127071","0.0-5.0-1.20","63f794e7d8d24753edbbb136","bdp_td","Sun Mar 26 2023 08:30:35 GMT-0400 (Eastern Daylight Time)","154704","","null","","","","FIX","","<div class='trialBorder'><div class='vertical-center'><img style='vertical-align:center; align:center' src=img/fixation3.jpg></div></div>","null","","","","","","",""
"html-keyboard-response","65","131047","0.0-5.0-2.20","63f794e7d8d24753edbbb136","bdp_td","Sun Mar 26 2023 08:30:35 GMT-0400 (Eastern Daylight Time)","154704","","3975","","","","offer","","<div class='trialBorder'><div class='vertical-center'><img style='vertical-align:center; align:center' src=img/fixation3.jpg></div><div class='cl'><div class='vertical-center'>$80<br>in<br>3 weeks</div></div><div class='cr'><div class='vertical-center'>$54<br><br>now</div></div><div class='respDivL'><div class='vertical-center'>(E)</div></div><div class='respDivR'><div class='vertical-center'>(I)</div></div></div>","E","$54<br><br>now","$80<br>in<br>3 weeks","1","54","80","3","THEN"
"html-keyboard-response","66","131303","0.0-5.0-3.20","63f794e7d8d24753edbbb136","bdp_td","Sun Mar 26 2023 08:30:35 GMT-0400 (Eastern Daylight Time)","154704","","null","","","","offerFB","","<div class='trialBorder'><div class='vertical-center'><img style='vertical-align:center; align:center' src=img/fixation3.jpg></div><div class='cl'><div class='vertical-center'><font style='color:orange'>$80<br>in<br>3 weeks</font></div></div><div class='cr'><div class='vertical-center'>$54<br><br>now</div></div><div class='respDivL'><div class='vertical-center'><font style='color:orange'>(E)</font></div></div><div class='respDivR'><div class='vertical-center'>(I)</div></div></div>","null","$54<br><br>now","$80<br>in<br>3 weeks","1","54","80","3",""
"html-keyboard-response","67","131813","0.0-5.0-1.21","63f794e7d8d24753edbbb136","bdp_td","Sun Mar 26 2023 08:30:35 GMT-0400 (Eastern Daylight Time)","154704","","null","","","","FIX","","<div class='trialBorder'><div class='vertical-center'><img style='vertical-align:center; align:center' src=img/fixation3.jpg></div></div>","null","","","","","","",""
"html-keyboard-response","68","134318","0.0-5.0-2.21","63f794e7d8d24753edbbb136","bdp_td","Sun Mar 26 2023 08:30:35 GMT-0400 (Eastern Daylight Time)","154704","","2504","","","","offer","","<div class='trialBorder'><div class='vertical-center'><img style='vertical-align:center; align:center' src=img/fixation3.jpg></div><div class='cl'><div class='vertical-center'>$25<br><br>now</div></div><div class='cr'><div class='vertical-center'>$60<br>in<br>3 weeks</div></div><div class='respDivL'><div class='vertical-center'>(E)</div></div><div class='respDivR'><div class='vertical-center'>(I)</div></div></div>","I","$25<br><br>now","$60<br>in<br>3 weeks","0","25","60","3","THEN"
"html-keyboard-response","69","134576","0.0-5.0-3.21","63f794e7d8d24753edbbb136","bdp_td","Sun Mar 26 2023 08:30:35 GMT-0400 (Eastern Daylight Time)","154704","","null","","","","offerFB","","<div class='trialBorder'><div class='vertical-center'><img style='vertical-align:center; align:center' src=img/fixation3.jpg></div><div class='cl'><div class='vertical-center'>$25<br><br>now</div></div><div class='cr'><div class='vertical-center'><font style='color:orange'>$60<br>in<br>3 weeks</font></div></div><div class='respDivL'><div class='vertical-center'>(E)</div></div><div class='respDivR'><div class='vertical-center'><font style='color:orange'>(I)</font></div></div></div>","null","$25<br><br>now","$60<br>in<br>3 weeks","0","25","60","3",""
"html-keyboard-response","70","135088","0.0-5.0-1.22","63f794e7d8d24753edbbb136","bdp_td","Sun Mar 26 2023 08:30:35 GMT-0400 (Eastern Daylight Time)","154704","","null","","","","FIX","","<div class='trialBorder'><div class='vertical-center'><img style='vertical-align:center; align:center' src=img/fixation3.jpg></div></div>","null","","","","","","",""
"html-keyboard-response","71","137383","0.0-5.0-2.22","63f794e7d8d24753edbbb136","bdp_td","Sun Mar 26 2023 08:30:35 GMT-0400 (Eastern Daylight Time)","154704","","2295","","","","offer","","<div class='trialBorder'><div class='vertical-center'><img style='vertical-align:center; align:center' src=img/fixation3.jpg></div><div class='cl'><div class='vertical-center'>$20<br><br>now</div></div><div class='cr'><div class='vertical-center'>$55<br>in<br>1 week</div></div><div class='respDivL'><div class='vertical-center'>(E)</div></div><div class='respDivR'><div class='vertical-center'>(I)</div></div></div>","I","$20<br><br>now","$55<br>in<br>1 week","0","20","55","1","THEN"
"html-keyboard-response","72","137636","0.0-5.0-3.22","63f794e7d8d24753edbbb136","bdp_td","Sun Mar 26 2023 08:30:35 GMT-0400 (Eastern Daylight Time)","154704","","null","","","","offerFB","","<div class='trialBorder'><div class='vertical-center'><img style='vertical-align:center; align:center' src=img/fixation3.jpg></div><div class='cl'><div class='vertical-center'>$20<br><br>now</div></div><div class='cr'><div class='vertical-center'><font style='color:orange'>$55<br>in<br>1 week</font></div></div><div class='respDivL'><div class='vertical-center'>(E)</div></div><div class='respDivR'><div class='vertical-center'><font style='color:orange'>(I)</font></div></div></div>","null","$20<br><br>now","$55<br>in<br>1 week","0","20","55","1",""
"html-keyboard-response","73","138145","0.0-5.0-1.23","63f794e7d8d24753edbbb136","bdp_td","Sun Mar 26 2023 08:30:35 GMT-0400 (Eastern Daylight Time)","154704","","null","","","","FIX","","<div class='trialBorder'><div class='vertical-center'><img style='vertical-align:center; align:center' src=img/fixation3.jpg></div></div>","null","","","","","","",""
"html-keyboard-response","74","141846","0.0-5.0-2.23","63f794e7d8d24753edbbb136","bdp_td","Sun Mar 26 2023 08:30:35 GMT-0400 (Eastern Daylight Time)","154704","","3701","","","","offer","","<div class='trialBorder'><div class='vertical-center'><img style='vertical-align:center; align:center' src=img/fixation3.jpg></div><div class='cl'><div class='vertical-center'>$25<br>in<br>12 weeks</div></div><div class='cr'><div class='vertical-center'>$22<br><br>now</div></div><div class='respDivL'><div class='vertical-center'>(E)</div></div><div class='respDivR'><div class='vertical-center'>(I)</div></div></div>","E","$22<br><br>now","$25<br>in<br>12 weeks","1","22","25","12","THEN"
"html-keyboard-response","75","142100","0.0-5.0-3.23","63f794e7d8d24753edbbb136","bdp_td","Sun Mar 26 2023 08:30:35 GMT-0400 (Eastern Daylight Time)","154704","","null","","","","offerFB","","<div class='trialBorder'><div class='vertical-center'><img style='vertical-align:center; align:center' src=img/fixation3.jpg></div><div class='cl'><div class='vertical-center'><font style='color:orange'>$25<br>in<br>12 weeks</font></div></div><div class='cr'><div class='vertical-center'>$22<br><br>now</div></div><div class='respDivL'><div class='vertical-center'><font style='color:orange'>(E)</font></div></div><div class='respDivR'><div class='vertical-center'>(I)</div></div></div>","null","$22<br><br>now","$25<br>in<br>12 weeks","1","22","25","12",""
"html-keyboard-response","76","142608","0.0-5.0-1.24","63f794e7d8d24753edbbb136","bdp_td","Sun Mar 26 2023 08:30:35 GMT-0400 (Eastern Daylight Time)","154704","","null","","","","FIX","","<div class='trialBorder'><div class='vertical-center'><img style='vertical-align:center; align:center' src=img/fixation3.jpg></div></div>","null","","","","","","",""
"html-keyboard-response","77","145432","0.0-5.0-2.24","63f794e7d8d24753edbbb136","bdp_td","Sun Mar 26 2023 08:30:35 GMT-0400 (Eastern Daylight Time)","154704","","2822","","","","offer","","<div class='trialBorder'><div class='vertical-center'><img style='vertical-align:center; align:center' src=img/fixation3.jpg></div><div class='cl'><div class='vertical-center'>$34<br><br>now</div></div><div class='cr'><div class='vertical-center'>$35<br>in<br>12 weeks</div></div><div class='respDivL'><div class='vertical-center'>(E)</div></div><div class='respDivR'><div class='vertical-center'>(I)</div></div></div>","I","$34<br><br>now","$35<br>in<br>12 weeks","0","34","35","12","THEN"
"html-keyboard-response","78","145688","0.0-5.0-3.24","63f794e7d8d24753edbbb136","bdp_td","Sun Mar 26 2023 08:30:35 GMT-0400 (Eastern Daylight Time)","154704","","null","","","","offerFB","","<div class='trialBorder'><div class='vertical-center'><img style='vertical-align:center; align:center' src=img/fixation3.jpg></div><div class='cl'><div class='vertical-center'>$34<br><br>now</div></div><div class='cr'><div class='vertical-center'><font style='color:orange'>$35<br>in<br>12 weeks</font></div></div><div class='respDivL'><div class='vertical-center'>(E)</div></div><div class='respDivR'><div class='vertical-center'><font style='color:orange'>(I)</font></div></div></div>","null","$34<br><br>now","$35<br>in<br>12 weeks","0","34","35","12",""
"html-keyboard-response","79","146201","0.0-5.0-1.25","63f794e7d8d24753edbbb136","bdp_td","Sun Mar 26 2023 08:30:35 GMT-0400 (Eastern Daylight Time)","154704","","null","","","","FIX","","<div class='trialBorder'><div class='vertical-center'><img style='vertical-align:center; align:center' src=img/fixation3.jpg></div></div>","null","","","","","","",""
"html-keyboard-response","80","149934","0.0-5.0-2.25","63f794e7d8d24753edbbb136","bdp_td","Sun Mar 26 2023 08:30:35 GMT-0400 (Eastern Daylight Time)","154704","","3732","","","","offer","","<div class='trialBorder'><div class='vertical-center'><img style='vertical-align:center; align:center' src=img/fixation3.jpg></div><div class='cl'><div class='vertical-center'>$30<br>in<br>6 weeks</div></div><div class='cr'><div class='vertical-center'>$25<br><br>now</div></div><div class='respDivL'><div class='vertical-center'>(E)</div></div><div class='respDivR'><div class='vertical-center'>(I)</div></div></div>","E","$25<br><br>now","$30<br>in<br>6 weeks","1","25","30","6","THEN"
"html-keyboard-response","81","150192","0.0-5.0-3.25","63f794e7d8d24753edbbb136","bdp_td","Sun Mar 26 2023 08:30:35 GMT-0400 (Eastern Daylight Time)","154704","","null","","","","offerFB","","<div class='trialBorder'><div class='vertical-center'><img style='vertical-align:center; align:center' src=img/fixation3.jpg></div><div class='cl'><div class='vertical-center'><font style='color:orange'>$30<br>in<br>6 weeks</font></div></div><div class='cr'><div class='vertical-center'>$25<br><br>now</div></div><div class='respDivL'><div class='vertical-center'><font style='color:orange'>(E)</font></div></div><div class='respDivR'><div class='vertical-center'>(I)</div></div></div>","null","$25<br><br>now","$30<br>in<br>6 weeks","1","25","30","6",""
"html-keyboard-response","82","150704","0.0-5.0-1.26","63f794e7d8d24753edbbb136","bdp_td","Sun Mar 26 2023 08:30:35 GMT-0400 (Eastern Daylight Time)","154704","","null","","","","FIX","","<div class='trialBorder'><div class='vertical-center'><img style='vertical-align:center; align:center' src=img/fixation3.jpg></div></div>","null","","","","","","",""
"html-keyboard-response","83","153435","0.0-5.0-2.26","63f794e7d8d24753edbbb136","bdp_td","Sun Mar 26 2023 08:30:35 GMT-0400 (Eastern Daylight Time)","154704","","2731","","","","offer","","<div class='trialBorder'><div class='vertical-center'><img style='vertical-align:center; align:center' src=img/fixation3.jpg></div><div class='cl'><div class='vertical-center'>$11<br><br>now</div></div><div class='cr'><div class='vertical-center'>$30<br>in<br>2 weeks</div></div><div class='respDivL'><div class='vertical-center'>(E)</div></div><div class='respDivR'><div class='vertical-center'>(I)</div></div></div>","I","$11<br><br>now","$30<br>in<br>2 weeks","0","11","30","2","THEN"
"html-keyboard-response","84","153697","0.0-5.0-3.26","63f794e7d8d24753edbbb136","bdp_td","Sun Mar 26 2023 08:30:35 GMT-0400 (Eastern Daylight Time)","154704","","null","","","","offerFB","","<div class='trialBorder'><div class='vertical-center'><img style='vertical-align:center; align:center' src=img/fixation3.jpg></div><div class='cl'><div class='vertical-center'>$11<br><br>now</div></div><div class='cr'><div class='vertical-center'><font style='color:orange'>$30<br>in<br>2 weeks</font></div></div><div class='respDivL'><div class='vertical-center'>(E)</div></div><div class='respDivR'><div class='vertical-center'><font style='color:orange'>(I)</font></div></div></div>","null","$11<br><br>now","$30<br>in<br>2 weeks","0","11","30","2",""
"","","","","63f794e7d8d24753edbbb136","bdp_td","Sun Mar 26 2023 08:30:35 GMT-0400 (Eastern Daylight Time)","154704","","","fullscreenexit","85","153703","fullscreenexit","","","","","","","","","",""
"fullscreen","85","154703","0.0-6.0","63f794e7d8d24753edbbb136","bdp_td","Sun Mar 26 2023 08:30:35 GMT-0400 (Eastern Daylight Time)","154704","","","","","","","true","","","","","","","","",""
"html-keyboard-response","86","155208","0.0-7.0","","","","","","null","","","","","","","null","","","","","","",""
