"trial_type","trial_index","time_elapsed","internal_node_id","subject_id","task","startTime","totalTime","view_history","rt","event","trial","time","trialtype","success","stimulus","key_press","nowOffer","thenOffer","thenLeft","nowAmt","thenAmt","thenWeeks","chosen"
"pavlovia","0","3","0.0-0.0","63ea79021f0c43def6174042","bdp_td","Sat Mar 25 2023 19:06:17 GMT-0500 (Central Daylight Time)","131582","","","","","","","","","","","","","","","",""
"instructions","1","4608","0.0-1.0","63ea79021f0c43def6174042","bdp_td","Sat Mar 25 2023 19:06:17 GMT-0500 (Central Daylight Time)","131582","[{""page_index"":0,""viewing_time"":4605}]","4605","","","","","","","","","","","","","",""
"","","","","63ea79021f0c43def6174042","bdp_td","Sat Mar 25 2023 19:06:17 GMT-0500 (Central Daylight Time)","131582","","","fullscreenenter","2","8055","fullscreenenter","","","","","","","","","",""
"fullscreen","2","9038","0.0-2.0","63ea79021f0c43def6174042","bdp_td","Sat Mar 25 2023 19:06:17 GMT-0500 (Central Daylight Time)","131582","","","","","","","true","","","","","","","","",""
"instructions","3","46538","0.0-4.0","63ea79021f0c43def6174042","bdp_td","Sat Mar 25 2023 19:06:17 GMT-0500 (Central Daylight Time)","131582","[{""page_index"":0,""viewing_time"":13612},{""page_index"":1,""viewing_time"":17301},{""page_index"":2,""viewing_time"":6584}]","37497","","","","","","","","","","","","","",""
"html-keyboard-response","4","47043","0.0-5.0-1.0","63ea79021f0c43def6174042","bdp_td","Sat Mar 25 2023 19:06:17 GMT-0500 (Central Daylight Time)","131582","","null","","","","FIX","","<div class='trialBorder'><div class='vertical-center'><img style='vertical-align:center; align:center' src=img/fixation3.jpg></div></div>","null","","","","","","",""
"html-keyboard-response","5","50263","0.0-5.0-2.0","63ea79021f0c43def6174042","bdp_td","Sat Mar 25 2023 19:06:17 GMT-0500 (Central Daylight Time)","131582","","3218","","","","offer","","<div class='trialBorder'><div class='vertical-center'><img style='vertical-align:center; align:center' src=img/fixation3.jpg></div><div class='cl'><div class='vertical-center'>$34<br><br>now</div></div><div class='cr'><div class='vertical-center'>$50<br>in<br>6 weeks</div></div><div class='respDivL'><div class='vertical-center'>(E)</div></div><div class='respDivR'><div class='vertical-center'>(I)</div></div></div>","E","$34<br><br>now","$50<br>in<br>6 weeks","0","34","50","6","NOW"
"html-keyboard-response","6","50518","0.0-5.0-3.0","63ea79021f0c43def6174042","bdp_td","Sat Mar 25 2023 19:06:17 GMT-0500 (Central Daylight Time)","131582","","null","","","","offerFB","","<div class='trialBorder'><div class='vertical-center'><img style='vertical-align:center; align:center' src=img/fixation3.jpg></div><div class='cl'><div class='vertical-center'><font style='color:orange'>$34<br><br>now</font></div></div><div class='cr'><div class='vertical-center'>$50<br>in<br>6 weeks</div></div><div class='respDivL'><div class='vertical-center'><font style='color:orange'>(E)</font></div></div><div class='respDivR'><div class='vertical-center'>(I)</div></div></div>","null","$34<br><br>now","$50<br>in<br>6 weeks","0","34","50","6",""
"html-keyboard-response","7","51021","0.0-5.0-1.1","63ea79021f0c43def6174042","bdp_td","Sat Mar 25 2023 19:06:17 GMT-0500 (Central Daylight Time)","131582","","null","","","","FIX","","<div class='trialBorder'><div class='vertical-center'><img style='vertical-align:center; align:center' src=img/fixation3.jpg></div></div>","null","","","","","","",""
"html-keyboard-response","8","53310","0.0-5.0-2.1","63ea79021f0c43def6174042","bdp_td","Sat Mar 25 2023 19:06:17 GMT-0500 (Central Daylight Time)","131582","","2284","","","","offer","","<div class='trialBorder'><div class='vertical-center'><img style='vertical-align:center; align:center' src=img/fixation3.jpg></div><div class='cl'><div class='vertical-center'>$35<br>in<br>12 weeks</div></div><div class='cr'><div class='vertical-center'>$34<br><br>now</div></div><div class='respDivL'><div class='vertical-center'>(E)</div></div><div class='respDivR'><div class='vertical-center'>(I)</div></div></div>","I","$34<br><br>now","$35<br>in<br>12 weeks","1","34","35","12","NOW"
"html-keyboard-response","9","53574","0.0-5.0-3.1","63ea79021f0c43def6174042","bdp_td","Sat Mar 25 2023 19:06:17 GMT-0500 (Central Daylight Time)","131582","","null","","","","offerFB","","<div class='trialBorder'><div class='vertical-center'><img style='vertical-align:center; align:center' src=img/fixation3.jpg></div><div class='cl'><div class='vertical-center'>$35<br>in<br>12 weeks</div></div><div class='cr'><div class='vertical-center'><font style='color:orange'>$34<br><br>now</font></div></div><div class='respDivL'><div class='vertical-center'>(E)</div></div><div class='respDivR'><div class='vertical-center'><font style='color:orange'>(I)</font></div></div></div>","null","$34<br><br>now","$35<br>in<br>12 weeks","1","34","35","12",""
"html-keyboard-response","10","54076","0.0-5.0-1.2","63ea79021f0c43def6174042","bdp_td","Sat Mar 25 2023 19:06:17 GMT-0500 (Central Daylight Time)","131582","","null","","","","FIX","","<div class='trialBorder'><div class='vertical-center'><img style='vertical-align:center; align:center' src=img/fixation3.jpg></div></div>","null","","","","","","",""
"html-keyboard-response","11","55623","0.0-5.0-2.2","63ea79021f0c43def6174042","bdp_td","Sat Mar 25 2023 19:06:17 GMT-0500 (Central Daylight Time)","131582","","1544","","","","offer","","<div class='trialBorder'><div class='vertical-center'><img style='vertical-align:center; align:center' src=img/fixation3.jpg></div><div class='cl'><div class='vertical-center'>$78<br><br>now</div></div><div class='cr'><div class='vertical-center'>$80<br>in<br>12 weeks</div></div><div class='respDivL'><div class='vertical-center'>(E)</div></div><div class='respDivR'><div class='vertical-center'>(I)</div></div></div>","E","$78<br><br>now","$80<br>in<br>12 weeks","0","78","80","12","NOW"
"html-keyboard-response","12","55877","0.0-5.0-3.2","63ea79021f0c43def6174042","bdp_td","Sat Mar 25 2023 19:06:17 GMT-0500 (Central Daylight Time)","131582","","null","","","","offerFB","","<div class='trialBorder'><div class='vertical-center'><img style='vertical-align:center; align:center' src=img/fixation3.jpg></div><div class='cl'><div class='vertical-center'><font style='color:orange'>$78<br><br>now</font></div></div><div class='cr'><div class='vertical-center'>$80<br>in<br>12 weeks</div></div><div class='respDivL'><div class='vertical-center'><font style='color:orange'>(E)</font></div></div><div class='respDivR'><div class='vertical-center'>(I)</div></div></div>","null","$78<br><br>now","$80<br>in<br>12 weeks","0","78","80","12",""
"html-keyboard-response","13","56381","0.0-5.0-1.3","63ea79021f0c43def6174042","bdp_td","Sat Mar 25 2023 19:06:17 GMT-0500 (Central Daylight Time)","131582","","null","","","","FIX","","<div class='trialBorder'><div class='vertical-center'><img style='vertical-align:center; align:center' src=img/fixation3.jpg></div></div>","null","","","","","","",""
"html-keyboard-response","14","58606","0.0-5.0-2.3","63ea79021f0c43def6174042","bdp_td","Sat Mar 25 2023 19:06:17 GMT-0500 (Central Daylight Time)","131582","","2221","","","","offer","","<div class='trialBorder'><div class='vertical-center'><img style='vertical-align:center; align:center' src=img/fixation3.jpg></div><div class='cl'><div class='vertical-center'>$35<br>in<br>2 weeks</div></div><div class='cr'><div class='vertical-center'>$15<br><br>now</div></div><div class='respDivL'><div class='vertical-center'>(E)</div></div><div class='respDivR'><div class='vertical-center'>(I)</div></div></div>","E","$15<br><br>now","$35<br>in<br>2 weeks","1","15","35","2","THEN"
"html-keyboard-response","15","58859","0.0-5.0-3.3","63ea79021f0c43def6174042","bdp_td","Sat Mar 25 2023 19:06:17 GMT-0500 (Central Daylight Time)","131582","","null","","","","offerFB","","<div class='trialBorder'><div class='vertical-center'><img style='vertical-align:center; align:center' src=img/fixation3.jpg></div><div class='cl'><div class='vertical-center'><font style='color:orange'>$35<br>in<br>2 weeks</font></div></div><div class='cr'><div class='vertical-center'>$15<br><br>now</div></div><div class='respDivL'><div class='vertical-center'><font style='color:orange'>(E)</font></div></div><div class='respDivR'><div class='vertical-center'>(I)</div></div></div>","null","$15<br><br>now","$35<br>in<br>2 weeks","1","15","35","2",""
"html-keyboard-response","16","59362","0.0-5.0-1.4","63ea79021f0c43def6174042","bdp_td","Sat Mar 25 2023 19:06:17 GMT-0500 (Central Daylight Time)","131582","","null","","","","FIX","","<div class='trialBorder'><div class='vertical-center'><img style='vertical-align:center; align:center' src=img/fixation3.jpg></div></div>","null","","","","","","",""
"html-keyboard-response","17","61386","0.0-5.0-2.4","63ea79021f0c43def6174042","bdp_td","Sat Mar 25 2023 19:06:17 GMT-0500 (Central Daylight Time)","131582","","2019","","","","offer","","<div class='trialBorder'><div class='vertical-center'><img style='vertical-align:center; align:center' src=img/fixation3.jpg></div><div class='cl'><div class='vertical-center'>$25<br>in<br>12 weeks</div></div><div class='cr'><div class='vertical-center'>$22<br><br>now</div></div><div class='respDivL'><div class='vertical-center'>(E)</div></div><div class='respDivR'><div class='vertical-center'>(I)</div></div></div>","I","$22<br><br>now","$25<br>in<br>12 weeks","1","22","25","12","NOW"
"html-keyboard-response","18","61639","0.0-5.0-3.4","63ea79021f0c43def6174042","bdp_td","Sat Mar 25 2023 19:06:17 GMT-0500 (Central Daylight Time)","131582","","null","","","","offerFB","","<div class='trialBorder'><div class='vertical-center'><img style='vertical-align:center; align:center' src=img/fixation3.jpg></div><div class='cl'><div class='vertical-center'>$25<br>in<br>12 weeks</div></div><div class='cr'><div class='vertical-center'><font style='color:orange'>$22<br><br>now</font></div></div><div class='respDivL'><div class='vertical-center'>(E)</div></div><div class='respDivR'><div class='vertical-center'><font style='color:orange'>(I)</font></div></div></div>","null","$22<br><br>now","$25<br>in<br>12 weeks","1","22","25","12",""
"html-keyboard-response","19","62141","0.0-5.0-1.5","63ea79021f0c43def6174042","bdp_td","Sat Mar 25 2023 19:06:17 GMT-0500 (Central Daylight Time)","131582","","null","","","","FIX","","<div class='trialBorder'><div class='vertical-center'><img style='vertical-align:center; align:center' src=img/fixation3.jpg></div></div>","null","","","","","","",""
"html-keyboard-response","20","65417","0.0-5.0-2.5","63ea79021f0c43def6174042","bdp_td","Sat Mar 25 2023 19:06:17 GMT-0500 (Central Daylight Time)","131582","","3275","","","","offer","","<div class='trialBorder'><div class='vertical-center'><img style='vertical-align:center; align:center' src=img/fixation3.jpg></div><div class='cl'><div class='vertical-center'>$80<br>in<br>2 weeks</div></div><div class='cr'><div class='vertical-center'>$33<br><br>now</div></div><div class='respDivL'><div class='vertical-center'>(E)</div></div><div class='respDivR'><div class='vertical-center'>(I)</div></div></div>","E","$33<br><br>now","$80<br>in<br>2 weeks","1","33","80","2","THEN"
"html-keyboard-response","21","65671","0.0-5.0-3.5","63ea79021f0c43def6174042","bdp_td","Sat Mar 25 2023 19:06:17 GMT-0500 (Central Daylight Time)","131582","","null","","","","offerFB","","<div class='trialBorder'><div class='vertical-center'><img style='vertical-align:center; align:center' src=img/fixation3.jpg></div><div class='cl'><div class='vertical-center'><font style='color:orange'>$80<br>in<br>2 weeks</font></div></div><div class='cr'><div class='vertical-center'>$33<br><br>now</div></div><div class='respDivL'><div class='vertical-center'><font style='color:orange'>(E)</font></div></div><div class='respDivR'><div class='vertical-center'>(I)</div></div></div>","null","$33<br><br>now","$80<br>in<br>2 weeks","1","33","80","2",""
"html-keyboard-response","22","66174","0.0-5.0-1.6","63ea79021f0c43def6174042","bdp_td","Sat Mar 25 2023 19:06:17 GMT-0500 (Central Daylight Time)","131582","","null","","","","FIX","","<div class='trialBorder'><div class='vertical-center'><img style='vertical-align:center; align:center' src=img/fixation3.jpg></div></div>","null","","","","","","",""
"html-keyboard-response","23","68379","0.0-5.0-2.6","63ea79021f0c43def6174042","bdp_td","Sat Mar 25 2023 19:06:17 GMT-0500 (Central Daylight Time)","131582","","2203","","","","offer","","<div class='trialBorder'><div class='vertical-center'><img style='vertical-align:center; align:center' src=img/fixation3.jpg></div><div class='cl'><div class='vertical-center'>$55<br>in<br>12 weeks</div></div><div class='cr'><div class='vertical-center'>$54<br><br>now</div></div><div class='respDivL'><div class='vertical-center'>(E)</div></div><div class='respDivR'><div class='vertical-center'>(I)</div></div></div>","I","$54<br><br>now","$55<br>in<br>12 weeks","1","54","55","12","NOW"
"html-keyboard-response","24","68633","0.0-5.0-3.6","63ea79021f0c43def6174042","bdp_td","Sat Mar 25 2023 19:06:17 GMT-0500 (Central Daylight Time)","131582","","null","","","","offerFB","","<div class='trialBorder'><div class='vertical-center'><img style='vertical-align:center; align:center' src=img/fixation3.jpg></div><div class='cl'><div class='vertical-center'>$55<br>in<br>12 weeks</div></div><div class='cr'><div class='vertical-center'><font style='color:orange'>$54<br><br>now</font></div></div><div class='respDivL'><div class='vertical-center'>(E)</div></div><div class='respDivR'><div class='vertical-center'><font style='color:orange'>(I)</font></div></div></div>","null","$54<br><br>now","$55<br>in<br>12 weeks","1","54","55","12",""
"html-keyboard-response","25","69136","0.0-5.0-1.7","63ea79021f0c43def6174042","bdp_td","Sat Mar 25 2023 19:06:17 GMT-0500 (Central Daylight Time)","131582","","null","","","","FIX","","<div class='trialBorder'><div class='vertical-center'><img style='vertical-align:center; align:center' src=img/fixation3.jpg></div></div>","null","","","","","","",""
"html-keyboard-response","26","71518","0.0-5.0-2.7","63ea79021f0c43def6174042","bdp_td","Sat Mar 25 2023 19:06:17 GMT-0500 (Central Daylight Time)","131582","","2380","","","","offer","","<div class='trialBorder'><div class='vertical-center'><img style='vertical-align:center; align:center' src=img/fixation3.jpg></div><div class='cl'><div class='vertical-center'>$54<br><br>now</div></div><div class='cr'><div class='vertical-center'>$80<br>in<br>3 weeks</div></div><div class='respDivL'><div class='vertical-center'>(E)</div></div><div class='respDivR'><div class='vertical-center'>(I)</div></div></div>","E","$54<br><br>now","$80<br>in<br>3 weeks","0","54","80","3","NOW"
"html-keyboard-response","27","71772","0.0-5.0-3.7","63ea79021f0c43def6174042","bdp_td","Sat Mar 25 2023 19:06:17 GMT-0500 (Central Daylight Time)","131582","","null","","","","offerFB","","<div class='trialBorder'><div class='vertical-center'><img style='vertical-align:center; align:center' src=img/fixation3.jpg></div><div class='cl'><div class='vertical-center'><font style='color:orange'>$54<br><br>now</font></div></div><div class='cr'><div class='vertical-center'>$80<br>in<br>3 weeks</div></div><div class='respDivL'><div class='vertical-center'><font style='color:orange'>(E)</font></div></div><div class='respDivR'><div class='vertical-center'>(I)</div></div></div>","null","$54<br><br>now","$80<br>in<br>3 weeks","0","54","80","3",""
"html-keyboard-response","28","72275","0.0-5.0-1.8","63ea79021f0c43def6174042","bdp_td","Sat Mar 25 2023 19:06:17 GMT-0500 (Central Daylight Time)","131582","","null","","","","FIX","","<div class='trialBorder'><div class='vertical-center'><img style='vertical-align:center; align:center' src=img/fixation3.jpg></div></div>","null","","","","","","",""
"html-keyboard-response","29","73545","0.0-5.0-2.8","63ea79021f0c43def6174042","bdp_td","Sat Mar 25 2023 19:06:17 GMT-0500 (Central Daylight Time)","131582","","1269","","","","offer","","<div class='trialBorder'><div class='vertical-center'><img style='vertical-align:center; align:center' src=img/fixation3.jpg></div><div class='cl'><div class='vertical-center'>$47<br><br>now</div></div><div class='cr'><div class='vertical-center'>$50<br>in<br>12 weeks</div></div><div class='respDivL'><div class='vertical-center'>(E)</div></div><div class='respDivR'><div class='vertical-center'>(I)</div></div></div>","E","$47<br><br>now","$50<br>in<br>12 weeks","0","47","50","12","NOW"
"html-keyboard-response","30","73798","0.0-5.0-3.8","63ea79021f0c43def6174042","bdp_td","Sat Mar 25 2023 19:06:17 GMT-0500 (Central Daylight Time)","131582","","null","","","","offerFB","","<div class='trialBorder'><div class='vertical-center'><img style='vertical-align:center; align:center' src=img/fixation3.jpg></div><div class='cl'><div class='vertical-center'><font style='color:orange'>$47<br><br>now</font></div></div><div class='cr'><div class='vertical-center'>$50<br>in<br>12 weeks</div></div><div class='respDivL'><div class='vertical-center'><font style='color:orange'>(E)</font></div></div><div class='respDivR'><div class='vertical-center'>(I)</div></div></div>","null","$47<br><br>now","$50<br>in<br>12 weeks","0","47","50","12",""
"html-keyboard-response","31","74301","0.0-5.0-1.9","63ea79021f0c43def6174042","bdp_td","Sat Mar 25 2023 19:06:17 GMT-0500 (Central Daylight Time)","131582","","null","","","","FIX","","<div class='trialBorder'><div class='vertical-center'><img style='vertical-align:center; align:center' src=img/fixation3.jpg></div></div>","null","","","","","","",""
"html-keyboard-response","32","80683","0.0-5.0-2.9","63ea79021f0c43def6174042","bdp_td","Sat Mar 25 2023 19:06:17 GMT-0500 (Central Daylight Time)","131582","","6379","","","","offer","","<div class='trialBorder'><div class='vertical-center'><img style='vertical-align:center; align:center' src=img/fixation3.jpg></div><div class='cl'><div class='vertical-center'>$69<br><br>now</div></div><div class='cr'><div class='vertical-center'>$85<br>in<br>6 weeks</div></div><div class='respDivL'><div class='vertical-center'>(E)</div></div><div class='respDivR'><div class='vertical-center'>(I)</div></div></div>","E","$69<br><br>now","$85<br>in<br>6 weeks","0","69","85","6","NOW"
"html-keyboard-response","33","80938","0.0-5.0-3.9","63ea79021f0c43def6174042","bdp_td","Sat Mar 25 2023 19:06:17 GMT-0500 (Central Daylight Time)","131582","","null","","","","offerFB","","<div class='trialBorder'><div class='vertical-center'><img style='vertical-align:center; align:center' src=img/fixation3.jpg></div><div class='cl'><div class='vertical-center'><font style='color:orange'>$69<br><br>now</font></div></div><div class='cr'><div class='vertical-center'>$85<br>in<br>6 weeks</div></div><div class='respDivL'><div class='vertical-center'><font style='color:orange'>(E)</font></div></div><div class='respDivR'><div class='vertical-center'>(I)</div></div></div>","null","$69<br><br>now","$85<br>in<br>6 weeks","0","69","85","6",""
"html-keyboard-response","34","81441","0.0-5.0-1.10","63ea79021f0c43def6174042","bdp_td","Sat Mar 25 2023 19:06:17 GMT-0500 (Central Daylight Time)","131582","","null","","","","FIX","","<div class='trialBorder'><div class='vertical-center'><img style='vertical-align:center; align:center' src=img/fixation3.jpg></div></div>","null","","","","","","",""
"html-keyboard-response","35","84569","0.0-5.0-2.10","63ea79021f0c43def6174042","bdp_td","Sat Mar 25 2023 19:06:17 GMT-0500 (Central Daylight Time)","131582","","3126","","","","offer","","<div class='trialBorder'><div class='vertical-center'><img style='vertical-align:center; align:center' src=img/fixation3.jpg></div><div class='cl'><div class='vertical-center'>$30<br>in<br>12 weeks</div></div><div class='cr'><div class='vertical-center'>$28<br><br>now</div></div><div class='respDivL'><div class='vertical-center'>(E)</div></div><div class='respDivR'><div class='vertical-center'>(I)</div></div></div>","I","$28<br><br>now","$30<br>in<br>12 weeks","1","28","30","12","NOW"
"html-keyboard-response","36","84821","0.0-5.0-3.10","63ea79021f0c43def6174042","bdp_td","Sat Mar 25 2023 19:06:17 GMT-0500 (Central Daylight Time)","131582","","null","","","","offerFB","","<div class='trialBorder'><div class='vertical-center'><img style='vertical-align:center; align:center' src=img/fixation3.jpg></div><div class='cl'><div class='vertical-center'>$30<br>in<br>12 weeks</div></div><div class='cr'><div class='vertical-center'><font style='color:orange'>$28<br><br>now</font></div></div><div class='respDivL'><div class='vertical-center'>(E)</div></div><div class='respDivR'><div class='vertical-center'><font style='color:orange'>(I)</font></div></div></div>","null","$28<br><br>now","$30<br>in<br>12 weeks","1","28","30","12",""
"html-keyboard-response","37","85322","0.0-5.0-1.11","63ea79021f0c43def6174042","bdp_td","Sat Mar 25 2023 19:06:17 GMT-0500 (Central Daylight Time)","131582","","null","","","","FIX","","<div class='trialBorder'><div class='vertical-center'><img style='vertical-align:center; align:center' src=img/fixation3.jpg></div></div>","null","","","","","","",""
"html-keyboard-response","38","88087","0.0-5.0-2.11","63ea79021f0c43def6174042","bdp_td","Sat Mar 25 2023 19:06:17 GMT-0500 (Central Daylight Time)","131582","","2764","","","","offer","","<div class='trialBorder'><div class='vertical-center'><img style='vertical-align:center; align:center' src=img/fixation3.jpg></div><div class='cl'><div class='vertical-center'>$55<br><br>now</div></div><div class='cr'><div class='vertical-center'>$75<br>in<br>6 weeks</div></div><div class='respDivL'><div class='vertical-center'>(E)</div></div><div class='respDivR'><div class='vertical-center'>(I)</div></div></div>","E","$55<br><br>now","$75<br>in<br>6 weeks","0","55","75","6","NOW"
"html-keyboard-response","39","88340","0.0-5.0-3.11","63ea79021f0c43def6174042","bdp_td","Sat Mar 25 2023 19:06:17 GMT-0500 (Central Daylight Time)","131582","","null","","","","offerFB","","<div class='trialBorder'><div class='vertical-center'><img style='vertical-align:center; align:center' src=img/fixation3.jpg></div><div class='cl'><div class='vertical-center'><font style='color:orange'>$55<br><br>now</font></div></div><div class='cr'><div class='vertical-center'>$75<br>in<br>6 weeks</div></div><div class='respDivL'><div class='vertical-center'><font style='color:orange'>(E)</font></div></div><div class='respDivR'><div class='vertical-center'>(I)</div></div></div>","null","$55<br><br>now","$75<br>in<br>6 weeks","0","55","75","6",""
"html-keyboard-response","40","88842","0.0-5.0-1.12","63ea79021f0c43def6174042","bdp_td","Sat Mar 25 2023 19:06:17 GMT-0500 (Central Daylight Time)","131582","","null","","","","FIX","","<div class='trialBorder'><div class='vertical-center'><img style='vertical-align:center; align:center' src=img/fixation3.jpg></div></div>","null","","","","","","",""
"html-keyboard-response","41","91072","0.0-5.0-2.12","63ea79021f0c43def6174042","bdp_td","Sat Mar 25 2023 19:06:17 GMT-0500 (Central Daylight Time)","131582","","2228","","","","offer","","<div class='trialBorder'><div class='vertical-center'><img style='vertical-align:center; align:center' src=img/fixation3.jpg></div><div class='cl'><div class='vertical-center'>$85<br>in<br>1 week</div></div><div class='cr'><div class='vertical-center'>$31<br><br>now</div></div><div class='respDivL'><div class='vertical-center'>(E)</div></div><div class='respDivR'><div class='vertical-center'>(I)</div></div></div>","E","$31<br><br>now","$85<br>in<br>1 week","1","31","85","1","THEN"
"html-keyboard-response","42","91324","0.0-5.0-3.12","63ea79021f0c43def6174042","bdp_td","Sat Mar 25 2023 19:06:17 GMT-0500 (Central Daylight Time)","131582","","null","","","","offerFB","","<div class='trialBorder'><div class='vertical-center'><img style='vertical-align:center; align:center' src=img/fixation3.jpg></div><div class='cl'><div class='vertical-center'><font style='color:orange'>$85<br>in<br>1 week</font></div></div><div class='cr'><div class='vertical-center'>$31<br><br>now</div></div><div class='respDivL'><div class='vertical-center'><font style='color:orange'>(E)</font></div></div><div class='respDivR'><div class='vertical-center'>(I)</div></div></div>","null","$31<br><br>now","$85<br>in<br>1 week","1","31","85","1",""
"html-keyboard-response","43","91827","0.0-5.0-1.13","63ea79021f0c43def6174042","bdp_td","Sat Mar 25 2023 19:06:17 GMT-0500 (Central Daylight Time)","131582","","null","","","","FIX","","<div class='trialBorder'><div class='vertical-center'><img style='vertical-align:center; align:center' src=img/fixation3.jpg></div></div>","null","","","","","","",""
"html-keyboard-response","44","93174","0.0-5.0-2.13","63ea79021f0c43def6174042","bdp_td","Sat Mar 25 2023 19:06:17 GMT-0500 (Central Daylight Time)","131582","","1346","","","","offer","","<div class='trialBorder'><div class='vertical-center'><img style='vertical-align:center; align:center' src=img/fixation3.jpg></div><div class='cl'><div class='vertical-center'>$54<br><br>now</div></div><div class='cr'><div class='vertical-center'>$60<br>in<br>12 weeks</div></div><div class='respDivL'><div class='vertical-center'>(E)</div></div><div class='respDivR'><div class='vertical-center'>(I)</div></div></div>","E","$54<br><br>now","$60<br>in<br>12 weeks","0","54","60","12","NOW"
"html-keyboard-response","45","93429","0.0-5.0-3.13","63ea79021f0c43def6174042","bdp_td","Sat Mar 25 2023 19:06:17 GMT-0500 (Central Daylight Time)","131582","","null","","","","offerFB","","<div class='trialBorder'><div class='vertical-center'><img style='vertical-align:center; align:center' src=img/fixation3.jpg></div><div class='cl'><div class='vertical-center'><font style='color:orange'>$54<br><br>now</font></div></div><div class='cr'><div class='vertical-center'>$60<br>in<br>12 weeks</div></div><div class='respDivL'><div class='vertical-center'><font style='color:orange'>(E)</font></div></div><div class='respDivR'><div class='vertical-center'>(I)</div></div></div>","null","$54<br><br>now","$60<br>in<br>12 weeks","0","54","60","12",""
"html-keyboard-response","46","93941","0.0-5.0-1.14","63ea79021f0c43def6174042","bdp_td","Sat Mar 25 2023 19:06:17 GMT-0500 (Central Daylight Time)","131582","","null","","","","FIX","","<div class='trialBorder'><div class='vertical-center'><img style='vertical-align:center; align:center' src=img/fixation3.jpg></div></div>","null","","","","","","",""
"html-keyboard-response","47","96422","0.0-5.0-2.14","63ea79021f0c43def6174042","bdp_td","Sat Mar 25 2023 19:06:17 GMT-0500 (Central Daylight Time)","131582","","2477","","","","offer","","<div class='trialBorder'><div class='vertical-center'><img style='vertical-align:center; align:center' src=img/fixation3.jpg></div><div class='cl'><div class='vertical-center'>$41<br><br>now</div></div><div class='cr'><div class='vertical-center'>$75<br>in<br>3 weeks</div></div><div class='respDivL'><div class='vertical-center'>(E)</div></div><div class='respDivR'><div class='vertical-center'>(I)</div></div></div>","E","$41<br><br>now","$75<br>in<br>3 weeks","0","41","75","3","NOW"
"html-keyboard-response","48","96676","0.0-5.0-3.14","63ea79021f0c43def6174042","bdp_td","Sat Mar 25 2023 19:06:17 GMT-0500 (Central Daylight Time)","131582","","null","","","","offerFB","","<div class='trialBorder'><div class='vertical-center'><img style='vertical-align:center; align:center' src=img/fixation3.jpg></div><div class='cl'><div class='vertical-center'><font style='color:orange'>$41<br><br>now</font></div></div><div class='cr'><div class='vertical-center'>$75<br>in<br>3 weeks</div></div><div class='respDivL'><div class='vertical-center'><font style='color:orange'>(E)</font></div></div><div class='respDivR'><div class='vertical-center'>(I)</div></div></div>","null","$41<br><br>now","$75<br>in<br>3 weeks","0","41","75","3",""
"html-keyboard-response","49","97180","0.0-5.0-1.15","63ea79021f0c43def6174042","bdp_td","Sat Mar 25 2023 19:06:17 GMT-0500 (Central Daylight Time)","131582","","null","","","","FIX","","<div class='trialBorder'><div class='vertical-center'><img style='vertical-align:center; align:center' src=img/fixation3.jpg></div></div>","null","","","","","","",""
"html-keyboard-response","50","99511","0.0-5.0-2.15","63ea79021f0c43def6174042","bdp_td","Sat Mar 25 2023 19:06:17 GMT-0500 (Central Daylight Time)","131582","","2328","","","","offer","","<div class='trialBorder'><div class='vertical-center'><img style='vertical-align:center; align:center' src=img/fixation3.jpg></div><div class='cl'><div class='vertical-center'>$24<br><br>now</div></div><div class='cr'><div class='vertical-center'>$35<br>in<br>3 weeks</div></div><div class='respDivL'><div class='vertical-center'>(E)</div></div><div class='respDivR'><div class='vertical-center'>(I)</div></div></div>","E","$24<br><br>now","$35<br>in<br>3 weeks","0","24","35","3","NOW"
"html-keyboard-response","51","99763","0.0-5.0-3.15","63ea79021f0c43def6174042","bdp_td","Sat Mar 25 2023 19:06:17 GMT-0500 (Central Daylight Time)","131582","","null","","","","offerFB","","<div class='trialBorder'><div class='vertical-center'><img style='vertical-align:center; align:center' src=img/fixation3.jpg></div><div class='cl'><div class='vertical-center'><font style='color:orange'>$24<br><br>now</font></div></div><div class='cr'><div class='vertical-center'>$35<br>in<br>3 weeks</div></div><div class='respDivL'><div class='vertical-center'><font style='color:orange'>(E)</font></div></div><div class='respDivR'><div class='vertical-center'>(I)</div></div></div>","null","$24<br><br>now","$35<br>in<br>3 weeks","0","24","35","3",""
"html-keyboard-response","52","100267","0.0-5.0-1.16","63ea79021f0c43def6174042","bdp_td","Sat Mar 25 2023 19:06:17 GMT-0500 (Central Daylight Time)","131582","","null","","","","FIX","","<div class='trialBorder'><div class='vertical-center'><img style='vertical-align:center; align:center' src=img/fixation3.jpg></div></div>","null","","","","","","",""
"html-keyboard-response","53","103946","0.0-5.0-2.16","63ea79021f0c43def6174042","bdp_td","Sat Mar 25 2023 19:06:17 GMT-0500 (Central Daylight Time)","131582","","3678","","","","offer","","<div class='trialBorder'><div class='vertical-center'><img style='vertical-align:center; align:center' src=img/fixation3.jpg></div><div class='cl'><div class='vertical-center'>$60<br>in<br>3 weeks</div></div><div class='cr'><div class='vertical-center'>$25<br><br>now</div></div><div class='respDivL'><div class='vertical-center'>(E)</div></div><div class='respDivR'><div class='vertical-center'>(I)</div></div></div>","E","$25<br><br>now","$60<br>in<br>3 weeks","1","25","60","3","THEN"
"html-keyboard-response","54","104200","0.0-5.0-3.16","63ea79021f0c43def6174042","bdp_td","Sat Mar 25 2023 19:06:17 GMT-0500 (Central Daylight Time)","131582","","null","","","","offerFB","","<div class='trialBorder'><div class='vertical-center'><img style='vertical-align:center; align:center' src=img/fixation3.jpg></div><div class='cl'><div class='vertical-center'><font style='color:orange'>$60<br>in<br>3 weeks</font></div></div><div class='cr'><div class='vertical-center'>$25<br><br>now</div></div><div class='respDivL'><div class='vertical-center'><font style='color:orange'>(E)</font></div></div><div class='respDivR'><div class='vertical-center'>(I)</div></div></div>","null","$25<br><br>now","$60<br>in<br>3 weeks","1","25","60","3",""
"html-keyboard-response","55","104704","0.0-5.0-1.17","63ea79021f0c43def6174042","bdp_td","Sat Mar 25 2023 19:06:17 GMT-0500 (Central Daylight Time)","131582","","null","","","","FIX","","<div class='trialBorder'><div class='vertical-center'><img style='vertical-align:center; align:center' src=img/fixation3.jpg></div></div>","null","","","","","","",""
"html-keyboard-response","56","106040","0.0-5.0-2.17","63ea79021f0c43def6174042","bdp_td","Sat Mar 25 2023 19:06:17 GMT-0500 (Central Daylight Time)","131582","","1332","","","","offer","","<div class='trialBorder'><div class='vertical-center'><img style='vertical-align:center; align:center' src=img/fixation3.jpg></div><div class='cl'><div class='vertical-center'>$55<br>in<br>1 week</div></div><div class='cr'><div class='vertical-center'>$20<br><br>now</div></div><div class='respDivL'><div class='vertical-center'>(E)</div></div><div class='respDivR'><div class='vertical-center'>(I)</div></div></div>","E","$20<br><br>now","$55<br>in<br>1 week","1","20","55","1","THEN"
"html-keyboard-response","57","106292","0.0-5.0-3.17","63ea79021f0c43def6174042","bdp_td","Sat Mar 25 2023 19:06:17 GMT-0500 (Central Daylight Time)","131582","","null","","","","offerFB","","<div class='trialBorder'><div class='vertical-center'><img style='vertical-align:center; align:center' src=img/fixation3.jpg></div><div class='cl'><div class='vertical-center'><font style='color:orange'>$55<br>in<br>1 week</font></div></div><div class='cr'><div class='vertical-center'>$20<br><br>now</div></div><div class='respDivL'><div class='vertical-center'><font style='color:orange'>(E)</font></div></div><div class='respDivR'><div class='vertical-center'>(I)</div></div></div>","null","$20<br><br>now","$55<br>in<br>1 week","1","20","55","1",""
"html-keyboard-response","58","106797","0.0-5.0-1.18","63ea79021f0c43def6174042","bdp_td","Sat Mar 25 2023 19:06:17 GMT-0500 (Central Daylight Time)","131582","","null","","","","FIX","","<div class='trialBorder'><div class='vertical-center'><img style='vertical-align:center; align:center' src=img/fixation3.jpg></div></div>","null","","","","","","",""
"html-keyboard-response","59","108134","0.0-5.0-2.18","63ea79021f0c43def6174042","bdp_td","Sat Mar 25 2023 19:06:17 GMT-0500 (Central Daylight Time)","131582","","1333","","","","offer","","<div class='trialBorder'><div class='vertical-center'><img style='vertical-align:center; align:center' src=img/fixation3.jpg></div><div class='cl'><div class='vertical-center'>$67<br><br>now</div></div><div class='cr'><div class='vertical-center'>$75<br>in<br>12 weeks</div></div><div class='respDivL'><div class='vertical-center'>(E)</div></div><div class='respDivR'><div class='vertical-center'>(I)</div></div></div>","E","$67<br><br>now","$75<br>in<br>12 weeks","0","67","75","12","NOW"
"html-keyboard-response","60","108387","0.0-5.0-3.18","63ea79021f0c43def6174042","bdp_td","Sat Mar 25 2023 19:06:17 GMT-0500 (Central Daylight Time)","131582","","null","","","","offerFB","","<div class='trialBorder'><div class='vertical-center'><img style='vertical-align:center; align:center' src=img/fixation3.jpg></div><div class='cl'><div class='vertical-center'><font style='color:orange'>$67<br><br>now</font></div></div><div class='cr'><div class='vertical-center'>$75<br>in<br>12 weeks</div></div><div class='respDivL'><div class='vertical-center'><font style='color:orange'>(E)</font></div></div><div class='respDivR'><div class='vertical-center'>(I)</div></div></div>","null","$67<br><br>now","$75<br>in<br>12 weeks","0","67","75","12",""
"html-keyboard-response","61","108890","0.0-5.0-1.19","63ea79021f0c43def6174042","bdp_td","Sat Mar 25 2023 19:06:17 GMT-0500 (Central Daylight Time)","131582","","null","","","","FIX","","<div class='trialBorder'><div class='vertical-center'><img style='vertical-align:center; align:center' src=img/fixation3.jpg></div></div>","null","","","","","","",""
"html-keyboard-response","62","110064","0.0-5.0-2.19","63ea79021f0c43def6174042","bdp_td","Sat Mar 25 2023 19:06:17 GMT-0500 (Central Daylight Time)","131582","","1172","","","","offer","","<div class='trialBorder'><div class='vertical-center'><img style='vertical-align:center; align:center' src=img/fixation3.jpg></div><div class='cl'><div class='vertical-center'>$80<br><br>now</div></div><div class='cr'><div class='vertical-center'>$85<br>in<br>12 weeks</div></div><div class='respDivL'><div class='vertical-center'>(E)</div></div><div class='respDivR'><div class='vertical-center'>(I)</div></div></div>","E","$80<br><br>now","$85<br>in<br>12 weeks","0","80","85","12","NOW"
"html-keyboard-response","63","110317","0.0-5.0-3.19","63ea79021f0c43def6174042","bdp_td","Sat Mar 25 2023 19:06:17 GMT-0500 (Central Daylight Time)","131582","","null","","","","offerFB","","<div class='trialBorder'><div class='vertical-center'><img style='vertical-align:center; align:center' src=img/fixation3.jpg></div><div class='cl'><div class='vertical-center'><font style='color:orange'>$80<br><br>now</font></div></div><div class='cr'><div class='vertical-center'>$85<br>in<br>12 weeks</div></div><div class='respDivL'><div class='vertical-center'><font style='color:orange'>(E)</font></div></div><div class='respDivR'><div class='vertical-center'>(I)</div></div></div>","null","$80<br><br>now","$85<br>in<br>12 weeks","0","80","85","12",""
"html-keyboard-response","64","110820","0.0-5.0-1.20","63ea79021f0c43def6174042","bdp_td","Sat Mar 25 2023 19:06:17 GMT-0500 (Central Daylight Time)","131582","","null","","","","FIX","","<div class='trialBorder'><div class='vertical-center'><img style='vertical-align:center; align:center' src=img/fixation3.jpg></div></div>","null","","","","","","",""
"html-keyboard-response","65","112725","0.0-5.0-2.20","63ea79021f0c43def6174042","bdp_td","Sat Mar 25 2023 19:06:17 GMT-0500 (Central Daylight Time)","131582","","1904","","","","offer","","<div class='trialBorder'><div class='vertical-center'><img style='vertical-align:center; align:center' src=img/fixation3.jpg></div><div class='cl'><div class='vertical-center'>$50<br>in<br>3 weeks</div></div><div class='cr'><div class='vertical-center'>$27<br><br>now</div></div><div class='respDivL'><div class='vertical-center'>(E)</div></div><div class='respDivR'><div class='vertical-center'>(I)</div></div></div>","I","$27<br><br>now","$50<br>in<br>3 weeks","1","27","50","3","NOW"
"html-keyboard-response","66","112980","0.0-5.0-3.20","63ea79021f0c43def6174042","bdp_td","Sat Mar 25 2023 19:06:17 GMT-0500 (Central Daylight Time)","131582","","null","","","","offerFB","","<div class='trialBorder'><div class='vertical-center'><img style='vertical-align:center; align:center' src=img/fixation3.jpg></div><div class='cl'><div class='vertical-center'>$50<br>in<br>3 weeks</div></div><div class='cr'><div class='vertical-center'><font style='color:orange'>$27<br><br>now</font></div></div><div class='respDivL'><div class='vertical-center'>(E)</div></div><div class='respDivR'><div class='vertical-center'><font style='color:orange'>(I)</font></div></div></div>","null","$27<br><br>now","$50<br>in<br>3 weeks","1","27","50","3",""
"html-keyboard-response","67","113483","0.0-5.0-1.21","63ea79021f0c43def6174042","bdp_td","Sat Mar 25 2023 19:06:17 GMT-0500 (Central Daylight Time)","131582","","null","","","","FIX","","<div class='trialBorder'><div class='vertical-center'><img style='vertical-align:center; align:center' src=img/fixation3.jpg></div></div>","null","","","","","","",""
"html-keyboard-response","68","116194","0.0-5.0-2.21","63ea79021f0c43def6174042","bdp_td","Sat Mar 25 2023 19:06:17 GMT-0500 (Central Daylight Time)","131582","","2707","","","","offer","","<div class='trialBorder'><div class='vertical-center'><img style='vertical-align:center; align:center' src=img/fixation3.jpg></div><div class='cl'><div class='vertical-center'>$60<br>in<br>6 weeks</div></div><div class='cr'><div class='vertical-center'>$49<br><br>now</div></div><div class='respDivL'><div class='vertical-center'>(E)</div></div><div class='respDivR'><div class='vertical-center'>(I)</div></div></div>","E","$49<br><br>now","$60<br>in<br>6 weeks","1","49","60","6","THEN"
"html-keyboard-response","69","116447","0.0-5.0-3.21","63ea79021f0c43def6174042","bdp_td","Sat Mar 25 2023 19:06:17 GMT-0500 (Central Daylight Time)","131582","","null","","","","offerFB","","<div class='trialBorder'><div class='vertical-center'><img style='vertical-align:center; align:center' src=img/fixation3.jpg></div><div class='cl'><div class='vertical-center'><font style='color:orange'>$60<br>in<br>6 weeks</font></div></div><div class='cr'><div class='vertical-center'>$49<br><br>now</div></div><div class='respDivL'><div class='vertical-center'><font style='color:orange'>(E)</font></div></div><div class='respDivR'><div class='vertical-center'>(I)</div></div></div>","null","$49<br><br>now","$60<br>in<br>6 weeks","1","49","60","6",""
"html-keyboard-response","70","116950","0.0-5.0-1.22","63ea79021f0c43def6174042","bdp_td","Sat Mar 25 2023 19:06:17 GMT-0500 (Central Daylight Time)","131582","","null","","","","FIX","","<div class='trialBorder'><div class='vertical-center'><img style='vertical-align:center; align:center' src=img/fixation3.jpg></div></div>","null","","","","","","",""
"html-keyboard-response","71","119399","0.0-5.0-2.22","63ea79021f0c43def6174042","bdp_td","Sat Mar 25 2023 19:06:17 GMT-0500 (Central Daylight Time)","131582","","2446","","","","offer","","<div class='trialBorder'><div class='vertical-center'><img style='vertical-align:center; align:center' src=img/fixation3.jpg></div><div class='cl'><div class='vertical-center'>$55<br>in<br>6 weeks</div></div><div class='cr'><div class='vertical-center'>$40<br><br>now</div></div><div class='respDivL'><div class='vertical-center'>(E)</div></div><div class='respDivR'><div class='vertical-center'>(I)</div></div></div>","I","$40<br><br>now","$55<br>in<br>6 weeks","1","40","55","6","NOW"
"html-keyboard-response","72","119652","0.0-5.0-3.22","63ea79021f0c43def6174042","bdp_td","Sat Mar 25 2023 19:06:17 GMT-0500 (Central Daylight Time)","131582","","null","","","","offerFB","","<div class='trialBorder'><div class='vertical-center'><img style='vertical-align:center; align:center' src=img/fixation3.jpg></div><div class='cl'><div class='vertical-center'>$55<br>in<br>6 weeks</div></div><div class='cr'><div class='vertical-center'><font style='color:orange'>$40<br><br>now</font></div></div><div class='respDivL'><div class='vertical-center'>(E)</div></div><div class='respDivR'><div class='vertical-center'><font style='color:orange'>(I)</font></div></div></div>","null","$40<br><br>now","$55<br>in<br>6 weeks","1","40","55","6",""
"html-keyboard-response","73","120156","0.0-5.0-1.23","63ea79021f0c43def6174042","bdp_td","Sat Mar 25 2023 19:06:17 GMT-0500 (Central Daylight Time)","131582","","null","","","","FIX","","<div class='trialBorder'><div class='vertical-center'><img style='vertical-align:center; align:center' src=img/fixation3.jpg></div></div>","null","","","","","","",""
"html-keyboard-response","74","123197","0.0-5.0-2.23","63ea79021f0c43def6174042","bdp_td","Sat Mar 25 2023 19:06:17 GMT-0500 (Central Daylight Time)","131582","","3040","","","","offer","","<div class='trialBorder'><div class='vertical-center'><img style='vertical-align:center; align:center' src=img/fixation3.jpg></div><div class='cl'><div class='vertical-center'>$11<br><br>now</div></div><div class='cr'><div class='vertical-center'>$30<br>in<br>2 weeks</div></div><div class='respDivL'><div class='vertical-center'>(E)</div></div><div class='respDivR'><div class='vertical-center'>(I)</div></div></div>","I","$11<br><br>now","$30<br>in<br>2 weeks","0","11","30","2","THEN"
"html-keyboard-response","75","123452","0.0-5.0-3.23","63ea79021f0c43def6174042","bdp_td","Sat Mar 25 2023 19:06:17 GMT-0500 (Central Daylight Time)","131582","","null","","","","offerFB","","<div class='trialBorder'><div class='vertical-center'><img style='vertical-align:center; align:center' src=img/fixation3.jpg></div><div class='cl'><div class='vertical-center'>$11<br><br>now</div></div><div class='cr'><div class='vertical-center'><font style='color:orange'>$30<br>in<br>2 weeks</font></div></div><div class='respDivL'><div class='vertical-center'>(E)</div></div><div class='respDivR'><div class='vertical-center'><font style='color:orange'>(I)</font></div></div></div>","null","$11<br><br>now","$30<br>in<br>2 weeks","0","11","30","2",""
"html-keyboard-response","76","123954","0.0-5.0-1.24","63ea79021f0c43def6174042","bdp_td","Sat Mar 25 2023 19:06:17 GMT-0500 (Central Daylight Time)","131582","","null","","","","FIX","","<div class='trialBorder'><div class='vertical-center'><img style='vertical-align:center; align:center' src=img/fixation3.jpg></div></div>","null","","","","","","",""
"html-keyboard-response","77","125893","0.0-5.0-2.24","63ea79021f0c43def6174042","bdp_td","Sat Mar 25 2023 19:06:17 GMT-0500 (Central Daylight Time)","131582","","1938","","","","offer","","<div class='trialBorder'><div class='vertical-center'><img style='vertical-align:center; align:center' src=img/fixation3.jpg></div><div class='cl'><div class='vertical-center'>$30<br>in<br>6 weeks</div></div><div class='cr'><div class='vertical-center'>$25<br><br>now</div></div><div class='respDivL'><div class='vertical-center'>(E)</div></div><div class='respDivR'><div class='vertical-center'>(I)</div></div></div>","I","$25<br><br>now","$30<br>in<br>6 weeks","1","25","30","6","NOW"
"html-keyboard-response","78","126146","0.0-5.0-3.24","63ea79021f0c43def6174042","bdp_td","Sat Mar 25 2023 19:06:17 GMT-0500 (Central Daylight Time)","131582","","null","","","","offerFB","","<div class='trialBorder'><div class='vertical-center'><img style='vertical-align:center; align:center' src=img/fixation3.jpg></div><div class='cl'><div class='vertical-center'>$30<br>in<br>6 weeks</div></div><div class='cr'><div class='vertical-center'><font style='color:orange'>$25<br><br>now</font></div></div><div class='respDivL'><div class='vertical-center'>(E)</div></div><div class='respDivR'><div class='vertical-center'><font style='color:orange'>(I)</font></div></div></div>","null","$25<br><br>now","$30<br>in<br>6 weeks","1","25","30","6",""
"html-keyboard-response","79","126648","0.0-5.0-1.25","63ea79021f0c43def6174042","bdp_td","Sat Mar 25 2023 19:06:17 GMT-0500 (Central Daylight Time)","131582","","null","","","","FIX","","<div class='trialBorder'><div class='vertical-center'><img style='vertical-align:center; align:center' src=img/fixation3.jpg></div></div>","null","","","","","","",""
"html-keyboard-response","80","128114","0.0-5.0-2.25","63ea79021f0c43def6174042","bdp_td","Sat Mar 25 2023 19:06:17 GMT-0500 (Central Daylight Time)","131582","","1462","","","","offer","","<div class='trialBorder'><div class='vertical-center'><img style='vertical-align:center; align:center' src=img/fixation3.jpg></div><div class='cl'><div class='vertical-center'>$19<br><br>now</div></div><div class='cr'><div class='vertical-center'>$25<br>in<br>6 weeks</div></div><div class='respDivL'><div class='vertical-center'>(E)</div></div><div class='respDivR'><div class='vertical-center'>(I)</div></div></div>","E","$19<br><br>now","$25<br>in<br>6 weeks","0","19","25","6","NOW"
"html-keyboard-response","81","128366","0.0-5.0-3.25","63ea79021f0c43def6174042","bdp_td","Sat Mar 25 2023 19:06:17 GMT-0500 (Central Daylight Time)","131582","","null","","","","offerFB","","<div class='trialBorder'><div class='vertical-center'><img style='vertical-align:center; align:center' src=img/fixation3.jpg></div><div class='cl'><div class='vertical-center'><font style='color:orange'>$19<br><br>now</font></div></div><div class='cr'><div class='vertical-center'>$25<br>in<br>6 weeks</div></div><div class='respDivL'><div class='vertical-center'><font style='color:orange'>(E)</font></div></div><div class='respDivR'><div class='vertical-center'>(I)</div></div></div>","null","$19<br><br>now","$25<br>in<br>6 weeks","0","19","25","6",""
"html-keyboard-response","82","128869","0.0-5.0-1.26","63ea79021f0c43def6174042","bdp_td","Sat Mar 25 2023 19:06:17 GMT-0500 (Central Daylight Time)","131582","","null","","","","FIX","","<div class='trialBorder'><div class='vertical-center'><img style='vertical-align:center; align:center' src=img/fixation3.jpg></div></div>","null","","","","","","",""
"html-keyboard-response","83","130326","0.0-5.0-2.26","63ea79021f0c43def6174042","bdp_td","Sat Mar 25 2023 19:06:17 GMT-0500 (Central Daylight Time)","131582","","1455","","","","offer","","<div class='trialBorder'><div class='vertical-center'><img style='vertical-align:center; align:center' src=img/fixation3.jpg></div><div class='cl'><div class='vertical-center'>$14<br><br>now</div></div><div class='cr'><div class='vertical-center'>$25<br>in<br>3 weeks</div></div><div class='respDivL'><div class='vertical-center'>(E)</div></div><div class='respDivR'><div class='vertical-center'>(I)</div></div></div>","E","$14<br><br>now","$25<br>in<br>3 weeks","0","14","25","3","NOW"
"html-keyboard-response","84","130578","0.0-5.0-3.26","63ea79021f0c43def6174042","bdp_td","Sat Mar 25 2023 19:06:17 GMT-0500 (Central Daylight Time)","131582","","null","","","","offerFB","","<div class='trialBorder'><div class='vertical-center'><img style='vertical-align:center; align:center' src=img/fixation3.jpg></div><div class='cl'><div class='vertical-center'><font style='color:orange'>$14<br><br>now</font></div></div><div class='cr'><div class='vertical-center'>$25<br>in<br>3 weeks</div></div><div class='respDivL'><div class='vertical-center'><font style='color:orange'>(E)</font></div></div><div class='respDivR'><div class='vertical-center'>(I)</div></div></div>","null","$14<br><br>now","$25<br>in<br>3 weeks","0","14","25","3",""
"","","","","63ea79021f0c43def6174042","bdp_td","Sat Mar 25 2023 19:06:17 GMT-0500 (Central Daylight Time)","131582","","","fullscreenexit","85","130599","fullscreenexit","","","","","","","","","",""
"fullscreen","85","131581","0.0-6.0","63ea79021f0c43def6174042","bdp_td","Sat Mar 25 2023 19:06:17 GMT-0500 (Central Daylight Time)","131582","","","","","","","true","","","","","","","","",""
"html-keyboard-response","86","132085","0.0-7.0","","","","","","null","","","","","","","null","","","","","","",""
