"trial_type","trial_index","time_elapsed","internal_node_id","subject_id","task","startTime","totalTime","view_history","rt","event","trial","time","trialtype","success","stimulus","key_press","nowOffer","thenOffer","thenLeft","nowAmt","thenAmt","thenWeeks","chosen"
"pavlovia","0","5","0.0-0.0","63f68fcc9f84b736270f0e8e","bdp_td","Mon Mar 27 2023 18:19:32 GMT-0500 (Central Daylight Time)","104943","","","","","","","","","","","","","","","",""
"instructions","1","1245","0.0-1.0","63f68fcc9f84b736270f0e8e","bdp_td","Mon Mar 27 2023 18:19:32 GMT-0500 (Central Daylight Time)","104943","[{""page_index"":0,""viewing_time"":1240}]","1240","","","","","","","","","","","","","",""
"","","","","63f68fcc9f84b736270f0e8e","bdp_td","Mon Mar 27 2023 18:19:32 GMT-0500 (Central Daylight Time)","104943","","","fullscreenenter","2","11674","fullscreenenter","","","","","","","","","",""
"fullscreen","2","12622","0.0-2.0","63f68fcc9f84b736270f0e8e","bdp_td","Mon Mar 27 2023 18:19:32 GMT-0500 (Central Daylight Time)","104943","","","","","","","true","","","","","","","","",""
"instructions","3","23053","0.0-4.0","63f68fcc9f84b736270f0e8e","bdp_td","Mon Mar 27 2023 18:19:32 GMT-0500 (Central Daylight Time)","104943","[{""page_index"":0,""viewing_time"":4288},{""page_index"":1,""viewing_time"":4752},{""page_index"":2,""viewing_time"":1389}]","10429","","","","","","","","","","","","","",""
"html-keyboard-response","4","23559","0.0-5.0-1.0","63f68fcc9f84b736270f0e8e","bdp_td","Mon Mar 27 2023 18:19:32 GMT-0500 (Central Daylight Time)","104943","","null","","","","FIX","","<div class='trialBorder'><div class='vertical-center'><img style='vertical-align:center; align:center' src=img/fixation3.jpg></div></div>","null","","","","","","",""
"html-keyboard-response","5","26161","0.0-5.0-2.0","63f68fcc9f84b736270f0e8e","bdp_td","Mon Mar 27 2023 18:19:32 GMT-0500 (Central Daylight Time)","104943","","2600","","","","offer","","<div class='trialBorder'><div class='vertical-center'><img style='vertical-align:center; align:center' src=img/fixation3.jpg></div><div class='cl'><div class='vertical-center'>$60<br>in<br>12 weeks</div></div><div class='cr'><div class='vertical-center'>$54<br><br>now</div></div><div class='respDivL'><div class='vertical-center'>(E)</div></div><div class='respDivR'><div class='vertical-center'>(I)</div></div></div>","I","$54<br><br>now","$60<br>in<br>12 weeks","1","54","60","12","NOW"
"html-keyboard-response","6","26413","0.0-5.0-3.0","63f68fcc9f84b736270f0e8e","bdp_td","Mon Mar 27 2023 18:19:32 GMT-0500 (Central Daylight Time)","104943","","null","","","","offerFB","","<div class='trialBorder'><div class='vertical-center'><img style='vertical-align:center; align:center' src=img/fixation3.jpg></div><div class='cl'><div class='vertical-center'>$60<br>in<br>12 weeks</div></div><div class='cr'><div class='vertical-center'><font style='color:orange'>$54<br><br>now</font></div></div><div class='respDivL'><div class='vertical-center'>(E)</div></div><div class='respDivR'><div class='vertical-center'><font style='color:orange'>(I)</font></div></div></div>","null","$54<br><br>now","$60<br>in<br>12 weeks","1","54","60","12",""
"html-keyboard-response","7","26915","0.0-5.0-1.1","63f68fcc9f84b736270f0e8e","bdp_td","Mon Mar 27 2023 18:19:32 GMT-0500 (Central Daylight Time)","104943","","null","","","","FIX","","<div class='trialBorder'><div class='vertical-center'><img style='vertical-align:center; align:center' src=img/fixation3.jpg></div></div>","null","","","","","","",""
"html-keyboard-response","8","28346","0.0-5.0-2.1","63f68fcc9f84b736270f0e8e","bdp_td","Mon Mar 27 2023 18:19:32 GMT-0500 (Central Daylight Time)","104943","","1431","","","","offer","","<div class='trialBorder'><div class='vertical-center'><img style='vertical-align:center; align:center' src=img/fixation3.jpg></div><div class='cl'><div class='vertical-center'>$75<br>in<br>6 weeks</div></div><div class='cr'><div class='vertical-center'>$55<br><br>now</div></div><div class='respDivL'><div class='vertical-center'>(E)</div></div><div class='respDivR'><div class='vertical-center'>(I)</div></div></div>","I","$55<br><br>now","$75<br>in<br>6 weeks","1","55","75","6","NOW"
"html-keyboard-response","9","28599","0.0-5.0-3.1","63f68fcc9f84b736270f0e8e","bdp_td","Mon Mar 27 2023 18:19:32 GMT-0500 (Central Daylight Time)","104943","","null","","","","offerFB","","<div class='trialBorder'><div class='vertical-center'><img style='vertical-align:center; align:center' src=img/fixation3.jpg></div><div class='cl'><div class='vertical-center'>$75<br>in<br>6 weeks</div></div><div class='cr'><div class='vertical-center'><font style='color:orange'>$55<br><br>now</font></div></div><div class='respDivL'><div class='vertical-center'>(E)</div></div><div class='respDivR'><div class='vertical-center'><font style='color:orange'>(I)</font></div></div></div>","null","$55<br><br>now","$75<br>in<br>6 weeks","1","55","75","6",""
"html-keyboard-response","10","29102","0.0-5.0-1.2","63f68fcc9f84b736270f0e8e","bdp_td","Mon Mar 27 2023 18:19:32 GMT-0500 (Central Daylight Time)","104943","","null","","","","FIX","","<div class='trialBorder'><div class='vertical-center'><img style='vertical-align:center; align:center' src=img/fixation3.jpg></div></div>","null","","","","","","",""
"html-keyboard-response","11","30229","0.0-5.0-2.2","63f68fcc9f84b736270f0e8e","bdp_td","Mon Mar 27 2023 18:19:32 GMT-0500 (Central Daylight Time)","104943","","1127","","","","offer","","<div class='trialBorder'><div class='vertical-center'><img style='vertical-align:center; align:center' src=img/fixation3.jpg></div><div class='cl'><div class='vertical-center'>$55<br>in<br>6 weeks</div></div><div class='cr'><div class='vertical-center'>$40<br><br>now</div></div><div class='respDivL'><div class='vertical-center'>(E)</div></div><div class='respDivR'><div class='vertical-center'>(I)</div></div></div>","I","$40<br><br>now","$55<br>in<br>6 weeks","1","40","55","6","NOW"
"html-keyboard-response","12","30482","0.0-5.0-3.2","63f68fcc9f84b736270f0e8e","bdp_td","Mon Mar 27 2023 18:19:32 GMT-0500 (Central Daylight Time)","104943","","null","","","","offerFB","","<div class='trialBorder'><div class='vertical-center'><img style='vertical-align:center; align:center' src=img/fixation3.jpg></div><div class='cl'><div class='vertical-center'>$55<br>in<br>6 weeks</div></div><div class='cr'><div class='vertical-center'><font style='color:orange'>$40<br><br>now</font></div></div><div class='respDivL'><div class='vertical-center'>(E)</div></div><div class='respDivR'><div class='vertical-center'><font style='color:orange'>(I)</font></div></div></div>","null","$40<br><br>now","$55<br>in<br>6 weeks","1","40","55","6",""
"html-keyboard-response","13","30984","0.0-5.0-1.3","63f68fcc9f84b736270f0e8e","bdp_td","Mon Mar 27 2023 18:19:32 GMT-0500 (Central Daylight Time)","104943","","null","","","","FIX","","<div class='trialBorder'><div class='vertical-center'><img style='vertical-align:center; align:center' src=img/fixation3.jpg></div></div>","null","","","","","","",""
"html-keyboard-response","14","32435","0.0-5.0-2.3","63f68fcc9f84b736270f0e8e","bdp_td","Mon Mar 27 2023 18:19:32 GMT-0500 (Central Daylight Time)","104943","","1449","","","","offer","","<div class='trialBorder'><div class='vertical-center'><img style='vertical-align:center; align:center' src=img/fixation3.jpg></div><div class='cl'><div class='vertical-center'>$54<br><br>now</div></div><div class='cr'><div class='vertical-center'>$80<br>in<br>3 weeks</div></div><div class='respDivL'><div class='vertical-center'>(E)</div></div><div class='respDivR'><div class='vertical-center'>(I)</div></div></div>","I","$54<br><br>now","$80<br>in<br>3 weeks","0","54","80","3","THEN"
"html-keyboard-response","15","32688","0.0-5.0-3.3","63f68fcc9f84b736270f0e8e","bdp_td","Mon Mar 27 2023 18:19:32 GMT-0500 (Central Daylight Time)","104943","","null","","","","offerFB","","<div class='trialBorder'><div class='vertical-center'><img style='vertical-align:center; align:center' src=img/fixation3.jpg></div><div class='cl'><div class='vertical-center'>$54<br><br>now</div></div><div class='cr'><div class='vertical-center'><font style='color:orange'>$80<br>in<br>3 weeks</font></div></div><div class='respDivL'><div class='vertical-center'>(E)</div></div><div class='respDivR'><div class='vertical-center'><font style='color:orange'>(I)</font></div></div></div>","null","$54<br><br>now","$80<br>in<br>3 weeks","0","54","80","3",""
"html-keyboard-response","16","33190","0.0-5.0-1.4","63f68fcc9f84b736270f0e8e","bdp_td","Mon Mar 27 2023 18:19:32 GMT-0500 (Central Daylight Time)","104943","","null","","","","FIX","","<div class='trialBorder'><div class='vertical-center'><img style='vertical-align:center; align:center' src=img/fixation3.jpg></div></div>","null","","","","","","",""
"html-keyboard-response","17","34268","0.0-5.0-2.4","63f68fcc9f84b736270f0e8e","bdp_td","Mon Mar 27 2023 18:19:32 GMT-0500 (Central Daylight Time)","104943","","1078","","","","offer","","<div class='trialBorder'><div class='vertical-center'><img style='vertical-align:center; align:center' src=img/fixation3.jpg></div><div class='cl'><div class='vertical-center'>$50<br>in<br>6 weeks</div></div><div class='cr'><div class='vertical-center'>$34<br><br>now</div></div><div class='respDivL'><div class='vertical-center'>(E)</div></div><div class='respDivR'><div class='vertical-center'>(I)</div></div></div>","I","$34<br><br>now","$50<br>in<br>6 weeks","1","34","50","6","NOW"
"html-keyboard-response","18","34521","0.0-5.0-3.4","63f68fcc9f84b736270f0e8e","bdp_td","Mon Mar 27 2023 18:19:32 GMT-0500 (Central Daylight Time)","104943","","null","","","","offerFB","","<div class='trialBorder'><div class='vertical-center'><img style='vertical-align:center; align:center' src=img/fixation3.jpg></div><div class='cl'><div class='vertical-center'>$50<br>in<br>6 weeks</div></div><div class='cr'><div class='vertical-center'><font style='color:orange'>$34<br><br>now</font></div></div><div class='respDivL'><div class='vertical-center'>(E)</div></div><div class='respDivR'><div class='vertical-center'><font style='color:orange'>(I)</font></div></div></div>","null","$34<br><br>now","$50<br>in<br>6 weeks","1","34","50","6",""
"html-keyboard-response","19","35022","0.0-5.0-1.5","63f68fcc9f84b736270f0e8e","bdp_td","Mon Mar 27 2023 18:19:32 GMT-0500 (Central Daylight Time)","104943","","null","","","","FIX","","<div class='trialBorder'><div class='vertical-center'><img style='vertical-align:center; align:center' src=img/fixation3.jpg></div></div>","null","","","","","","",""
"html-keyboard-response","20","36135","0.0-5.0-2.5","63f68fcc9f84b736270f0e8e","bdp_td","Mon Mar 27 2023 18:19:32 GMT-0500 (Central Daylight Time)","104943","","1111","","","","offer","","<div class='trialBorder'><div class='vertical-center'><img style='vertical-align:center; align:center' src=img/fixation3.jpg></div><div class='cl'><div class='vertical-center'>$25<br>in<br>3 weeks</div></div><div class='cr'><div class='vertical-center'>$14<br><br>now</div></div><div class='respDivL'><div class='vertical-center'>(E)</div></div><div class='respDivR'><div class='vertical-center'>(I)</div></div></div>","I","$14<br><br>now","$25<br>in<br>3 weeks","1","14","25","3","NOW"
"html-keyboard-response","21","36387","0.0-5.0-3.5","63f68fcc9f84b736270f0e8e","bdp_td","Mon Mar 27 2023 18:19:32 GMT-0500 (Central Daylight Time)","104943","","null","","","","offerFB","","<div class='trialBorder'><div class='vertical-center'><img style='vertical-align:center; align:center' src=img/fixation3.jpg></div><div class='cl'><div class='vertical-center'>$25<br>in<br>3 weeks</div></div><div class='cr'><div class='vertical-center'><font style='color:orange'>$14<br><br>now</font></div></div><div class='respDivL'><div class='vertical-center'>(E)</div></div><div class='respDivR'><div class='vertical-center'><font style='color:orange'>(I)</font></div></div></div>","null","$14<br><br>now","$25<br>in<br>3 weeks","1","14","25","3",""
"html-keyboard-response","22","36889","0.0-5.0-1.6","63f68fcc9f84b736270f0e8e","bdp_td","Mon Mar 27 2023 18:19:32 GMT-0500 (Central Daylight Time)","104943","","null","","","","FIX","","<div class='trialBorder'><div class='vertical-center'><img style='vertical-align:center; align:center' src=img/fixation3.jpg></div></div>","null","","","","","","",""
"html-keyboard-response","23","38166","0.0-5.0-2.6","63f68fcc9f84b736270f0e8e","bdp_td","Mon Mar 27 2023 18:19:32 GMT-0500 (Central Daylight Time)","104943","","1276","","","","offer","","<div class='trialBorder'><div class='vertical-center'><img style='vertical-align:center; align:center' src=img/fixation3.jpg></div><div class='cl'><div class='vertical-center'>$34<br><br>now</div></div><div class='cr'><div class='vertical-center'>$35<br>in<br>12 weeks</div></div><div class='respDivL'><div class='vertical-center'>(E)</div></div><div class='respDivR'><div class='vertical-center'>(I)</div></div></div>","I","$34<br><br>now","$35<br>in<br>12 weeks","0","34","35","12","THEN"
"html-keyboard-response","24","38417","0.0-5.0-3.6","63f68fcc9f84b736270f0e8e","bdp_td","Mon Mar 27 2023 18:19:32 GMT-0500 (Central Daylight Time)","104943","","null","","","","offerFB","","<div class='trialBorder'><div class='vertical-center'><img style='vertical-align:center; align:center' src=img/fixation3.jpg></div><div class='cl'><div class='vertical-center'>$34<br><br>now</div></div><div class='cr'><div class='vertical-center'><font style='color:orange'>$35<br>in<br>12 weeks</font></div></div><div class='respDivL'><div class='vertical-center'>(E)</div></div><div class='respDivR'><div class='vertical-center'><font style='color:orange'>(I)</font></div></div></div>","null","$34<br><br>now","$35<br>in<br>12 weeks","0","34","35","12",""
"html-keyboard-response","25","38919","0.0-5.0-1.7","63f68fcc9f84b736270f0e8e","bdp_td","Mon Mar 27 2023 18:19:32 GMT-0500 (Central Daylight Time)","104943","","null","","","","FIX","","<div class='trialBorder'><div class='vertical-center'><img style='vertical-align:center; align:center' src=img/fixation3.jpg></div></div>","null","","","","","","",""
"html-keyboard-response","26","39815","0.0-5.0-2.7","63f68fcc9f84b736270f0e8e","bdp_td","Mon Mar 27 2023 18:19:32 GMT-0500 (Central Daylight Time)","104943","","894","","","","offer","","<div class='trialBorder'><div class='vertical-center'><img style='vertical-align:center; align:center' src=img/fixation3.jpg></div><div class='cl'><div class='vertical-center'>$55<br>in<br>1 week</div></div><div class='cr'><div class='vertical-center'>$20<br><br>now</div></div><div class='respDivL'><div class='vertical-center'>(E)</div></div><div class='respDivR'><div class='vertical-center'>(I)</div></div></div>","I","$20<br><br>now","$55<br>in<br>1 week","1","20","55","1","NOW"
"html-keyboard-response","27","40067","0.0-5.0-3.7","63f68fcc9f84b736270f0e8e","bdp_td","Mon Mar 27 2023 18:19:32 GMT-0500 (Central Daylight Time)","104943","","null","","","","offerFB","","<div class='trialBorder'><div class='vertical-center'><img style='vertical-align:center; align:center' src=img/fixation3.jpg></div><div class='cl'><div class='vertical-center'>$55<br>in<br>1 week</div></div><div class='cr'><div class='vertical-center'><font style='color:orange'>$20<br><br>now</font></div></div><div class='respDivL'><div class='vertical-center'>(E)</div></div><div class='respDivR'><div class='vertical-center'><font style='color:orange'>(I)</font></div></div></div>","null","$20<br><br>now","$55<br>in<br>1 week","1","20","55","1",""
"html-keyboard-response","28","40569","0.0-5.0-1.8","63f68fcc9f84b736270f0e8e","bdp_td","Mon Mar 27 2023 18:19:32 GMT-0500 (Central Daylight Time)","104943","","null","","","","FIX","","<div class='trialBorder'><div class='vertical-center'><img style='vertical-align:center; align:center' src=img/fixation3.jpg></div></div>","null","","","","","","",""
"html-keyboard-response","29","41654","0.0-5.0-2.8","63f68fcc9f84b736270f0e8e","bdp_td","Mon Mar 27 2023 18:19:32 GMT-0500 (Central Daylight Time)","104943","","1083","","","","offer","","<div class='trialBorder'><div class='vertical-center'><img style='vertical-align:center; align:center' src=img/fixation3.jpg></div><div class='cl'><div class='vertical-center'>$25<br><br>now</div></div><div class='cr'><div class='vertical-center'>$60<br>in<br>3 weeks</div></div><div class='respDivL'><div class='vertical-center'>(E)</div></div><div class='respDivR'><div class='vertical-center'>(I)</div></div></div>","E","$25<br><br>now","$60<br>in<br>3 weeks","0","25","60","3","NOW"
"html-keyboard-response","30","41906","0.0-5.0-3.8","63f68fcc9f84b736270f0e8e","bdp_td","Mon Mar 27 2023 18:19:32 GMT-0500 (Central Daylight Time)","104943","","null","","","","offerFB","","<div class='trialBorder'><div class='vertical-center'><img style='vertical-align:center; align:center' src=img/fixation3.jpg></div><div class='cl'><div class='vertical-center'><font style='color:orange'>$25<br><br>now</font></div></div><div class='cr'><div class='vertical-center'>$60<br>in<br>3 weeks</div></div><div class='respDivL'><div class='vertical-center'><font style='color:orange'>(E)</font></div></div><div class='respDivR'><div class='vertical-center'>(I)</div></div></div>","null","$25<br><br>now","$60<br>in<br>3 weeks","0","25","60","3",""
"html-keyboard-response","31","42407","0.0-5.0-1.9","63f68fcc9f84b736270f0e8e","bdp_td","Mon Mar 27 2023 18:19:32 GMT-0500 (Central Daylight Time)","104943","","null","","","","FIX","","<div class='trialBorder'><div class='vertical-center'><img style='vertical-align:center; align:center' src=img/fixation3.jpg></div></div>","null","","","","","","",""
"html-keyboard-response","32","43029","0.0-5.0-2.9","63f68fcc9f84b736270f0e8e","bdp_td","Mon Mar 27 2023 18:19:32 GMT-0500 (Central Daylight Time)","104943","","621","","","","offer","","<div class='trialBorder'><div class='vertical-center'><img style='vertical-align:center; align:center' src=img/fixation3.jpg></div><div class='cl'><div class='vertical-center'>$78<br><br>now</div></div><div class='cr'><div class='vertical-center'>$80<br>in<br>12 weeks</div></div><div class='respDivL'><div class='vertical-center'>(E)</div></div><div class='respDivR'><div class='vertical-center'>(I)</div></div></div>","E","$78<br><br>now","$80<br>in<br>12 weeks","0","78","80","12","NOW"
"html-keyboard-response","33","43281","0.0-5.0-3.9","63f68fcc9f84b736270f0e8e","bdp_td","Mon Mar 27 2023 18:19:32 GMT-0500 (Central Daylight Time)","104943","","null","","","","offerFB","","<div class='trialBorder'><div class='vertical-center'><img style='vertical-align:center; align:center' src=img/fixation3.jpg></div><div class='cl'><div class='vertical-center'><font style='color:orange'>$78<br><br>now</font></div></div><div class='cr'><div class='vertical-center'>$80<br>in<br>12 weeks</div></div><div class='respDivL'><div class='vertical-center'><font style='color:orange'>(E)</font></div></div><div class='respDivR'><div class='vertical-center'>(I)</div></div></div>","null","$78<br><br>now","$80<br>in<br>12 weeks","0","78","80","12",""
"html-keyboard-response","34","43783","0.0-5.0-1.10","63f68fcc9f84b736270f0e8e","bdp_td","Mon Mar 27 2023 18:19:32 GMT-0500 (Central Daylight Time)","104943","","null","","","","FIX","","<div class='trialBorder'><div class='vertical-center'><img style='vertical-align:center; align:center' src=img/fixation3.jpg></div></div>","null","","","","","","",""
"html-keyboard-response","35","82543","0.0-5.0-2.10","63f68fcc9f84b736270f0e8e","bdp_td","Mon Mar 27 2023 18:19:32 GMT-0500 (Central Daylight Time)","104943","","38759","","","","offer","","<div class='trialBorder'><div class='vertical-center'><img style='vertical-align:center; align:center' src=img/fixation3.jpg></div><div class='cl'><div class='vertical-center'>$31<br><br>now</div></div><div class='cr'><div class='vertical-center'>$85<br>in<br>1 week</div></div><div class='respDivL'><div class='vertical-center'>(E)</div></div><div class='respDivR'><div class='vertical-center'>(I)</div></div></div>","I","$31<br><br>now","$85<br>in<br>1 week","0","31","85","1","THEN"
"html-keyboard-response","36","82796","0.0-5.0-3.10","63f68fcc9f84b736270f0e8e","bdp_td","Mon Mar 27 2023 18:19:32 GMT-0500 (Central Daylight Time)","104943","","null","","","","offerFB","","<div class='trialBorder'><div class='vertical-center'><img style='vertical-align:center; align:center' src=img/fixation3.jpg></div><div class='cl'><div class='vertical-center'>$31<br><br>now</div></div><div class='cr'><div class='vertical-center'><font style='color:orange'>$85<br>in<br>1 week</font></div></div><div class='respDivL'><div class='vertical-center'>(E)</div></div><div class='respDivR'><div class='vertical-center'><font style='color:orange'>(I)</font></div></div></div>","null","$31<br><br>now","$85<br>in<br>1 week","0","31","85","1",""
"html-keyboard-response","37","83298","0.0-5.0-1.11","63f68fcc9f84b736270f0e8e","bdp_td","Mon Mar 27 2023 18:19:32 GMT-0500 (Central Daylight Time)","104943","","null","","","","FIX","","<div class='trialBorder'><div class='vertical-center'><img style='vertical-align:center; align:center' src=img/fixation3.jpg></div></div>","null","","","","","","",""
"html-keyboard-response","38","84909","0.0-5.0-2.11","63f68fcc9f84b736270f0e8e","bdp_td","Mon Mar 27 2023 18:19:32 GMT-0500 (Central Daylight Time)","104943","","1610","","","","offer","","<div class='trialBorder'><div class='vertical-center'><img style='vertical-align:center; align:center' src=img/fixation3.jpg></div><div class='cl'><div class='vertical-center'>$19<br><br>now</div></div><div class='cr'><div class='vertical-center'>$25<br>in<br>6 weeks</div></div><div class='respDivL'><div class='vertical-center'>(E)</div></div><div class='respDivR'><div class='vertical-center'>(I)</div></div></div>","E","$19<br><br>now","$25<br>in<br>6 weeks","0","19","25","6","NOW"
"html-keyboard-response","39","85161","0.0-5.0-3.11","63f68fcc9f84b736270f0e8e","bdp_td","Mon Mar 27 2023 18:19:32 GMT-0500 (Central Daylight Time)","104943","","null","","","","offerFB","","<div class='trialBorder'><div class='vertical-center'><img style='vertical-align:center; align:center' src=img/fixation3.jpg></div><div class='cl'><div class='vertical-center'><font style='color:orange'>$19<br><br>now</font></div></div><div class='cr'><div class='vertical-center'>$25<br>in<br>6 weeks</div></div><div class='respDivL'><div class='vertical-center'><font style='color:orange'>(E)</font></div></div><div class='respDivR'><div class='vertical-center'>(I)</div></div></div>","null","$19<br><br>now","$25<br>in<br>6 weeks","0","19","25","6",""
"html-keyboard-response","40","85662","0.0-5.0-1.12","63f68fcc9f84b736270f0e8e","bdp_td","Mon Mar 27 2023 18:19:32 GMT-0500 (Central Daylight Time)","104943","","null","","","","FIX","","<div class='trialBorder'><div class='vertical-center'><img style='vertical-align:center; align:center' src=img/fixation3.jpg></div></div>","null","","","","","","",""
"html-keyboard-response","41","86482","0.0-5.0-2.12","63f68fcc9f84b736270f0e8e","bdp_td","Mon Mar 27 2023 18:19:32 GMT-0500 (Central Daylight Time)","104943","","819","","","","offer","","<div class='trialBorder'><div class='vertical-center'><img style='vertical-align:center; align:center' src=img/fixation3.jpg></div><div class='cl'><div class='vertical-center'>$41<br><br>now</div></div><div class='cr'><div class='vertical-center'>$75<br>in<br>3 weeks</div></div><div class='respDivL'><div class='vertical-center'>(E)</div></div><div class='respDivR'><div class='vertical-center'>(I)</div></div></div>","E","$41<br><br>now","$75<br>in<br>3 weeks","0","41","75","3","NOW"
"html-keyboard-response","42","86734","0.0-5.0-3.12","63f68fcc9f84b736270f0e8e","bdp_td","Mon Mar 27 2023 18:19:32 GMT-0500 (Central Daylight Time)","104943","","null","","","","offerFB","","<div class='trialBorder'><div class='vertical-center'><img style='vertical-align:center; align:center' src=img/fixation3.jpg></div><div class='cl'><div class='vertical-center'><font style='color:orange'>$41<br><br>now</font></div></div><div class='cr'><div class='vertical-center'>$75<br>in<br>3 weeks</div></div><div class='respDivL'><div class='vertical-center'><font style='color:orange'>(E)</font></div></div><div class='respDivR'><div class='vertical-center'>(I)</div></div></div>","null","$41<br><br>now","$75<br>in<br>3 weeks","0","41","75","3",""
"html-keyboard-response","43","87236","0.0-5.0-1.13","63f68fcc9f84b736270f0e8e","bdp_td","Mon Mar 27 2023 18:19:32 GMT-0500 (Central Daylight Time)","104943","","null","","","","FIX","","<div class='trialBorder'><div class='vertical-center'><img style='vertical-align:center; align:center' src=img/fixation3.jpg></div></div>","null","","","","","","",""
"html-keyboard-response","44","87723","0.0-5.0-2.13","63f68fcc9f84b736270f0e8e","bdp_td","Mon Mar 27 2023 18:19:32 GMT-0500 (Central Daylight Time)","104943","","486","","","","offer","","<div class='trialBorder'><div class='vertical-center'><img style='vertical-align:center; align:center' src=img/fixation3.jpg></div><div class='cl'><div class='vertical-center'>$67<br><br>now</div></div><div class='cr'><div class='vertical-center'>$75<br>in<br>12 weeks</div></div><div class='respDivL'><div class='vertical-center'>(E)</div></div><div class='respDivR'><div class='vertical-center'>(I)</div></div></div>","E","$67<br><br>now","$75<br>in<br>12 weeks","0","67","75","12","NOW"
"html-keyboard-response","45","87975","0.0-5.0-3.13","63f68fcc9f84b736270f0e8e","bdp_td","Mon Mar 27 2023 18:19:32 GMT-0500 (Central Daylight Time)","104943","","null","","","","offerFB","","<div class='trialBorder'><div class='vertical-center'><img style='vertical-align:center; align:center' src=img/fixation3.jpg></div><div class='cl'><div class='vertical-center'><font style='color:orange'>$67<br><br>now</font></div></div><div class='cr'><div class='vertical-center'>$75<br>in<br>12 weeks</div></div><div class='respDivL'><div class='vertical-center'><font style='color:orange'>(E)</font></div></div><div class='respDivR'><div class='vertical-center'>(I)</div></div></div>","null","$67<br><br>now","$75<br>in<br>12 weeks","0","67","75","12",""
"html-keyboard-response","46","88477","0.0-5.0-1.14","63f68fcc9f84b736270f0e8e","bdp_td","Mon Mar 27 2023 18:19:32 GMT-0500 (Central Daylight Time)","104943","","null","","","","FIX","","<div class='trialBorder'><div class='vertical-center'><img style='vertical-align:center; align:center' src=img/fixation3.jpg></div></div>","null","","","","","","",""
"html-keyboard-response","47","88989","0.0-5.0-2.14","63f68fcc9f84b736270f0e8e","bdp_td","Mon Mar 27 2023 18:19:32 GMT-0500 (Central Daylight Time)","104943","","511","","","","offer","","<div class='trialBorder'><div class='vertical-center'><img style='vertical-align:center; align:center' src=img/fixation3.jpg></div><div class='cl'><div class='vertical-center'>$50<br>in<br>12 weeks</div></div><div class='cr'><div class='vertical-center'>$47<br><br>now</div></div><div class='respDivL'><div class='vertical-center'>(E)</div></div><div class='respDivR'><div class='vertical-center'>(I)</div></div></div>","I","$47<br><br>now","$50<br>in<br>12 weeks","1","47","50","12","NOW"
"html-keyboard-response","48","89242","0.0-5.0-3.14","63f68fcc9f84b736270f0e8e","bdp_td","Mon Mar 27 2023 18:19:32 GMT-0500 (Central Daylight Time)","104943","","null","","","","offerFB","","<div class='trialBorder'><div class='vertical-center'><img style='vertical-align:center; align:center' src=img/fixation3.jpg></div><div class='cl'><div class='vertical-center'>$50<br>in<br>12 weeks</div></div><div class='cr'><div class='vertical-center'><font style='color:orange'>$47<br><br>now</font></div></div><div class='respDivL'><div class='vertical-center'>(E)</div></div><div class='respDivR'><div class='vertical-center'><font style='color:orange'>(I)</font></div></div></div>","null","$47<br><br>now","$50<br>in<br>12 weeks","1","47","50","12",""
"html-keyboard-response","49","89743","0.0-5.0-1.15","63f68fcc9f84b736270f0e8e","bdp_td","Mon Mar 27 2023 18:19:32 GMT-0500 (Central Daylight Time)","104943","","null","","","","FIX","","<div class='trialBorder'><div class='vertical-center'><img style='vertical-align:center; align:center' src=img/fixation3.jpg></div></div>","null","","","","","","",""
"html-keyboard-response","50","90303","0.0-5.0-2.15","63f68fcc9f84b736270f0e8e","bdp_td","Mon Mar 27 2023 18:19:32 GMT-0500 (Central Daylight Time)","104943","","558","","","","offer","","<div class='trialBorder'><div class='vertical-center'><img style='vertical-align:center; align:center' src=img/fixation3.jpg></div><div class='cl'><div class='vertical-center'>$27<br><br>now</div></div><div class='cr'><div class='vertical-center'>$50<br>in<br>3 weeks</div></div><div class='respDivL'><div class='vertical-center'>(E)</div></div><div class='respDivR'><div class='vertical-center'>(I)</div></div></div>","E","$27<br><br>now","$50<br>in<br>3 weeks","0","27","50","3","NOW"
"html-keyboard-response","51","90555","0.0-5.0-3.15","63f68fcc9f84b736270f0e8e","bdp_td","Mon Mar 27 2023 18:19:32 GMT-0500 (Central Daylight Time)","104943","","null","","","","offerFB","","<div class='trialBorder'><div class='vertical-center'><img style='vertical-align:center; align:center' src=img/fixation3.jpg></div><div class='cl'><div class='vertical-center'><font style='color:orange'>$27<br><br>now</font></div></div><div class='cr'><div class='vertical-center'>$50<br>in<br>3 weeks</div></div><div class='respDivL'><div class='vertical-center'><font style='color:orange'>(E)</font></div></div><div class='respDivR'><div class='vertical-center'>(I)</div></div></div>","null","$27<br><br>now","$50<br>in<br>3 weeks","0","27","50","3",""
"html-keyboard-response","52","91056","0.0-5.0-1.16","63f68fcc9f84b736270f0e8e","bdp_td","Mon Mar 27 2023 18:19:32 GMT-0500 (Central Daylight Time)","104943","","null","","","","FIX","","<div class='trialBorder'><div class='vertical-center'><img style='vertical-align:center; align:center' src=img/fixation3.jpg></div></div>","null","","","","","","",""
"html-keyboard-response","53","91780","0.0-5.0-2.16","63f68fcc9f84b736270f0e8e","bdp_td","Mon Mar 27 2023 18:19:32 GMT-0500 (Central Daylight Time)","104943","","723","","","","offer","","<div class='trialBorder'><div class='vertical-center'><img style='vertical-align:center; align:center' src=img/fixation3.jpg></div><div class='cl'><div class='vertical-center'>$69<br><br>now</div></div><div class='cr'><div class='vertical-center'>$85<br>in<br>6 weeks</div></div><div class='respDivL'><div class='vertical-center'>(E)</div></div><div class='respDivR'><div class='vertical-center'>(I)</div></div></div>","E","$69<br><br>now","$85<br>in<br>6 weeks","0","69","85","6","NOW"
"html-keyboard-response","54","92032","0.0-5.0-3.16","63f68fcc9f84b736270f0e8e","bdp_td","Mon Mar 27 2023 18:19:32 GMT-0500 (Central Daylight Time)","104943","","null","","","","offerFB","","<div class='trialBorder'><div class='vertical-center'><img style='vertical-align:center; align:center' src=img/fixation3.jpg></div><div class='cl'><div class='vertical-center'><font style='color:orange'>$69<br><br>now</font></div></div><div class='cr'><div class='vertical-center'>$85<br>in<br>6 weeks</div></div><div class='respDivL'><div class='vertical-center'><font style='color:orange'>(E)</font></div></div><div class='respDivR'><div class='vertical-center'>(I)</div></div></div>","null","$69<br><br>now","$85<br>in<br>6 weeks","0","69","85","6",""
"html-keyboard-response","55","92534","0.0-5.0-1.17","63f68fcc9f84b736270f0e8e","bdp_td","Mon Mar 27 2023 18:19:32 GMT-0500 (Central Daylight Time)","104943","","null","","","","FIX","","<div class='trialBorder'><div class='vertical-center'><img style='vertical-align:center; align:center' src=img/fixation3.jpg></div></div>","null","","","","","","",""
"html-keyboard-response","56","93196","0.0-5.0-2.17","63f68fcc9f84b736270f0e8e","bdp_td","Mon Mar 27 2023 18:19:32 GMT-0500 (Central Daylight Time)","104943","","661","","","","offer","","<div class='trialBorder'><div class='vertical-center'><img style='vertical-align:center; align:center' src=img/fixation3.jpg></div><div class='cl'><div class='vertical-center'>$80<br><br>now</div></div><div class='cr'><div class='vertical-center'>$85<br>in<br>12 weeks</div></div><div class='respDivL'><div class='vertical-center'>(E)</div></div><div class='respDivR'><div class='vertical-center'>(I)</div></div></div>","E","$80<br><br>now","$85<br>in<br>12 weeks","0","80","85","12","NOW"
"html-keyboard-response","57","93448","0.0-5.0-3.17","63f68fcc9f84b736270f0e8e","bdp_td","Mon Mar 27 2023 18:19:32 GMT-0500 (Central Daylight Time)","104943","","null","","","","offerFB","","<div class='trialBorder'><div class='vertical-center'><img style='vertical-align:center; align:center' src=img/fixation3.jpg></div><div class='cl'><div class='vertical-center'><font style='color:orange'>$80<br><br>now</font></div></div><div class='cr'><div class='vertical-center'>$85<br>in<br>12 weeks</div></div><div class='respDivL'><div class='vertical-center'><font style='color:orange'>(E)</font></div></div><div class='respDivR'><div class='vertical-center'>(I)</div></div></div>","null","$80<br><br>now","$85<br>in<br>12 weeks","0","80","85","12",""
"html-keyboard-response","58","93950","0.0-5.0-1.18","63f68fcc9f84b736270f0e8e","bdp_td","Mon Mar 27 2023 18:19:32 GMT-0500 (Central Daylight Time)","104943","","null","","","","FIX","","<div class='trialBorder'><div class='vertical-center'><img style='vertical-align:center; align:center' src=img/fixation3.jpg></div></div>","null","","","","","","",""
"html-keyboard-response","59","94541","0.0-5.0-2.18","63f68fcc9f84b736270f0e8e","bdp_td","Mon Mar 27 2023 18:19:32 GMT-0500 (Central Daylight Time)","104943","","589","","","","offer","","<div class='trialBorder'><div class='vertical-center'><img style='vertical-align:center; align:center' src=img/fixation3.jpg></div><div class='cl'><div class='vertical-center'>$11<br><br>now</div></div><div class='cr'><div class='vertical-center'>$30<br>in<br>2 weeks</div></div><div class='respDivL'><div class='vertical-center'>(E)</div></div><div class='respDivR'><div class='vertical-center'>(I)</div></div></div>","E","$11<br><br>now","$30<br>in<br>2 weeks","0","11","30","2","NOW"
"html-keyboard-response","60","94793","0.0-5.0-3.18","63f68fcc9f84b736270f0e8e","bdp_td","Mon Mar 27 2023 18:19:32 GMT-0500 (Central Daylight Time)","104943","","null","","","","offerFB","","<div class='trialBorder'><div class='vertical-center'><img style='vertical-align:center; align:center' src=img/fixation3.jpg></div><div class='cl'><div class='vertical-center'><font style='color:orange'>$11<br><br>now</font></div></div><div class='cr'><div class='vertical-center'>$30<br>in<br>2 weeks</div></div><div class='respDivL'><div class='vertical-center'><font style='color:orange'>(E)</font></div></div><div class='respDivR'><div class='vertical-center'>(I)</div></div></div>","null","$11<br><br>now","$30<br>in<br>2 weeks","0","11","30","2",""
"html-keyboard-response","61","95295","0.0-5.0-1.19","63f68fcc9f84b736270f0e8e","bdp_td","Mon Mar 27 2023 18:19:32 GMT-0500 (Central Daylight Time)","104943","","null","","","","FIX","","<div class='trialBorder'><div class='vertical-center'><img style='vertical-align:center; align:center' src=img/fixation3.jpg></div></div>","null","","","","","","",""
"html-keyboard-response","62","95700","0.0-5.0-2.19","63f68fcc9f84b736270f0e8e","bdp_td","Mon Mar 27 2023 18:19:32 GMT-0500 (Central Daylight Time)","104943","","403","","","","offer","","<div class='trialBorder'><div class='vertical-center'><img style='vertical-align:center; align:center' src=img/fixation3.jpg></div><div class='cl'><div class='vertical-center'>$55<br>in<br>12 weeks</div></div><div class='cr'><div class='vertical-center'>$54<br><br>now</div></div><div class='respDivL'><div class='vertical-center'>(E)</div></div><div class='respDivR'><div class='vertical-center'>(I)</div></div></div>","I","$54<br><br>now","$55<br>in<br>12 weeks","1","54","55","12","NOW"
"html-keyboard-response","63","95952","0.0-5.0-3.19","63f68fcc9f84b736270f0e8e","bdp_td","Mon Mar 27 2023 18:19:32 GMT-0500 (Central Daylight Time)","104943","","null","","","","offerFB","","<div class='trialBorder'><div class='vertical-center'><img style='vertical-align:center; align:center' src=img/fixation3.jpg></div><div class='cl'><div class='vertical-center'>$55<br>in<br>12 weeks</div></div><div class='cr'><div class='vertical-center'><font style='color:orange'>$54<br><br>now</font></div></div><div class='respDivL'><div class='vertical-center'>(E)</div></div><div class='respDivR'><div class='vertical-center'><font style='color:orange'>(I)</font></div></div></div>","null","$54<br><br>now","$55<br>in<br>12 weeks","1","54","55","12",""
"html-keyboard-response","64","96454","0.0-5.0-1.20","63f68fcc9f84b736270f0e8e","bdp_td","Mon Mar 27 2023 18:19:32 GMT-0500 (Central Daylight Time)","104943","","null","","","","FIX","","<div class='trialBorder'><div class='vertical-center'><img style='vertical-align:center; align:center' src=img/fixation3.jpg></div></div>","null","","","","","","",""
"html-keyboard-response","65","96821","0.0-5.0-2.20","63f68fcc9f84b736270f0e8e","bdp_td","Mon Mar 27 2023 18:19:32 GMT-0500 (Central Daylight Time)","104943","","364","","","","offer","","<div class='trialBorder'><div class='vertical-center'><img style='vertical-align:center; align:center' src=img/fixation3.jpg></div><div class='cl'><div class='vertical-center'>$30<br>in<br>6 weeks</div></div><div class='cr'><div class='vertical-center'>$25<br><br>now</div></div><div class='respDivL'><div class='vertical-center'>(E)</div></div><div class='respDivR'><div class='vertical-center'>(I)</div></div></div>","I","$25<br><br>now","$30<br>in<br>6 weeks","1","25","30","6","NOW"
"html-keyboard-response","66","97074","0.0-5.0-3.20","63f68fcc9f84b736270f0e8e","bdp_td","Mon Mar 27 2023 18:19:32 GMT-0500 (Central Daylight Time)","104943","","null","","","","offerFB","","<div class='trialBorder'><div class='vertical-center'><img style='vertical-align:center; align:center' src=img/fixation3.jpg></div><div class='cl'><div class='vertical-center'>$30<br>in<br>6 weeks</div></div><div class='cr'><div class='vertical-center'><font style='color:orange'>$25<br><br>now</font></div></div><div class='respDivL'><div class='vertical-center'>(E)</div></div><div class='respDivR'><div class='vertical-center'><font style='color:orange'>(I)</font></div></div></div>","null","$25<br><br>now","$30<br>in<br>6 weeks","1","25","30","6",""
"html-keyboard-response","67","97576","0.0-5.0-1.21","63f68fcc9f84b736270f0e8e","bdp_td","Mon Mar 27 2023 18:19:32 GMT-0500 (Central Daylight Time)","104943","","null","","","","FIX","","<div class='trialBorder'><div class='vertical-center'><img style='vertical-align:center; align:center' src=img/fixation3.jpg></div></div>","null","","","","","","",""
"html-keyboard-response","68","98003","0.0-5.0-2.21","63f68fcc9f84b736270f0e8e","bdp_td","Mon Mar 27 2023 18:19:32 GMT-0500 (Central Daylight Time)","104943","","427","","","","offer","","<div class='trialBorder'><div class='vertical-center'><img style='vertical-align:center; align:center' src=img/fixation3.jpg></div><div class='cl'><div class='vertical-center'>$25<br>in<br>12 weeks</div></div><div class='cr'><div class='vertical-center'>$22<br><br>now</div></div><div class='respDivL'><div class='vertical-center'>(E)</div></div><div class='respDivR'><div class='vertical-center'>(I)</div></div></div>","I","$22<br><br>now","$25<br>in<br>12 weeks","1","22","25","12","NOW"
"html-keyboard-response","69","98256","0.0-5.0-3.21","63f68fcc9f84b736270f0e8e","bdp_td","Mon Mar 27 2023 18:19:32 GMT-0500 (Central Daylight Time)","104943","","null","","","","offerFB","","<div class='trialBorder'><div class='vertical-center'><img style='vertical-align:center; align:center' src=img/fixation3.jpg></div><div class='cl'><div class='vertical-center'>$25<br>in<br>12 weeks</div></div><div class='cr'><div class='vertical-center'><font style='color:orange'>$22<br><br>now</font></div></div><div class='respDivL'><div class='vertical-center'>(E)</div></div><div class='respDivR'><div class='vertical-center'><font style='color:orange'>(I)</font></div></div></div>","null","$22<br><br>now","$25<br>in<br>12 weeks","1","22","25","12",""
"html-keyboard-response","70","98757","0.0-5.0-1.22","63f68fcc9f84b736270f0e8e","bdp_td","Mon Mar 27 2023 18:19:32 GMT-0500 (Central Daylight Time)","104943","","null","","","","FIX","","<div class='trialBorder'><div class='vertical-center'><img style='vertical-align:center; align:center' src=img/fixation3.jpg></div></div>","null","","","","","","",""
"html-keyboard-response","71","99192","0.0-5.0-2.22","63f68fcc9f84b736270f0e8e","bdp_td","Mon Mar 27 2023 18:19:32 GMT-0500 (Central Daylight Time)","104943","","433","","","","offer","","<div class='trialBorder'><div class='vertical-center'><img style='vertical-align:center; align:center' src=img/fixation3.jpg></div><div class='cl'><div class='vertical-center'>$80<br>in<br>2 weeks</div></div><div class='cr'><div class='vertical-center'>$33<br><br>now</div></div><div class='respDivL'><div class='vertical-center'>(E)</div></div><div class='respDivR'><div class='vertical-center'>(I)</div></div></div>","I","$33<br><br>now","$80<br>in<br>2 weeks","1","33","80","2","NOW"
"html-keyboard-response","72","99444","0.0-5.0-3.22","63f68fcc9f84b736270f0e8e","bdp_td","Mon Mar 27 2023 18:19:32 GMT-0500 (Central Daylight Time)","104943","","null","","","","offerFB","","<div class='trialBorder'><div class='vertical-center'><img style='vertical-align:center; align:center' src=img/fixation3.jpg></div><div class='cl'><div class='vertical-center'>$80<br>in<br>2 weeks</div></div><div class='cr'><div class='vertical-center'><font style='color:orange'>$33<br><br>now</font></div></div><div class='respDivL'><div class='vertical-center'>(E)</div></div><div class='respDivR'><div class='vertical-center'><font style='color:orange'>(I)</font></div></div></div>","null","$33<br><br>now","$80<br>in<br>2 weeks","1","33","80","2",""
"html-keyboard-response","73","99946","0.0-5.0-1.23","63f68fcc9f84b736270f0e8e","bdp_td","Mon Mar 27 2023 18:19:32 GMT-0500 (Central Daylight Time)","104943","","null","","","","FIX","","<div class='trialBorder'><div class='vertical-center'><img style='vertical-align:center; align:center' src=img/fixation3.jpg></div></div>","null","","","","","","",""
"html-keyboard-response","74","100508","0.0-5.0-2.23","63f68fcc9f84b736270f0e8e","bdp_td","Mon Mar 27 2023 18:19:32 GMT-0500 (Central Daylight Time)","104943","","560","","","","offer","","<div class='trialBorder'><div class='vertical-center'><img style='vertical-align:center; align:center' src=img/fixation3.jpg></div><div class='cl'><div class='vertical-center'>$28<br><br>now</div></div><div class='cr'><div class='vertical-center'>$30<br>in<br>12 weeks</div></div><div class='respDivL'><div class='vertical-center'>(E)</div></div><div class='respDivR'><div class='vertical-center'>(I)</div></div></div>","E","$28<br><br>now","$30<br>in<br>12 weeks","0","28","30","12","NOW"
"html-keyboard-response","75","100760","0.0-5.0-3.23","63f68fcc9f84b736270f0e8e","bdp_td","Mon Mar 27 2023 18:19:32 GMT-0500 (Central Daylight Time)","104943","","null","","","","offerFB","","<div class='trialBorder'><div class='vertical-center'><img style='vertical-align:center; align:center' src=img/fixation3.jpg></div><div class='cl'><div class='vertical-center'><font style='color:orange'>$28<br><br>now</font></div></div><div class='cr'><div class='vertical-center'>$30<br>in<br>12 weeks</div></div><div class='respDivL'><div class='vertical-center'><font style='color:orange'>(E)</font></div></div><div class='respDivR'><div class='vertical-center'>(I)</div></div></div>","null","$28<br><br>now","$30<br>in<br>12 weeks","0","28","30","12",""
"html-keyboard-response","76","101263","0.0-5.0-1.24","63f68fcc9f84b736270f0e8e","bdp_td","Mon Mar 27 2023 18:19:32 GMT-0500 (Central Daylight Time)","104943","","null","","","","FIX","","<div class='trialBorder'><div class='vertical-center'><img style='vertical-align:center; align:center' src=img/fixation3.jpg></div></div>","null","","","","","","",""
"html-keyboard-response","77","101543","0.0-5.0-2.24","63f68fcc9f84b736270f0e8e","bdp_td","Mon Mar 27 2023 18:19:32 GMT-0500 (Central Daylight Time)","104943","","279","","","","offer","","<div class='trialBorder'><div class='vertical-center'><img style='vertical-align:center; align:center' src=img/fixation3.jpg></div><div class='cl'><div class='vertical-center'>$60<br>in<br>6 weeks</div></div><div class='cr'><div class='vertical-center'>$49<br><br>now</div></div><div class='respDivL'><div class='vertical-center'>(E)</div></div><div class='respDivR'><div class='vertical-center'>(I)</div></div></div>","I","$49<br><br>now","$60<br>in<br>6 weeks","1","49","60","6","NOW"
"html-keyboard-response","78","101796","0.0-5.0-3.24","63f68fcc9f84b736270f0e8e","bdp_td","Mon Mar 27 2023 18:19:32 GMT-0500 (Central Daylight Time)","104943","","null","","","","offerFB","","<div class='trialBorder'><div class='vertical-center'><img style='vertical-align:center; align:center' src=img/fixation3.jpg></div><div class='cl'><div class='vertical-center'>$60<br>in<br>6 weeks</div></div><div class='cr'><div class='vertical-center'><font style='color:orange'>$49<br><br>now</font></div></div><div class='respDivL'><div class='vertical-center'>(E)</div></div><div class='respDivR'><div class='vertical-center'><font style='color:orange'>(I)</font></div></div></div>","null","$49<br><br>now","$60<br>in<br>6 weeks","1","49","60","6",""
"html-keyboard-response","79","102298","0.0-5.0-1.25","63f68fcc9f84b736270f0e8e","bdp_td","Mon Mar 27 2023 18:19:32 GMT-0500 (Central Daylight Time)","104943","","null","","","","FIX","","<div class='trialBorder'><div class='vertical-center'><img style='vertical-align:center; align:center' src=img/fixation3.jpg></div></div>","null","","","","","","",""
"html-keyboard-response","80","102669","0.0-5.0-2.25","63f68fcc9f84b736270f0e8e","bdp_td","Mon Mar 27 2023 18:19:32 GMT-0500 (Central Daylight Time)","104943","","370","","","","offer","","<div class='trialBorder'><div class='vertical-center'><img style='vertical-align:center; align:center' src=img/fixation3.jpg></div><div class='cl'><div class='vertical-center'>$35<br>in<br>3 weeks</div></div><div class='cr'><div class='vertical-center'>$24<br><br>now</div></div><div class='respDivL'><div class='vertical-center'>(E)</div></div><div class='respDivR'><div class='vertical-center'>(I)</div></div></div>","I","$24<br><br>now","$35<br>in<br>3 weeks","1","24","35","3","NOW"
"html-keyboard-response","81","102921","0.0-5.0-3.25","63f68fcc9f84b736270f0e8e","bdp_td","Mon Mar 27 2023 18:19:32 GMT-0500 (Central Daylight Time)","104943","","null","","","","offerFB","","<div class='trialBorder'><div class='vertical-center'><img style='vertical-align:center; align:center' src=img/fixation3.jpg></div><div class='cl'><div class='vertical-center'>$35<br>in<br>3 weeks</div></div><div class='cr'><div class='vertical-center'><font style='color:orange'>$24<br><br>now</font></div></div><div class='respDivL'><div class='vertical-center'>(E)</div></div><div class='respDivR'><div class='vertical-center'><font style='color:orange'>(I)</font></div></div></div>","null","$24<br><br>now","$35<br>in<br>3 weeks","1","24","35","3",""
"html-keyboard-response","82","103422","0.0-5.0-1.26","63f68fcc9f84b736270f0e8e","bdp_td","Mon Mar 27 2023 18:19:32 GMT-0500 (Central Daylight Time)","104943","","null","","","","FIX","","<div class='trialBorder'><div class='vertical-center'><img style='vertical-align:center; align:center' src=img/fixation3.jpg></div></div>","null","","","","","","",""
"html-keyboard-response","83","103689","0.0-5.0-2.26","63f68fcc9f84b736270f0e8e","bdp_td","Mon Mar 27 2023 18:19:32 GMT-0500 (Central Daylight Time)","104943","","265","","","","offer","","<div class='trialBorder'><div class='vertical-center'><img style='vertical-align:center; align:center' src=img/fixation3.jpg></div><div class='cl'><div class='vertical-center'>$35<br>in<br>2 weeks</div></div><div class='cr'><div class='vertical-center'>$15<br><br>now</div></div><div class='respDivL'><div class='vertical-center'>(E)</div></div><div class='respDivR'><div class='vertical-center'>(I)</div></div></div>","I","$15<br><br>now","$35<br>in<br>2 weeks","1","15","35","2","NOW"
"html-keyboard-response","84","103942","0.0-5.0-3.26","63f68fcc9f84b736270f0e8e","bdp_td","Mon Mar 27 2023 18:19:32 GMT-0500 (Central Daylight Time)","104943","","null","","","","offerFB","","<div class='trialBorder'><div class='vertical-center'><img style='vertical-align:center; align:center' src=img/fixation3.jpg></div><div class='cl'><div class='vertical-center'>$35<br>in<br>2 weeks</div></div><div class='cr'><div class='vertical-center'><font style='color:orange'>$15<br><br>now</font></div></div><div class='respDivL'><div class='vertical-center'>(E)</div></div><div class='respDivR'><div class='vertical-center'><font style='color:orange'>(I)</font></div></div></div>","null","$15<br><br>now","$35<br>in<br>2 weeks","1","15","35","2",""
"","","","","63f68fcc9f84b736270f0e8e","bdp_td","Mon Mar 27 2023 18:19:32 GMT-0500 (Central Daylight Time)","104943","","","fullscreenexit","85","103998","fullscreenexit","","","","","","","","","",""
"fullscreen","85","104943","0.0-6.0","63f68fcc9f84b736270f0e8e","bdp_td","Mon Mar 27 2023 18:19:32 GMT-0500 (Central Daylight Time)","104943","","","","","","","true","","","","","","","","",""
"html-keyboard-response","86","105445","0.0-7.0","","","","","","null","","","","","","","null","","","","","","",""
