"trial_type","trial_index","time_elapsed","internal_node_id","subject_id","task","startTime","totalTime","view_history","rt","event","trial","time","trialtype","success","stimulus","key_press","nowOffer","thenOffer","thenLeft","nowAmt","thenAmt","thenWeeks","chosen"
"pavlovia","0","4","0.0-0.0","5fcecd70db3ccb1a7f9331c9","bdp_td","Mon Mar 27 2023 13:05:24 GMT-0400 (Eastern Daylight Time)","117233","","","","","","","","","","","","","","","",""
"instructions","1","1219","0.0-1.0","5fcecd70db3ccb1a7f9331c9","bdp_td","Mon Mar 27 2023 13:05:24 GMT-0400 (Eastern Daylight Time)","117233","[{""page_index"":0,""viewing_time"":1214}]","1214","","","","","","","","","","","","","",""
"","","","","5fcecd70db3ccb1a7f9331c9","bdp_td","Mon Mar 27 2023 13:05:24 GMT-0400 (Eastern Daylight Time)","117233","","","fullscreenenter","2","3132","fullscreenenter","","","","","","","","","",""
"fullscreen","2","4075","0.0-2.0","5fcecd70db3ccb1a7f9331c9","bdp_td","Mon Mar 27 2023 13:05:24 GMT-0400 (Eastern Daylight Time)","117233","","","","","","","true","","","","","","","","",""
"instructions","3","28729","0.0-4.0","5fcecd70db3ccb1a7f9331c9","bdp_td","Mon Mar 27 2023 13:05:24 GMT-0400 (Eastern Daylight Time)","117233","[{""page_index"":0,""viewing_time"":10702},{""page_index"":1,""viewing_time"":9396},{""page_index"":2,""viewing_time"":4554}]","24653","","","","","","","","","","","","","",""
"html-keyboard-response","4","29231","0.0-5.0-1.0","5fcecd70db3ccb1a7f9331c9","bdp_td","Mon Mar 27 2023 13:05:24 GMT-0400 (Eastern Daylight Time)","117233","","null","","","","FIX","","<div class='trialBorder'><div class='vertical-center'><img style='vertical-align:center; align:center' src=img/fixation3.jpg></div></div>","null","","","","","","",""
"html-keyboard-response","5","32932","0.0-5.0-2.0","5fcecd70db3ccb1a7f9331c9","bdp_td","Mon Mar 27 2023 13:05:24 GMT-0400 (Eastern Daylight Time)","117233","","3700","","","","offer","","<div class='trialBorder'><div class='vertical-center'><img style='vertical-align:center; align:center' src=img/fixation3.jpg></div><div class='cl'><div class='vertical-center'>$33<br><br>now</div></div><div class='cr'><div class='vertical-center'>$80<br>in<br>2 weeks</div></div><div class='respDivL'><div class='vertical-center'>(E)</div></div><div class='respDivR'><div class='vertical-center'>(I)</div></div></div>","I","$33<br><br>now","$80<br>in<br>2 weeks","0","33","80","2","THEN"
"html-keyboard-response","6","33185","0.0-5.0-3.0","5fcecd70db3ccb1a7f9331c9","bdp_td","Mon Mar 27 2023 13:05:24 GMT-0400 (Eastern Daylight Time)","117233","","null","","","","offerFB","","<div class='trialBorder'><div class='vertical-center'><img style='vertical-align:center; align:center' src=img/fixation3.jpg></div><div class='cl'><div class='vertical-center'>$33<br><br>now</div></div><div class='cr'><div class='vertical-center'><font style='color:orange'>$80<br>in<br>2 weeks</font></div></div><div class='respDivL'><div class='vertical-center'>(E)</div></div><div class='respDivR'><div class='vertical-center'><font style='color:orange'>(I)</font></div></div></div>","null","$33<br><br>now","$80<br>in<br>2 weeks","0","33","80","2",""
"html-keyboard-response","7","33686","0.0-5.0-1.1","5fcecd70db3ccb1a7f9331c9","bdp_td","Mon Mar 27 2023 13:05:24 GMT-0400 (Eastern Daylight Time)","117233","","null","","","","FIX","","<div class='trialBorder'><div class='vertical-center'><img style='vertical-align:center; align:center' src=img/fixation3.jpg></div></div>","null","","","","","","",""
"html-keyboard-response","8","38492","0.0-5.0-2.1","5fcecd70db3ccb1a7f9331c9","bdp_td","Mon Mar 27 2023 13:05:24 GMT-0400 (Eastern Daylight Time)","117233","","4805","","","","offer","","<div class='trialBorder'><div class='vertical-center'><img style='vertical-align:center; align:center' src=img/fixation3.jpg></div><div class='cl'><div class='vertical-center'>$80<br>in<br>3 weeks</div></div><div class='cr'><div class='vertical-center'>$54<br><br>now</div></div><div class='respDivL'><div class='vertical-center'>(E)</div></div><div class='respDivR'><div class='vertical-center'>(I)</div></div></div>","I","$54<br><br>now","$80<br>in<br>3 weeks","1","54","80","3","NOW"
"html-keyboard-response","9","38744","0.0-5.0-3.1","5fcecd70db3ccb1a7f9331c9","bdp_td","Mon Mar 27 2023 13:05:24 GMT-0400 (Eastern Daylight Time)","117233","","null","","","","offerFB","","<div class='trialBorder'><div class='vertical-center'><img style='vertical-align:center; align:center' src=img/fixation3.jpg></div><div class='cl'><div class='vertical-center'>$80<br>in<br>3 weeks</div></div><div class='cr'><div class='vertical-center'><font style='color:orange'>$54<br><br>now</font></div></div><div class='respDivL'><div class='vertical-center'>(E)</div></div><div class='respDivR'><div class='vertical-center'><font style='color:orange'>(I)</font></div></div></div>","null","$54<br><br>now","$80<br>in<br>3 weeks","1","54","80","3",""
"html-keyboard-response","10","39245","0.0-5.0-1.2","5fcecd70db3ccb1a7f9331c9","bdp_td","Mon Mar 27 2023 13:05:24 GMT-0400 (Eastern Daylight Time)","117233","","null","","","","FIX","","<div class='trialBorder'><div class='vertical-center'><img style='vertical-align:center; align:center' src=img/fixation3.jpg></div></div>","null","","","","","","",""
"html-keyboard-response","11","42074","0.0-5.0-2.2","5fcecd70db3ccb1a7f9331c9","bdp_td","Mon Mar 27 2023 13:05:24 GMT-0400 (Eastern Daylight Time)","117233","","2828","","","","offer","","<div class='trialBorder'><div class='vertical-center'><img style='vertical-align:center; align:center' src=img/fixation3.jpg></div><div class='cl'><div class='vertical-center'>$50<br>in<br>12 weeks</div></div><div class='cr'><div class='vertical-center'>$47<br><br>now</div></div><div class='respDivL'><div class='vertical-center'>(E)</div></div><div class='respDivR'><div class='vertical-center'>(I)</div></div></div>","I","$47<br><br>now","$50<br>in<br>12 weeks","1","47","50","12","NOW"
"html-keyboard-response","12","42326","0.0-5.0-3.2","5fcecd70db3ccb1a7f9331c9","bdp_td","Mon Mar 27 2023 13:05:24 GMT-0400 (Eastern Daylight Time)","117233","","null","","","","offerFB","","<div class='trialBorder'><div class='vertical-center'><img style='vertical-align:center; align:center' src=img/fixation3.jpg></div><div class='cl'><div class='vertical-center'>$50<br>in<br>12 weeks</div></div><div class='cr'><div class='vertical-center'><font style='color:orange'>$47<br><br>now</font></div></div><div class='respDivL'><div class='vertical-center'>(E)</div></div><div class='respDivR'><div class='vertical-center'><font style='color:orange'>(I)</font></div></div></div>","null","$47<br><br>now","$50<br>in<br>12 weeks","1","47","50","12",""
"html-keyboard-response","13","42828","0.0-5.0-1.3","5fcecd70db3ccb1a7f9331c9","bdp_td","Mon Mar 27 2023 13:05:24 GMT-0400 (Eastern Daylight Time)","117233","","null","","","","FIX","","<div class='trialBorder'><div class='vertical-center'><img style='vertical-align:center; align:center' src=img/fixation3.jpg></div></div>","null","","","","","","",""
"html-keyboard-response","14","45169","0.0-5.0-2.3","5fcecd70db3ccb1a7f9331c9","bdp_td","Mon Mar 27 2023 13:05:24 GMT-0400 (Eastern Daylight Time)","117233","","2340","","","","offer","","<div class='trialBorder'><div class='vertical-center'><img style='vertical-align:center; align:center' src=img/fixation3.jpg></div><div class='cl'><div class='vertical-center'>$85<br>in<br>12 weeks</div></div><div class='cr'><div class='vertical-center'>$80<br><br>now</div></div><div class='respDivL'><div class='vertical-center'>(E)</div></div><div class='respDivR'><div class='vertical-center'>(I)</div></div></div>","I","$80<br><br>now","$85<br>in<br>12 weeks","1","80","85","12","NOW"
"html-keyboard-response","15","45421","0.0-5.0-3.3","5fcecd70db3ccb1a7f9331c9","bdp_td","Mon Mar 27 2023 13:05:24 GMT-0400 (Eastern Daylight Time)","117233","","null","","","","offerFB","","<div class='trialBorder'><div class='vertical-center'><img style='vertical-align:center; align:center' src=img/fixation3.jpg></div><div class='cl'><div class='vertical-center'>$85<br>in<br>12 weeks</div></div><div class='cr'><div class='vertical-center'><font style='color:orange'>$80<br><br>now</font></div></div><div class='respDivL'><div class='vertical-center'>(E)</div></div><div class='respDivR'><div class='vertical-center'><font style='color:orange'>(I)</font></div></div></div>","null","$80<br><br>now","$85<br>in<br>12 weeks","1","80","85","12",""
"html-keyboard-response","16","45923","0.0-5.0-1.4","5fcecd70db3ccb1a7f9331c9","bdp_td","Mon Mar 27 2023 13:05:24 GMT-0400 (Eastern Daylight Time)","117233","","null","","","","FIX","","<div class='trialBorder'><div class='vertical-center'><img style='vertical-align:center; align:center' src=img/fixation3.jpg></div></div>","null","","","","","","",""
"html-keyboard-response","17","47429","0.0-5.0-2.4","5fcecd70db3ccb1a7f9331c9","bdp_td","Mon Mar 27 2023 13:05:24 GMT-0400 (Eastern Daylight Time)","117233","","1504","","","","offer","","<div class='trialBorder'><div class='vertical-center'><img style='vertical-align:center; align:center' src=img/fixation3.jpg></div><div class='cl'><div class='vertical-center'>$55<br>in<br>12 weeks</div></div><div class='cr'><div class='vertical-center'>$54<br><br>now</div></div><div class='respDivL'><div class='vertical-center'>(E)</div></div><div class='respDivR'><div class='vertical-center'>(I)</div></div></div>","I","$54<br><br>now","$55<br>in<br>12 weeks","1","54","55","12","NOW"
"html-keyboard-response","18","47681","0.0-5.0-3.4","5fcecd70db3ccb1a7f9331c9","bdp_td","Mon Mar 27 2023 13:05:24 GMT-0400 (Eastern Daylight Time)","117233","","null","","","","offerFB","","<div class='trialBorder'><div class='vertical-center'><img style='vertical-align:center; align:center' src=img/fixation3.jpg></div><div class='cl'><div class='vertical-center'>$55<br>in<br>12 weeks</div></div><div class='cr'><div class='vertical-center'><font style='color:orange'>$54<br><br>now</font></div></div><div class='respDivL'><div class='vertical-center'>(E)</div></div><div class='respDivR'><div class='vertical-center'><font style='color:orange'>(I)</font></div></div></div>","null","$54<br><br>now","$55<br>in<br>12 weeks","1","54","55","12",""
"html-keyboard-response","19","48183","0.0-5.0-1.5","5fcecd70db3ccb1a7f9331c9","bdp_td","Mon Mar 27 2023 13:05:24 GMT-0400 (Eastern Daylight Time)","117233","","null","","","","FIX","","<div class='trialBorder'><div class='vertical-center'><img style='vertical-align:center; align:center' src=img/fixation3.jpg></div></div>","null","","","","","","",""
"html-keyboard-response","20","50067","0.0-5.0-2.5","5fcecd70db3ccb1a7f9331c9","bdp_td","Mon Mar 27 2023 13:05:24 GMT-0400 (Eastern Daylight Time)","117233","","1883","","","","offer","","<div class='trialBorder'><div class='vertical-center'><img style='vertical-align:center; align:center' src=img/fixation3.jpg></div><div class='cl'><div class='vertical-center'>$25<br><br>now</div></div><div class='cr'><div class='vertical-center'>$30<br>in<br>6 weeks</div></div><div class='respDivL'><div class='vertical-center'>(E)</div></div><div class='respDivR'><div class='vertical-center'>(I)</div></div></div>","E","$25<br><br>now","$30<br>in<br>6 weeks","0","25","30","6","NOW"
"html-keyboard-response","21","50319","0.0-5.0-3.5","5fcecd70db3ccb1a7f9331c9","bdp_td","Mon Mar 27 2023 13:05:24 GMT-0400 (Eastern Daylight Time)","117233","","null","","","","offerFB","","<div class='trialBorder'><div class='vertical-center'><img style='vertical-align:center; align:center' src=img/fixation3.jpg></div><div class='cl'><div class='vertical-center'><font style='color:orange'>$25<br><br>now</font></div></div><div class='cr'><div class='vertical-center'>$30<br>in<br>6 weeks</div></div><div class='respDivL'><div class='vertical-center'><font style='color:orange'>(E)</font></div></div><div class='respDivR'><div class='vertical-center'>(I)</div></div></div>","null","$25<br><br>now","$30<br>in<br>6 weeks","0","25","30","6",""
"html-keyboard-response","22","50821","0.0-5.0-1.6","5fcecd70db3ccb1a7f9331c9","bdp_td","Mon Mar 27 2023 13:05:24 GMT-0400 (Eastern Daylight Time)","117233","","null","","","","FIX","","<div class='trialBorder'><div class='vertical-center'><img style='vertical-align:center; align:center' src=img/fixation3.jpg></div></div>","null","","","","","","",""
"html-keyboard-response","23","52582","0.0-5.0-2.6","5fcecd70db3ccb1a7f9331c9","bdp_td","Mon Mar 27 2023 13:05:24 GMT-0400 (Eastern Daylight Time)","117233","","1759","","","","offer","","<div class='trialBorder'><div class='vertical-center'><img style='vertical-align:center; align:center' src=img/fixation3.jpg></div><div class='cl'><div class='vertical-center'>$85<br>in<br>6 weeks</div></div><div class='cr'><div class='vertical-center'>$69<br><br>now</div></div><div class='respDivL'><div class='vertical-center'>(E)</div></div><div class='respDivR'><div class='vertical-center'>(I)</div></div></div>","I","$69<br><br>now","$85<br>in<br>6 weeks","1","69","85","6","NOW"
"html-keyboard-response","24","52833","0.0-5.0-3.6","5fcecd70db3ccb1a7f9331c9","bdp_td","Mon Mar 27 2023 13:05:24 GMT-0400 (Eastern Daylight Time)","117233","","null","","","","offerFB","","<div class='trialBorder'><div class='vertical-center'><img style='vertical-align:center; align:center' src=img/fixation3.jpg></div><div class='cl'><div class='vertical-center'>$85<br>in<br>6 weeks</div></div><div class='cr'><div class='vertical-center'><font style='color:orange'>$69<br><br>now</font></div></div><div class='respDivL'><div class='vertical-center'>(E)</div></div><div class='respDivR'><div class='vertical-center'><font style='color:orange'>(I)</font></div></div></div>","null","$69<br><br>now","$85<br>in<br>6 weeks","1","69","85","6",""
"html-keyboard-response","25","53336","0.0-5.0-1.7","5fcecd70db3ccb1a7f9331c9","bdp_td","Mon Mar 27 2023 13:05:24 GMT-0400 (Eastern Daylight Time)","117233","","null","","","","FIX","","<div class='trialBorder'><div class='vertical-center'><img style='vertical-align:center; align:center' src=img/fixation3.jpg></div></div>","null","","","","","","",""
"html-keyboard-response","26","55487","0.0-5.0-2.7","5fcecd70db3ccb1a7f9331c9","bdp_td","Mon Mar 27 2023 13:05:24 GMT-0400 (Eastern Daylight Time)","117233","","2150","","","","offer","","<div class='trialBorder'><div class='vertical-center'><img style='vertical-align:center; align:center' src=img/fixation3.jpg></div><div class='cl'><div class='vertical-center'>$15<br><br>now</div></div><div class='cr'><div class='vertical-center'>$35<br>in<br>2 weeks</div></div><div class='respDivL'><div class='vertical-center'>(E)</div></div><div class='respDivR'><div class='vertical-center'>(I)</div></div></div>","I","$15<br><br>now","$35<br>in<br>2 weeks","0","15","35","2","THEN"
"html-keyboard-response","27","55738","0.0-5.0-3.7","5fcecd70db3ccb1a7f9331c9","bdp_td","Mon Mar 27 2023 13:05:24 GMT-0400 (Eastern Daylight Time)","117233","","null","","","","offerFB","","<div class='trialBorder'><div class='vertical-center'><img style='vertical-align:center; align:center' src=img/fixation3.jpg></div><div class='cl'><div class='vertical-center'>$15<br><br>now</div></div><div class='cr'><div class='vertical-center'><font style='color:orange'>$35<br>in<br>2 weeks</font></div></div><div class='respDivL'><div class='vertical-center'>(E)</div></div><div class='respDivR'><div class='vertical-center'><font style='color:orange'>(I)</font></div></div></div>","null","$15<br><br>now","$35<br>in<br>2 weeks","0","15","35","2",""
"html-keyboard-response","28","56239","0.0-5.0-1.8","5fcecd70db3ccb1a7f9331c9","bdp_td","Mon Mar 27 2023 13:05:24 GMT-0400 (Eastern Daylight Time)","117233","","null","","","","FIX","","<div class='trialBorder'><div class='vertical-center'><img style='vertical-align:center; align:center' src=img/fixation3.jpg></div></div>","null","","","","","","",""
"html-keyboard-response","29","57909","0.0-5.0-2.8","5fcecd70db3ccb1a7f9331c9","bdp_td","Mon Mar 27 2023 13:05:24 GMT-0400 (Eastern Daylight Time)","117233","","1669","","","","offer","","<div class='trialBorder'><div class='vertical-center'><img style='vertical-align:center; align:center' src=img/fixation3.jpg></div><div class='cl'><div class='vertical-center'>$19<br><br>now</div></div><div class='cr'><div class='vertical-center'>$25<br>in<br>6 weeks</div></div><div class='respDivL'><div class='vertical-center'>(E)</div></div><div class='respDivR'><div class='vertical-center'>(I)</div></div></div>","E","$19<br><br>now","$25<br>in<br>6 weeks","0","19","25","6","NOW"
"html-keyboard-response","30","58162","0.0-5.0-3.8","5fcecd70db3ccb1a7f9331c9","bdp_td","Mon Mar 27 2023 13:05:24 GMT-0400 (Eastern Daylight Time)","117233","","null","","","","offerFB","","<div class='trialBorder'><div class='vertical-center'><img style='vertical-align:center; align:center' src=img/fixation3.jpg></div><div class='cl'><div class='vertical-center'><font style='color:orange'>$19<br><br>now</font></div></div><div class='cr'><div class='vertical-center'>$25<br>in<br>6 weeks</div></div><div class='respDivL'><div class='vertical-center'><font style='color:orange'>(E)</font></div></div><div class='respDivR'><div class='vertical-center'>(I)</div></div></div>","null","$19<br><br>now","$25<br>in<br>6 weeks","0","19","25","6",""
"html-keyboard-response","31","58663","0.0-5.0-1.9","5fcecd70db3ccb1a7f9331c9","bdp_td","Mon Mar 27 2023 13:05:24 GMT-0400 (Eastern Daylight Time)","117233","","null","","","","FIX","","<div class='trialBorder'><div class='vertical-center'><img style='vertical-align:center; align:center' src=img/fixation3.jpg></div></div>","null","","","","","","",""
"html-keyboard-response","32","60463","0.0-5.0-2.9","5fcecd70db3ccb1a7f9331c9","bdp_td","Mon Mar 27 2023 13:05:24 GMT-0400 (Eastern Daylight Time)","117233","","1799","","","","offer","","<div class='trialBorder'><div class='vertical-center'><img style='vertical-align:center; align:center' src=img/fixation3.jpg></div><div class='cl'><div class='vertical-center'>$78<br><br>now</div></div><div class='cr'><div class='vertical-center'>$80<br>in<br>12 weeks</div></div><div class='respDivL'><div class='vertical-center'>(E)</div></div><div class='respDivR'><div class='vertical-center'>(I)</div></div></div>","E","$78<br><br>now","$80<br>in<br>12 weeks","0","78","80","12","NOW"
"html-keyboard-response","33","60716","0.0-5.0-3.9","5fcecd70db3ccb1a7f9331c9","bdp_td","Mon Mar 27 2023 13:05:24 GMT-0400 (Eastern Daylight Time)","117233","","null","","","","offerFB","","<div class='trialBorder'><div class='vertical-center'><img style='vertical-align:center; align:center' src=img/fixation3.jpg></div><div class='cl'><div class='vertical-center'><font style='color:orange'>$78<br><br>now</font></div></div><div class='cr'><div class='vertical-center'>$80<br>in<br>12 weeks</div></div><div class='respDivL'><div class='vertical-center'><font style='color:orange'>(E)</font></div></div><div class='respDivR'><div class='vertical-center'>(I)</div></div></div>","null","$78<br><br>now","$80<br>in<br>12 weeks","0","78","80","12",""
"html-keyboard-response","34","61217","0.0-5.0-1.10","5fcecd70db3ccb1a7f9331c9","bdp_td","Mon Mar 27 2023 13:05:24 GMT-0400 (Eastern Daylight Time)","117233","","null","","","","FIX","","<div class='trialBorder'><div class='vertical-center'><img style='vertical-align:center; align:center' src=img/fixation3.jpg></div></div>","null","","","","","","",""
"html-keyboard-response","35","63062","0.0-5.0-2.10","5fcecd70db3ccb1a7f9331c9","bdp_td","Mon Mar 27 2023 13:05:24 GMT-0400 (Eastern Daylight Time)","117233","","1844","","","","offer","","<div class='trialBorder'><div class='vertical-center'><img style='vertical-align:center; align:center' src=img/fixation3.jpg></div><div class='cl'><div class='vertical-center'>$31<br><br>now</div></div><div class='cr'><div class='vertical-center'>$85<br>in<br>1 week</div></div><div class='respDivL'><div class='vertical-center'>(E)</div></div><div class='respDivR'><div class='vertical-center'>(I)</div></div></div>","I","$31<br><br>now","$85<br>in<br>1 week","0","31","85","1","THEN"
"html-keyboard-response","36","63314","0.0-5.0-3.10","5fcecd70db3ccb1a7f9331c9","bdp_td","Mon Mar 27 2023 13:05:24 GMT-0400 (Eastern Daylight Time)","117233","","null","","","","offerFB","","<div class='trialBorder'><div class='vertical-center'><img style='vertical-align:center; align:center' src=img/fixation3.jpg></div><div class='cl'><div class='vertical-center'>$31<br><br>now</div></div><div class='cr'><div class='vertical-center'><font style='color:orange'>$85<br>in<br>1 week</font></div></div><div class='respDivL'><div class='vertical-center'>(E)</div></div><div class='respDivR'><div class='vertical-center'><font style='color:orange'>(I)</font></div></div></div>","null","$31<br><br>now","$85<br>in<br>1 week","0","31","85","1",""
"html-keyboard-response","37","63815","0.0-5.0-1.11","5fcecd70db3ccb1a7f9331c9","bdp_td","Mon Mar 27 2023 13:05:24 GMT-0400 (Eastern Daylight Time)","117233","","null","","","","FIX","","<div class='trialBorder'><div class='vertical-center'><img style='vertical-align:center; align:center' src=img/fixation3.jpg></div></div>","null","","","","","","",""
"html-keyboard-response","38","65929","0.0-5.0-2.11","5fcecd70db3ccb1a7f9331c9","bdp_td","Mon Mar 27 2023 13:05:24 GMT-0400 (Eastern Daylight Time)","117233","","2113","","","","offer","","<div class='trialBorder'><div class='vertical-center'><img style='vertical-align:center; align:center' src=img/fixation3.jpg></div><div class='cl'><div class='vertical-center'>$60<br>in<br>6 weeks</div></div><div class='cr'><div class='vertical-center'>$49<br><br>now</div></div><div class='respDivL'><div class='vertical-center'>(E)</div></div><div class='respDivR'><div class='vertical-center'>(I)</div></div></div>","I","$49<br><br>now","$60<br>in<br>6 weeks","1","49","60","6","NOW"
"html-keyboard-response","39","66182","0.0-5.0-3.11","5fcecd70db3ccb1a7f9331c9","bdp_td","Mon Mar 27 2023 13:05:24 GMT-0400 (Eastern Daylight Time)","117233","","null","","","","offerFB","","<div class='trialBorder'><div class='vertical-center'><img style='vertical-align:center; align:center' src=img/fixation3.jpg></div><div class='cl'><div class='vertical-center'>$60<br>in<br>6 weeks</div></div><div class='cr'><div class='vertical-center'><font style='color:orange'>$49<br><br>now</font></div></div><div class='respDivL'><div class='vertical-center'>(E)</div></div><div class='respDivR'><div class='vertical-center'><font style='color:orange'>(I)</font></div></div></div>","null","$49<br><br>now","$60<br>in<br>6 weeks","1","49","60","6",""
"html-keyboard-response","40","66684","0.0-5.0-1.12","5fcecd70db3ccb1a7f9331c9","bdp_td","Mon Mar 27 2023 13:05:24 GMT-0400 (Eastern Daylight Time)","117233","","null","","","","FIX","","<div class='trialBorder'><div class='vertical-center'><img style='vertical-align:center; align:center' src=img/fixation3.jpg></div></div>","null","","","","","","",""
"html-keyboard-response","41","68358","0.0-5.0-2.12","5fcecd70db3ccb1a7f9331c9","bdp_td","Mon Mar 27 2023 13:05:24 GMT-0400 (Eastern Daylight Time)","117233","","1673","","","","offer","","<div class='trialBorder'><div class='vertical-center'><img style='vertical-align:center; align:center' src=img/fixation3.jpg></div><div class='cl'><div class='vertical-center'>$41<br><br>now</div></div><div class='cr'><div class='vertical-center'>$75<br>in<br>3 weeks</div></div><div class='respDivL'><div class='vertical-center'>(E)</div></div><div class='respDivR'><div class='vertical-center'>(I)</div></div></div>","E","$41<br><br>now","$75<br>in<br>3 weeks","0","41","75","3","NOW"
"html-keyboard-response","42","68610","0.0-5.0-3.12","5fcecd70db3ccb1a7f9331c9","bdp_td","Mon Mar 27 2023 13:05:24 GMT-0400 (Eastern Daylight Time)","117233","","null","","","","offerFB","","<div class='trialBorder'><div class='vertical-center'><img style='vertical-align:center; align:center' src=img/fixation3.jpg></div><div class='cl'><div class='vertical-center'><font style='color:orange'>$41<br><br>now</font></div></div><div class='cr'><div class='vertical-center'>$75<br>in<br>3 weeks</div></div><div class='respDivL'><div class='vertical-center'><font style='color:orange'>(E)</font></div></div><div class='respDivR'><div class='vertical-center'>(I)</div></div></div>","null","$41<br><br>now","$75<br>in<br>3 weeks","0","41","75","3",""
"html-keyboard-response","43","69112","0.0-5.0-1.13","5fcecd70db3ccb1a7f9331c9","bdp_td","Mon Mar 27 2023 13:05:24 GMT-0400 (Eastern Daylight Time)","117233","","null","","","","FIX","","<div class='trialBorder'><div class='vertical-center'><img style='vertical-align:center; align:center' src=img/fixation3.jpg></div></div>","null","","","","","","",""
"html-keyboard-response","44","71772","0.0-5.0-2.13","5fcecd70db3ccb1a7f9331c9","bdp_td","Mon Mar 27 2023 13:05:24 GMT-0400 (Eastern Daylight Time)","117233","","2659","","","","offer","","<div class='trialBorder'><div class='vertical-center'><img style='vertical-align:center; align:center' src=img/fixation3.jpg></div><div class='cl'><div class='vertical-center'>$25<br>in<br>3 weeks</div></div><div class='cr'><div class='vertical-center'>$14<br><br>now</div></div><div class='respDivL'><div class='vertical-center'>(E)</div></div><div class='respDivR'><div class='vertical-center'>(I)</div></div></div>","I","$14<br><br>now","$25<br>in<br>3 weeks","1","14","25","3","NOW"
"html-keyboard-response","45","72025","0.0-5.0-3.13","5fcecd70db3ccb1a7f9331c9","bdp_td","Mon Mar 27 2023 13:05:24 GMT-0400 (Eastern Daylight Time)","117233","","null","","","","offerFB","","<div class='trialBorder'><div class='vertical-center'><img style='vertical-align:center; align:center' src=img/fixation3.jpg></div><div class='cl'><div class='vertical-center'>$25<br>in<br>3 weeks</div></div><div class='cr'><div class='vertical-center'><font style='color:orange'>$14<br><br>now</font></div></div><div class='respDivL'><div class='vertical-center'>(E)</div></div><div class='respDivR'><div class='vertical-center'><font style='color:orange'>(I)</font></div></div></div>","null","$14<br><br>now","$25<br>in<br>3 weeks","1","14","25","3",""
"html-keyboard-response","46","72528","0.0-5.0-1.14","5fcecd70db3ccb1a7f9331c9","bdp_td","Mon Mar 27 2023 13:05:24 GMT-0400 (Eastern Daylight Time)","117233","","null","","","","FIX","","<div class='trialBorder'><div class='vertical-center'><img style='vertical-align:center; align:center' src=img/fixation3.jpg></div></div>","null","","","","","","",""
"html-keyboard-response","47","74530","0.0-5.0-2.14","5fcecd70db3ccb1a7f9331c9","bdp_td","Mon Mar 27 2023 13:05:24 GMT-0400 (Eastern Daylight Time)","117233","","2001","","","","offer","","<div class='trialBorder'><div class='vertical-center'><img style='vertical-align:center; align:center' src=img/fixation3.jpg></div><div class='cl'><div class='vertical-center'>$35<br>in<br>12 weeks</div></div><div class='cr'><div class='vertical-center'>$34<br><br>now</div></div><div class='respDivL'><div class='vertical-center'>(E)</div></div><div class='respDivR'><div class='vertical-center'>(I)</div></div></div>","I","$34<br><br>now","$35<br>in<br>12 weeks","1","34","35","12","NOW"
"html-keyboard-response","48","74782","0.0-5.0-3.14","5fcecd70db3ccb1a7f9331c9","bdp_td","Mon Mar 27 2023 13:05:24 GMT-0400 (Eastern Daylight Time)","117233","","null","","","","offerFB","","<div class='trialBorder'><div class='vertical-center'><img style='vertical-align:center; align:center' src=img/fixation3.jpg></div><div class='cl'><div class='vertical-center'>$35<br>in<br>12 weeks</div></div><div class='cr'><div class='vertical-center'><font style='color:orange'>$34<br><br>now</font></div></div><div class='respDivL'><div class='vertical-center'>(E)</div></div><div class='respDivR'><div class='vertical-center'><font style='color:orange'>(I)</font></div></div></div>","null","$34<br><br>now","$35<br>in<br>12 weeks","1","34","35","12",""
"html-keyboard-response","49","75284","0.0-5.0-1.15","5fcecd70db3ccb1a7f9331c9","bdp_td","Mon Mar 27 2023 13:05:24 GMT-0400 (Eastern Daylight Time)","117233","","null","","","","FIX","","<div class='trialBorder'><div class='vertical-center'><img style='vertical-align:center; align:center' src=img/fixation3.jpg></div></div>","null","","","","","","",""
"html-keyboard-response","50","76709","0.0-5.0-2.15","5fcecd70db3ccb1a7f9331c9","bdp_td","Mon Mar 27 2023 13:05:24 GMT-0400 (Eastern Daylight Time)","117233","","1424","","","","offer","","<div class='trialBorder'><div class='vertical-center'><img style='vertical-align:center; align:center' src=img/fixation3.jpg></div><div class='cl'><div class='vertical-center'>$50<br>in<br>6 weeks</div></div><div class='cr'><div class='vertical-center'>$34<br><br>now</div></div><div class='respDivL'><div class='vertical-center'>(E)</div></div><div class='respDivR'><div class='vertical-center'>(I)</div></div></div>","I","$34<br><br>now","$50<br>in<br>6 weeks","1","34","50","6","NOW"
"html-keyboard-response","51","76961","0.0-5.0-3.15","5fcecd70db3ccb1a7f9331c9","bdp_td","Mon Mar 27 2023 13:05:24 GMT-0400 (Eastern Daylight Time)","117233","","null","","","","offerFB","","<div class='trialBorder'><div class='vertical-center'><img style='vertical-align:center; align:center' src=img/fixation3.jpg></div><div class='cl'><div class='vertical-center'>$50<br>in<br>6 weeks</div></div><div class='cr'><div class='vertical-center'><font style='color:orange'>$34<br><br>now</font></div></div><div class='respDivL'><div class='vertical-center'>(E)</div></div><div class='respDivR'><div class='vertical-center'><font style='color:orange'>(I)</font></div></div></div>","null","$34<br><br>now","$50<br>in<br>6 weeks","1","34","50","6",""
"html-keyboard-response","52","77462","0.0-5.0-1.16","5fcecd70db3ccb1a7f9331c9","bdp_td","Mon Mar 27 2023 13:05:24 GMT-0400 (Eastern Daylight Time)","117233","","null","","","","FIX","","<div class='trialBorder'><div class='vertical-center'><img style='vertical-align:center; align:center' src=img/fixation3.jpg></div></div>","null","","","","","","",""
"html-keyboard-response","53","79515","0.0-5.0-2.16","5fcecd70db3ccb1a7f9331c9","bdp_td","Mon Mar 27 2023 13:05:24 GMT-0400 (Eastern Daylight Time)","117233","","2052","","","","offer","","<div class='trialBorder'><div class='vertical-center'><img style='vertical-align:center; align:center' src=img/fixation3.jpg></div><div class='cl'><div class='vertical-center'>$35<br>in<br>3 weeks</div></div><div class='cr'><div class='vertical-center'>$24<br><br>now</div></div><div class='respDivL'><div class='vertical-center'>(E)</div></div><div class='respDivR'><div class='vertical-center'>(I)</div></div></div>","I","$24<br><br>now","$35<br>in<br>3 weeks","1","24","35","3","NOW"
"html-keyboard-response","54","79767","0.0-5.0-3.16","5fcecd70db3ccb1a7f9331c9","bdp_td","Mon Mar 27 2023 13:05:24 GMT-0400 (Eastern Daylight Time)","117233","","null","","","","offerFB","","<div class='trialBorder'><div class='vertical-center'><img style='vertical-align:center; align:center' src=img/fixation3.jpg></div><div class='cl'><div class='vertical-center'>$35<br>in<br>3 weeks</div></div><div class='cr'><div class='vertical-center'><font style='color:orange'>$24<br><br>now</font></div></div><div class='respDivL'><div class='vertical-center'>(E)</div></div><div class='respDivR'><div class='vertical-center'><font style='color:orange'>(I)</font></div></div></div>","null","$24<br><br>now","$35<br>in<br>3 weeks","1","24","35","3",""
"html-keyboard-response","55","80269","0.0-5.0-1.17","5fcecd70db3ccb1a7f9331c9","bdp_td","Mon Mar 27 2023 13:05:24 GMT-0400 (Eastern Daylight Time)","117233","","null","","","","FIX","","<div class='trialBorder'><div class='vertical-center'><img style='vertical-align:center; align:center' src=img/fixation3.jpg></div></div>","null","","","","","","",""
"html-keyboard-response","56","82923","0.0-5.0-2.17","5fcecd70db3ccb1a7f9331c9","bdp_td","Mon Mar 27 2023 13:05:24 GMT-0400 (Eastern Daylight Time)","117233","","2653","","","","offer","","<div class='trialBorder'><div class='vertical-center'><img style='vertical-align:center; align:center' src=img/fixation3.jpg></div><div class='cl'><div class='vertical-center'>$30<br>in<br>2 weeks</div></div><div class='cr'><div class='vertical-center'>$11<br><br>now</div></div><div class='respDivL'><div class='vertical-center'>(E)</div></div><div class='respDivR'><div class='vertical-center'>(I)</div></div></div>","E","$11<br><br>now","$30<br>in<br>2 weeks","1","11","30","2","THEN"
"html-keyboard-response","57","83174","0.0-5.0-3.17","5fcecd70db3ccb1a7f9331c9","bdp_td","Mon Mar 27 2023 13:05:24 GMT-0400 (Eastern Daylight Time)","117233","","null","","","","offerFB","","<div class='trialBorder'><div class='vertical-center'><img style='vertical-align:center; align:center' src=img/fixation3.jpg></div><div class='cl'><div class='vertical-center'><font style='color:orange'>$30<br>in<br>2 weeks</font></div></div><div class='cr'><div class='vertical-center'>$11<br><br>now</div></div><div class='respDivL'><div class='vertical-center'><font style='color:orange'>(E)</font></div></div><div class='respDivR'><div class='vertical-center'>(I)</div></div></div>","null","$11<br><br>now","$30<br>in<br>2 weeks","1","11","30","2",""
"html-keyboard-response","58","83676","0.0-5.0-1.18","5fcecd70db3ccb1a7f9331c9","bdp_td","Mon Mar 27 2023 13:05:24 GMT-0400 (Eastern Daylight Time)","117233","","null","","","","FIX","","<div class='trialBorder'><div class='vertical-center'><img style='vertical-align:center; align:center' src=img/fixation3.jpg></div></div>","null","","","","","","",""
"html-keyboard-response","59","88888","0.0-5.0-2.18","5fcecd70db3ccb1a7f9331c9","bdp_td","Mon Mar 27 2023 13:05:24 GMT-0400 (Eastern Daylight Time)","117233","","5211","","","","offer","","<div class='trialBorder'><div class='vertical-center'><img style='vertical-align:center; align:center' src=img/fixation3.jpg></div><div class='cl'><div class='vertical-center'>$27<br><br>now</div></div><div class='cr'><div class='vertical-center'>$50<br>in<br>3 weeks</div></div><div class='respDivL'><div class='vertical-center'>(E)</div></div><div class='respDivR'><div class='vertical-center'>(I)</div></div></div>","I","$27<br><br>now","$50<br>in<br>3 weeks","0","27","50","3","THEN"
"html-keyboard-response","60","89141","0.0-5.0-3.18","5fcecd70db3ccb1a7f9331c9","bdp_td","Mon Mar 27 2023 13:05:24 GMT-0400 (Eastern Daylight Time)","117233","","null","","","","offerFB","","<div class='trialBorder'><div class='vertical-center'><img style='vertical-align:center; align:center' src=img/fixation3.jpg></div><div class='cl'><div class='vertical-center'>$27<br><br>now</div></div><div class='cr'><div class='vertical-center'><font style='color:orange'>$50<br>in<br>3 weeks</font></div></div><div class='respDivL'><div class='vertical-center'>(E)</div></div><div class='respDivR'><div class='vertical-center'><font style='color:orange'>(I)</font></div></div></div>","null","$27<br><br>now","$50<br>in<br>3 weeks","0","27","50","3",""
"html-keyboard-response","61","89642","0.0-5.0-1.19","5fcecd70db3ccb1a7f9331c9","bdp_td","Mon Mar 27 2023 13:05:24 GMT-0400 (Eastern Daylight Time)","117233","","null","","","","FIX","","<div class='trialBorder'><div class='vertical-center'><img style='vertical-align:center; align:center' src=img/fixation3.jpg></div></div>","null","","","","","","",""
"html-keyboard-response","62","92920","0.0-5.0-2.19","5fcecd70db3ccb1a7f9331c9","bdp_td","Mon Mar 27 2023 13:05:24 GMT-0400 (Eastern Daylight Time)","117233","","3277","","","","offer","","<div class='trialBorder'><div class='vertical-center'><img style='vertical-align:center; align:center' src=img/fixation3.jpg></div><div class='cl'><div class='vertical-center'>$55<br>in<br>6 weeks</div></div><div class='cr'><div class='vertical-center'>$40<br><br>now</div></div><div class='respDivL'><div class='vertical-center'>(E)</div></div><div class='respDivR'><div class='vertical-center'>(I)</div></div></div>","I","$40<br><br>now","$55<br>in<br>6 weeks","1","40","55","6","NOW"
"html-keyboard-response","63","93171","0.0-5.0-3.19","5fcecd70db3ccb1a7f9331c9","bdp_td","Mon Mar 27 2023 13:05:24 GMT-0400 (Eastern Daylight Time)","117233","","null","","","","offerFB","","<div class='trialBorder'><div class='vertical-center'><img style='vertical-align:center; align:center' src=img/fixation3.jpg></div><div class='cl'><div class='vertical-center'>$55<br>in<br>6 weeks</div></div><div class='cr'><div class='vertical-center'><font style='color:orange'>$40<br><br>now</font></div></div><div class='respDivL'><div class='vertical-center'>(E)</div></div><div class='respDivR'><div class='vertical-center'><font style='color:orange'>(I)</font></div></div></div>","null","$40<br><br>now","$55<br>in<br>6 weeks","1","40","55","6",""
"html-keyboard-response","64","93673","0.0-5.0-1.20","5fcecd70db3ccb1a7f9331c9","bdp_td","Mon Mar 27 2023 13:05:24 GMT-0400 (Eastern Daylight Time)","117233","","null","","","","FIX","","<div class='trialBorder'><div class='vertical-center'><img style='vertical-align:center; align:center' src=img/fixation3.jpg></div></div>","null","","","","","","",""
"html-keyboard-response","65","96369","0.0-5.0-2.20","5fcecd70db3ccb1a7f9331c9","bdp_td","Mon Mar 27 2023 13:05:24 GMT-0400 (Eastern Daylight Time)","117233","","2695","","","","offer","","<div class='trialBorder'><div class='vertical-center'><img style='vertical-align:center; align:center' src=img/fixation3.jpg></div><div class='cl'><div class='vertical-center'>$67<br><br>now</div></div><div class='cr'><div class='vertical-center'>$75<br>in<br>12 weeks</div></div><div class='respDivL'><div class='vertical-center'>(E)</div></div><div class='respDivR'><div class='vertical-center'>(I)</div></div></div>","E","$67<br><br>now","$75<br>in<br>12 weeks","0","67","75","12","NOW"
"html-keyboard-response","66","96620","0.0-5.0-3.20","5fcecd70db3ccb1a7f9331c9","bdp_td","Mon Mar 27 2023 13:05:24 GMT-0400 (Eastern Daylight Time)","117233","","null","","","","offerFB","","<div class='trialBorder'><div class='vertical-center'><img style='vertical-align:center; align:center' src=img/fixation3.jpg></div><div class='cl'><div class='vertical-center'><font style='color:orange'>$67<br><br>now</font></div></div><div class='cr'><div class='vertical-center'>$75<br>in<br>12 weeks</div></div><div class='respDivL'><div class='vertical-center'><font style='color:orange'>(E)</font></div></div><div class='respDivR'><div class='vertical-center'>(I)</div></div></div>","null","$67<br><br>now","$75<br>in<br>12 weeks","0","67","75","12",""
"html-keyboard-response","67","97122","0.0-5.0-1.21","5fcecd70db3ccb1a7f9331c9","bdp_td","Mon Mar 27 2023 13:05:24 GMT-0400 (Eastern Daylight Time)","117233","","null","","","","FIX","","<div class='trialBorder'><div class='vertical-center'><img style='vertical-align:center; align:center' src=img/fixation3.jpg></div></div>","null","","","","","","",""
"html-keyboard-response","68","101287","0.0-5.0-2.21","5fcecd70db3ccb1a7f9331c9","bdp_td","Mon Mar 27 2023 13:05:24 GMT-0400 (Eastern Daylight Time)","117233","","4165","","","","offer","","<div class='trialBorder'><div class='vertical-center'><img style='vertical-align:center; align:center' src=img/fixation3.jpg></div><div class='cl'><div class='vertical-center'>$54<br><br>now</div></div><div class='cr'><div class='vertical-center'>$60<br>in<br>12 weeks</div></div><div class='respDivL'><div class='vertical-center'>(E)</div></div><div class='respDivR'><div class='vertical-center'>(I)</div></div></div>","E","$54<br><br>now","$60<br>in<br>12 weeks","0","54","60","12","NOW"
"html-keyboard-response","69","101539","0.0-5.0-3.21","5fcecd70db3ccb1a7f9331c9","bdp_td","Mon Mar 27 2023 13:05:24 GMT-0400 (Eastern Daylight Time)","117233","","null","","","","offerFB","","<div class='trialBorder'><div class='vertical-center'><img style='vertical-align:center; align:center' src=img/fixation3.jpg></div><div class='cl'><div class='vertical-center'><font style='color:orange'>$54<br><br>now</font></div></div><div class='cr'><div class='vertical-center'>$60<br>in<br>12 weeks</div></div><div class='respDivL'><div class='vertical-center'><font style='color:orange'>(E)</font></div></div><div class='respDivR'><div class='vertical-center'>(I)</div></div></div>","null","$54<br><br>now","$60<br>in<br>12 weeks","0","54","60","12",""
"html-keyboard-response","70","102041","0.0-5.0-1.22","5fcecd70db3ccb1a7f9331c9","bdp_td","Mon Mar 27 2023 13:05:24 GMT-0400 (Eastern Daylight Time)","117233","","null","","","","FIX","","<div class='trialBorder'><div class='vertical-center'><img style='vertical-align:center; align:center' src=img/fixation3.jpg></div></div>","null","","","","","","",""
"html-keyboard-response","71","103732","0.0-5.0-2.22","5fcecd70db3ccb1a7f9331c9","bdp_td","Mon Mar 27 2023 13:05:24 GMT-0400 (Eastern Daylight Time)","117233","","1690","","","","offer","","<div class='trialBorder'><div class='vertical-center'><img style='vertical-align:center; align:center' src=img/fixation3.jpg></div><div class='cl'><div class='vertical-center'>$55<br>in<br>1 week</div></div><div class='cr'><div class='vertical-center'>$20<br><br>now</div></div><div class='respDivL'><div class='vertical-center'>(E)</div></div><div class='respDivR'><div class='vertical-center'>(I)</div></div></div>","E","$20<br><br>now","$55<br>in<br>1 week","1","20","55","1","THEN"
"html-keyboard-response","72","103984","0.0-5.0-3.22","5fcecd70db3ccb1a7f9331c9","bdp_td","Mon Mar 27 2023 13:05:24 GMT-0400 (Eastern Daylight Time)","117233","","null","","","","offerFB","","<div class='trialBorder'><div class='vertical-center'><img style='vertical-align:center; align:center' src=img/fixation3.jpg></div><div class='cl'><div class='vertical-center'><font style='color:orange'>$55<br>in<br>1 week</font></div></div><div class='cr'><div class='vertical-center'>$20<br><br>now</div></div><div class='respDivL'><div class='vertical-center'><font style='color:orange'>(E)</font></div></div><div class='respDivR'><div class='vertical-center'>(I)</div></div></div>","null","$20<br><br>now","$55<br>in<br>1 week","1","20","55","1",""
"html-keyboard-response","73","104485","0.0-5.0-1.23","5fcecd70db3ccb1a7f9331c9","bdp_td","Mon Mar 27 2023 13:05:24 GMT-0400 (Eastern Daylight Time)","117233","","null","","","","FIX","","<div class='trialBorder'><div class='vertical-center'><img style='vertical-align:center; align:center' src=img/fixation3.jpg></div></div>","null","","","","","","",""
"html-keyboard-response","74","108500","0.0-5.0-2.23","5fcecd70db3ccb1a7f9331c9","bdp_td","Mon Mar 27 2023 13:05:24 GMT-0400 (Eastern Daylight Time)","117233","","4014","","","","offer","","<div class='trialBorder'><div class='vertical-center'><img style='vertical-align:center; align:center' src=img/fixation3.jpg></div><div class='cl'><div class='vertical-center'>$60<br>in<br>3 weeks</div></div><div class='cr'><div class='vertical-center'>$25<br><br>now</div></div><div class='respDivL'><div class='vertical-center'>(E)</div></div><div class='respDivR'><div class='vertical-center'>(I)</div></div></div>","E","$25<br><br>now","$60<br>in<br>3 weeks","1","25","60","3","THEN"
"html-keyboard-response","75","108753","0.0-5.0-3.23","5fcecd70db3ccb1a7f9331c9","bdp_td","Mon Mar 27 2023 13:05:24 GMT-0400 (Eastern Daylight Time)","117233","","null","","","","offerFB","","<div class='trialBorder'><div class='vertical-center'><img style='vertical-align:center; align:center' src=img/fixation3.jpg></div><div class='cl'><div class='vertical-center'><font style='color:orange'>$60<br>in<br>3 weeks</font></div></div><div class='cr'><div class='vertical-center'>$25<br><br>now</div></div><div class='respDivL'><div class='vertical-center'><font style='color:orange'>(E)</font></div></div><div class='respDivR'><div class='vertical-center'>(I)</div></div></div>","null","$25<br><br>now","$60<br>in<br>3 weeks","1","25","60","3",""
"html-keyboard-response","76","109254","0.0-5.0-1.24","5fcecd70db3ccb1a7f9331c9","bdp_td","Mon Mar 27 2023 13:05:24 GMT-0400 (Eastern Daylight Time)","117233","","null","","","","FIX","","<div class='trialBorder'><div class='vertical-center'><img style='vertical-align:center; align:center' src=img/fixation3.jpg></div></div>","null","","","","","","",""
"html-keyboard-response","77","111223","0.0-5.0-2.24","5fcecd70db3ccb1a7f9331c9","bdp_td","Mon Mar 27 2023 13:05:24 GMT-0400 (Eastern Daylight Time)","117233","","1968","","","","offer","","<div class='trialBorder'><div class='vertical-center'><img style='vertical-align:center; align:center' src=img/fixation3.jpg></div><div class='cl'><div class='vertical-center'>$55<br><br>now</div></div><div class='cr'><div class='vertical-center'>$75<br>in<br>6 weeks</div></div><div class='respDivL'><div class='vertical-center'>(E)</div></div><div class='respDivR'><div class='vertical-center'>(I)</div></div></div>","E","$55<br><br>now","$75<br>in<br>6 weeks","0","55","75","6","NOW"
"html-keyboard-response","78","111476","0.0-5.0-3.24","5fcecd70db3ccb1a7f9331c9","bdp_td","Mon Mar 27 2023 13:05:24 GMT-0400 (Eastern Daylight Time)","117233","","null","","","","offerFB","","<div class='trialBorder'><div class='vertical-center'><img style='vertical-align:center; align:center' src=img/fixation3.jpg></div><div class='cl'><div class='vertical-center'><font style='color:orange'>$55<br><br>now</font></div></div><div class='cr'><div class='vertical-center'>$75<br>in<br>6 weeks</div></div><div class='respDivL'><div class='vertical-center'><font style='color:orange'>(E)</font></div></div><div class='respDivR'><div class='vertical-center'>(I)</div></div></div>","null","$55<br><br>now","$75<br>in<br>6 weeks","0","55","75","6",""
"html-keyboard-response","79","111977","0.0-5.0-1.25","5fcecd70db3ccb1a7f9331c9","bdp_td","Mon Mar 27 2023 13:05:24 GMT-0400 (Eastern Daylight Time)","117233","","null","","","","FIX","","<div class='trialBorder'><div class='vertical-center'><img style='vertical-align:center; align:center' src=img/fixation3.jpg></div></div>","null","","","","","","",""
"html-keyboard-response","80","113540","0.0-5.0-2.25","5fcecd70db3ccb1a7f9331c9","bdp_td","Mon Mar 27 2023 13:05:24 GMT-0400 (Eastern Daylight Time)","117233","","1562","","","","offer","","<div class='trialBorder'><div class='vertical-center'><img style='vertical-align:center; align:center' src=img/fixation3.jpg></div><div class='cl'><div class='vertical-center'>$28<br><br>now</div></div><div class='cr'><div class='vertical-center'>$30<br>in<br>12 weeks</div></div><div class='respDivL'><div class='vertical-center'>(E)</div></div><div class='respDivR'><div class='vertical-center'>(I)</div></div></div>","E","$28<br><br>now","$30<br>in<br>12 weeks","0","28","30","12","NOW"
"html-keyboard-response","81","113791","0.0-5.0-3.25","5fcecd70db3ccb1a7f9331c9","bdp_td","Mon Mar 27 2023 13:05:24 GMT-0400 (Eastern Daylight Time)","117233","","null","","","","offerFB","","<div class='trialBorder'><div class='vertical-center'><img style='vertical-align:center; align:center' src=img/fixation3.jpg></div><div class='cl'><div class='vertical-center'><font style='color:orange'>$28<br><br>now</font></div></div><div class='cr'><div class='vertical-center'>$30<br>in<br>12 weeks</div></div><div class='respDivL'><div class='vertical-center'><font style='color:orange'>(E)</font></div></div><div class='respDivR'><div class='vertical-center'>(I)</div></div></div>","null","$28<br><br>now","$30<br>in<br>12 weeks","0","28","30","12",""
"html-keyboard-response","82","114292","0.0-5.0-1.26","5fcecd70db3ccb1a7f9331c9","bdp_td","Mon Mar 27 2023 13:05:24 GMT-0400 (Eastern Daylight Time)","117233","","null","","","","FIX","","<div class='trialBorder'><div class='vertical-center'><img style='vertical-align:center; align:center' src=img/fixation3.jpg></div></div>","null","","","","","","",""
"html-keyboard-response","83","115981","0.0-5.0-2.26","5fcecd70db3ccb1a7f9331c9","bdp_td","Mon Mar 27 2023 13:05:24 GMT-0400 (Eastern Daylight Time)","117233","","1688","","","","offer","","<div class='trialBorder'><div class='vertical-center'><img style='vertical-align:center; align:center' src=img/fixation3.jpg></div><div class='cl'><div class='vertical-center'>$22<br><br>now</div></div><div class='cr'><div class='vertical-center'>$25<br>in<br>12 weeks</div></div><div class='respDivL'><div class='vertical-center'>(E)</div></div><div class='respDivR'><div class='vertical-center'>(I)</div></div></div>","E","$22<br><br>now","$25<br>in<br>12 weeks","0","22","25","12","NOW"
"html-keyboard-response","84","116233","0.0-5.0-3.26","5fcecd70db3ccb1a7f9331c9","bdp_td","Mon Mar 27 2023 13:05:24 GMT-0400 (Eastern Daylight Time)","117233","","null","","","","offerFB","","<div class='trialBorder'><div class='vertical-center'><img style='vertical-align:center; align:center' src=img/fixation3.jpg></div><div class='cl'><div class='vertical-center'><font style='color:orange'>$22<br><br>now</font></div></div><div class='cr'><div class='vertical-center'>$25<br>in<br>12 weeks</div></div><div class='respDivL'><div class='vertical-center'><font style='color:orange'>(E)</font></div></div><div class='respDivR'><div class='vertical-center'>(I)</div></div></div>","null","$22<br><br>now","$25<br>in<br>12 weeks","0","22","25","12",""
"","","","","5fcecd70db3ccb1a7f9331c9","bdp_td","Mon Mar 27 2023 13:05:24 GMT-0400 (Eastern Daylight Time)","117233","","","fullscreenexit","85","116297","fullscreenexit","","","","","","","","","",""
"fullscreen","85","117233","0.0-6.0","5fcecd70db3ccb1a7f9331c9","bdp_td","Mon Mar 27 2023 13:05:24 GMT-0400 (Eastern Daylight Time)","117233","","","","","","","true","","","","","","","","",""
"html-keyboard-response","86","117734","0.0-7.0","","","","","","null","","","","","","","null","","","","","","",""
