"trial_type","trial_index","time_elapsed","internal_node_id","subject_id","task","startTime","totalTime","view_history","rt","event","trial","time","trialtype","success","stimulus","key_press","nowOffer","thenOffer","thenLeft","nowAmt","thenAmt","thenWeeks","chosen"
"pavlovia","0","2","0.0-0.0","63dd3dd2593c92be97d8dbde","bdp_td","Mon Apr 10 2023 00:53:43 GMT-0700 (Pacific Daylight Time)","106748","","","","","","","","","","","","","","","",""
"instructions","1","1722","0.0-1.0","63dd3dd2593c92be97d8dbde","bdp_td","Mon Apr 10 2023 00:53:43 GMT-0700 (Pacific Daylight Time)","106748","[{""page_index"":0,""viewing_time"":1720}]","1720","","","","","","","","","","","","","",""
"","","","","63dd3dd2593c92be97d8dbde","bdp_td","Mon Apr 10 2023 00:53:43 GMT-0700 (Pacific Daylight Time)","106748","","","fullscreenenter","2","4178","fullscreenenter","","","","","","","","","",""
"fullscreen","2","5164","0.0-2.0","63dd3dd2593c92be97d8dbde","bdp_td","Mon Apr 10 2023 00:53:43 GMT-0700 (Pacific Daylight Time)","106748","","","","","","","true","","","","","","","","",""
"instructions","3","22700","0.0-4.0","63dd3dd2593c92be97d8dbde","bdp_td","Mon Apr 10 2023 00:53:43 GMT-0700 (Pacific Daylight Time)","106748","[{""page_index"":0,""viewing_time"":9190},{""page_index"":1,""viewing_time"":7393},{""page_index"":2,""viewing_time"":952}]","17535","","","","","","","","","","","","","",""
"html-keyboard-response","4","23202","0.0-5.0-1.0","63dd3dd2593c92be97d8dbde","bdp_td","Mon Apr 10 2023 00:53:43 GMT-0700 (Pacific Daylight Time)","106748","","null","","","","FIX","","<div class='trialBorder'><div class='vertical-center'><img style='vertical-align:center; align:center' src=img/fixation3.jpg></div></div>","null","","","","","","",""
"html-keyboard-response","5","28141","0.0-5.0-2.0","63dd3dd2593c92be97d8dbde","bdp_td","Mon Apr 10 2023 00:53:43 GMT-0700 (Pacific Daylight Time)","106748","","4939","","","","offer","","<div class='trialBorder'><div class='vertical-center'><img style='vertical-align:center; align:center' src=img/fixation3.jpg></div><div class='cl'><div class='vertical-center'>$60<br>in<br>12 weeks</div></div><div class='cr'><div class='vertical-center'>$54<br><br>now</div></div><div class='respDivL'><div class='vertical-center'>(E)</div></div><div class='respDivR'><div class='vertical-center'>(I)</div></div></div>","I","$54<br><br>now","$60<br>in<br>12 weeks","1","54","60","12","NOW"
"html-keyboard-response","6","28393","0.0-5.0-3.0","63dd3dd2593c92be97d8dbde","bdp_td","Mon Apr 10 2023 00:53:43 GMT-0700 (Pacific Daylight Time)","106748","","null","","","","offerFB","","<div class='trialBorder'><div class='vertical-center'><img style='vertical-align:center; align:center' src=img/fixation3.jpg></div><div class='cl'><div class='vertical-center'>$60<br>in<br>12 weeks</div></div><div class='cr'><div class='vertical-center'><font style='color:orange'>$54<br><br>now</font></div></div><div class='respDivL'><div class='vertical-center'>(E)</div></div><div class='respDivR'><div class='vertical-center'><font style='color:orange'>(I)</font></div></div></div>","null","$54<br><br>now","$60<br>in<br>12 weeks","1","54","60","12",""
"html-keyboard-response","7","28894","0.0-5.0-1.1","63dd3dd2593c92be97d8dbde","bdp_td","Mon Apr 10 2023 00:53:43 GMT-0700 (Pacific Daylight Time)","106748","","null","","","","FIX","","<div class='trialBorder'><div class='vertical-center'><img style='vertical-align:center; align:center' src=img/fixation3.jpg></div></div>","null","","","","","","",""
"html-keyboard-response","8","32757","0.0-5.0-2.1","63dd3dd2593c92be97d8dbde","bdp_td","Mon Apr 10 2023 00:53:43 GMT-0700 (Pacific Daylight Time)","106748","","3862","","","","offer","","<div class='trialBorder'><div class='vertical-center'><img style='vertical-align:center; align:center' src=img/fixation3.jpg></div><div class='cl'><div class='vertical-center'>$11<br><br>now</div></div><div class='cr'><div class='vertical-center'>$30<br>in<br>2 weeks</div></div><div class='respDivL'><div class='vertical-center'>(E)</div></div><div class='respDivR'><div class='vertical-center'>(I)</div></div></div>","I","$11<br><br>now","$30<br>in<br>2 weeks","0","11","30","2","THEN"
"html-keyboard-response","9","33009","0.0-5.0-3.1","63dd3dd2593c92be97d8dbde","bdp_td","Mon Apr 10 2023 00:53:43 GMT-0700 (Pacific Daylight Time)","106748","","null","","","","offerFB","","<div class='trialBorder'><div class='vertical-center'><img style='vertical-align:center; align:center' src=img/fixation3.jpg></div><div class='cl'><div class='vertical-center'>$11<br><br>now</div></div><div class='cr'><div class='vertical-center'><font style='color:orange'>$30<br>in<br>2 weeks</font></div></div><div class='respDivL'><div class='vertical-center'>(E)</div></div><div class='respDivR'><div class='vertical-center'><font style='color:orange'>(I)</font></div></div></div>","null","$11<br><br>now","$30<br>in<br>2 weeks","0","11","30","2",""
"html-keyboard-response","10","33509","0.0-5.0-1.2","63dd3dd2593c92be97d8dbde","bdp_td","Mon Apr 10 2023 00:53:43 GMT-0700 (Pacific Daylight Time)","106748","","null","","","","FIX","","<div class='trialBorder'><div class='vertical-center'><img style='vertical-align:center; align:center' src=img/fixation3.jpg></div></div>","null","","","","","","",""
"html-keyboard-response","11","37334","0.0-5.0-2.2","63dd3dd2593c92be97d8dbde","bdp_td","Mon Apr 10 2023 00:53:43 GMT-0700 (Pacific Daylight Time)","106748","","3824","","","","offer","","<div class='trialBorder'><div class='vertical-center'><img style='vertical-align:center; align:center' src=img/fixation3.jpg></div><div class='cl'><div class='vertical-center'>$49<br><br>now</div></div><div class='cr'><div class='vertical-center'>$60<br>in<br>6 weeks</div></div><div class='respDivL'><div class='vertical-center'>(E)</div></div><div class='respDivR'><div class='vertical-center'>(I)</div></div></div>","I","$49<br><br>now","$60<br>in<br>6 weeks","0","49","60","6","THEN"
"html-keyboard-response","12","37586","0.0-5.0-3.2","63dd3dd2593c92be97d8dbde","bdp_td","Mon Apr 10 2023 00:53:43 GMT-0700 (Pacific Daylight Time)","106748","","null","","","","offerFB","","<div class='trialBorder'><div class='vertical-center'><img style='vertical-align:center; align:center' src=img/fixation3.jpg></div><div class='cl'><div class='vertical-center'>$49<br><br>now</div></div><div class='cr'><div class='vertical-center'><font style='color:orange'>$60<br>in<br>6 weeks</font></div></div><div class='respDivL'><div class='vertical-center'>(E)</div></div><div class='respDivR'><div class='vertical-center'><font style='color:orange'>(I)</font></div></div></div>","null","$49<br><br>now","$60<br>in<br>6 weeks","0","49","60","6",""
"html-keyboard-response","13","38087","0.0-5.0-1.3","63dd3dd2593c92be97d8dbde","bdp_td","Mon Apr 10 2023 00:53:43 GMT-0700 (Pacific Daylight Time)","106748","","null","","","","FIX","","<div class='trialBorder'><div class='vertical-center'><img style='vertical-align:center; align:center' src=img/fixation3.jpg></div></div>","null","","","","","","",""
"html-keyboard-response","14","39719","0.0-5.0-2.3","63dd3dd2593c92be97d8dbde","bdp_td","Mon Apr 10 2023 00:53:43 GMT-0700 (Pacific Daylight Time)","106748","","1631","","","","offer","","<div class='trialBorder'><div class='vertical-center'><img style='vertical-align:center; align:center' src=img/fixation3.jpg></div><div class='cl'><div class='vertical-center'>$50<br>in<br>3 weeks</div></div><div class='cr'><div class='vertical-center'>$27<br><br>now</div></div><div class='respDivL'><div class='vertical-center'>(E)</div></div><div class='respDivR'><div class='vertical-center'>(I)</div></div></div>","E","$27<br><br>now","$50<br>in<br>3 weeks","1","27","50","3","THEN"
"html-keyboard-response","15","39971","0.0-5.0-3.3","63dd3dd2593c92be97d8dbde","bdp_td","Mon Apr 10 2023 00:53:43 GMT-0700 (Pacific Daylight Time)","106748","","null","","","","offerFB","","<div class='trialBorder'><div class='vertical-center'><img style='vertical-align:center; align:center' src=img/fixation3.jpg></div><div class='cl'><div class='vertical-center'><font style='color:orange'>$50<br>in<br>3 weeks</font></div></div><div class='cr'><div class='vertical-center'>$27<br><br>now</div></div><div class='respDivL'><div class='vertical-center'><font style='color:orange'>(E)</font></div></div><div class='respDivR'><div class='vertical-center'>(I)</div></div></div>","null","$27<br><br>now","$50<br>in<br>3 weeks","1","27","50","3",""
"html-keyboard-response","16","40472","0.0-5.0-1.4","63dd3dd2593c92be97d8dbde","bdp_td","Mon Apr 10 2023 00:53:43 GMT-0700 (Pacific Daylight Time)","106748","","null","","","","FIX","","<div class='trialBorder'><div class='vertical-center'><img style='vertical-align:center; align:center' src=img/fixation3.jpg></div></div>","null","","","","","","",""
"html-keyboard-response","17","42575","0.0-5.0-2.4","63dd3dd2593c92be97d8dbde","bdp_td","Mon Apr 10 2023 00:53:43 GMT-0700 (Pacific Daylight Time)","106748","","2102","","","","offer","","<div class='trialBorder'><div class='vertical-center'><img style='vertical-align:center; align:center' src=img/fixation3.jpg></div><div class='cl'><div class='vertical-center'>$80<br><br>now</div></div><div class='cr'><div class='vertical-center'>$85<br>in<br>12 weeks</div></div><div class='respDivL'><div class='vertical-center'>(E)</div></div><div class='respDivR'><div class='vertical-center'>(I)</div></div></div>","E","$80<br><br>now","$85<br>in<br>12 weeks","0","80","85","12","NOW"
"html-keyboard-response","18","42827","0.0-5.0-3.4","63dd3dd2593c92be97d8dbde","bdp_td","Mon Apr 10 2023 00:53:43 GMT-0700 (Pacific Daylight Time)","106748","","null","","","","offerFB","","<div class='trialBorder'><div class='vertical-center'><img style='vertical-align:center; align:center' src=img/fixation3.jpg></div><div class='cl'><div class='vertical-center'><font style='color:orange'>$80<br><br>now</font></div></div><div class='cr'><div class='vertical-center'>$85<br>in<br>12 weeks</div></div><div class='respDivL'><div class='vertical-center'><font style='color:orange'>(E)</font></div></div><div class='respDivR'><div class='vertical-center'>(I)</div></div></div>","null","$80<br><br>now","$85<br>in<br>12 weeks","0","80","85","12",""
"html-keyboard-response","19","43328","0.0-5.0-1.5","63dd3dd2593c92be97d8dbde","bdp_td","Mon Apr 10 2023 00:53:43 GMT-0700 (Pacific Daylight Time)","106748","","null","","","","FIX","","<div class='trialBorder'><div class='vertical-center'><img style='vertical-align:center; align:center' src=img/fixation3.jpg></div></div>","null","","","","","","",""
"html-keyboard-response","20","45087","0.0-5.0-2.5","63dd3dd2593c92be97d8dbde","bdp_td","Mon Apr 10 2023 00:53:43 GMT-0700 (Pacific Daylight Time)","106748","","1758","","","","offer","","<div class='trialBorder'><div class='vertical-center'><img style='vertical-align:center; align:center' src=img/fixation3.jpg></div><div class='cl'><div class='vertical-center'>$31<br><br>now</div></div><div class='cr'><div class='vertical-center'>$85<br>in<br>1 week</div></div><div class='respDivL'><div class='vertical-center'>(E)</div></div><div class='respDivR'><div class='vertical-center'>(I)</div></div></div>","E","$31<br><br>now","$85<br>in<br>1 week","0","31","85","1","NOW"
"html-keyboard-response","21","45340","0.0-5.0-3.5","63dd3dd2593c92be97d8dbde","bdp_td","Mon Apr 10 2023 00:53:43 GMT-0700 (Pacific Daylight Time)","106748","","null","","","","offerFB","","<div class='trialBorder'><div class='vertical-center'><img style='vertical-align:center; align:center' src=img/fixation3.jpg></div><div class='cl'><div class='vertical-center'><font style='color:orange'>$31<br><br>now</font></div></div><div class='cr'><div class='vertical-center'>$85<br>in<br>1 week</div></div><div class='respDivL'><div class='vertical-center'><font style='color:orange'>(E)</font></div></div><div class='respDivR'><div class='vertical-center'>(I)</div></div></div>","null","$31<br><br>now","$85<br>in<br>1 week","0","31","85","1",""
"html-keyboard-response","22","45840","0.0-5.0-1.6","63dd3dd2593c92be97d8dbde","bdp_td","Mon Apr 10 2023 00:53:43 GMT-0700 (Pacific Daylight Time)","106748","","null","","","","FIX","","<div class='trialBorder'><div class='vertical-center'><img style='vertical-align:center; align:center' src=img/fixation3.jpg></div></div>","null","","","","","","",""
"html-keyboard-response","23","48520","0.0-5.0-2.6","63dd3dd2593c92be97d8dbde","bdp_td","Mon Apr 10 2023 00:53:43 GMT-0700 (Pacific Daylight Time)","106748","","2678","","","","offer","","<div class='trialBorder'><div class='vertical-center'><img style='vertical-align:center; align:center' src=img/fixation3.jpg></div><div class='cl'><div class='vertical-center'>$50<br>in<br>6 weeks</div></div><div class='cr'><div class='vertical-center'>$34<br><br>now</div></div><div class='respDivL'><div class='vertical-center'>(E)</div></div><div class='respDivR'><div class='vertical-center'>(I)</div></div></div>","E","$34<br><br>now","$50<br>in<br>6 weeks","1","34","50","6","THEN"
"html-keyboard-response","24","48771","0.0-5.0-3.6","63dd3dd2593c92be97d8dbde","bdp_td","Mon Apr 10 2023 00:53:43 GMT-0700 (Pacific Daylight Time)","106748","","null","","","","offerFB","","<div class='trialBorder'><div class='vertical-center'><img style='vertical-align:center; align:center' src=img/fixation3.jpg></div><div class='cl'><div class='vertical-center'><font style='color:orange'>$50<br>in<br>6 weeks</font></div></div><div class='cr'><div class='vertical-center'>$34<br><br>now</div></div><div class='respDivL'><div class='vertical-center'><font style='color:orange'>(E)</font></div></div><div class='respDivR'><div class='vertical-center'>(I)</div></div></div>","null","$34<br><br>now","$50<br>in<br>6 weeks","1","34","50","6",""
"html-keyboard-response","25","49272","0.0-5.0-1.7","63dd3dd2593c92be97d8dbde","bdp_td","Mon Apr 10 2023 00:53:43 GMT-0700 (Pacific Daylight Time)","106748","","null","","","","FIX","","<div class='trialBorder'><div class='vertical-center'><img style='vertical-align:center; align:center' src=img/fixation3.jpg></div></div>","null","","","","","","",""
"html-keyboard-response","26","51977","0.0-5.0-2.7","63dd3dd2593c92be97d8dbde","bdp_td","Mon Apr 10 2023 00:53:43 GMT-0700 (Pacific Daylight Time)","106748","","2703","","","","offer","","<div class='trialBorder'><div class='vertical-center'><img style='vertical-align:center; align:center' src=img/fixation3.jpg></div><div class='cl'><div class='vertical-center'>$67<br><br>now</div></div><div class='cr'><div class='vertical-center'>$75<br>in<br>12 weeks</div></div><div class='respDivL'><div class='vertical-center'>(E)</div></div><div class='respDivR'><div class='vertical-center'>(I)</div></div></div>","I","$67<br><br>now","$75<br>in<br>12 weeks","0","67","75","12","THEN"
"html-keyboard-response","27","52228","0.0-5.0-3.7","63dd3dd2593c92be97d8dbde","bdp_td","Mon Apr 10 2023 00:53:43 GMT-0700 (Pacific Daylight Time)","106748","","null","","","","offerFB","","<div class='trialBorder'><div class='vertical-center'><img style='vertical-align:center; align:center' src=img/fixation3.jpg></div><div class='cl'><div class='vertical-center'>$67<br><br>now</div></div><div class='cr'><div class='vertical-center'><font style='color:orange'>$75<br>in<br>12 weeks</font></div></div><div class='respDivL'><div class='vertical-center'>(E)</div></div><div class='respDivR'><div class='vertical-center'><font style='color:orange'>(I)</font></div></div></div>","null","$67<br><br>now","$75<br>in<br>12 weeks","0","67","75","12",""
"html-keyboard-response","28","52730","0.0-5.0-1.8","63dd3dd2593c92be97d8dbde","bdp_td","Mon Apr 10 2023 00:53:43 GMT-0700 (Pacific Daylight Time)","106748","","null","","","","FIX","","<div class='trialBorder'><div class='vertical-center'><img style='vertical-align:center; align:center' src=img/fixation3.jpg></div></div>","null","","","","","","",""
"html-keyboard-response","29","55265","0.0-5.0-2.8","63dd3dd2593c92be97d8dbde","bdp_td","Mon Apr 10 2023 00:53:43 GMT-0700 (Pacific Daylight Time)","106748","","2533","","","","offer","","<div class='trialBorder'><div class='vertical-center'><img style='vertical-align:center; align:center' src=img/fixation3.jpg></div><div class='cl'><div class='vertical-center'>$80<br>in<br>12 weeks</div></div><div class='cr'><div class='vertical-center'>$78<br><br>now</div></div><div class='respDivL'><div class='vertical-center'>(E)</div></div><div class='respDivR'><div class='vertical-center'>(I)</div></div></div>","I","$78<br><br>now","$80<br>in<br>12 weeks","1","78","80","12","NOW"
"html-keyboard-response","30","55516","0.0-5.0-3.8","63dd3dd2593c92be97d8dbde","bdp_td","Mon Apr 10 2023 00:53:43 GMT-0700 (Pacific Daylight Time)","106748","","null","","","","offerFB","","<div class='trialBorder'><div class='vertical-center'><img style='vertical-align:center; align:center' src=img/fixation3.jpg></div><div class='cl'><div class='vertical-center'>$80<br>in<br>12 weeks</div></div><div class='cr'><div class='vertical-center'><font style='color:orange'>$78<br><br>now</font></div></div><div class='respDivL'><div class='vertical-center'>(E)</div></div><div class='respDivR'><div class='vertical-center'><font style='color:orange'>(I)</font></div></div></div>","null","$78<br><br>now","$80<br>in<br>12 weeks","1","78","80","12",""
"html-keyboard-response","31","56017","0.0-5.0-1.9","63dd3dd2593c92be97d8dbde","bdp_td","Mon Apr 10 2023 00:53:43 GMT-0700 (Pacific Daylight Time)","106748","","null","","","","FIX","","<div class='trialBorder'><div class='vertical-center'><img style='vertical-align:center; align:center' src=img/fixation3.jpg></div></div>","null","","","","","","",""
"html-keyboard-response","32","58241","0.0-5.0-2.9","63dd3dd2593c92be97d8dbde","bdp_td","Mon Apr 10 2023 00:53:43 GMT-0700 (Pacific Daylight Time)","106748","","2223","","","","offer","","<div class='trialBorder'><div class='vertical-center'><img style='vertical-align:center; align:center' src=img/fixation3.jpg></div><div class='cl'><div class='vertical-center'>$25<br><br>now</div></div><div class='cr'><div class='vertical-center'>$30<br>in<br>6 weeks</div></div><div class='respDivL'><div class='vertical-center'>(E)</div></div><div class='respDivR'><div class='vertical-center'>(I)</div></div></div>","E","$25<br><br>now","$30<br>in<br>6 weeks","0","25","30","6","NOW"
"html-keyboard-response","33","58492","0.0-5.0-3.9","63dd3dd2593c92be97d8dbde","bdp_td","Mon Apr 10 2023 00:53:43 GMT-0700 (Pacific Daylight Time)","106748","","null","","","","offerFB","","<div class='trialBorder'><div class='vertical-center'><img style='vertical-align:center; align:center' src=img/fixation3.jpg></div><div class='cl'><div class='vertical-center'><font style='color:orange'>$25<br><br>now</font></div></div><div class='cr'><div class='vertical-center'>$30<br>in<br>6 weeks</div></div><div class='respDivL'><div class='vertical-center'><font style='color:orange'>(E)</font></div></div><div class='respDivR'><div class='vertical-center'>(I)</div></div></div>","null","$25<br><br>now","$30<br>in<br>6 weeks","0","25","30","6",""
"html-keyboard-response","34","58994","0.0-5.0-1.10","63dd3dd2593c92be97d8dbde","bdp_td","Mon Apr 10 2023 00:53:43 GMT-0700 (Pacific Daylight Time)","106748","","null","","","","FIX","","<div class='trialBorder'><div class='vertical-center'><img style='vertical-align:center; align:center' src=img/fixation3.jpg></div></div>","null","","","","","","",""
"html-keyboard-response","35","60665","0.0-5.0-2.10","63dd3dd2593c92be97d8dbde","bdp_td","Mon Apr 10 2023 00:53:43 GMT-0700 (Pacific Daylight Time)","106748","","1671","","","","offer","","<div class='trialBorder'><div class='vertical-center'><img style='vertical-align:center; align:center' src=img/fixation3.jpg></div><div class='cl'><div class='vertical-center'>$30<br>in<br>12 weeks</div></div><div class='cr'><div class='vertical-center'>$28<br><br>now</div></div><div class='respDivL'><div class='vertical-center'>(E)</div></div><div class='respDivR'><div class='vertical-center'>(I)</div></div></div>","I","$28<br><br>now","$30<br>in<br>12 weeks","1","28","30","12","NOW"
"html-keyboard-response","36","60917","0.0-5.0-3.10","63dd3dd2593c92be97d8dbde","bdp_td","Mon Apr 10 2023 00:53:43 GMT-0700 (Pacific Daylight Time)","106748","","null","","","","offerFB","","<div class='trialBorder'><div class='vertical-center'><img style='vertical-align:center; align:center' src=img/fixation3.jpg></div><div class='cl'><div class='vertical-center'>$30<br>in<br>12 weeks</div></div><div class='cr'><div class='vertical-center'><font style='color:orange'>$28<br><br>now</font></div></div><div class='respDivL'><div class='vertical-center'>(E)</div></div><div class='respDivR'><div class='vertical-center'><font style='color:orange'>(I)</font></div></div></div>","null","$28<br><br>now","$30<br>in<br>12 weeks","1","28","30","12",""
"html-keyboard-response","37","61419","0.0-5.0-1.11","63dd3dd2593c92be97d8dbde","bdp_td","Mon Apr 10 2023 00:53:43 GMT-0700 (Pacific Daylight Time)","106748","","null","","","","FIX","","<div class='trialBorder'><div class='vertical-center'><img style='vertical-align:center; align:center' src=img/fixation3.jpg></div></div>","null","","","","","","",""
"html-keyboard-response","38","63146","0.0-5.0-2.11","63dd3dd2593c92be97d8dbde","bdp_td","Mon Apr 10 2023 00:53:43 GMT-0700 (Pacific Daylight Time)","106748","","1726","","","","offer","","<div class='trialBorder'><div class='vertical-center'><img style='vertical-align:center; align:center' src=img/fixation3.jpg></div><div class='cl'><div class='vertical-center'>$75<br>in<br>3 weeks</div></div><div class='cr'><div class='vertical-center'>$41<br><br>now</div></div><div class='respDivL'><div class='vertical-center'>(E)</div></div><div class='respDivR'><div class='vertical-center'>(I)</div></div></div>","E","$41<br><br>now","$75<br>in<br>3 weeks","1","41","75","3","THEN"
"html-keyboard-response","39","63397","0.0-5.0-3.11","63dd3dd2593c92be97d8dbde","bdp_td","Mon Apr 10 2023 00:53:43 GMT-0700 (Pacific Daylight Time)","106748","","null","","","","offerFB","","<div class='trialBorder'><div class='vertical-center'><img style='vertical-align:center; align:center' src=img/fixation3.jpg></div><div class='cl'><div class='vertical-center'><font style='color:orange'>$75<br>in<br>3 weeks</font></div></div><div class='cr'><div class='vertical-center'>$41<br><br>now</div></div><div class='respDivL'><div class='vertical-center'><font style='color:orange'>(E)</font></div></div><div class='respDivR'><div class='vertical-center'>(I)</div></div></div>","null","$41<br><br>now","$75<br>in<br>3 weeks","1","41","75","3",""
"html-keyboard-response","40","63899","0.0-5.0-1.12","63dd3dd2593c92be97d8dbde","bdp_td","Mon Apr 10 2023 00:53:43 GMT-0700 (Pacific Daylight Time)","106748","","null","","","","FIX","","<div class='trialBorder'><div class='vertical-center'><img style='vertical-align:center; align:center' src=img/fixation3.jpg></div></div>","null","","","","","","",""
"html-keyboard-response","41","65482","0.0-5.0-2.12","63dd3dd2593c92be97d8dbde","bdp_td","Mon Apr 10 2023 00:53:43 GMT-0700 (Pacific Daylight Time)","106748","","1582","","","","offer","","<div class='trialBorder'><div class='vertical-center'><img style='vertical-align:center; align:center' src=img/fixation3.jpg></div><div class='cl'><div class='vertical-center'>$47<br><br>now</div></div><div class='cr'><div class='vertical-center'>$50<br>in<br>12 weeks</div></div><div class='respDivL'><div class='vertical-center'>(E)</div></div><div class='respDivR'><div class='vertical-center'>(I)</div></div></div>","E","$47<br><br>now","$50<br>in<br>12 weeks","0","47","50","12","NOW"
"html-keyboard-response","42","65733","0.0-5.0-3.12","63dd3dd2593c92be97d8dbde","bdp_td","Mon Apr 10 2023 00:53:43 GMT-0700 (Pacific Daylight Time)","106748","","null","","","","offerFB","","<div class='trialBorder'><div class='vertical-center'><img style='vertical-align:center; align:center' src=img/fixation3.jpg></div><div class='cl'><div class='vertical-center'><font style='color:orange'>$47<br><br>now</font></div></div><div class='cr'><div class='vertical-center'>$50<br>in<br>12 weeks</div></div><div class='respDivL'><div class='vertical-center'><font style='color:orange'>(E)</font></div></div><div class='respDivR'><div class='vertical-center'>(I)</div></div></div>","null","$47<br><br>now","$50<br>in<br>12 weeks","0","47","50","12",""
"html-keyboard-response","43","66234","0.0-5.0-1.13","63dd3dd2593c92be97d8dbde","bdp_td","Mon Apr 10 2023 00:53:43 GMT-0700 (Pacific Daylight Time)","106748","","null","","","","FIX","","<div class='trialBorder'><div class='vertical-center'><img style='vertical-align:center; align:center' src=img/fixation3.jpg></div></div>","null","","","","","","",""
"html-keyboard-response","44","68018","0.0-5.0-2.13","63dd3dd2593c92be97d8dbde","bdp_td","Mon Apr 10 2023 00:53:43 GMT-0700 (Pacific Daylight Time)","106748","","1783","","","","offer","","<div class='trialBorder'><div class='vertical-center'><img style='vertical-align:center; align:center' src=img/fixation3.jpg></div><div class='cl'><div class='vertical-center'>$20<br><br>now</div></div><div class='cr'><div class='vertical-center'>$55<br>in<br>1 week</div></div><div class='respDivL'><div class='vertical-center'>(E)</div></div><div class='respDivR'><div class='vertical-center'>(I)</div></div></div>","I","$20<br><br>now","$55<br>in<br>1 week","0","20","55","1","THEN"
"html-keyboard-response","45","68269","0.0-5.0-3.13","63dd3dd2593c92be97d8dbde","bdp_td","Mon Apr 10 2023 00:53:43 GMT-0700 (Pacific Daylight Time)","106748","","null","","","","offerFB","","<div class='trialBorder'><div class='vertical-center'><img style='vertical-align:center; align:center' src=img/fixation3.jpg></div><div class='cl'><div class='vertical-center'>$20<br><br>now</div></div><div class='cr'><div class='vertical-center'><font style='color:orange'>$55<br>in<br>1 week</font></div></div><div class='respDivL'><div class='vertical-center'>(E)</div></div><div class='respDivR'><div class='vertical-center'><font style='color:orange'>(I)</font></div></div></div>","null","$20<br><br>now","$55<br>in<br>1 week","0","20","55","1",""
"html-keyboard-response","46","68770","0.0-5.0-1.14","63dd3dd2593c92be97d8dbde","bdp_td","Mon Apr 10 2023 00:53:43 GMT-0700 (Pacific Daylight Time)","106748","","null","","","","FIX","","<div class='trialBorder'><div class='vertical-center'><img style='vertical-align:center; align:center' src=img/fixation3.jpg></div></div>","null","","","","","","",""
"html-keyboard-response","47","70299","0.0-5.0-2.14","63dd3dd2593c92be97d8dbde","bdp_td","Mon Apr 10 2023 00:53:43 GMT-0700 (Pacific Daylight Time)","106748","","1527","","","","offer","","<div class='trialBorder'><div class='vertical-center'><img style='vertical-align:center; align:center' src=img/fixation3.jpg></div><div class='cl'><div class='vertical-center'>$22<br><br>now</div></div><div class='cr'><div class='vertical-center'>$25<br>in<br>12 weeks</div></div><div class='respDivL'><div class='vertical-center'>(E)</div></div><div class='respDivR'><div class='vertical-center'>(I)</div></div></div>","E","$22<br><br>now","$25<br>in<br>12 weeks","0","22","25","12","NOW"
"html-keyboard-response","48","70549","0.0-5.0-3.14","63dd3dd2593c92be97d8dbde","bdp_td","Mon Apr 10 2023 00:53:43 GMT-0700 (Pacific Daylight Time)","106748","","null","","","","offerFB","","<div class='trialBorder'><div class='vertical-center'><img style='vertical-align:center; align:center' src=img/fixation3.jpg></div><div class='cl'><div class='vertical-center'><font style='color:orange'>$22<br><br>now</font></div></div><div class='cr'><div class='vertical-center'>$25<br>in<br>12 weeks</div></div><div class='respDivL'><div class='vertical-center'><font style='color:orange'>(E)</font></div></div><div class='respDivR'><div class='vertical-center'>(I)</div></div></div>","null","$22<br><br>now","$25<br>in<br>12 weeks","0","22","25","12",""
"html-keyboard-response","49","71050","0.0-5.0-1.15","63dd3dd2593c92be97d8dbde","bdp_td","Mon Apr 10 2023 00:53:43 GMT-0700 (Pacific Daylight Time)","106748","","null","","","","FIX","","<div class='trialBorder'><div class='vertical-center'><img style='vertical-align:center; align:center' src=img/fixation3.jpg></div></div>","null","","","","","","",""
"html-keyboard-response","50","74771","0.0-5.0-2.15","63dd3dd2593c92be97d8dbde","bdp_td","Mon Apr 10 2023 00:53:43 GMT-0700 (Pacific Daylight Time)","106748","","3720","","","","offer","","<div class='trialBorder'><div class='vertical-center'><img style='vertical-align:center; align:center' src=img/fixation3.jpg></div><div class='cl'><div class='vertical-center'>$35<br>in<br>2 weeks</div></div><div class='cr'><div class='vertical-center'>$15<br><br>now</div></div><div class='respDivL'><div class='vertical-center'>(E)</div></div><div class='respDivR'><div class='vertical-center'>(I)</div></div></div>","E","$15<br><br>now","$35<br>in<br>2 weeks","1","15","35","2","THEN"
"html-keyboard-response","51","75022","0.0-5.0-3.15","63dd3dd2593c92be97d8dbde","bdp_td","Mon Apr 10 2023 00:53:43 GMT-0700 (Pacific Daylight Time)","106748","","null","","","","offerFB","","<div class='trialBorder'><div class='vertical-center'><img style='vertical-align:center; align:center' src=img/fixation3.jpg></div><div class='cl'><div class='vertical-center'><font style='color:orange'>$35<br>in<br>2 weeks</font></div></div><div class='cr'><div class='vertical-center'>$15<br><br>now</div></div><div class='respDivL'><div class='vertical-center'><font style='color:orange'>(E)</font></div></div><div class='respDivR'><div class='vertical-center'>(I)</div></div></div>","null","$15<br><br>now","$35<br>in<br>2 weeks","1","15","35","2",""
"html-keyboard-response","52","75524","0.0-5.0-1.16","63dd3dd2593c92be97d8dbde","bdp_td","Mon Apr 10 2023 00:53:43 GMT-0700 (Pacific Daylight Time)","106748","","null","","","","FIX","","<div class='trialBorder'><div class='vertical-center'><img style='vertical-align:center; align:center' src=img/fixation3.jpg></div></div>","null","","","","","","",""
"html-keyboard-response","53","76803","0.0-5.0-2.16","63dd3dd2593c92be97d8dbde","bdp_td","Mon Apr 10 2023 00:53:43 GMT-0700 (Pacific Daylight Time)","106748","","1279","","","","offer","","<div class='trialBorder'><div class='vertical-center'><img style='vertical-align:center; align:center' src=img/fixation3.jpg></div><div class='cl'><div class='vertical-center'>$25<br><br>now</div></div><div class='cr'><div class='vertical-center'>$60<br>in<br>3 weeks</div></div><div class='respDivL'><div class='vertical-center'>(E)</div></div><div class='respDivR'><div class='vertical-center'>(I)</div></div></div>","I","$25<br><br>now","$60<br>in<br>3 weeks","0","25","60","3","THEN"
"html-keyboard-response","54","77055","0.0-5.0-3.16","63dd3dd2593c92be97d8dbde","bdp_td","Mon Apr 10 2023 00:53:43 GMT-0700 (Pacific Daylight Time)","106748","","null","","","","offerFB","","<div class='trialBorder'><div class='vertical-center'><img style='vertical-align:center; align:center' src=img/fixation3.jpg></div><div class='cl'><div class='vertical-center'>$25<br><br>now</div></div><div class='cr'><div class='vertical-center'><font style='color:orange'>$60<br>in<br>3 weeks</font></div></div><div class='respDivL'><div class='vertical-center'>(E)</div></div><div class='respDivR'><div class='vertical-center'><font style='color:orange'>(I)</font></div></div></div>","null","$25<br><br>now","$60<br>in<br>3 weeks","0","25","60","3",""
"html-keyboard-response","55","77556","0.0-5.0-1.17","63dd3dd2593c92be97d8dbde","bdp_td","Mon Apr 10 2023 00:53:43 GMT-0700 (Pacific Daylight Time)","106748","","null","","","","FIX","","<div class='trialBorder'><div class='vertical-center'><img style='vertical-align:center; align:center' src=img/fixation3.jpg></div></div>","null","","","","","","",""
"html-keyboard-response","56","80300","0.0-5.0-2.17","63dd3dd2593c92be97d8dbde","bdp_td","Mon Apr 10 2023 00:53:43 GMT-0700 (Pacific Daylight Time)","106748","","2743","","","","offer","","<div class='trialBorder'><div class='vertical-center'><img style='vertical-align:center; align:center' src=img/fixation3.jpg></div><div class='cl'><div class='vertical-center'>$55<br>in<br>6 weeks</div></div><div class='cr'><div class='vertical-center'>$40<br><br>now</div></div><div class='respDivL'><div class='vertical-center'>(E)</div></div><div class='respDivR'><div class='vertical-center'>(I)</div></div></div>","E","$40<br><br>now","$55<br>in<br>6 weeks","1","40","55","6","THEN"
"html-keyboard-response","57","80552","0.0-5.0-3.17","63dd3dd2593c92be97d8dbde","bdp_td","Mon Apr 10 2023 00:53:43 GMT-0700 (Pacific Daylight Time)","106748","","null","","","","offerFB","","<div class='trialBorder'><div class='vertical-center'><img style='vertical-align:center; align:center' src=img/fixation3.jpg></div><div class='cl'><div class='vertical-center'><font style='color:orange'>$55<br>in<br>6 weeks</font></div></div><div class='cr'><div class='vertical-center'>$40<br><br>now</div></div><div class='respDivL'><div class='vertical-center'><font style='color:orange'>(E)</font></div></div><div class='respDivR'><div class='vertical-center'>(I)</div></div></div>","null","$40<br><br>now","$55<br>in<br>6 weeks","1","40","55","6",""
"html-keyboard-response","58","81053","0.0-5.0-1.18","63dd3dd2593c92be97d8dbde","bdp_td","Mon Apr 10 2023 00:53:43 GMT-0700 (Pacific Daylight Time)","106748","","null","","","","FIX","","<div class='trialBorder'><div class='vertical-center'><img style='vertical-align:center; align:center' src=img/fixation3.jpg></div></div>","null","","","","","","",""
"html-keyboard-response","59","83236","0.0-5.0-2.18","63dd3dd2593c92be97d8dbde","bdp_td","Mon Apr 10 2023 00:53:43 GMT-0700 (Pacific Daylight Time)","106748","","2183","","","","offer","","<div class='trialBorder'><div class='vertical-center'><img style='vertical-align:center; align:center' src=img/fixation3.jpg></div><div class='cl'><div class='vertical-center'>$34<br><br>now</div></div><div class='cr'><div class='vertical-center'>$35<br>in<br>12 weeks</div></div><div class='respDivL'><div class='vertical-center'>(E)</div></div><div class='respDivR'><div class='vertical-center'>(I)</div></div></div>","E","$34<br><br>now","$35<br>in<br>12 weeks","0","34","35","12","NOW"
"html-keyboard-response","60","83488","0.0-5.0-3.18","63dd3dd2593c92be97d8dbde","bdp_td","Mon Apr 10 2023 00:53:43 GMT-0700 (Pacific Daylight Time)","106748","","null","","","","offerFB","","<div class='trialBorder'><div class='vertical-center'><img style='vertical-align:center; align:center' src=img/fixation3.jpg></div><div class='cl'><div class='vertical-center'><font style='color:orange'>$34<br><br>now</font></div></div><div class='cr'><div class='vertical-center'>$35<br>in<br>12 weeks</div></div><div class='respDivL'><div class='vertical-center'><font style='color:orange'>(E)</font></div></div><div class='respDivR'><div class='vertical-center'>(I)</div></div></div>","null","$34<br><br>now","$35<br>in<br>12 weeks","0","34","35","12",""
"html-keyboard-response","61","83989","0.0-5.0-1.19","63dd3dd2593c92be97d8dbde","bdp_td","Mon Apr 10 2023 00:53:43 GMT-0700 (Pacific Daylight Time)","106748","","null","","","","FIX","","<div class='trialBorder'><div class='vertical-center'><img style='vertical-align:center; align:center' src=img/fixation3.jpg></div></div>","null","","","","","","",""
"html-keyboard-response","62","85693","0.0-5.0-2.19","63dd3dd2593c92be97d8dbde","bdp_td","Mon Apr 10 2023 00:53:43 GMT-0700 (Pacific Daylight Time)","106748","","1702","","","","offer","","<div class='trialBorder'><div class='vertical-center'><img style='vertical-align:center; align:center' src=img/fixation3.jpg></div><div class='cl'><div class='vertical-center'>$14<br><br>now</div></div><div class='cr'><div class='vertical-center'>$25<br>in<br>3 weeks</div></div><div class='respDivL'><div class='vertical-center'>(E)</div></div><div class='respDivR'><div class='vertical-center'>(I)</div></div></div>","I","$14<br><br>now","$25<br>in<br>3 weeks","0","14","25","3","THEN"
"html-keyboard-response","63","85944","0.0-5.0-3.19","63dd3dd2593c92be97d8dbde","bdp_td","Mon Apr 10 2023 00:53:43 GMT-0700 (Pacific Daylight Time)","106748","","null","","","","offerFB","","<div class='trialBorder'><div class='vertical-center'><img style='vertical-align:center; align:center' src=img/fixation3.jpg></div><div class='cl'><div class='vertical-center'>$14<br><br>now</div></div><div class='cr'><div class='vertical-center'><font style='color:orange'>$25<br>in<br>3 weeks</font></div></div><div class='respDivL'><div class='vertical-center'>(E)</div></div><div class='respDivR'><div class='vertical-center'><font style='color:orange'>(I)</font></div></div></div>","null","$14<br><br>now","$25<br>in<br>3 weeks","0","14","25","3",""
"html-keyboard-response","64","86446","0.0-5.0-1.20","63dd3dd2593c92be97d8dbde","bdp_td","Mon Apr 10 2023 00:53:43 GMT-0700 (Pacific Daylight Time)","106748","","null","","","","FIX","","<div class='trialBorder'><div class='vertical-center'><img style='vertical-align:center; align:center' src=img/fixation3.jpg></div></div>","null","","","","","","",""
"html-keyboard-response","65","89189","0.0-5.0-2.20","63dd3dd2593c92be97d8dbde","bdp_td","Mon Apr 10 2023 00:53:43 GMT-0700 (Pacific Daylight Time)","106748","","2742","","","","offer","","<div class='trialBorder'><div class='vertical-center'><img style='vertical-align:center; align:center' src=img/fixation3.jpg></div><div class='cl'><div class='vertical-center'>$25<br>in<br>6 weeks</div></div><div class='cr'><div class='vertical-center'>$19<br><br>now</div></div><div class='respDivL'><div class='vertical-center'>(E)</div></div><div class='respDivR'><div class='vertical-center'>(I)</div></div></div>","I","$19<br><br>now","$25<br>in<br>6 weeks","1","19","25","6","NOW"
"html-keyboard-response","66","89440","0.0-5.0-3.20","63dd3dd2593c92be97d8dbde","bdp_td","Mon Apr 10 2023 00:53:43 GMT-0700 (Pacific Daylight Time)","106748","","null","","","","offerFB","","<div class='trialBorder'><div class='vertical-center'><img style='vertical-align:center; align:center' src=img/fixation3.jpg></div><div class='cl'><div class='vertical-center'>$25<br>in<br>6 weeks</div></div><div class='cr'><div class='vertical-center'><font style='color:orange'>$19<br><br>now</font></div></div><div class='respDivL'><div class='vertical-center'>(E)</div></div><div class='respDivR'><div class='vertical-center'><font style='color:orange'>(I)</font></div></div></div>","null","$19<br><br>now","$25<br>in<br>6 weeks","1","19","25","6",""
"html-keyboard-response","67","89941","0.0-5.0-1.21","63dd3dd2593c92be97d8dbde","bdp_td","Mon Apr 10 2023 00:53:43 GMT-0700 (Pacific Daylight Time)","106748","","null","","","","FIX","","<div class='trialBorder'><div class='vertical-center'><img style='vertical-align:center; align:center' src=img/fixation3.jpg></div></div>","null","","","","","","",""
"html-keyboard-response","68","91245","0.0-5.0-2.21","63dd3dd2593c92be97d8dbde","bdp_td","Mon Apr 10 2023 00:53:43 GMT-0700 (Pacific Daylight Time)","106748","","1304","","","","offer","","<div class='trialBorder'><div class='vertical-center'><img style='vertical-align:center; align:center' src=img/fixation3.jpg></div><div class='cl'><div class='vertical-center'>$54<br><br>now</div></div><div class='cr'><div class='vertical-center'>$55<br>in<br>12 weeks</div></div><div class='respDivL'><div class='vertical-center'>(E)</div></div><div class='respDivR'><div class='vertical-center'>(I)</div></div></div>","E","$54<br><br>now","$55<br>in<br>12 weeks","0","54","55","12","NOW"
"html-keyboard-response","69","91496","0.0-5.0-3.21","63dd3dd2593c92be97d8dbde","bdp_td","Mon Apr 10 2023 00:53:43 GMT-0700 (Pacific Daylight Time)","106748","","null","","","","offerFB","","<div class='trialBorder'><div class='vertical-center'><img style='vertical-align:center; align:center' src=img/fixation3.jpg></div><div class='cl'><div class='vertical-center'><font style='color:orange'>$54<br><br>now</font></div></div><div class='cr'><div class='vertical-center'>$55<br>in<br>12 weeks</div></div><div class='respDivL'><div class='vertical-center'><font style='color:orange'>(E)</font></div></div><div class='respDivR'><div class='vertical-center'>(I)</div></div></div>","null","$54<br><br>now","$55<br>in<br>12 weeks","0","54","55","12",""
"html-keyboard-response","70","91997","0.0-5.0-1.22","63dd3dd2593c92be97d8dbde","bdp_td","Mon Apr 10 2023 00:53:43 GMT-0700 (Pacific Daylight Time)","106748","","null","","","","FIX","","<div class='trialBorder'><div class='vertical-center'><img style='vertical-align:center; align:center' src=img/fixation3.jpg></div></div>","null","","","","","","",""
"html-keyboard-response","71","93461","0.0-5.0-2.22","63dd3dd2593c92be97d8dbde","bdp_td","Mon Apr 10 2023 00:53:43 GMT-0700 (Pacific Daylight Time)","106748","","1463","","","","offer","","<div class='trialBorder'><div class='vertical-center'><img style='vertical-align:center; align:center' src=img/fixation3.jpg></div><div class='cl'><div class='vertical-center'>$80<br>in<br>2 weeks</div></div><div class='cr'><div class='vertical-center'>$33<br><br>now</div></div><div class='respDivL'><div class='vertical-center'>(E)</div></div><div class='respDivR'><div class='vertical-center'>(I)</div></div></div>","E","$33<br><br>now","$80<br>in<br>2 weeks","1","33","80","2","THEN"
"html-keyboard-response","72","93713","0.0-5.0-3.22","63dd3dd2593c92be97d8dbde","bdp_td","Mon Apr 10 2023 00:53:43 GMT-0700 (Pacific Daylight Time)","106748","","null","","","","offerFB","","<div class='trialBorder'><div class='vertical-center'><img style='vertical-align:center; align:center' src=img/fixation3.jpg></div><div class='cl'><div class='vertical-center'><font style='color:orange'>$80<br>in<br>2 weeks</font></div></div><div class='cr'><div class='vertical-center'>$33<br><br>now</div></div><div class='respDivL'><div class='vertical-center'><font style='color:orange'>(E)</font></div></div><div class='respDivR'><div class='vertical-center'>(I)</div></div></div>","null","$33<br><br>now","$80<br>in<br>2 weeks","1","33","80","2",""
"html-keyboard-response","73","94215","0.0-5.0-1.23","63dd3dd2593c92be97d8dbde","bdp_td","Mon Apr 10 2023 00:53:43 GMT-0700 (Pacific Daylight Time)","106748","","null","","","","FIX","","<div class='trialBorder'><div class='vertical-center'><img style='vertical-align:center; align:center' src=img/fixation3.jpg></div></div>","null","","","","","","",""
"html-keyboard-response","74","96870","0.0-5.0-2.23","63dd3dd2593c92be97d8dbde","bdp_td","Mon Apr 10 2023 00:53:43 GMT-0700 (Pacific Daylight Time)","106748","","2655","","","","offer","","<div class='trialBorder'><div class='vertical-center'><img style='vertical-align:center; align:center' src=img/fixation3.jpg></div><div class='cl'><div class='vertical-center'>$75<br>in<br>6 weeks</div></div><div class='cr'><div class='vertical-center'>$55<br><br>now</div></div><div class='respDivL'><div class='vertical-center'>(E)</div></div><div class='respDivR'><div class='vertical-center'>(I)</div></div></div>","E","$55<br><br>now","$75<br>in<br>6 weeks","1","55","75","6","THEN"
"html-keyboard-response","75","97121","0.0-5.0-3.23","63dd3dd2593c92be97d8dbde","bdp_td","Mon Apr 10 2023 00:53:43 GMT-0700 (Pacific Daylight Time)","106748","","null","","","","offerFB","","<div class='trialBorder'><div class='vertical-center'><img style='vertical-align:center; align:center' src=img/fixation3.jpg></div><div class='cl'><div class='vertical-center'><font style='color:orange'>$75<br>in<br>6 weeks</font></div></div><div class='cr'><div class='vertical-center'>$55<br><br>now</div></div><div class='respDivL'><div class='vertical-center'><font style='color:orange'>(E)</font></div></div><div class='respDivR'><div class='vertical-center'>(I)</div></div></div>","null","$55<br><br>now","$75<br>in<br>6 weeks","1","55","75","6",""
"html-keyboard-response","76","97622","0.0-5.0-1.24","63dd3dd2593c92be97d8dbde","bdp_td","Mon Apr 10 2023 00:53:43 GMT-0700 (Pacific Daylight Time)","106748","","null","","","","FIX","","<div class='trialBorder'><div class='vertical-center'><img style='vertical-align:center; align:center' src=img/fixation3.jpg></div></div>","null","","","","","","",""
"html-keyboard-response","77","99926","0.0-5.0-2.24","63dd3dd2593c92be97d8dbde","bdp_td","Mon Apr 10 2023 00:53:43 GMT-0700 (Pacific Daylight Time)","106748","","2304","","","","offer","","<div class='trialBorder'><div class='vertical-center'><img style='vertical-align:center; align:center' src=img/fixation3.jpg></div><div class='cl'><div class='vertical-center'>$85<br>in<br>6 weeks</div></div><div class='cr'><div class='vertical-center'>$69<br><br>now</div></div><div class='respDivL'><div class='vertical-center'>(E)</div></div><div class='respDivR'><div class='vertical-center'>(I)</div></div></div>","E","$69<br><br>now","$85<br>in<br>6 weeks","1","69","85","6","THEN"
"html-keyboard-response","78","100178","0.0-5.0-3.24","63dd3dd2593c92be97d8dbde","bdp_td","Mon Apr 10 2023 00:53:43 GMT-0700 (Pacific Daylight Time)","106748","","null","","","","offerFB","","<div class='trialBorder'><div class='vertical-center'><img style='vertical-align:center; align:center' src=img/fixation3.jpg></div><div class='cl'><div class='vertical-center'><font style='color:orange'>$85<br>in<br>6 weeks</font></div></div><div class='cr'><div class='vertical-center'>$69<br><br>now</div></div><div class='respDivL'><div class='vertical-center'><font style='color:orange'>(E)</font></div></div><div class='respDivR'><div class='vertical-center'>(I)</div></div></div>","null","$69<br><br>now","$85<br>in<br>6 weeks","1","69","85","6",""
"html-keyboard-response","79","100680","0.0-5.0-1.25","63dd3dd2593c92be97d8dbde","bdp_td","Mon Apr 10 2023 00:53:43 GMT-0700 (Pacific Daylight Time)","106748","","null","","","","FIX","","<div class='trialBorder'><div class='vertical-center'><img style='vertical-align:center; align:center' src=img/fixation3.jpg></div></div>","null","","","","","","",""
"html-keyboard-response","80","102150","0.0-5.0-2.25","63dd3dd2593c92be97d8dbde","bdp_td","Mon Apr 10 2023 00:53:43 GMT-0700 (Pacific Daylight Time)","106748","","1470","","","","offer","","<div class='trialBorder'><div class='vertical-center'><img style='vertical-align:center; align:center' src=img/fixation3.jpg></div><div class='cl'><div class='vertical-center'>$54<br><br>now</div></div><div class='cr'><div class='vertical-center'>$80<br>in<br>3 weeks</div></div><div class='respDivL'><div class='vertical-center'>(E)</div></div><div class='respDivR'><div class='vertical-center'>(I)</div></div></div>","I","$54<br><br>now","$80<br>in<br>3 weeks","0","54","80","3","THEN"
"html-keyboard-response","81","102401","0.0-5.0-3.25","63dd3dd2593c92be97d8dbde","bdp_td","Mon Apr 10 2023 00:53:43 GMT-0700 (Pacific Daylight Time)","106748","","null","","","","offerFB","","<div class='trialBorder'><div class='vertical-center'><img style='vertical-align:center; align:center' src=img/fixation3.jpg></div><div class='cl'><div class='vertical-center'>$54<br><br>now</div></div><div class='cr'><div class='vertical-center'><font style='color:orange'>$80<br>in<br>3 weeks</font></div></div><div class='respDivL'><div class='vertical-center'>(E)</div></div><div class='respDivR'><div class='vertical-center'><font style='color:orange'>(I)</font></div></div></div>","null","$54<br><br>now","$80<br>in<br>3 weeks","0","54","80","3",""
"html-keyboard-response","82","102902","0.0-5.0-1.26","63dd3dd2593c92be97d8dbde","bdp_td","Mon Apr 10 2023 00:53:43 GMT-0700 (Pacific Daylight Time)","106748","","null","","","","FIX","","<div class='trialBorder'><div class='vertical-center'><img style='vertical-align:center; align:center' src=img/fixation3.jpg></div></div>","null","","","","","","",""
"html-keyboard-response","83","105495","0.0-5.0-2.26","63dd3dd2593c92be97d8dbde","bdp_td","Mon Apr 10 2023 00:53:43 GMT-0700 (Pacific Daylight Time)","106748","","2593","","","","offer","","<div class='trialBorder'><div class='vertical-center'><img style='vertical-align:center; align:center' src=img/fixation3.jpg></div><div class='cl'><div class='vertical-center'>$35<br>in<br>3 weeks</div></div><div class='cr'><div class='vertical-center'>$24<br><br>now</div></div><div class='respDivL'><div class='vertical-center'>(E)</div></div><div class='respDivR'><div class='vertical-center'>(I)</div></div></div>","I","$24<br><br>now","$35<br>in<br>3 weeks","1","24","35","3","NOW"
"html-keyboard-response","84","105746","0.0-5.0-3.26","63dd3dd2593c92be97d8dbde","bdp_td","Mon Apr 10 2023 00:53:43 GMT-0700 (Pacific Daylight Time)","106748","","null","","","","offerFB","","<div class='trialBorder'><div class='vertical-center'><img style='vertical-align:center; align:center' src=img/fixation3.jpg></div><div class='cl'><div class='vertical-center'>$35<br>in<br>3 weeks</div></div><div class='cr'><div class='vertical-center'><font style='color:orange'>$24<br><br>now</font></div></div><div class='respDivL'><div class='vertical-center'>(E)</div></div><div class='respDivR'><div class='vertical-center'><font style='color:orange'>(I)</font></div></div></div>","null","$24<br><br>now","$35<br>in<br>3 weeks","1","24","35","3",""
"","","","","63dd3dd2593c92be97d8dbde","bdp_td","Mon Apr 10 2023 00:53:43 GMT-0700 (Pacific Daylight Time)","106748","","","fullscreenexit","85","105752","fullscreenexit","","","","","","","","","",""
"fullscreen","85","106748","0.0-6.0","63dd3dd2593c92be97d8dbde","bdp_td","Mon Apr 10 2023 00:53:43 GMT-0700 (Pacific Daylight Time)","106748","","","","","","","true","","","","","","","","",""
"html-keyboard-response","86","107248","0.0-7.0","","","","","","null","","","","","","","null","","","","","","",""
