"trial_type","trial_index","time_elapsed","internal_node_id","subject_id","task","startTime","totalTime","view_history","rt","event","trial","time","trialtype","success","stimulus","key_press","nowOffer","thenOffer","thenLeft","nowAmt","thenAmt","thenWeeks","chosen"
"pavlovia","0","1","0.0-0.0","5d69d7e23aed95001b1aa05c","bdp_td","Sat Apr 15 2023 17:29:24 GMT-0400 (Eastern Daylight Time)","152011","","","","","","","","","","","","","","","",""
"instructions","1","1520","0.0-1.0","5d69d7e23aed95001b1aa05c","bdp_td","Sat Apr 15 2023 17:29:24 GMT-0400 (Eastern Daylight Time)","152011","[{""page_index"":0,""viewing_time"":1517}]","1517","","","","","","","","","","","","","",""
"","","","","5d69d7e23aed95001b1aa05c","bdp_td","Sat Apr 15 2023 17:29:24 GMT-0400 (Eastern Daylight Time)","152011","","","fullscreenenter","2","3183","fullscreenenter","","","","","","","","","",""
"fullscreen","2","4167","0.0-2.0","5d69d7e23aed95001b1aa05c","bdp_td","Sat Apr 15 2023 17:29:24 GMT-0400 (Eastern Daylight Time)","152011","","","","","","","true","","","","","","","","",""
"instructions","3","72773","0.0-4.0","5d69d7e23aed95001b1aa05c","bdp_td","Sat Apr 15 2023 17:29:24 GMT-0400 (Eastern Daylight Time)","152011","[{""page_index"":0,""viewing_time"":64343},{""page_index"":1,""viewing_time"":3022},{""page_index"":2,""viewing_time"":1240}]","68605","","","","","","","","","","","","","",""
"html-keyboard-response","4","73274","0.0-5.0-1.0","5d69d7e23aed95001b1aa05c","bdp_td","Sat Apr 15 2023 17:29:24 GMT-0400 (Eastern Daylight Time)","152011","","null","","","","FIX","","<div class='trialBorder'><div class='vertical-center'><img style='vertical-align:center; align:center' src=img/fixation3.jpg></div></div>","null","","","","","","",""
"html-keyboard-response","5","74774","0.0-5.0-2.0","5d69d7e23aed95001b1aa05c","bdp_td","Sat Apr 15 2023 17:29:24 GMT-0400 (Eastern Daylight Time)","152011","","1499","","","","offer","","<div class='trialBorder'><div class='vertical-center'><img style='vertical-align:center; align:center' src=img/fixation3.jpg></div><div class='cl'><div class='vertical-center'>$85<br>in<br>6 weeks</div></div><div class='cr'><div class='vertical-center'>$69<br><br>now</div></div><div class='respDivL'><div class='vertical-center'>(E)</div></div><div class='respDivR'><div class='vertical-center'>(I)</div></div></div>","I","$69<br><br>now","$85<br>in<br>6 weeks","1","69","85","6","NOW"
"html-keyboard-response","6","75034","0.0-5.0-3.0","5d69d7e23aed95001b1aa05c","bdp_td","Sat Apr 15 2023 17:29:24 GMT-0400 (Eastern Daylight Time)","152011","","null","","","","offerFB","","<div class='trialBorder'><div class='vertical-center'><img style='vertical-align:center; align:center' src=img/fixation3.jpg></div><div class='cl'><div class='vertical-center'>$85<br>in<br>6 weeks</div></div><div class='cr'><div class='vertical-center'><font style='color:orange'>$69<br><br>now</font></div></div><div class='respDivL'><div class='vertical-center'>(E)</div></div><div class='respDivR'><div class='vertical-center'><font style='color:orange'>(I)</font></div></div></div>","null","$69<br><br>now","$85<br>in<br>6 weeks","1","69","85","6",""
"html-keyboard-response","7","75535","0.0-5.0-1.1","5d69d7e23aed95001b1aa05c","bdp_td","Sat Apr 15 2023 17:29:24 GMT-0400 (Eastern Daylight Time)","152011","","null","","","","FIX","","<div class='trialBorder'><div class='vertical-center'><img style='vertical-align:center; align:center' src=img/fixation3.jpg></div></div>","null","","","","","","",""
"html-keyboard-response","8","77453","0.0-5.0-2.1","5d69d7e23aed95001b1aa05c","bdp_td","Sat Apr 15 2023 17:29:24 GMT-0400 (Eastern Daylight Time)","152011","","1917","","","","offer","","<div class='trialBorder'><div class='vertical-center'><img style='vertical-align:center; align:center' src=img/fixation3.jpg></div><div class='cl'><div class='vertical-center'>$60<br>in<br>3 weeks</div></div><div class='cr'><div class='vertical-center'>$25<br><br>now</div></div><div class='respDivL'><div class='vertical-center'>(E)</div></div><div class='respDivR'><div class='vertical-center'>(I)</div></div></div>","E","$25<br><br>now","$60<br>in<br>3 weeks","1","25","60","3","THEN"
"html-keyboard-response","9","77704","0.0-5.0-3.1","5d69d7e23aed95001b1aa05c","bdp_td","Sat Apr 15 2023 17:29:24 GMT-0400 (Eastern Daylight Time)","152011","","null","","","","offerFB","","<div class='trialBorder'><div class='vertical-center'><img style='vertical-align:center; align:center' src=img/fixation3.jpg></div><div class='cl'><div class='vertical-center'><font style='color:orange'>$60<br>in<br>3 weeks</font></div></div><div class='cr'><div class='vertical-center'>$25<br><br>now</div></div><div class='respDivL'><div class='vertical-center'><font style='color:orange'>(E)</font></div></div><div class='respDivR'><div class='vertical-center'>(I)</div></div></div>","null","$25<br><br>now","$60<br>in<br>3 weeks","1","25","60","3",""
"html-keyboard-response","10","78205","0.0-5.0-1.2","5d69d7e23aed95001b1aa05c","bdp_td","Sat Apr 15 2023 17:29:24 GMT-0400 (Eastern Daylight Time)","152011","","null","","","","FIX","","<div class='trialBorder'><div class='vertical-center'><img style='vertical-align:center; align:center' src=img/fixation3.jpg></div></div>","null","","","","","","",""
"html-keyboard-response","11","79941","0.0-5.0-2.2","5d69d7e23aed95001b1aa05c","bdp_td","Sat Apr 15 2023 17:29:24 GMT-0400 (Eastern Daylight Time)","152011","","1735","","","","offer","","<div class='trialBorder'><div class='vertical-center'><img style='vertical-align:center; align:center' src=img/fixation3.jpg></div><div class='cl'><div class='vertical-center'>$31<br><br>now</div></div><div class='cr'><div class='vertical-center'>$85<br>in<br>1 week</div></div><div class='respDivL'><div class='vertical-center'>(E)</div></div><div class='respDivR'><div class='vertical-center'>(I)</div></div></div>","I","$31<br><br>now","$85<br>in<br>1 week","0","31","85","1","THEN"
"html-keyboard-response","12","80192","0.0-5.0-3.2","5d69d7e23aed95001b1aa05c","bdp_td","Sat Apr 15 2023 17:29:24 GMT-0400 (Eastern Daylight Time)","152011","","null","","","","offerFB","","<div class='trialBorder'><div class='vertical-center'><img style='vertical-align:center; align:center' src=img/fixation3.jpg></div><div class='cl'><div class='vertical-center'>$31<br><br>now</div></div><div class='cr'><div class='vertical-center'><font style='color:orange'>$85<br>in<br>1 week</font></div></div><div class='respDivL'><div class='vertical-center'>(E)</div></div><div class='respDivR'><div class='vertical-center'><font style='color:orange'>(I)</font></div></div></div>","null","$31<br><br>now","$85<br>in<br>1 week","0","31","85","1",""
"html-keyboard-response","13","80694","0.0-5.0-1.3","5d69d7e23aed95001b1aa05c","bdp_td","Sat Apr 15 2023 17:29:24 GMT-0400 (Eastern Daylight Time)","152011","","null","","","","FIX","","<div class='trialBorder'><div class='vertical-center'><img style='vertical-align:center; align:center' src=img/fixation3.jpg></div></div>","null","","","","","","",""
"html-keyboard-response","14","83199","0.0-5.0-2.3","5d69d7e23aed95001b1aa05c","bdp_td","Sat Apr 15 2023 17:29:24 GMT-0400 (Eastern Daylight Time)","152011","","2505","","","","offer","","<div class='trialBorder'><div class='vertical-center'><img style='vertical-align:center; align:center' src=img/fixation3.jpg></div><div class='cl'><div class='vertical-center'>$34<br><br>now</div></div><div class='cr'><div class='vertical-center'>$50<br>in<br>6 weeks</div></div><div class='respDivL'><div class='vertical-center'>(E)</div></div><div class='respDivR'><div class='vertical-center'>(I)</div></div></div>","E","$34<br><br>now","$50<br>in<br>6 weeks","0","34","50","6","NOW"
"html-keyboard-response","15","83451","0.0-5.0-3.3","5d69d7e23aed95001b1aa05c","bdp_td","Sat Apr 15 2023 17:29:24 GMT-0400 (Eastern Daylight Time)","152011","","null","","","","offerFB","","<div class='trialBorder'><div class='vertical-center'><img style='vertical-align:center; align:center' src=img/fixation3.jpg></div><div class='cl'><div class='vertical-center'><font style='color:orange'>$34<br><br>now</font></div></div><div class='cr'><div class='vertical-center'>$50<br>in<br>6 weeks</div></div><div class='respDivL'><div class='vertical-center'><font style='color:orange'>(E)</font></div></div><div class='respDivR'><div class='vertical-center'>(I)</div></div></div>","null","$34<br><br>now","$50<br>in<br>6 weeks","0","34","50","6",""
"html-keyboard-response","16","83954","0.0-5.0-1.4","5d69d7e23aed95001b1aa05c","bdp_td","Sat Apr 15 2023 17:29:24 GMT-0400 (Eastern Daylight Time)","152011","","null","","","","FIX","","<div class='trialBorder'><div class='vertical-center'><img style='vertical-align:center; align:center' src=img/fixation3.jpg></div></div>","null","","","","","","",""
"html-keyboard-response","17","86807","0.0-5.0-2.4","5d69d7e23aed95001b1aa05c","bdp_td","Sat Apr 15 2023 17:29:24 GMT-0400 (Eastern Daylight Time)","152011","","2852","","","","offer","","<div class='trialBorder'><div class='vertical-center'><img style='vertical-align:center; align:center' src=img/fixation3.jpg></div><div class='cl'><div class='vertical-center'>$80<br>in<br>2 weeks</div></div><div class='cr'><div class='vertical-center'>$33<br><br>now</div></div><div class='respDivL'><div class='vertical-center'>(E)</div></div><div class='respDivR'><div class='vertical-center'>(I)</div></div></div>","E","$33<br><br>now","$80<br>in<br>2 weeks","1","33","80","2","THEN"
"html-keyboard-response","18","87059","0.0-5.0-3.4","5d69d7e23aed95001b1aa05c","bdp_td","Sat Apr 15 2023 17:29:24 GMT-0400 (Eastern Daylight Time)","152011","","null","","","","offerFB","","<div class='trialBorder'><div class='vertical-center'><img style='vertical-align:center; align:center' src=img/fixation3.jpg></div><div class='cl'><div class='vertical-center'><font style='color:orange'>$80<br>in<br>2 weeks</font></div></div><div class='cr'><div class='vertical-center'>$33<br><br>now</div></div><div class='respDivL'><div class='vertical-center'><font style='color:orange'>(E)</font></div></div><div class='respDivR'><div class='vertical-center'>(I)</div></div></div>","null","$33<br><br>now","$80<br>in<br>2 weeks","1","33","80","2",""
"html-keyboard-response","19","87560","0.0-5.0-1.5","5d69d7e23aed95001b1aa05c","bdp_td","Sat Apr 15 2023 17:29:24 GMT-0400 (Eastern Daylight Time)","152011","","null","","","","FIX","","<div class='trialBorder'><div class='vertical-center'><img style='vertical-align:center; align:center' src=img/fixation3.jpg></div></div>","null","","","","","","",""
"html-keyboard-response","20","89543","0.0-5.0-2.5","5d69d7e23aed95001b1aa05c","bdp_td","Sat Apr 15 2023 17:29:24 GMT-0400 (Eastern Daylight Time)","152011","","1982","","","","offer","","<div class='trialBorder'><div class='vertical-center'><img style='vertical-align:center; align:center' src=img/fixation3.jpg></div><div class='cl'><div class='vertical-center'>$28<br><br>now</div></div><div class='cr'><div class='vertical-center'>$30<br>in<br>12 weeks</div></div><div class='respDivL'><div class='vertical-center'>(E)</div></div><div class='respDivR'><div class='vertical-center'>(I)</div></div></div>","E","$28<br><br>now","$30<br>in<br>12 weeks","0","28","30","12","NOW"
"html-keyboard-response","21","89794","0.0-5.0-3.5","5d69d7e23aed95001b1aa05c","bdp_td","Sat Apr 15 2023 17:29:24 GMT-0400 (Eastern Daylight Time)","152011","","null","","","","offerFB","","<div class='trialBorder'><div class='vertical-center'><img style='vertical-align:center; align:center' src=img/fixation3.jpg></div><div class='cl'><div class='vertical-center'><font style='color:orange'>$28<br><br>now</font></div></div><div class='cr'><div class='vertical-center'>$30<br>in<br>12 weeks</div></div><div class='respDivL'><div class='vertical-center'><font style='color:orange'>(E)</font></div></div><div class='respDivR'><div class='vertical-center'>(I)</div></div></div>","null","$28<br><br>now","$30<br>in<br>12 weeks","0","28","30","12",""
"html-keyboard-response","22","90297","0.0-5.0-1.6","5d69d7e23aed95001b1aa05c","bdp_td","Sat Apr 15 2023 17:29:24 GMT-0400 (Eastern Daylight Time)","152011","","null","","","","FIX","","<div class='trialBorder'><div class='vertical-center'><img style='vertical-align:center; align:center' src=img/fixation3.jpg></div></div>","null","","","","","","",""
"html-keyboard-response","23","93815","0.0-5.0-2.6","5d69d7e23aed95001b1aa05c","bdp_td","Sat Apr 15 2023 17:29:24 GMT-0400 (Eastern Daylight Time)","152011","","3517","","","","offer","","<div class='trialBorder'><div class='vertical-center'><img style='vertical-align:center; align:center' src=img/fixation3.jpg></div><div class='cl'><div class='vertical-center'>$25<br>in<br>3 weeks</div></div><div class='cr'><div class='vertical-center'>$14<br><br>now</div></div><div class='respDivL'><div class='vertical-center'>(E)</div></div><div class='respDivR'><div class='vertical-center'>(I)</div></div></div>","I","$14<br><br>now","$25<br>in<br>3 weeks","1","14","25","3","NOW"
"html-keyboard-response","24","94067","0.0-5.0-3.6","5d69d7e23aed95001b1aa05c","bdp_td","Sat Apr 15 2023 17:29:24 GMT-0400 (Eastern Daylight Time)","152011","","null","","","","offerFB","","<div class='trialBorder'><div class='vertical-center'><img style='vertical-align:center; align:center' src=img/fixation3.jpg></div><div class='cl'><div class='vertical-center'>$25<br>in<br>3 weeks</div></div><div class='cr'><div class='vertical-center'><font style='color:orange'>$14<br><br>now</font></div></div><div class='respDivL'><div class='vertical-center'>(E)</div></div><div class='respDivR'><div class='vertical-center'><font style='color:orange'>(I)</font></div></div></div>","null","$14<br><br>now","$25<br>in<br>3 weeks","1","14","25","3",""
"html-keyboard-response","25","94569","0.0-5.0-1.7","5d69d7e23aed95001b1aa05c","bdp_td","Sat Apr 15 2023 17:29:24 GMT-0400 (Eastern Daylight Time)","152011","","null","","","","FIX","","<div class='trialBorder'><div class='vertical-center'><img style='vertical-align:center; align:center' src=img/fixation3.jpg></div></div>","null","","","","","","",""
"html-keyboard-response","26","97424","0.0-5.0-2.7","5d69d7e23aed95001b1aa05c","bdp_td","Sat Apr 15 2023 17:29:24 GMT-0400 (Eastern Daylight Time)","152011","","2854","","","","offer","","<div class='trialBorder'><div class='vertical-center'><img style='vertical-align:center; align:center' src=img/fixation3.jpg></div><div class='cl'><div class='vertical-center'>$75<br>in<br>6 weeks</div></div><div class='cr'><div class='vertical-center'>$55<br><br>now</div></div><div class='respDivL'><div class='vertical-center'>(E)</div></div><div class='respDivR'><div class='vertical-center'>(I)</div></div></div>","E","$55<br><br>now","$75<br>in<br>6 weeks","1","55","75","6","THEN"
"html-keyboard-response","27","97676","0.0-5.0-3.7","5d69d7e23aed95001b1aa05c","bdp_td","Sat Apr 15 2023 17:29:24 GMT-0400 (Eastern Daylight Time)","152011","","null","","","","offerFB","","<div class='trialBorder'><div class='vertical-center'><img style='vertical-align:center; align:center' src=img/fixation3.jpg></div><div class='cl'><div class='vertical-center'><font style='color:orange'>$75<br>in<br>6 weeks</font></div></div><div class='cr'><div class='vertical-center'>$55<br><br>now</div></div><div class='respDivL'><div class='vertical-center'><font style='color:orange'>(E)</font></div></div><div class='respDivR'><div class='vertical-center'>(I)</div></div></div>","null","$55<br><br>now","$75<br>in<br>6 weeks","1","55","75","6",""
"html-keyboard-response","28","98177","0.0-5.0-1.8","5d69d7e23aed95001b1aa05c","bdp_td","Sat Apr 15 2023 17:29:24 GMT-0400 (Eastern Daylight Time)","152011","","null","","","","FIX","","<div class='trialBorder'><div class='vertical-center'><img style='vertical-align:center; align:center' src=img/fixation3.jpg></div></div>","null","","","","","","",""
"html-keyboard-response","29","101647","0.0-5.0-2.8","5d69d7e23aed95001b1aa05c","bdp_td","Sat Apr 15 2023 17:29:24 GMT-0400 (Eastern Daylight Time)","152011","","3470","","","","offer","","<div class='trialBorder'><div class='vertical-center'><img style='vertical-align:center; align:center' src=img/fixation3.jpg></div><div class='cl'><div class='vertical-center'>$40<br><br>now</div></div><div class='cr'><div class='vertical-center'>$55<br>in<br>6 weeks</div></div><div class='respDivL'><div class='vertical-center'>(E)</div></div><div class='respDivR'><div class='vertical-center'>(I)</div></div></div>","E","$40<br><br>now","$55<br>in<br>6 weeks","0","40","55","6","NOW"
"html-keyboard-response","30","101899","0.0-5.0-3.8","5d69d7e23aed95001b1aa05c","bdp_td","Sat Apr 15 2023 17:29:24 GMT-0400 (Eastern Daylight Time)","152011","","null","","","","offerFB","","<div class='trialBorder'><div class='vertical-center'><img style='vertical-align:center; align:center' src=img/fixation3.jpg></div><div class='cl'><div class='vertical-center'><font style='color:orange'>$40<br><br>now</font></div></div><div class='cr'><div class='vertical-center'>$55<br>in<br>6 weeks</div></div><div class='respDivL'><div class='vertical-center'><font style='color:orange'>(E)</font></div></div><div class='respDivR'><div class='vertical-center'>(I)</div></div></div>","null","$40<br><br>now","$55<br>in<br>6 weeks","0","40","55","6",""
"html-keyboard-response","31","102401","0.0-5.0-1.9","5d69d7e23aed95001b1aa05c","bdp_td","Sat Apr 15 2023 17:29:24 GMT-0400 (Eastern Daylight Time)","152011","","null","","","","FIX","","<div class='trialBorder'><div class='vertical-center'><img style='vertical-align:center; align:center' src=img/fixation3.jpg></div></div>","null","","","","","","",""
"html-keyboard-response","32","103909","0.0-5.0-2.9","5d69d7e23aed95001b1aa05c","bdp_td","Sat Apr 15 2023 17:29:24 GMT-0400 (Eastern Daylight Time)","152011","","1508","","","","offer","","<div class='trialBorder'><div class='vertical-center'><img style='vertical-align:center; align:center' src=img/fixation3.jpg></div><div class='cl'><div class='vertical-center'>$54<br><br>now</div></div><div class='cr'><div class='vertical-center'>$55<br>in<br>12 weeks</div></div><div class='respDivL'><div class='vertical-center'>(E)</div></div><div class='respDivR'><div class='vertical-center'>(I)</div></div></div>","E","$54<br><br>now","$55<br>in<br>12 weeks","0","54","55","12","NOW"
"html-keyboard-response","33","104161","0.0-5.0-3.9","5d69d7e23aed95001b1aa05c","bdp_td","Sat Apr 15 2023 17:29:24 GMT-0400 (Eastern Daylight Time)","152011","","null","","","","offerFB","","<div class='trialBorder'><div class='vertical-center'><img style='vertical-align:center; align:center' src=img/fixation3.jpg></div><div class='cl'><div class='vertical-center'><font style='color:orange'>$54<br><br>now</font></div></div><div class='cr'><div class='vertical-center'>$55<br>in<br>12 weeks</div></div><div class='respDivL'><div class='vertical-center'><font style='color:orange'>(E)</font></div></div><div class='respDivR'><div class='vertical-center'>(I)</div></div></div>","null","$54<br><br>now","$55<br>in<br>12 weeks","0","54","55","12",""
"html-keyboard-response","34","104662","0.0-5.0-1.10","5d69d7e23aed95001b1aa05c","bdp_td","Sat Apr 15 2023 17:29:24 GMT-0400 (Eastern Daylight Time)","152011","","null","","","","FIX","","<div class='trialBorder'><div class='vertical-center'><img style='vertical-align:center; align:center' src=img/fixation3.jpg></div></div>","null","","","","","","",""
"html-keyboard-response","35","107359","0.0-5.0-2.10","5d69d7e23aed95001b1aa05c","bdp_td","Sat Apr 15 2023 17:29:24 GMT-0400 (Eastern Daylight Time)","152011","","2696","","","","offer","","<div class='trialBorder'><div class='vertical-center'><img style='vertical-align:center; align:center' src=img/fixation3.jpg></div><div class='cl'><div class='vertical-center'>$27<br><br>now</div></div><div class='cr'><div class='vertical-center'>$50<br>in<br>3 weeks</div></div><div class='respDivL'><div class='vertical-center'>(E)</div></div><div class='respDivR'><div class='vertical-center'>(I)</div></div></div>","I","$27<br><br>now","$50<br>in<br>3 weeks","0","27","50","3","THEN"
"html-keyboard-response","36","107611","0.0-5.0-3.10","5d69d7e23aed95001b1aa05c","bdp_td","Sat Apr 15 2023 17:29:24 GMT-0400 (Eastern Daylight Time)","152011","","null","","","","offerFB","","<div class='trialBorder'><div class='vertical-center'><img style='vertical-align:center; align:center' src=img/fixation3.jpg></div><div class='cl'><div class='vertical-center'>$27<br><br>now</div></div><div class='cr'><div class='vertical-center'><font style='color:orange'>$50<br>in<br>3 weeks</font></div></div><div class='respDivL'><div class='vertical-center'>(E)</div></div><div class='respDivR'><div class='vertical-center'><font style='color:orange'>(I)</font></div></div></div>","null","$27<br><br>now","$50<br>in<br>3 weeks","0","27","50","3",""
"html-keyboard-response","37","108112","0.0-5.0-1.11","5d69d7e23aed95001b1aa05c","bdp_td","Sat Apr 15 2023 17:29:24 GMT-0400 (Eastern Daylight Time)","152011","","null","","","","FIX","","<div class='trialBorder'><div class='vertical-center'><img style='vertical-align:center; align:center' src=img/fixation3.jpg></div></div>","null","","","","","","",""
"html-keyboard-response","38","110964","0.0-5.0-2.11","5d69d7e23aed95001b1aa05c","bdp_td","Sat Apr 15 2023 17:29:24 GMT-0400 (Eastern Daylight Time)","152011","","2851","","","","offer","","<div class='trialBorder'><div class='vertical-center'><img style='vertical-align:center; align:center' src=img/fixation3.jpg></div><div class='cl'><div class='vertical-center'>$11<br><br>now</div></div><div class='cr'><div class='vertical-center'>$30<br>in<br>2 weeks</div></div><div class='respDivL'><div class='vertical-center'>(E)</div></div><div class='respDivR'><div class='vertical-center'>(I)</div></div></div>","I","$11<br><br>now","$30<br>in<br>2 weeks","0","11","30","2","THEN"
"html-keyboard-response","39","111216","0.0-5.0-3.11","5d69d7e23aed95001b1aa05c","bdp_td","Sat Apr 15 2023 17:29:24 GMT-0400 (Eastern Daylight Time)","152011","","null","","","","offerFB","","<div class='trialBorder'><div class='vertical-center'><img style='vertical-align:center; align:center' src=img/fixation3.jpg></div><div class='cl'><div class='vertical-center'>$11<br><br>now</div></div><div class='cr'><div class='vertical-center'><font style='color:orange'>$30<br>in<br>2 weeks</font></div></div><div class='respDivL'><div class='vertical-center'>(E)</div></div><div class='respDivR'><div class='vertical-center'><font style='color:orange'>(I)</font></div></div></div>","null","$11<br><br>now","$30<br>in<br>2 weeks","0","11","30","2",""
"html-keyboard-response","40","111718","0.0-5.0-1.12","5d69d7e23aed95001b1aa05c","bdp_td","Sat Apr 15 2023 17:29:24 GMT-0400 (Eastern Daylight Time)","152011","","null","","","","FIX","","<div class='trialBorder'><div class='vertical-center'><img style='vertical-align:center; align:center' src=img/fixation3.jpg></div></div>","null","","","","","","",""
"html-keyboard-response","41","113445","0.0-5.0-2.12","5d69d7e23aed95001b1aa05c","bdp_td","Sat Apr 15 2023 17:29:24 GMT-0400 (Eastern Daylight Time)","152011","","1726","","","","offer","","<div class='trialBorder'><div class='vertical-center'><img style='vertical-align:center; align:center' src=img/fixation3.jpg></div><div class='cl'><div class='vertical-center'>$54<br><br>now</div></div><div class='cr'><div class='vertical-center'>$80<br>in<br>3 weeks</div></div><div class='respDivL'><div class='vertical-center'>(E)</div></div><div class='respDivR'><div class='vertical-center'>(I)</div></div></div>","I","$54<br><br>now","$80<br>in<br>3 weeks","0","54","80","3","THEN"
"html-keyboard-response","42","113697","0.0-5.0-3.12","5d69d7e23aed95001b1aa05c","bdp_td","Sat Apr 15 2023 17:29:24 GMT-0400 (Eastern Daylight Time)","152011","","null","","","","offerFB","","<div class='trialBorder'><div class='vertical-center'><img style='vertical-align:center; align:center' src=img/fixation3.jpg></div><div class='cl'><div class='vertical-center'>$54<br><br>now</div></div><div class='cr'><div class='vertical-center'><font style='color:orange'>$80<br>in<br>3 weeks</font></div></div><div class='respDivL'><div class='vertical-center'>(E)</div></div><div class='respDivR'><div class='vertical-center'><font style='color:orange'>(I)</font></div></div></div>","null","$54<br><br>now","$80<br>in<br>3 weeks","0","54","80","3",""
"html-keyboard-response","43","114199","0.0-5.0-1.13","5d69d7e23aed95001b1aa05c","bdp_td","Sat Apr 15 2023 17:29:24 GMT-0400 (Eastern Daylight Time)","152011","","null","","","","FIX","","<div class='trialBorder'><div class='vertical-center'><img style='vertical-align:center; align:center' src=img/fixation3.jpg></div></div>","null","","","","","","",""
"html-keyboard-response","44","115527","0.0-5.0-2.13","5d69d7e23aed95001b1aa05c","bdp_td","Sat Apr 15 2023 17:29:24 GMT-0400 (Eastern Daylight Time)","152011","","1327","","","","offer","","<div class='trialBorder'><div class='vertical-center'><img style='vertical-align:center; align:center' src=img/fixation3.jpg></div><div class='cl'><div class='vertical-center'>$20<br><br>now</div></div><div class='cr'><div class='vertical-center'>$55<br>in<br>1 week</div></div><div class='respDivL'><div class='vertical-center'>(E)</div></div><div class='respDivR'><div class='vertical-center'>(I)</div></div></div>","I","$20<br><br>now","$55<br>in<br>1 week","0","20","55","1","THEN"
"html-keyboard-response","45","115778","0.0-5.0-3.13","5d69d7e23aed95001b1aa05c","bdp_td","Sat Apr 15 2023 17:29:24 GMT-0400 (Eastern Daylight Time)","152011","","null","","","","offerFB","","<div class='trialBorder'><div class='vertical-center'><img style='vertical-align:center; align:center' src=img/fixation3.jpg></div><div class='cl'><div class='vertical-center'>$20<br><br>now</div></div><div class='cr'><div class='vertical-center'><font style='color:orange'>$55<br>in<br>1 week</font></div></div><div class='respDivL'><div class='vertical-center'>(E)</div></div><div class='respDivR'><div class='vertical-center'><font style='color:orange'>(I)</font></div></div></div>","null","$20<br><br>now","$55<br>in<br>1 week","0","20","55","1",""
"html-keyboard-response","46","116280","0.0-5.0-1.14","5d69d7e23aed95001b1aa05c","bdp_td","Sat Apr 15 2023 17:29:24 GMT-0400 (Eastern Daylight Time)","152011","","null","","","","FIX","","<div class='trialBorder'><div class='vertical-center'><img style='vertical-align:center; align:center' src=img/fixation3.jpg></div></div>","null","","","","","","",""
"html-keyboard-response","47","118005","0.0-5.0-2.14","5d69d7e23aed95001b1aa05c","bdp_td","Sat Apr 15 2023 17:29:24 GMT-0400 (Eastern Daylight Time)","152011","","1725","","","","offer","","<div class='trialBorder'><div class='vertical-center'><img style='vertical-align:center; align:center' src=img/fixation3.jpg></div><div class='cl'><div class='vertical-center'>$50<br>in<br>12 weeks</div></div><div class='cr'><div class='vertical-center'>$47<br><br>now</div></div><div class='respDivL'><div class='vertical-center'>(E)</div></div><div class='respDivR'><div class='vertical-center'>(I)</div></div></div>","I","$47<br><br>now","$50<br>in<br>12 weeks","1","47","50","12","NOW"
"html-keyboard-response","48","118256","0.0-5.0-3.14","5d69d7e23aed95001b1aa05c","bdp_td","Sat Apr 15 2023 17:29:24 GMT-0400 (Eastern Daylight Time)","152011","","null","","","","offerFB","","<div class='trialBorder'><div class='vertical-center'><img style='vertical-align:center; align:center' src=img/fixation3.jpg></div><div class='cl'><div class='vertical-center'>$50<br>in<br>12 weeks</div></div><div class='cr'><div class='vertical-center'><font style='color:orange'>$47<br><br>now</font></div></div><div class='respDivL'><div class='vertical-center'>(E)</div></div><div class='respDivR'><div class='vertical-center'><font style='color:orange'>(I)</font></div></div></div>","null","$47<br><br>now","$50<br>in<br>12 weeks","1","47","50","12",""
"html-keyboard-response","49","118757","0.0-5.0-1.15","5d69d7e23aed95001b1aa05c","bdp_td","Sat Apr 15 2023 17:29:24 GMT-0400 (Eastern Daylight Time)","152011","","null","","","","FIX","","<div class='trialBorder'><div class='vertical-center'><img style='vertical-align:center; align:center' src=img/fixation3.jpg></div></div>","null","","","","","","",""
"html-keyboard-response","50","120951","0.0-5.0-2.15","5d69d7e23aed95001b1aa05c","bdp_td","Sat Apr 15 2023 17:29:24 GMT-0400 (Eastern Daylight Time)","152011","","2193","","","","offer","","<div class='trialBorder'><div class='vertical-center'><img style='vertical-align:center; align:center' src=img/fixation3.jpg></div><div class='cl'><div class='vertical-center'>$80<br><br>now</div></div><div class='cr'><div class='vertical-center'>$85<br>in<br>12 weeks</div></div><div class='respDivL'><div class='vertical-center'>(E)</div></div><div class='respDivR'><div class='vertical-center'>(I)</div></div></div>","E","$80<br><br>now","$85<br>in<br>12 weeks","0","80","85","12","NOW"
"html-keyboard-response","51","121203","0.0-5.0-3.15","5d69d7e23aed95001b1aa05c","bdp_td","Sat Apr 15 2023 17:29:24 GMT-0400 (Eastern Daylight Time)","152011","","null","","","","offerFB","","<div class='trialBorder'><div class='vertical-center'><img style='vertical-align:center; align:center' src=img/fixation3.jpg></div><div class='cl'><div class='vertical-center'><font style='color:orange'>$80<br><br>now</font></div></div><div class='cr'><div class='vertical-center'>$85<br>in<br>12 weeks</div></div><div class='respDivL'><div class='vertical-center'><font style='color:orange'>(E)</font></div></div><div class='respDivR'><div class='vertical-center'>(I)</div></div></div>","null","$80<br><br>now","$85<br>in<br>12 weeks","0","80","85","12",""
"html-keyboard-response","52","121705","0.0-5.0-1.16","5d69d7e23aed95001b1aa05c","bdp_td","Sat Apr 15 2023 17:29:24 GMT-0400 (Eastern Daylight Time)","152011","","null","","","","FIX","","<div class='trialBorder'><div class='vertical-center'><img style='vertical-align:center; align:center' src=img/fixation3.jpg></div></div>","null","","","","","","",""
"html-keyboard-response","53","123126","0.0-5.0-2.16","5d69d7e23aed95001b1aa05c","bdp_td","Sat Apr 15 2023 17:29:24 GMT-0400 (Eastern Daylight Time)","152011","","1421","","","","offer","","<div class='trialBorder'><div class='vertical-center'><img style='vertical-align:center; align:center' src=img/fixation3.jpg></div><div class='cl'><div class='vertical-center'>$35<br>in<br>12 weeks</div></div><div class='cr'><div class='vertical-center'>$34<br><br>now</div></div><div class='respDivL'><div class='vertical-center'>(E)</div></div><div class='respDivR'><div class='vertical-center'>(I)</div></div></div>","I","$34<br><br>now","$35<br>in<br>12 weeks","1","34","35","12","NOW"
"html-keyboard-response","54","123378","0.0-5.0-3.16","5d69d7e23aed95001b1aa05c","bdp_td","Sat Apr 15 2023 17:29:24 GMT-0400 (Eastern Daylight Time)","152011","","null","","","","offerFB","","<div class='trialBorder'><div class='vertical-center'><img style='vertical-align:center; align:center' src=img/fixation3.jpg></div><div class='cl'><div class='vertical-center'>$35<br>in<br>12 weeks</div></div><div class='cr'><div class='vertical-center'><font style='color:orange'>$34<br><br>now</font></div></div><div class='respDivL'><div class='vertical-center'>(E)</div></div><div class='respDivR'><div class='vertical-center'><font style='color:orange'>(I)</font></div></div></div>","null","$34<br><br>now","$35<br>in<br>12 weeks","1","34","35","12",""
"html-keyboard-response","55","123880","0.0-5.0-1.17","5d69d7e23aed95001b1aa05c","bdp_td","Sat Apr 15 2023 17:29:24 GMT-0400 (Eastern Daylight Time)","152011","","null","","","","FIX","","<div class='trialBorder'><div class='vertical-center'><img style='vertical-align:center; align:center' src=img/fixation3.jpg></div></div>","null","","","","","","",""
"html-keyboard-response","56","125541","0.0-5.0-2.17","5d69d7e23aed95001b1aa05c","bdp_td","Sat Apr 15 2023 17:29:24 GMT-0400 (Eastern Daylight Time)","152011","","1660","","","","offer","","<div class='trialBorder'><div class='vertical-center'><img style='vertical-align:center; align:center' src=img/fixation3.jpg></div><div class='cl'><div class='vertical-center'>$80<br>in<br>12 weeks</div></div><div class='cr'><div class='vertical-center'>$78<br><br>now</div></div><div class='respDivL'><div class='vertical-center'>(E)</div></div><div class='respDivR'><div class='vertical-center'>(I)</div></div></div>","I","$78<br><br>now","$80<br>in<br>12 weeks","1","78","80","12","NOW"
"html-keyboard-response","57","125793","0.0-5.0-3.17","5d69d7e23aed95001b1aa05c","bdp_td","Sat Apr 15 2023 17:29:24 GMT-0400 (Eastern Daylight Time)","152011","","null","","","","offerFB","","<div class='trialBorder'><div class='vertical-center'><img style='vertical-align:center; align:center' src=img/fixation3.jpg></div><div class='cl'><div class='vertical-center'>$80<br>in<br>12 weeks</div></div><div class='cr'><div class='vertical-center'><font style='color:orange'>$78<br><br>now</font></div></div><div class='respDivL'><div class='vertical-center'>(E)</div></div><div class='respDivR'><div class='vertical-center'><font style='color:orange'>(I)</font></div></div></div>","null","$78<br><br>now","$80<br>in<br>12 weeks","1","78","80","12",""
"html-keyboard-response","58","126295","0.0-5.0-1.18","5d69d7e23aed95001b1aa05c","bdp_td","Sat Apr 15 2023 17:29:24 GMT-0400 (Eastern Daylight Time)","152011","","null","","","","FIX","","<div class='trialBorder'><div class='vertical-center'><img style='vertical-align:center; align:center' src=img/fixation3.jpg></div></div>","null","","","","","","",""
"html-keyboard-response","59","127926","0.0-5.0-2.18","5d69d7e23aed95001b1aa05c","bdp_td","Sat Apr 15 2023 17:29:24 GMT-0400 (Eastern Daylight Time)","152011","","1631","","","","offer","","<div class='trialBorder'><div class='vertical-center'><img style='vertical-align:center; align:center' src=img/fixation3.jpg></div><div class='cl'><div class='vertical-center'>$49<br><br>now</div></div><div class='cr'><div class='vertical-center'>$60<br>in<br>6 weeks</div></div><div class='respDivL'><div class='vertical-center'>(E)</div></div><div class='respDivR'><div class='vertical-center'>(I)</div></div></div>","E","$49<br><br>now","$60<br>in<br>6 weeks","0","49","60","6","NOW"
"html-keyboard-response","60","128178","0.0-5.0-3.18","5d69d7e23aed95001b1aa05c","bdp_td","Sat Apr 15 2023 17:29:24 GMT-0400 (Eastern Daylight Time)","152011","","null","","","","offerFB","","<div class='trialBorder'><div class='vertical-center'><img style='vertical-align:center; align:center' src=img/fixation3.jpg></div><div class='cl'><div class='vertical-center'><font style='color:orange'>$49<br><br>now</font></div></div><div class='cr'><div class='vertical-center'>$60<br>in<br>6 weeks</div></div><div class='respDivL'><div class='vertical-center'><font style='color:orange'>(E)</font></div></div><div class='respDivR'><div class='vertical-center'>(I)</div></div></div>","null","$49<br><br>now","$60<br>in<br>6 weeks","0","49","60","6",""
"html-keyboard-response","61","128681","0.0-5.0-1.19","5d69d7e23aed95001b1aa05c","bdp_td","Sat Apr 15 2023 17:29:24 GMT-0400 (Eastern Daylight Time)","152011","","null","","","","FIX","","<div class='trialBorder'><div class='vertical-center'><img style='vertical-align:center; align:center' src=img/fixation3.jpg></div></div>","null","","","","","","",""
"html-keyboard-response","62","129958","0.0-5.0-2.19","5d69d7e23aed95001b1aa05c","bdp_td","Sat Apr 15 2023 17:29:24 GMT-0400 (Eastern Daylight Time)","152011","","1277","","","","offer","","<div class='trialBorder'><div class='vertical-center'><img style='vertical-align:center; align:center' src=img/fixation3.jpg></div><div class='cl'><div class='vertical-center'>$75<br>in<br>3 weeks</div></div><div class='cr'><div class='vertical-center'>$41<br><br>now</div></div><div class='respDivL'><div class='vertical-center'>(E)</div></div><div class='respDivR'><div class='vertical-center'>(I)</div></div></div>","E","$41<br><br>now","$75<br>in<br>3 weeks","1","41","75","3","THEN"
"html-keyboard-response","63","130209","0.0-5.0-3.19","5d69d7e23aed95001b1aa05c","bdp_td","Sat Apr 15 2023 17:29:24 GMT-0400 (Eastern Daylight Time)","152011","","null","","","","offerFB","","<div class='trialBorder'><div class='vertical-center'><img style='vertical-align:center; align:center' src=img/fixation3.jpg></div><div class='cl'><div class='vertical-center'><font style='color:orange'>$75<br>in<br>3 weeks</font></div></div><div class='cr'><div class='vertical-center'>$41<br><br>now</div></div><div class='respDivL'><div class='vertical-center'><font style='color:orange'>(E)</font></div></div><div class='respDivR'><div class='vertical-center'>(I)</div></div></div>","null","$41<br><br>now","$75<br>in<br>3 weeks","1","41","75","3",""
"html-keyboard-response","64","130720","0.0-5.0-1.20","5d69d7e23aed95001b1aa05c","bdp_td","Sat Apr 15 2023 17:29:24 GMT-0400 (Eastern Daylight Time)","152011","","null","","","","FIX","","<div class='trialBorder'><div class='vertical-center'><img style='vertical-align:center; align:center' src=img/fixation3.jpg></div></div>","null","","","","","","",""
"html-keyboard-response","65","132927","0.0-5.0-2.20","5d69d7e23aed95001b1aa05c","bdp_td","Sat Apr 15 2023 17:29:24 GMT-0400 (Eastern Daylight Time)","152011","","2206","","","","offer","","<div class='trialBorder'><div class='vertical-center'><img style='vertical-align:center; align:center' src=img/fixation3.jpg></div><div class='cl'><div class='vertical-center'>$67<br><br>now</div></div><div class='cr'><div class='vertical-center'>$75<br>in<br>12 weeks</div></div><div class='respDivL'><div class='vertical-center'>(E)</div></div><div class='respDivR'><div class='vertical-center'>(I)</div></div></div>","E","$67<br><br>now","$75<br>in<br>12 weeks","0","67","75","12","NOW"
"html-keyboard-response","66","133180","0.0-5.0-3.20","5d69d7e23aed95001b1aa05c","bdp_td","Sat Apr 15 2023 17:29:24 GMT-0400 (Eastern Daylight Time)","152011","","null","","","","offerFB","","<div class='trialBorder'><div class='vertical-center'><img style='vertical-align:center; align:center' src=img/fixation3.jpg></div><div class='cl'><div class='vertical-center'><font style='color:orange'>$67<br><br>now</font></div></div><div class='cr'><div class='vertical-center'>$75<br>in<br>12 weeks</div></div><div class='respDivL'><div class='vertical-center'><font style='color:orange'>(E)</font></div></div><div class='respDivR'><div class='vertical-center'>(I)</div></div></div>","null","$67<br><br>now","$75<br>in<br>12 weeks","0","67","75","12",""
"html-keyboard-response","67","133681","0.0-5.0-1.21","5d69d7e23aed95001b1aa05c","bdp_td","Sat Apr 15 2023 17:29:24 GMT-0400 (Eastern Daylight Time)","152011","","null","","","","FIX","","<div class='trialBorder'><div class='vertical-center'><img style='vertical-align:center; align:center' src=img/fixation3.jpg></div></div>","null","","","","","","",""
"html-keyboard-response","68","137174","0.0-5.0-2.21","5d69d7e23aed95001b1aa05c","bdp_td","Sat Apr 15 2023 17:29:24 GMT-0400 (Eastern Daylight Time)","152011","","3492","","","","offer","","<div class='trialBorder'><div class='vertical-center'><img style='vertical-align:center; align:center' src=img/fixation3.jpg></div><div class='cl'><div class='vertical-center'>$35<br>in<br>3 weeks</div></div><div class='cr'><div class='vertical-center'>$24<br><br>now</div></div><div class='respDivL'><div class='vertical-center'>(E)</div></div><div class='respDivR'><div class='vertical-center'>(I)</div></div></div>","E","$24<br><br>now","$35<br>in<br>3 weeks","1","24","35","3","THEN"
"html-keyboard-response","69","137426","0.0-5.0-3.21","5d69d7e23aed95001b1aa05c","bdp_td","Sat Apr 15 2023 17:29:24 GMT-0400 (Eastern Daylight Time)","152011","","null","","","","offerFB","","<div class='trialBorder'><div class='vertical-center'><img style='vertical-align:center; align:center' src=img/fixation3.jpg></div><div class='cl'><div class='vertical-center'><font style='color:orange'>$35<br>in<br>3 weeks</font></div></div><div class='cr'><div class='vertical-center'>$24<br><br>now</div></div><div class='respDivL'><div class='vertical-center'><font style='color:orange'>(E)</font></div></div><div class='respDivR'><div class='vertical-center'>(I)</div></div></div>","null","$24<br><br>now","$35<br>in<br>3 weeks","1","24","35","3",""
"html-keyboard-response","70","137928","0.0-5.0-1.22","5d69d7e23aed95001b1aa05c","bdp_td","Sat Apr 15 2023 17:29:24 GMT-0400 (Eastern Daylight Time)","152011","","null","","","","FIX","","<div class='trialBorder'><div class='vertical-center'><img style='vertical-align:center; align:center' src=img/fixation3.jpg></div></div>","null","","","","","","",""
"html-keyboard-response","71","139463","0.0-5.0-2.22","5d69d7e23aed95001b1aa05c","bdp_td","Sat Apr 15 2023 17:29:24 GMT-0400 (Eastern Daylight Time)","152011","","1534","","","","offer","","<div class='trialBorder'><div class='vertical-center'><img style='vertical-align:center; align:center' src=img/fixation3.jpg></div><div class='cl'><div class='vertical-center'>$25<br>in<br>12 weeks</div></div><div class='cr'><div class='vertical-center'>$22<br><br>now</div></div><div class='respDivL'><div class='vertical-center'>(E)</div></div><div class='respDivR'><div class='vertical-center'>(I)</div></div></div>","I","$22<br><br>now","$25<br>in<br>12 weeks","1","22","25","12","NOW"
"html-keyboard-response","72","139714","0.0-5.0-3.22","5d69d7e23aed95001b1aa05c","bdp_td","Sat Apr 15 2023 17:29:24 GMT-0400 (Eastern Daylight Time)","152011","","null","","","","offerFB","","<div class='trialBorder'><div class='vertical-center'><img style='vertical-align:center; align:center' src=img/fixation3.jpg></div><div class='cl'><div class='vertical-center'>$25<br>in<br>12 weeks</div></div><div class='cr'><div class='vertical-center'><font style='color:orange'>$22<br><br>now</font></div></div><div class='respDivL'><div class='vertical-center'>(E)</div></div><div class='respDivR'><div class='vertical-center'><font style='color:orange'>(I)</font></div></div></div>","null","$22<br><br>now","$25<br>in<br>12 weeks","1","22","25","12",""
"html-keyboard-response","73","140215","0.0-5.0-1.23","5d69d7e23aed95001b1aa05c","bdp_td","Sat Apr 15 2023 17:29:24 GMT-0400 (Eastern Daylight Time)","152011","","null","","","","FIX","","<div class='trialBorder'><div class='vertical-center'><img style='vertical-align:center; align:center' src=img/fixation3.jpg></div></div>","null","","","","","","",""
"html-keyboard-response","74","142294","0.0-5.0-2.23","5d69d7e23aed95001b1aa05c","bdp_td","Sat Apr 15 2023 17:29:24 GMT-0400 (Eastern Daylight Time)","152011","","2077","","","","offer","","<div class='trialBorder'><div class='vertical-center'><img style='vertical-align:center; align:center' src=img/fixation3.jpg></div><div class='cl'><div class='vertical-center'>$15<br><br>now</div></div><div class='cr'><div class='vertical-center'>$35<br>in<br>2 weeks</div></div><div class='respDivL'><div class='vertical-center'>(E)</div></div><div class='respDivR'><div class='vertical-center'>(I)</div></div></div>","I","$15<br><br>now","$35<br>in<br>2 weeks","0","15","35","2","THEN"
"html-keyboard-response","75","142546","0.0-5.0-3.23","5d69d7e23aed95001b1aa05c","bdp_td","Sat Apr 15 2023 17:29:24 GMT-0400 (Eastern Daylight Time)","152011","","null","","","","offerFB","","<div class='trialBorder'><div class='vertical-center'><img style='vertical-align:center; align:center' src=img/fixation3.jpg></div><div class='cl'><div class='vertical-center'>$15<br><br>now</div></div><div class='cr'><div class='vertical-center'><font style='color:orange'>$35<br>in<br>2 weeks</font></div></div><div class='respDivL'><div class='vertical-center'>(E)</div></div><div class='respDivR'><div class='vertical-center'><font style='color:orange'>(I)</font></div></div></div>","null","$15<br><br>now","$35<br>in<br>2 weeks","0","15","35","2",""
"html-keyboard-response","76","143059","0.0-5.0-1.24","5d69d7e23aed95001b1aa05c","bdp_td","Sat Apr 15 2023 17:29:24 GMT-0400 (Eastern Daylight Time)","152011","","null","","","","FIX","","<div class='trialBorder'><div class='vertical-center'><img style='vertical-align:center; align:center' src=img/fixation3.jpg></div></div>","null","","","","","","",""
"html-keyboard-response","77","144614","0.0-5.0-2.24","5d69d7e23aed95001b1aa05c","bdp_td","Sat Apr 15 2023 17:29:24 GMT-0400 (Eastern Daylight Time)","152011","","1555","","","","offer","","<div class='trialBorder'><div class='vertical-center'><img style='vertical-align:center; align:center' src=img/fixation3.jpg></div><div class='cl'><div class='vertical-center'>$54<br><br>now</div></div><div class='cr'><div class='vertical-center'>$60<br>in<br>12 weeks</div></div><div class='respDivL'><div class='vertical-center'>(E)</div></div><div class='respDivR'><div class='vertical-center'>(I)</div></div></div>","E","$54<br><br>now","$60<br>in<br>12 weeks","0","54","60","12","NOW"
"html-keyboard-response","78","144866","0.0-5.0-3.24","5d69d7e23aed95001b1aa05c","bdp_td","Sat Apr 15 2023 17:29:24 GMT-0400 (Eastern Daylight Time)","152011","","null","","","","offerFB","","<div class='trialBorder'><div class='vertical-center'><img style='vertical-align:center; align:center' src=img/fixation3.jpg></div><div class='cl'><div class='vertical-center'><font style='color:orange'>$54<br><br>now</font></div></div><div class='cr'><div class='vertical-center'>$60<br>in<br>12 weeks</div></div><div class='respDivL'><div class='vertical-center'><font style='color:orange'>(E)</font></div></div><div class='respDivR'><div class='vertical-center'>(I)</div></div></div>","null","$54<br><br>now","$60<br>in<br>12 weeks","0","54","60","12",""
"html-keyboard-response","79","145368","0.0-5.0-1.25","5d69d7e23aed95001b1aa05c","bdp_td","Sat Apr 15 2023 17:29:24 GMT-0400 (Eastern Daylight Time)","152011","","null","","","","FIX","","<div class='trialBorder'><div class='vertical-center'><img style='vertical-align:center; align:center' src=img/fixation3.jpg></div></div>","null","","","","","","",""
"html-keyboard-response","80","146918","0.0-5.0-2.25","5d69d7e23aed95001b1aa05c","bdp_td","Sat Apr 15 2023 17:29:24 GMT-0400 (Eastern Daylight Time)","152011","","1549","","","","offer","","<div class='trialBorder'><div class='vertical-center'><img style='vertical-align:center; align:center' src=img/fixation3.jpg></div><div class='cl'><div class='vertical-center'>$30<br>in<br>6 weeks</div></div><div class='cr'><div class='vertical-center'>$25<br><br>now</div></div><div class='respDivL'><div class='vertical-center'>(E)</div></div><div class='respDivR'><div class='vertical-center'>(I)</div></div></div>","I","$25<br><br>now","$30<br>in<br>6 weeks","1","25","30","6","NOW"
"html-keyboard-response","81","147170","0.0-5.0-3.25","5d69d7e23aed95001b1aa05c","bdp_td","Sat Apr 15 2023 17:29:24 GMT-0400 (Eastern Daylight Time)","152011","","null","","","","offerFB","","<div class='trialBorder'><div class='vertical-center'><img style='vertical-align:center; align:center' src=img/fixation3.jpg></div><div class='cl'><div class='vertical-center'>$30<br>in<br>6 weeks</div></div><div class='cr'><div class='vertical-center'><font style='color:orange'>$25<br><br>now</font></div></div><div class='respDivL'><div class='vertical-center'>(E)</div></div><div class='respDivR'><div class='vertical-center'><font style='color:orange'>(I)</font></div></div></div>","null","$25<br><br>now","$30<br>in<br>6 weeks","1","25","30","6",""
"html-keyboard-response","82","147671","0.0-5.0-1.26","5d69d7e23aed95001b1aa05c","bdp_td","Sat Apr 15 2023 17:29:24 GMT-0400 (Eastern Daylight Time)","152011","","null","","","","FIX","","<div class='trialBorder'><div class='vertical-center'><img style='vertical-align:center; align:center' src=img/fixation3.jpg></div></div>","null","","","","","","",""
"html-keyboard-response","83","150759","0.0-5.0-2.26","5d69d7e23aed95001b1aa05c","bdp_td","Sat Apr 15 2023 17:29:24 GMT-0400 (Eastern Daylight Time)","152011","","3087","","","","offer","","<div class='trialBorder'><div class='vertical-center'><img style='vertical-align:center; align:center' src=img/fixation3.jpg></div><div class='cl'><div class='vertical-center'>$25<br>in<br>6 weeks</div></div><div class='cr'><div class='vertical-center'>$19<br><br>now</div></div><div class='respDivL'><div class='vertical-center'>(E)</div></div><div class='respDivR'><div class='vertical-center'>(I)</div></div></div>","I","$19<br><br>now","$25<br>in<br>6 weeks","1","19","25","6","NOW"
"html-keyboard-response","84","151010","0.0-5.0-3.26","5d69d7e23aed95001b1aa05c","bdp_td","Sat Apr 15 2023 17:29:24 GMT-0400 (Eastern Daylight Time)","152011","","null","","","","offerFB","","<div class='trialBorder'><div class='vertical-center'><img style='vertical-align:center; align:center' src=img/fixation3.jpg></div><div class='cl'><div class='vertical-center'>$25<br>in<br>6 weeks</div></div><div class='cr'><div class='vertical-center'><font style='color:orange'>$19<br><br>now</font></div></div><div class='respDivL'><div class='vertical-center'>(E)</div></div><div class='respDivR'><div class='vertical-center'><font style='color:orange'>(I)</font></div></div></div>","null","$19<br><br>now","$25<br>in<br>6 weeks","1","19","25","6",""
"","","","","5d69d7e23aed95001b1aa05c","bdp_td","Sat Apr 15 2023 17:29:24 GMT-0400 (Eastern Daylight Time)","152011","","","fullscreenexit","85","151027","fullscreenexit","","","","","","","","","",""
"fullscreen","85","152011","0.0-6.0","5d69d7e23aed95001b1aa05c","bdp_td","Sat Apr 15 2023 17:29:24 GMT-0400 (Eastern Daylight Time)","152011","","","","","","","true","","","","","","","","",""
"html-keyboard-response","86","152513","0.0-7.0","","","","","","null","","","","","","","null","","","","","","",""
