"event","trial","time","trialtype","subject_id","task","startTime","totalTime","trial_type","trial_index","time_elapsed","internal_node_id","view_history","rt","success","stimulus","key_press","nowOffer","thenOffer","thenLeft","nowAmt","thenAmt","thenWeeks","chosen"
"focus","0","0","focusevent","636598a7a571403968d03bf2","bdp_td","Wed Mar 29 2023 18:41:38 GMT-0400 (Eastern Daylight Time)","129568","","","","","","","","","","","","","","","",""
"","","","","636598a7a571403968d03bf2","bdp_td","Wed Mar 29 2023 18:41:38 GMT-0400 (Eastern Daylight Time)","129568","pavlovia","0","1","0.0-0.0","","","","","","","","","","","",""
"","","","","636598a7a571403968d03bf2","bdp_td","Wed Mar 29 2023 18:41:38 GMT-0400 (Eastern Daylight Time)","129568","instructions","1","2101","0.0-1.0","[{""page_index"":0,""viewing_time"":2099}]","2099","","","","","","","","","",""
"fullscreenexit","2","7995","fullscreenexit","636598a7a571403968d03bf2","bdp_td","Wed Mar 29 2023 18:41:38 GMT-0400 (Eastern Daylight Time)","129568","","","","","","","","","","","","","","","",""
"","","","","636598a7a571403968d03bf2","bdp_td","Wed Mar 29 2023 18:41:38 GMT-0400 (Eastern Daylight Time)","129568","fullscreen","2","8786","0.0-2.0","","","true","","","","","","","","",""
"","","","fullscreenfail","636598a7a571403968d03bf2","bdp_td","Wed Mar 29 2023 18:41:38 GMT-0400 (Eastern Daylight Time)","129568","image-keyboard-response","3","10002","0.0-3.0-0.0","","1214","","","32","","","","","","",""
"","","","","636598a7a571403968d03bf2","bdp_td","Wed Mar 29 2023 18:41:38 GMT-0400 (Eastern Daylight Time)","129568","instructions","4","42517","0.0-4.0","[{""page_index"":0,""viewing_time"":11873},{""page_index"":1,""viewing_time"":7128},{""page_index"":2,""viewing_time"":13248}]","32249","","","","","","","","","",""
"","","","FIX","636598a7a571403968d03bf2","bdp_td","Wed Mar 29 2023 18:41:38 GMT-0400 (Eastern Daylight Time)","129568","html-keyboard-response","5","43032","0.0-5.0-1.0","","null","","<div class='trialBorder'><div class='vertical-center'><img style='vertical-align:center; align:center' src=img/fixation3.jpg></div></div>","null","","","","","","",""
"","","","offer","636598a7a571403968d03bf2","bdp_td","Wed Mar 29 2023 18:41:38 GMT-0400 (Eastern Daylight Time)","129568","html-keyboard-response","6","45788","0.0-5.0-2.0","","2751","","<div class='trialBorder'><div class='vertical-center'><img style='vertical-align:center; align:center' src=img/fixation3.jpg></div><div class='cl'><div class='vertical-center'>$25<br>in<br>6 weeks</div></div><div class='cr'><div class='vertical-center'>$19<br><br>now</div></div><div class='respDivL'><div class='vertical-center'>(E)</div></div><div class='respDivR'><div class='vertical-center'>(I)</div></div></div>","I","$19<br><br>now","$25<br>in<br>6 weeks","1","19","25","6","NOW"
"","","","offerFB","636598a7a571403968d03bf2","bdp_td","Wed Mar 29 2023 18:41:38 GMT-0400 (Eastern Daylight Time)","129568","html-keyboard-response","7","46052","0.0-5.0-3.0","","null","","<div class='trialBorder'><div class='vertical-center'><img style='vertical-align:center; align:center' src=img/fixation3.jpg></div><div class='cl'><div class='vertical-center'>$25<br>in<br>6 weeks</div></div><div class='cr'><div class='vertical-center'><font style='color:orange'>$19<br><br>now</font></div></div><div class='respDivL'><div class='vertical-center'>(E)</div></div><div class='respDivR'><div class='vertical-center'><font style='color:orange'>(I)</font></div></div></div>","null","$19<br><br>now","$25<br>in<br>6 weeks","1","19","25","6",""
"","","","FIX","636598a7a571403968d03bf2","bdp_td","Wed Mar 29 2023 18:41:38 GMT-0400 (Eastern Daylight Time)","129568","html-keyboard-response","8","46568","0.0-5.0-1.1","","null","","<div class='trialBorder'><div class='vertical-center'><img style='vertical-align:center; align:center' src=img/fixation3.jpg></div></div>","null","","","","","","",""
"","","","offer","636598a7a571403968d03bf2","bdp_td","Wed Mar 29 2023 18:41:38 GMT-0400 (Eastern Daylight Time)","129568","html-keyboard-response","9","51027","0.0-5.0-2.1","","4457","","<div class='trialBorder'><div class='vertical-center'><img style='vertical-align:center; align:center' src=img/fixation3.jpg></div><div class='cl'><div class='vertical-center'>$75<br>in<br>3 weeks</div></div><div class='cr'><div class='vertical-center'>$41<br><br>now</div></div><div class='respDivL'><div class='vertical-center'>(E)</div></div><div class='respDivR'><div class='vertical-center'>(I)</div></div></div>","E","$41<br><br>now","$75<br>in<br>3 weeks","1","41","75","3","THEN"
"","","","offerFB","636598a7a571403968d03bf2","bdp_td","Wed Mar 29 2023 18:41:38 GMT-0400 (Eastern Daylight Time)","129568","html-keyboard-response","10","51290","0.0-5.0-3.1","","null","","<div class='trialBorder'><div class='vertical-center'><img style='vertical-align:center; align:center' src=img/fixation3.jpg></div><div class='cl'><div class='vertical-center'><font style='color:orange'>$75<br>in<br>3 weeks</font></div></div><div class='cr'><div class='vertical-center'>$41<br><br>now</div></div><div class='respDivL'><div class='vertical-center'><font style='color:orange'>(E)</font></div></div><div class='respDivR'><div class='vertical-center'>(I)</div></div></div>","null","$41<br><br>now","$75<br>in<br>3 weeks","1","41","75","3",""
"","","","FIX","636598a7a571403968d03bf2","bdp_td","Wed Mar 29 2023 18:41:38 GMT-0400 (Eastern Daylight Time)","129568","html-keyboard-response","11","51801","0.0-5.0-1.2","","null","","<div class='trialBorder'><div class='vertical-center'><img style='vertical-align:center; align:center' src=img/fixation3.jpg></div></div>","null","","","","","","",""
"","","","offer","636598a7a571403968d03bf2","bdp_td","Wed Mar 29 2023 18:41:38 GMT-0400 (Eastern Daylight Time)","129568","html-keyboard-response","12","54372","0.0-5.0-2.2","","2571","","<div class='trialBorder'><div class='vertical-center'><img style='vertical-align:center; align:center' src=img/fixation3.jpg></div><div class='cl'><div class='vertical-center'>$25<br><br>now</div></div><div class='cr'><div class='vertical-center'>$30<br>in<br>6 weeks</div></div><div class='respDivL'><div class='vertical-center'>(E)</div></div><div class='respDivR'><div class='vertical-center'>(I)</div></div></div>","E","$25<br><br>now","$30<br>in<br>6 weeks","0","25","30","6","NOW"
"","","","offerFB","636598a7a571403968d03bf2","bdp_td","Wed Mar 29 2023 18:41:38 GMT-0400 (Eastern Daylight Time)","129568","html-keyboard-response","13","54628","0.0-5.0-3.2","","null","","<div class='trialBorder'><div class='vertical-center'><img style='vertical-align:center; align:center' src=img/fixation3.jpg></div><div class='cl'><div class='vertical-center'><font style='color:orange'>$25<br><br>now</font></div></div><div class='cr'><div class='vertical-center'>$30<br>in<br>6 weeks</div></div><div class='respDivL'><div class='vertical-center'><font style='color:orange'>(E)</font></div></div><div class='respDivR'><div class='vertical-center'>(I)</div></div></div>","null","$25<br><br>now","$30<br>in<br>6 weeks","0","25","30","6",""
"","","","FIX","636598a7a571403968d03bf2","bdp_td","Wed Mar 29 2023 18:41:38 GMT-0400 (Eastern Daylight Time)","129568","html-keyboard-response","14","55142","0.0-5.0-1.3","","null","","<div class='trialBorder'><div class='vertical-center'><img style='vertical-align:center; align:center' src=img/fixation3.jpg></div></div>","null","","","","","","",""
"","","","offer","636598a7a571403968d03bf2","bdp_td","Wed Mar 29 2023 18:41:38 GMT-0400 (Eastern Daylight Time)","129568","html-keyboard-response","15","57093","0.0-5.0-2.3","","1950","","<div class='trialBorder'><div class='vertical-center'><img style='vertical-align:center; align:center' src=img/fixation3.jpg></div><div class='cl'><div class='vertical-center'>$35<br>in<br>12 weeks</div></div><div class='cr'><div class='vertical-center'>$34<br><br>now</div></div><div class='respDivL'><div class='vertical-center'>(E)</div></div><div class='respDivR'><div class='vertical-center'>(I)</div></div></div>","I","$34<br><br>now","$35<br>in<br>12 weeks","1","34","35","12","NOW"
"","","","offerFB","636598a7a571403968d03bf2","bdp_td","Wed Mar 29 2023 18:41:38 GMT-0400 (Eastern Daylight Time)","129568","html-keyboard-response","16","57355","0.0-5.0-3.3","","null","","<div class='trialBorder'><div class='vertical-center'><img style='vertical-align:center; align:center' src=img/fixation3.jpg></div><div class='cl'><div class='vertical-center'>$35<br>in<br>12 weeks</div></div><div class='cr'><div class='vertical-center'><font style='color:orange'>$34<br><br>now</font></div></div><div class='respDivL'><div class='vertical-center'>(E)</div></div><div class='respDivR'><div class='vertical-center'><font style='color:orange'>(I)</font></div></div></div>","null","$34<br><br>now","$35<br>in<br>12 weeks","1","34","35","12",""
"","","","FIX","636598a7a571403968d03bf2","bdp_td","Wed Mar 29 2023 18:41:38 GMT-0400 (Eastern Daylight Time)","129568","html-keyboard-response","17","57856","0.0-5.0-1.4","","null","","<div class='trialBorder'><div class='vertical-center'><img style='vertical-align:center; align:center' src=img/fixation3.jpg></div></div>","null","","","","","","",""
"","","","offer","636598a7a571403968d03bf2","bdp_td","Wed Mar 29 2023 18:41:38 GMT-0400 (Eastern Daylight Time)","129568","html-keyboard-response","18","59428","0.0-5.0-2.4","","1570","","<div class='trialBorder'><div class='vertical-center'><img style='vertical-align:center; align:center' src=img/fixation3.jpg></div><div class='cl'><div class='vertical-center'>$55<br><br>now</div></div><div class='cr'><div class='vertical-center'>$75<br>in<br>6 weeks</div></div><div class='respDivL'><div class='vertical-center'>(E)</div></div><div class='respDivR'><div class='vertical-center'>(I)</div></div></div>","E","$55<br><br>now","$75<br>in<br>6 weeks","0","55","75","6","NOW"
"","","","offerFB","636598a7a571403968d03bf2","bdp_td","Wed Mar 29 2023 18:41:38 GMT-0400 (Eastern Daylight Time)","129568","html-keyboard-response","19","59693","0.0-5.0-3.4","","null","","<div class='trialBorder'><div class='vertical-center'><img style='vertical-align:center; align:center' src=img/fixation3.jpg></div><div class='cl'><div class='vertical-center'><font style='color:orange'>$55<br><br>now</font></div></div><div class='cr'><div class='vertical-center'>$75<br>in<br>6 weeks</div></div><div class='respDivL'><div class='vertical-center'><font style='color:orange'>(E)</font></div></div><div class='respDivR'><div class='vertical-center'>(I)</div></div></div>","null","$55<br><br>now","$75<br>in<br>6 weeks","0","55","75","6",""
"","","","FIX","636598a7a571403968d03bf2","bdp_td","Wed Mar 29 2023 18:41:38 GMT-0400 (Eastern Daylight Time)","129568","html-keyboard-response","20","60204","0.0-5.0-1.5","","null","","<div class='trialBorder'><div class='vertical-center'><img style='vertical-align:center; align:center' src=img/fixation3.jpg></div></div>","null","","","","","","",""
"","","","offer","636598a7a571403968d03bf2","bdp_td","Wed Mar 29 2023 18:41:38 GMT-0400 (Eastern Daylight Time)","129568","html-keyboard-response","21","62131","0.0-5.0-2.5","","1925","","<div class='trialBorder'><div class='vertical-center'><img style='vertical-align:center; align:center' src=img/fixation3.jpg></div><div class='cl'><div class='vertical-center'>$60<br>in<br>3 weeks</div></div><div class='cr'><div class='vertical-center'>$25<br><br>now</div></div><div class='respDivL'><div class='vertical-center'>(E)</div></div><div class='respDivR'><div class='vertical-center'>(I)</div></div></div>","E","$25<br><br>now","$60<br>in<br>3 weeks","1","25","60","3","THEN"
"","","","offerFB","636598a7a571403968d03bf2","bdp_td","Wed Mar 29 2023 18:41:38 GMT-0400 (Eastern Daylight Time)","129568","html-keyboard-response","22","62391","0.0-5.0-3.5","","null","","<div class='trialBorder'><div class='vertical-center'><img style='vertical-align:center; align:center' src=img/fixation3.jpg></div><div class='cl'><div class='vertical-center'><font style='color:orange'>$60<br>in<br>3 weeks</font></div></div><div class='cr'><div class='vertical-center'>$25<br><br>now</div></div><div class='respDivL'><div class='vertical-center'><font style='color:orange'>(E)</font></div></div><div class='respDivR'><div class='vertical-center'>(I)</div></div></div>","null","$25<br><br>now","$60<br>in<br>3 weeks","1","25","60","3",""
"","","","FIX","636598a7a571403968d03bf2","bdp_td","Wed Mar 29 2023 18:41:38 GMT-0400 (Eastern Daylight Time)","129568","html-keyboard-response","23","62894","0.0-5.0-1.6","","null","","<div class='trialBorder'><div class='vertical-center'><img style='vertical-align:center; align:center' src=img/fixation3.jpg></div></div>","null","","","","","","",""
"","","","offer","636598a7a571403968d03bf2","bdp_td","Wed Mar 29 2023 18:41:38 GMT-0400 (Eastern Daylight Time)","129568","html-keyboard-response","24","64723","0.0-5.0-2.6","","1827","","<div class='trialBorder'><div class='vertical-center'><img style='vertical-align:center; align:center' src=img/fixation3.jpg></div><div class='cl'><div class='vertical-center'>$85<br>in<br>6 weeks</div></div><div class='cr'><div class='vertical-center'>$69<br><br>now</div></div><div class='respDivL'><div class='vertical-center'>(E)</div></div><div class='respDivR'><div class='vertical-center'>(I)</div></div></div>","I","$69<br><br>now","$85<br>in<br>6 weeks","1","69","85","6","NOW"
"","","","offerFB","636598a7a571403968d03bf2","bdp_td","Wed Mar 29 2023 18:41:38 GMT-0400 (Eastern Daylight Time)","129568","html-keyboard-response","25","64987","0.0-5.0-3.6","","null","","<div class='trialBorder'><div class='vertical-center'><img style='vertical-align:center; align:center' src=img/fixation3.jpg></div><div class='cl'><div class='vertical-center'>$85<br>in<br>6 weeks</div></div><div class='cr'><div class='vertical-center'><font style='color:orange'>$69<br><br>now</font></div></div><div class='respDivL'><div class='vertical-center'>(E)</div></div><div class='respDivR'><div class='vertical-center'><font style='color:orange'>(I)</font></div></div></div>","null","$69<br><br>now","$85<br>in<br>6 weeks","1","69","85","6",""
"","","","FIX","636598a7a571403968d03bf2","bdp_td","Wed Mar 29 2023 18:41:38 GMT-0400 (Eastern Daylight Time)","129568","html-keyboard-response","26","65504","0.0-5.0-1.7","","null","","<div class='trialBorder'><div class='vertical-center'><img style='vertical-align:center; align:center' src=img/fixation3.jpg></div></div>","null","","","","","","",""
"","","","offer","636598a7a571403968d03bf2","bdp_td","Wed Mar 29 2023 18:41:38 GMT-0400 (Eastern Daylight Time)","129568","html-keyboard-response","27","69772","0.0-5.0-2.7","","4268","","<div class='trialBorder'><div class='vertical-center'><img style='vertical-align:center; align:center' src=img/fixation3.jpg></div><div class='cl'><div class='vertical-center'>$25<br>in<br>12 weeks</div></div><div class='cr'><div class='vertical-center'>$22<br><br>now</div></div><div class='respDivL'><div class='vertical-center'>(E)</div></div><div class='respDivR'><div class='vertical-center'>(I)</div></div></div>","I","$22<br><br>now","$25<br>in<br>12 weeks","1","22","25","12","NOW"
"","","","offerFB","636598a7a571403968d03bf2","bdp_td","Wed Mar 29 2023 18:41:38 GMT-0400 (Eastern Daylight Time)","129568","html-keyboard-response","28","70026","0.0-5.0-3.7","","null","","<div class='trialBorder'><div class='vertical-center'><img style='vertical-align:center; align:center' src=img/fixation3.jpg></div><div class='cl'><div class='vertical-center'>$25<br>in<br>12 weeks</div></div><div class='cr'><div class='vertical-center'><font style='color:orange'>$22<br><br>now</font></div></div><div class='respDivL'><div class='vertical-center'>(E)</div></div><div class='respDivR'><div class='vertical-center'><font style='color:orange'>(I)</font></div></div></div>","null","$22<br><br>now","$25<br>in<br>12 weeks","1","22","25","12",""
"","","","FIX","636598a7a571403968d03bf2","bdp_td","Wed Mar 29 2023 18:41:38 GMT-0400 (Eastern Daylight Time)","129568","html-keyboard-response","29","70542","0.0-5.0-1.8","","null","","<div class='trialBorder'><div class='vertical-center'><img style='vertical-align:center; align:center' src=img/fixation3.jpg></div></div>","null","","","","","","",""
"","","","offer","636598a7a571403968d03bf2","bdp_td","Wed Mar 29 2023 18:41:38 GMT-0400 (Eastern Daylight Time)","129568","html-keyboard-response","30","72076","0.0-5.0-2.8","","1533","","<div class='trialBorder'><div class='vertical-center'><img style='vertical-align:center; align:center' src=img/fixation3.jpg></div><div class='cl'><div class='vertical-center'>$30<br>in<br>12 weeks</div></div><div class='cr'><div class='vertical-center'>$28<br><br>now</div></div><div class='respDivL'><div class='vertical-center'>(E)</div></div><div class='respDivR'><div class='vertical-center'>(I)</div></div></div>","I","$28<br><br>now","$30<br>in<br>12 weeks","1","28","30","12","NOW"
"","","","offerFB","636598a7a571403968d03bf2","bdp_td","Wed Mar 29 2023 18:41:38 GMT-0400 (Eastern Daylight Time)","129568","html-keyboard-response","31","72336","0.0-5.0-3.8","","null","","<div class='trialBorder'><div class='vertical-center'><img style='vertical-align:center; align:center' src=img/fixation3.jpg></div><div class='cl'><div class='vertical-center'>$30<br>in<br>12 weeks</div></div><div class='cr'><div class='vertical-center'><font style='color:orange'>$28<br><br>now</font></div></div><div class='respDivL'><div class='vertical-center'>(E)</div></div><div class='respDivR'><div class='vertical-center'><font style='color:orange'>(I)</font></div></div></div>","null","$28<br><br>now","$30<br>in<br>12 weeks","1","28","30","12",""
"","","","FIX","636598a7a571403968d03bf2","bdp_td","Wed Mar 29 2023 18:41:38 GMT-0400 (Eastern Daylight Time)","129568","html-keyboard-response","32","72849","0.0-5.0-1.9","","null","","<div class='trialBorder'><div class='vertical-center'><img style='vertical-align:center; align:center' src=img/fixation3.jpg></div></div>","null","","","","","","",""
"","","","offer","636598a7a571403968d03bf2","bdp_td","Wed Mar 29 2023 18:41:38 GMT-0400 (Eastern Daylight Time)","129568","html-keyboard-response","33","75355","0.0-5.0-2.9","","2505","","<div class='trialBorder'><div class='vertical-center'><img style='vertical-align:center; align:center' src=img/fixation3.jpg></div><div class='cl'><div class='vertical-center'>$47<br><br>now</div></div><div class='cr'><div class='vertical-center'>$50<br>in<br>12 weeks</div></div><div class='respDivL'><div class='vertical-center'>(E)</div></div><div class='respDivR'><div class='vertical-center'>(I)</div></div></div>","E","$47<br><br>now","$50<br>in<br>12 weeks","0","47","50","12","NOW"
"","","","offerFB","636598a7a571403968d03bf2","bdp_td","Wed Mar 29 2023 18:41:38 GMT-0400 (Eastern Daylight Time)","129568","html-keyboard-response","34","75607","0.0-5.0-3.9","","null","","<div class='trialBorder'><div class='vertical-center'><img style='vertical-align:center; align:center' src=img/fixation3.jpg></div><div class='cl'><div class='vertical-center'><font style='color:orange'>$47<br><br>now</font></div></div><div class='cr'><div class='vertical-center'>$50<br>in<br>12 weeks</div></div><div class='respDivL'><div class='vertical-center'><font style='color:orange'>(E)</font></div></div><div class='respDivR'><div class='vertical-center'>(I)</div></div></div>","null","$47<br><br>now","$50<br>in<br>12 weeks","0","47","50","12",""
"","","","FIX","636598a7a571403968d03bf2","bdp_td","Wed Mar 29 2023 18:41:38 GMT-0400 (Eastern Daylight Time)","129568","html-keyboard-response","35","76122","0.0-5.0-1.10","","null","","<div class='trialBorder'><div class='vertical-center'><img style='vertical-align:center; align:center' src=img/fixation3.jpg></div></div>","null","","","","","","",""
"","","","offer","636598a7a571403968d03bf2","bdp_td","Wed Mar 29 2023 18:41:38 GMT-0400 (Eastern Daylight Time)","129568","html-keyboard-response","36","77539","0.0-5.0-2.10","","1417","","<div class='trialBorder'><div class='vertical-center'><img style='vertical-align:center; align:center' src=img/fixation3.jpg></div><div class='cl'><div class='vertical-center'>$85<br>in<br>12 weeks</div></div><div class='cr'><div class='vertical-center'>$80<br><br>now</div></div><div class='respDivL'><div class='vertical-center'>(E)</div></div><div class='respDivR'><div class='vertical-center'>(I)</div></div></div>","I","$80<br><br>now","$85<br>in<br>12 weeks","1","80","85","12","NOW"
"","","","offerFB","636598a7a571403968d03bf2","bdp_td","Wed Mar 29 2023 18:41:38 GMT-0400 (Eastern Daylight Time)","129568","html-keyboard-response","37","77806","0.0-5.0-3.10","","null","","<div class='trialBorder'><div class='vertical-center'><img style='vertical-align:center; align:center' src=img/fixation3.jpg></div><div class='cl'><div class='vertical-center'>$85<br>in<br>12 weeks</div></div><div class='cr'><div class='vertical-center'><font style='color:orange'>$80<br><br>now</font></div></div><div class='respDivL'><div class='vertical-center'>(E)</div></div><div class='respDivR'><div class='vertical-center'><font style='color:orange'>(I)</font></div></div></div>","null","$80<br><br>now","$85<br>in<br>12 weeks","1","80","85","12",""
"","","","FIX","636598a7a571403968d03bf2","bdp_td","Wed Mar 29 2023 18:41:38 GMT-0400 (Eastern Daylight Time)","129568","html-keyboard-response","38","78319","0.0-5.0-1.11","","null","","<div class='trialBorder'><div class='vertical-center'><img style='vertical-align:center; align:center' src=img/fixation3.jpg></div></div>","null","","","","","","",""
"","","","offer","636598a7a571403968d03bf2","bdp_td","Wed Mar 29 2023 18:41:38 GMT-0400 (Eastern Daylight Time)","129568","html-keyboard-response","39","80987","0.0-5.0-2.11","","2668","","<div class='trialBorder'><div class='vertical-center'><img style='vertical-align:center; align:center' src=img/fixation3.jpg></div><div class='cl'><div class='vertical-center'>$35<br>in<br>3 weeks</div></div><div class='cr'><div class='vertical-center'>$24<br><br>now</div></div><div class='respDivL'><div class='vertical-center'>(E)</div></div><div class='respDivR'><div class='vertical-center'>(I)</div></div></div>","I","$24<br><br>now","$35<br>in<br>3 weeks","1","24","35","3","NOW"
"","","","offerFB","636598a7a571403968d03bf2","bdp_td","Wed Mar 29 2023 18:41:38 GMT-0400 (Eastern Daylight Time)","129568","html-keyboard-response","40","81242","0.0-5.0-3.11","","null","","<div class='trialBorder'><div class='vertical-center'><img style='vertical-align:center; align:center' src=img/fixation3.jpg></div><div class='cl'><div class='vertical-center'>$35<br>in<br>3 weeks</div></div><div class='cr'><div class='vertical-center'><font style='color:orange'>$24<br><br>now</font></div></div><div class='respDivL'><div class='vertical-center'>(E)</div></div><div class='respDivR'><div class='vertical-center'><font style='color:orange'>(I)</font></div></div></div>","null","$24<br><br>now","$35<br>in<br>3 weeks","1","24","35","3",""
"","","","FIX","636598a7a571403968d03bf2","bdp_td","Wed Mar 29 2023 18:41:38 GMT-0400 (Eastern Daylight Time)","129568","html-keyboard-response","41","81756","0.0-5.0-1.12","","null","","<div class='trialBorder'><div class='vertical-center'><img style='vertical-align:center; align:center' src=img/fixation3.jpg></div></div>","null","","","","","","",""
"","","","offer","636598a7a571403968d03bf2","bdp_td","Wed Mar 29 2023 18:41:38 GMT-0400 (Eastern Daylight Time)","129568","html-keyboard-response","42","83676","0.0-5.0-2.12","","1920","","<div class='trialBorder'><div class='vertical-center'><img style='vertical-align:center; align:center' src=img/fixation3.jpg></div><div class='cl'><div class='vertical-center'>$55<br>in<br>6 weeks</div></div><div class='cr'><div class='vertical-center'>$40<br><br>now</div></div><div class='respDivL'><div class='vertical-center'>(E)</div></div><div class='respDivR'><div class='vertical-center'>(I)</div></div></div>","I","$40<br><br>now","$55<br>in<br>6 weeks","1","40","55","6","NOW"
"","","","offerFB","636598a7a571403968d03bf2","bdp_td","Wed Mar 29 2023 18:41:38 GMT-0400 (Eastern Daylight Time)","129568","html-keyboard-response","43","83929","0.0-5.0-3.12","","null","","<div class='trialBorder'><div class='vertical-center'><img style='vertical-align:center; align:center' src=img/fixation3.jpg></div><div class='cl'><div class='vertical-center'>$55<br>in<br>6 weeks</div></div><div class='cr'><div class='vertical-center'><font style='color:orange'>$40<br><br>now</font></div></div><div class='respDivL'><div class='vertical-center'>(E)</div></div><div class='respDivR'><div class='vertical-center'><font style='color:orange'>(I)</font></div></div></div>","null","$40<br><br>now","$55<br>in<br>6 weeks","1","40","55","6",""
"","","","FIX","636598a7a571403968d03bf2","bdp_td","Wed Mar 29 2023 18:41:38 GMT-0400 (Eastern Daylight Time)","129568","html-keyboard-response","44","84445","0.0-5.0-1.13","","null","","<div class='trialBorder'><div class='vertical-center'><img style='vertical-align:center; align:center' src=img/fixation3.jpg></div></div>","null","","","","","","",""
"","","","offer","636598a7a571403968d03bf2","bdp_td","Wed Mar 29 2023 18:41:38 GMT-0400 (Eastern Daylight Time)","129568","html-keyboard-response","45","87491","0.0-5.0-2.13","","3046","","<div class='trialBorder'><div class='vertical-center'><img style='vertical-align:center; align:center' src=img/fixation3.jpg></div><div class='cl'><div class='vertical-center'>$75<br>in<br>12 weeks</div></div><div class='cr'><div class='vertical-center'>$67<br><br>now</div></div><div class='respDivL'><div class='vertical-center'>(E)</div></div><div class='respDivR'><div class='vertical-center'>(I)</div></div></div>","I","$67<br><br>now","$75<br>in<br>12 weeks","1","67","75","12","NOW"
"","","","offerFB","636598a7a571403968d03bf2","bdp_td","Wed Mar 29 2023 18:41:38 GMT-0400 (Eastern Daylight Time)","129568","html-keyboard-response","46","87752","0.0-5.0-3.13","","null","","<div class='trialBorder'><div class='vertical-center'><img style='vertical-align:center; align:center' src=img/fixation3.jpg></div><div class='cl'><div class='vertical-center'>$75<br>in<br>12 weeks</div></div><div class='cr'><div class='vertical-center'><font style='color:orange'>$67<br><br>now</font></div></div><div class='respDivL'><div class='vertical-center'>(E)</div></div><div class='respDivR'><div class='vertical-center'><font style='color:orange'>(I)</font></div></div></div>","null","$67<br><br>now","$75<br>in<br>12 weeks","1","67","75","12",""
"","","","FIX","636598a7a571403968d03bf2","bdp_td","Wed Mar 29 2023 18:41:38 GMT-0400 (Eastern Daylight Time)","129568","html-keyboard-response","47","88267","0.0-5.0-1.14","","null","","<div class='trialBorder'><div class='vertical-center'><img style='vertical-align:center; align:center' src=img/fixation3.jpg></div></div>","null","","","","","","",""
"","","","offer","636598a7a571403968d03bf2","bdp_td","Wed Mar 29 2023 18:41:38 GMT-0400 (Eastern Daylight Time)","129568","html-keyboard-response","48","91084","0.0-5.0-2.14","","2816","","<div class='trialBorder'><div class='vertical-center'><img style='vertical-align:center; align:center' src=img/fixation3.jpg></div><div class='cl'><div class='vertical-center'>$54<br><br>now</div></div><div class='cr'><div class='vertical-center'>$80<br>in<br>3 weeks</div></div><div class='respDivL'><div class='vertical-center'>(E)</div></div><div class='respDivR'><div class='vertical-center'>(I)</div></div></div>","I","$54<br><br>now","$80<br>in<br>3 weeks","0","54","80","3","THEN"
"","","","offerFB","636598a7a571403968d03bf2","bdp_td","Wed Mar 29 2023 18:41:38 GMT-0400 (Eastern Daylight Time)","129568","html-keyboard-response","49","91344","0.0-5.0-3.14","","null","","<div class='trialBorder'><div class='vertical-center'><img style='vertical-align:center; align:center' src=img/fixation3.jpg></div><div class='cl'><div class='vertical-center'>$54<br><br>now</div></div><div class='cr'><div class='vertical-center'><font style='color:orange'>$80<br>in<br>3 weeks</font></div></div><div class='respDivL'><div class='vertical-center'>(E)</div></div><div class='respDivR'><div class='vertical-center'><font style='color:orange'>(I)</font></div></div></div>","null","$54<br><br>now","$80<br>in<br>3 weeks","0","54","80","3",""
"","","","FIX","636598a7a571403968d03bf2","bdp_td","Wed Mar 29 2023 18:41:38 GMT-0400 (Eastern Daylight Time)","129568","html-keyboard-response","50","91859","0.0-5.0-1.15","","null","","<div class='trialBorder'><div class='vertical-center'><img style='vertical-align:center; align:center' src=img/fixation3.jpg></div></div>","null","","","","","","",""
"","","","offer","636598a7a571403968d03bf2","bdp_td","Wed Mar 29 2023 18:41:38 GMT-0400 (Eastern Daylight Time)","129568","html-keyboard-response","51","93898","0.0-5.0-2.15","","2039","","<div class='trialBorder'><div class='vertical-center'><img style='vertical-align:center; align:center' src=img/fixation3.jpg></div><div class='cl'><div class='vertical-center'>$33<br><br>now</div></div><div class='cr'><div class='vertical-center'>$80<br>in<br>2 weeks</div></div><div class='respDivL'><div class='vertical-center'>(E)</div></div><div class='respDivR'><div class='vertical-center'>(I)</div></div></div>","I","$33<br><br>now","$80<br>in<br>2 weeks","0","33","80","2","THEN"
"","","","offerFB","636598a7a571403968d03bf2","bdp_td","Wed Mar 29 2023 18:41:38 GMT-0400 (Eastern Daylight Time)","129568","html-keyboard-response","52","94151","0.0-5.0-3.15","","null","","<div class='trialBorder'><div class='vertical-center'><img style='vertical-align:center; align:center' src=img/fixation3.jpg></div><div class='cl'><div class='vertical-center'>$33<br><br>now</div></div><div class='cr'><div class='vertical-center'><font style='color:orange'>$80<br>in<br>2 weeks</font></div></div><div class='respDivL'><div class='vertical-center'>(E)</div></div><div class='respDivR'><div class='vertical-center'><font style='color:orange'>(I)</font></div></div></div>","null","$33<br><br>now","$80<br>in<br>2 weeks","0","33","80","2",""
"","","","FIX","636598a7a571403968d03bf2","bdp_td","Wed Mar 29 2023 18:41:38 GMT-0400 (Eastern Daylight Time)","129568","html-keyboard-response","53","94666","0.0-5.0-1.16","","null","","<div class='trialBorder'><div class='vertical-center'><img style='vertical-align:center; align:center' src=img/fixation3.jpg></div></div>","null","","","","","","",""
"","","","offer","636598a7a571403968d03bf2","bdp_td","Wed Mar 29 2023 18:41:38 GMT-0400 (Eastern Daylight Time)","129568","html-keyboard-response","54","96379","0.0-5.0-2.16","","1712","","<div class='trialBorder'><div class='vertical-center'><img style='vertical-align:center; align:center' src=img/fixation3.jpg></div><div class='cl'><div class='vertical-center'>$78<br><br>now</div></div><div class='cr'><div class='vertical-center'>$80<br>in<br>12 weeks</div></div><div class='respDivL'><div class='vertical-center'>(E)</div></div><div class='respDivR'><div class='vertical-center'>(I)</div></div></div>","E","$78<br><br>now","$80<br>in<br>12 weeks","0","78","80","12","NOW"
"","","","offerFB","636598a7a571403968d03bf2","bdp_td","Wed Mar 29 2023 18:41:38 GMT-0400 (Eastern Daylight Time)","129568","html-keyboard-response","55","96630","0.0-5.0-3.16","","null","","<div class='trialBorder'><div class='vertical-center'><img style='vertical-align:center; align:center' src=img/fixation3.jpg></div><div class='cl'><div class='vertical-center'><font style='color:orange'>$78<br><br>now</font></div></div><div class='cr'><div class='vertical-center'>$80<br>in<br>12 weeks</div></div><div class='respDivL'><div class='vertical-center'><font style='color:orange'>(E)</font></div></div><div class='respDivR'><div class='vertical-center'>(I)</div></div></div>","null","$78<br><br>now","$80<br>in<br>12 weeks","0","78","80","12",""
"","","","FIX","636598a7a571403968d03bf2","bdp_td","Wed Mar 29 2023 18:41:38 GMT-0400 (Eastern Daylight Time)","129568","html-keyboard-response","56","97144","0.0-5.0-1.17","","null","","<div class='trialBorder'><div class='vertical-center'><img style='vertical-align:center; align:center' src=img/fixation3.jpg></div></div>","null","","","","","","",""
"","","","offer","636598a7a571403968d03bf2","bdp_td","Wed Mar 29 2023 18:41:38 GMT-0400 (Eastern Daylight Time)","129568","html-keyboard-response","57","98618","0.0-5.0-2.17","","1473","","<div class='trialBorder'><div class='vertical-center'><img style='vertical-align:center; align:center' src=img/fixation3.jpg></div><div class='cl'><div class='vertical-center'>$31<br><br>now</div></div><div class='cr'><div class='vertical-center'>$85<br>in<br>1 week</div></div><div class='respDivL'><div class='vertical-center'>(E)</div></div><div class='respDivR'><div class='vertical-center'>(I)</div></div></div>","I","$31<br><br>now","$85<br>in<br>1 week","0","31","85","1","THEN"
"","","","offerFB","636598a7a571403968d03bf2","bdp_td","Wed Mar 29 2023 18:41:38 GMT-0400 (Eastern Daylight Time)","129568","html-keyboard-response","58","98871","0.0-5.0-3.17","","null","","<div class='trialBorder'><div class='vertical-center'><img style='vertical-align:center; align:center' src=img/fixation3.jpg></div><div class='cl'><div class='vertical-center'>$31<br><br>now</div></div><div class='cr'><div class='vertical-center'><font style='color:orange'>$85<br>in<br>1 week</font></div></div><div class='respDivL'><div class='vertical-center'>(E)</div></div><div class='respDivR'><div class='vertical-center'><font style='color:orange'>(I)</font></div></div></div>","null","$31<br><br>now","$85<br>in<br>1 week","0","31","85","1",""
"","","","FIX","636598a7a571403968d03bf2","bdp_td","Wed Mar 29 2023 18:41:38 GMT-0400 (Eastern Daylight Time)","129568","html-keyboard-response","59","99382","0.0-5.0-1.18","","null","","<div class='trialBorder'><div class='vertical-center'><img style='vertical-align:center; align:center' src=img/fixation3.jpg></div></div>","null","","","","","","",""
"","","","offer","636598a7a571403968d03bf2","bdp_td","Wed Mar 29 2023 18:41:38 GMT-0400 (Eastern Daylight Time)","129568","html-keyboard-response","60","101019","0.0-5.0-2.18","","1636","","<div class='trialBorder'><div class='vertical-center'><img style='vertical-align:center; align:center' src=img/fixation3.jpg></div><div class='cl'><div class='vertical-center'>$34<br><br>now</div></div><div class='cr'><div class='vertical-center'>$50<br>in<br>6 weeks</div></div><div class='respDivL'><div class='vertical-center'>(E)</div></div><div class='respDivR'><div class='vertical-center'>(I)</div></div></div>","E","$34<br><br>now","$50<br>in<br>6 weeks","0","34","50","6","NOW"
"","","","offerFB","636598a7a571403968d03bf2","bdp_td","Wed Mar 29 2023 18:41:38 GMT-0400 (Eastern Daylight Time)","129568","html-keyboard-response","61","101286","0.0-5.0-3.18","","null","","<div class='trialBorder'><div class='vertical-center'><img style='vertical-align:center; align:center' src=img/fixation3.jpg></div><div class='cl'><div class='vertical-center'><font style='color:orange'>$34<br><br>now</font></div></div><div class='cr'><div class='vertical-center'>$50<br>in<br>6 weeks</div></div><div class='respDivL'><div class='vertical-center'><font style='color:orange'>(E)</font></div></div><div class='respDivR'><div class='vertical-center'>(I)</div></div></div>","null","$34<br><br>now","$50<br>in<br>6 weeks","0","34","50","6",""
"","","","FIX","636598a7a571403968d03bf2","bdp_td","Wed Mar 29 2023 18:41:38 GMT-0400 (Eastern Daylight Time)","129568","html-keyboard-response","62","101790","0.0-5.0-1.19","","null","","<div class='trialBorder'><div class='vertical-center'><img style='vertical-align:center; align:center' src=img/fixation3.jpg></div></div>","null","","","","","","",""
"","","","offer","636598a7a571403968d03bf2","bdp_td","Wed Mar 29 2023 18:41:38 GMT-0400 (Eastern Daylight Time)","129568","html-keyboard-response","63","103516","0.0-5.0-2.19","","1726","","<div class='trialBorder'><div class='vertical-center'><img style='vertical-align:center; align:center' src=img/fixation3.jpg></div><div class='cl'><div class='vertical-center'>$60<br>in<br>6 weeks</div></div><div class='cr'><div class='vertical-center'>$49<br><br>now</div></div><div class='respDivL'><div class='vertical-center'>(E)</div></div><div class='respDivR'><div class='vertical-center'>(I)</div></div></div>","E","$49<br><br>now","$60<br>in<br>6 weeks","1","49","60","6","THEN"
"","","","offerFB","636598a7a571403968d03bf2","bdp_td","Wed Mar 29 2023 18:41:38 GMT-0400 (Eastern Daylight Time)","129568","html-keyboard-response","64","103771","0.0-5.0-3.19","","null","","<div class='trialBorder'><div class='vertical-center'><img style='vertical-align:center; align:center' src=img/fixation3.jpg></div><div class='cl'><div class='vertical-center'><font style='color:orange'>$60<br>in<br>6 weeks</font></div></div><div class='cr'><div class='vertical-center'>$49<br><br>now</div></div><div class='respDivL'><div class='vertical-center'><font style='color:orange'>(E)</font></div></div><div class='respDivR'><div class='vertical-center'>(I)</div></div></div>","null","$49<br><br>now","$60<br>in<br>6 weeks","1","49","60","6",""
"","","","FIX","636598a7a571403968d03bf2","bdp_td","Wed Mar 29 2023 18:41:38 GMT-0400 (Eastern Daylight Time)","129568","html-keyboard-response","65","104289","0.0-5.0-1.20","","null","","<div class='trialBorder'><div class='vertical-center'><img style='vertical-align:center; align:center' src=img/fixation3.jpg></div></div>","null","","","","","","",""
"","","","offer","636598a7a571403968d03bf2","bdp_td","Wed Mar 29 2023 18:41:38 GMT-0400 (Eastern Daylight Time)","129568","html-keyboard-response","66","105420","0.0-5.0-2.20","","1131","","<div class='trialBorder'><div class='vertical-center'><img style='vertical-align:center; align:center' src=img/fixation3.jpg></div><div class='cl'><div class='vertical-center'>$27<br><br>now</div></div><div class='cr'><div class='vertical-center'>$50<br>in<br>3 weeks</div></div><div class='respDivL'><div class='vertical-center'>(E)</div></div><div class='respDivR'><div class='vertical-center'>(I)</div></div></div>","I","$27<br><br>now","$50<br>in<br>3 weeks","0","27","50","3","THEN"
"","","","offerFB","636598a7a571403968d03bf2","bdp_td","Wed Mar 29 2023 18:41:38 GMT-0400 (Eastern Daylight Time)","129568","html-keyboard-response","67","105686","0.0-5.0-3.20","","null","","<div class='trialBorder'><div class='vertical-center'><img style='vertical-align:center; align:center' src=img/fixation3.jpg></div><div class='cl'><div class='vertical-center'>$27<br><br>now</div></div><div class='cr'><div class='vertical-center'><font style='color:orange'>$50<br>in<br>3 weeks</font></div></div><div class='respDivL'><div class='vertical-center'>(E)</div></div><div class='respDivR'><div class='vertical-center'><font style='color:orange'>(I)</font></div></div></div>","null","$27<br><br>now","$50<br>in<br>3 weeks","0","27","50","3",""
"","","","FIX","636598a7a571403968d03bf2","bdp_td","Wed Mar 29 2023 18:41:38 GMT-0400 (Eastern Daylight Time)","129568","html-keyboard-response","68","106188","0.0-5.0-1.21","","null","","<div class='trialBorder'><div class='vertical-center'><img style='vertical-align:center; align:center' src=img/fixation3.jpg></div></div>","null","","","","","","",""
"","","","offer","636598a7a571403968d03bf2","bdp_td","Wed Mar 29 2023 18:41:38 GMT-0400 (Eastern Daylight Time)","129568","html-keyboard-response","69","109563","0.0-5.0-2.21","","3373","","<div class='trialBorder'><div class='vertical-center'><img style='vertical-align:center; align:center' src=img/fixation3.jpg></div><div class='cl'><div class='vertical-center'>$30<br>in<br>2 weeks</div></div><div class='cr'><div class='vertical-center'>$11<br><br>now</div></div><div class='respDivL'><div class='vertical-center'>(E)</div></div><div class='respDivR'><div class='vertical-center'>(I)</div></div></div>","I","$11<br><br>now","$30<br>in<br>2 weeks","1","11","30","2","NOW"
"","","","offerFB","636598a7a571403968d03bf2","bdp_td","Wed Mar 29 2023 18:41:38 GMT-0400 (Eastern Daylight Time)","129568","html-keyboard-response","70","109821","0.0-5.0-3.21","","null","","<div class='trialBorder'><div class='vertical-center'><img style='vertical-align:center; align:center' src=img/fixation3.jpg></div><div class='cl'><div class='vertical-center'>$30<br>in<br>2 weeks</div></div><div class='cr'><div class='vertical-center'><font style='color:orange'>$11<br><br>now</font></div></div><div class='respDivL'><div class='vertical-center'>(E)</div></div><div class='respDivR'><div class='vertical-center'><font style='color:orange'>(I)</font></div></div></div>","null","$11<br><br>now","$30<br>in<br>2 weeks","1","11","30","2",""
"","","","FIX","636598a7a571403968d03bf2","bdp_td","Wed Mar 29 2023 18:41:38 GMT-0400 (Eastern Daylight Time)","129568","html-keyboard-response","71","110335","0.0-5.0-1.22","","null","","<div class='trialBorder'><div class='vertical-center'><img style='vertical-align:center; align:center' src=img/fixation3.jpg></div></div>","null","","","","","","",""
"","","","offer","636598a7a571403968d03bf2","bdp_td","Wed Mar 29 2023 18:41:38 GMT-0400 (Eastern Daylight Time)","129568","html-keyboard-response","72","114637","0.0-5.0-2.22","","4300","","<div class='trialBorder'><div class='vertical-center'><img style='vertical-align:center; align:center' src=img/fixation3.jpg></div><div class='cl'><div class='vertical-center'>$25<br>in<br>3 weeks</div></div><div class='cr'><div class='vertical-center'>$14<br><br>now</div></div><div class='respDivL'><div class='vertical-center'>(E)</div></div><div class='respDivR'><div class='vertical-center'>(I)</div></div></div>","I","$14<br><br>now","$25<br>in<br>3 weeks","1","14","25","3","NOW"
"","","","offerFB","636598a7a571403968d03bf2","bdp_td","Wed Mar 29 2023 18:41:38 GMT-0400 (Eastern Daylight Time)","129568","html-keyboard-response","73","114889","0.0-5.0-3.22","","null","","<div class='trialBorder'><div class='vertical-center'><img style='vertical-align:center; align:center' src=img/fixation3.jpg></div><div class='cl'><div class='vertical-center'>$25<br>in<br>3 weeks</div></div><div class='cr'><div class='vertical-center'><font style='color:orange'>$14<br><br>now</font></div></div><div class='respDivL'><div class='vertical-center'>(E)</div></div><div class='respDivR'><div class='vertical-center'><font style='color:orange'>(I)</font></div></div></div>","null","$14<br><br>now","$25<br>in<br>3 weeks","1","14","25","3",""
"","","","FIX","636598a7a571403968d03bf2","bdp_td","Wed Mar 29 2023 18:41:38 GMT-0400 (Eastern Daylight Time)","129568","html-keyboard-response","74","115405","0.0-5.0-1.23","","null","","<div class='trialBorder'><div class='vertical-center'><img style='vertical-align:center; align:center' src=img/fixation3.jpg></div></div>","null","","","","","","",""
"","","","offer","636598a7a571403968d03bf2","bdp_td","Wed Mar 29 2023 18:41:38 GMT-0400 (Eastern Daylight Time)","129568","html-keyboard-response","75","116939","0.0-5.0-2.23","","1532","","<div class='trialBorder'><div class='vertical-center'><img style='vertical-align:center; align:center' src=img/fixation3.jpg></div><div class='cl'><div class='vertical-center'>$54<br><br>now</div></div><div class='cr'><div class='vertical-center'>$60<br>in<br>12 weeks</div></div><div class='respDivL'><div class='vertical-center'>(E)</div></div><div class='respDivR'><div class='vertical-center'>(I)</div></div></div>","E","$54<br><br>now","$60<br>in<br>12 weeks","0","54","60","12","NOW"
"","","","offerFB","636598a7a571403968d03bf2","bdp_td","Wed Mar 29 2023 18:41:38 GMT-0400 (Eastern Daylight Time)","129568","html-keyboard-response","76","117199","0.0-5.0-3.23","","null","","<div class='trialBorder'><div class='vertical-center'><img style='vertical-align:center; align:center' src=img/fixation3.jpg></div><div class='cl'><div class='vertical-center'><font style='color:orange'>$54<br><br>now</font></div></div><div class='cr'><div class='vertical-center'>$60<br>in<br>12 weeks</div></div><div class='respDivL'><div class='vertical-center'><font style='color:orange'>(E)</font></div></div><div class='respDivR'><div class='vertical-center'>(I)</div></div></div>","null","$54<br><br>now","$60<br>in<br>12 weeks","0","54","60","12",""
"","","","FIX","636598a7a571403968d03bf2","bdp_td","Wed Mar 29 2023 18:41:38 GMT-0400 (Eastern Daylight Time)","129568","html-keyboard-response","77","117711","0.0-5.0-1.24","","null","","<div class='trialBorder'><div class='vertical-center'><img style='vertical-align:center; align:center' src=img/fixation3.jpg></div></div>","null","","","","","","",""
"","","","offer","636598a7a571403968d03bf2","bdp_td","Wed Mar 29 2023 18:41:38 GMT-0400 (Eastern Daylight Time)","129568","html-keyboard-response","78","119795","0.0-5.0-2.24","","2083","","<div class='trialBorder'><div class='vertical-center'><img style='vertical-align:center; align:center' src=img/fixation3.jpg></div><div class='cl'><div class='vertical-center'>$20<br><br>now</div></div><div class='cr'><div class='vertical-center'>$55<br>in<br>1 week</div></div><div class='respDivL'><div class='vertical-center'>(E)</div></div><div class='respDivR'><div class='vertical-center'>(I)</div></div></div>","E","$20<br><br>now","$55<br>in<br>1 week","0","20","55","1","NOW"
"","","","offerFB","636598a7a571403968d03bf2","bdp_td","Wed Mar 29 2023 18:41:38 GMT-0400 (Eastern Daylight Time)","129568","html-keyboard-response","79","120063","0.0-5.0-3.24","","null","","<div class='trialBorder'><div class='vertical-center'><img style='vertical-align:center; align:center' src=img/fixation3.jpg></div><div class='cl'><div class='vertical-center'><font style='color:orange'>$20<br><br>now</font></div></div><div class='cr'><div class='vertical-center'>$55<br>in<br>1 week</div></div><div class='respDivL'><div class='vertical-center'><font style='color:orange'>(E)</font></div></div><div class='respDivR'><div class='vertical-center'>(I)</div></div></div>","null","$20<br><br>now","$55<br>in<br>1 week","0","20","55","1",""
"","","","FIX","636598a7a571403968d03bf2","bdp_td","Wed Mar 29 2023 18:41:38 GMT-0400 (Eastern Daylight Time)","129568","html-keyboard-response","80","120575","0.0-5.0-1.25","","null","","<div class='trialBorder'><div class='vertical-center'><img style='vertical-align:center; align:center' src=img/fixation3.jpg></div></div>","null","","","","","","",""
"","","","offer","636598a7a571403968d03bf2","bdp_td","Wed Mar 29 2023 18:41:38 GMT-0400 (Eastern Daylight Time)","129568","html-keyboard-response","81","124740","0.0-5.0-2.25","","4163","","<div class='trialBorder'><div class='vertical-center'><img style='vertical-align:center; align:center' src=img/fixation3.jpg></div><div class='cl'><div class='vertical-center'>$15<br><br>now</div></div><div class='cr'><div class='vertical-center'>$35<br>in<br>2 weeks</div></div><div class='respDivL'><div class='vertical-center'>(E)</div></div><div class='respDivR'><div class='vertical-center'>(I)</div></div></div>","I","$15<br><br>now","$35<br>in<br>2 weeks","0","15","35","2","THEN"
"","","","offerFB","636598a7a571403968d03bf2","bdp_td","Wed Mar 29 2023 18:41:38 GMT-0400 (Eastern Daylight Time)","129568","html-keyboard-response","82","124997","0.0-5.0-3.25","","null","","<div class='trialBorder'><div class='vertical-center'><img style='vertical-align:center; align:center' src=img/fixation3.jpg></div><div class='cl'><div class='vertical-center'>$15<br><br>now</div></div><div class='cr'><div class='vertical-center'><font style='color:orange'>$35<br>in<br>2 weeks</font></div></div><div class='respDivL'><div class='vertical-center'>(E)</div></div><div class='respDivR'><div class='vertical-center'><font style='color:orange'>(I)</font></div></div></div>","null","$15<br><br>now","$35<br>in<br>2 weeks","0","15","35","2",""
"","","","FIX","636598a7a571403968d03bf2","bdp_td","Wed Mar 29 2023 18:41:38 GMT-0400 (Eastern Daylight Time)","129568","html-keyboard-response","83","125499","0.0-5.0-1.26","","null","","<div class='trialBorder'><div class='vertical-center'><img style='vertical-align:center; align:center' src=img/fixation3.jpg></div></div>","null","","","","","","",""
"","","","offer","636598a7a571403968d03bf2","bdp_td","Wed Mar 29 2023 18:41:38 GMT-0400 (Eastern Daylight Time)","129568","html-keyboard-response","84","128293","0.0-5.0-2.26","","2793","","<div class='trialBorder'><div class='vertical-center'><img style='vertical-align:center; align:center' src=img/fixation3.jpg></div><div class='cl'><div class='vertical-center'>$54<br><br>now</div></div><div class='cr'><div class='vertical-center'>$55<br>in<br>12 weeks</div></div><div class='respDivL'><div class='vertical-center'>(E)</div></div><div class='respDivR'><div class='vertical-center'>(I)</div></div></div>","E","$54<br><br>now","$55<br>in<br>12 weeks","0","54","55","12","NOW"
"","","","offerFB","636598a7a571403968d03bf2","bdp_td","Wed Mar 29 2023 18:41:38 GMT-0400 (Eastern Daylight Time)","129568","html-keyboard-response","85","128561","0.0-5.0-3.26","","null","","<div class='trialBorder'><div class='vertical-center'><img style='vertical-align:center; align:center' src=img/fixation3.jpg></div><div class='cl'><div class='vertical-center'><font style='color:orange'>$54<br><br>now</font></div></div><div class='cr'><div class='vertical-center'>$55<br>in<br>12 weeks</div></div><div class='respDivL'><div class='vertical-center'><font style='color:orange'>(E)</font></div></div><div class='respDivR'><div class='vertical-center'>(I)</div></div></div>","null","$54<br><br>now","$55<br>in<br>12 weeks","0","54","55","12",""
"fullscreenexit","86","128775","fullscreenexit","636598a7a571403968d03bf2","bdp_td","Wed Mar 29 2023 18:41:38 GMT-0400 (Eastern Daylight Time)","129568","","","","","","","","","","","","","","","",""
"","","","","636598a7a571403968d03bf2","bdp_td","Wed Mar 29 2023 18:41:38 GMT-0400 (Eastern Daylight Time)","129568","fullscreen","86","129568","0.0-6.0","","","true","","","","","","","","",""
"","","","","","","","","html-keyboard-response","87","130080","0.0-7.0","","null","","","null","","","","","","",""
