"trial_type","trial_index","time_elapsed","internal_node_id","subject_id","task","startTime","totalTime","view_history","rt","event","trial","time","trialtype","success","stimulus","key_press","nowOffer","thenOffer","thenLeft","nowAmt","thenAmt","thenWeeks","chosen"
"pavlovia","0","2","0.0-0.0","63d7a9346e833b93500723d4","bdp_td","Sun Mar 26 2023 09:04:51 GMT-0400 (Eastern Daylight Time)","162432","","","","","","","","","","","","","","","",""
"instructions","1","2327","0.0-1.0","63d7a9346e833b93500723d4","bdp_td","Sun Mar 26 2023 09:04:51 GMT-0400 (Eastern Daylight Time)","162432","[{""page_index"":0,""viewing_time"":2325}]","2325","","","","","","","","","","","","","",""
"","","","","63d7a9346e833b93500723d4","bdp_td","Sun Mar 26 2023 09:04:51 GMT-0400 (Eastern Daylight Time)","162432","","","fullscreenenter","2","7875","fullscreenenter","","","","","","","","","",""
"fullscreen","2","8863","0.0-2.0","63d7a9346e833b93500723d4","bdp_td","Sun Mar 26 2023 09:04:51 GMT-0400 (Eastern Daylight Time)","162432","","","","","","","true","","","","","","","","",""
"instructions","3","57952","0.0-4.0","63d7a9346e833b93500723d4","bdp_td","Sun Mar 26 2023 09:04:51 GMT-0400 (Eastern Daylight Time)","162432","[{""page_index"":0,""viewing_time"":12415},{""page_index"":1,""viewing_time"":30409},{""page_index"":2,""viewing_time"":6263}]","49088","","","","","","","","","","","","","",""
"html-keyboard-response","4","58455","0.0-5.0-1.0","63d7a9346e833b93500723d4","bdp_td","Sun Mar 26 2023 09:04:51 GMT-0400 (Eastern Daylight Time)","162432","","null","","","","FIX","","<div class='trialBorder'><div class='vertical-center'><img style='vertical-align:center; align:center' src=img/fixation3.jpg></div></div>","null","","","","","","",""
"html-keyboard-response","5","61279","0.0-5.0-2.0","63d7a9346e833b93500723d4","bdp_td","Sun Mar 26 2023 09:04:51 GMT-0400 (Eastern Daylight Time)","162432","","2821","","","","offer","","<div class='trialBorder'><div class='vertical-center'><img style='vertical-align:center; align:center' src=img/fixation3.jpg></div><div class='cl'><div class='vertical-center'>$75<br>in<br>6 weeks</div></div><div class='cr'><div class='vertical-center'>$55<br><br>now</div></div><div class='respDivL'><div class='vertical-center'>(E)</div></div><div class='respDivR'><div class='vertical-center'>(I)</div></div></div>","I","$55<br><br>now","$75<br>in<br>6 weeks","1","55","75","6","NOW"
"html-keyboard-response","6","61533","0.0-5.0-3.0","63d7a9346e833b93500723d4","bdp_td","Sun Mar 26 2023 09:04:51 GMT-0400 (Eastern Daylight Time)","162432","","null","","","","offerFB","","<div class='trialBorder'><div class='vertical-center'><img style='vertical-align:center; align:center' src=img/fixation3.jpg></div><div class='cl'><div class='vertical-center'>$75<br>in<br>6 weeks</div></div><div class='cr'><div class='vertical-center'><font style='color:orange'>$55<br><br>now</font></div></div><div class='respDivL'><div class='vertical-center'>(E)</div></div><div class='respDivR'><div class='vertical-center'><font style='color:orange'>(I)</font></div></div></div>","null","$55<br><br>now","$75<br>in<br>6 weeks","1","55","75","6",""
"html-keyboard-response","7","62036","0.0-5.0-1.1","63d7a9346e833b93500723d4","bdp_td","Sun Mar 26 2023 09:04:51 GMT-0400 (Eastern Daylight Time)","162432","","null","","","","FIX","","<div class='trialBorder'><div class='vertical-center'><img style='vertical-align:center; align:center' src=img/fixation3.jpg></div></div>","null","","","","","","",""
"html-keyboard-response","8","64893","0.0-5.0-2.1","63d7a9346e833b93500723d4","bdp_td","Sun Mar 26 2023 09:04:51 GMT-0400 (Eastern Daylight Time)","162432","","2856","","","","offer","","<div class='trialBorder'><div class='vertical-center'><img style='vertical-align:center; align:center' src=img/fixation3.jpg></div><div class='cl'><div class='vertical-center'>$80<br>in<br>3 weeks</div></div><div class='cr'><div class='vertical-center'>$54<br><br>now</div></div><div class='respDivL'><div class='vertical-center'>(E)</div></div><div class='respDivR'><div class='vertical-center'>(I)</div></div></div>","E","$54<br><br>now","$80<br>in<br>3 weeks","1","54","80","3","THEN"
"html-keyboard-response","9","65145","0.0-5.0-3.1","63d7a9346e833b93500723d4","bdp_td","Sun Mar 26 2023 09:04:51 GMT-0400 (Eastern Daylight Time)","162432","","null","","","","offerFB","","<div class='trialBorder'><div class='vertical-center'><img style='vertical-align:center; align:center' src=img/fixation3.jpg></div><div class='cl'><div class='vertical-center'><font style='color:orange'>$80<br>in<br>3 weeks</font></div></div><div class='cr'><div class='vertical-center'>$54<br><br>now</div></div><div class='respDivL'><div class='vertical-center'><font style='color:orange'>(E)</font></div></div><div class='respDivR'><div class='vertical-center'>(I)</div></div></div>","null","$54<br><br>now","$80<br>in<br>3 weeks","1","54","80","3",""
"html-keyboard-response","10","65646","0.0-5.0-1.2","63d7a9346e833b93500723d4","bdp_td","Sun Mar 26 2023 09:04:51 GMT-0400 (Eastern Daylight Time)","162432","","null","","","","FIX","","<div class='trialBorder'><div class='vertical-center'><img style='vertical-align:center; align:center' src=img/fixation3.jpg></div></div>","null","","","","","","",""
"html-keyboard-response","11","68535","0.0-5.0-2.2","63d7a9346e833b93500723d4","bdp_td","Sun Mar 26 2023 09:04:51 GMT-0400 (Eastern Daylight Time)","162432","","2886","","","","offer","","<div class='trialBorder'><div class='vertical-center'><img style='vertical-align:center; align:center' src=img/fixation3.jpg></div><div class='cl'><div class='vertical-center'>$85<br>in<br>1 week</div></div><div class='cr'><div class='vertical-center'>$31<br><br>now</div></div><div class='respDivL'><div class='vertical-center'>(E)</div></div><div class='respDivR'><div class='vertical-center'>(I)</div></div></div>","E","$31<br><br>now","$85<br>in<br>1 week","1","31","85","1","THEN"
"html-keyboard-response","12","68788","0.0-5.0-3.2","63d7a9346e833b93500723d4","bdp_td","Sun Mar 26 2023 09:04:51 GMT-0400 (Eastern Daylight Time)","162432","","null","","","","offerFB","","<div class='trialBorder'><div class='vertical-center'><img style='vertical-align:center; align:center' src=img/fixation3.jpg></div><div class='cl'><div class='vertical-center'><font style='color:orange'>$85<br>in<br>1 week</font></div></div><div class='cr'><div class='vertical-center'>$31<br><br>now</div></div><div class='respDivL'><div class='vertical-center'><font style='color:orange'>(E)</font></div></div><div class='respDivR'><div class='vertical-center'>(I)</div></div></div>","null","$31<br><br>now","$85<br>in<br>1 week","1","31","85","1",""
"html-keyboard-response","13","69290","0.0-5.0-1.3","63d7a9346e833b93500723d4","bdp_td","Sun Mar 26 2023 09:04:51 GMT-0400 (Eastern Daylight Time)","162432","","null","","","","FIX","","<div class='trialBorder'><div class='vertical-center'><img style='vertical-align:center; align:center' src=img/fixation3.jpg></div></div>","null","","","","","","",""
"html-keyboard-response","14","70695","0.0-5.0-2.3","63d7a9346e833b93500723d4","bdp_td","Sun Mar 26 2023 09:04:51 GMT-0400 (Eastern Daylight Time)","162432","","1403","","","","offer","","<div class='trialBorder'><div class='vertical-center'><img style='vertical-align:center; align:center' src=img/fixation3.jpg></div><div class='cl'><div class='vertical-center'>$25<br>in<br>6 weeks</div></div><div class='cr'><div class='vertical-center'>$19<br><br>now</div></div><div class='respDivL'><div class='vertical-center'>(E)</div></div><div class='respDivR'><div class='vertical-center'>(I)</div></div></div>","I","$19<br><br>now","$25<br>in<br>6 weeks","1","19","25","6","NOW"
"html-keyboard-response","15","70947","0.0-5.0-3.3","63d7a9346e833b93500723d4","bdp_td","Sun Mar 26 2023 09:04:51 GMT-0400 (Eastern Daylight Time)","162432","","null","","","","offerFB","","<div class='trialBorder'><div class='vertical-center'><img style='vertical-align:center; align:center' src=img/fixation3.jpg></div><div class='cl'><div class='vertical-center'>$25<br>in<br>6 weeks</div></div><div class='cr'><div class='vertical-center'><font style='color:orange'>$19<br><br>now</font></div></div><div class='respDivL'><div class='vertical-center'>(E)</div></div><div class='respDivR'><div class='vertical-center'><font style='color:orange'>(I)</font></div></div></div>","null","$19<br><br>now","$25<br>in<br>6 weeks","1","19","25","6",""
"html-keyboard-response","16","71449","0.0-5.0-1.4","63d7a9346e833b93500723d4","bdp_td","Sun Mar 26 2023 09:04:51 GMT-0400 (Eastern Daylight Time)","162432","","null","","","","FIX","","<div class='trialBorder'><div class='vertical-center'><img style='vertical-align:center; align:center' src=img/fixation3.jpg></div></div>","null","","","","","","",""
"html-keyboard-response","17","73614","0.0-5.0-2.4","63d7a9346e833b93500723d4","bdp_td","Sun Mar 26 2023 09:04:51 GMT-0400 (Eastern Daylight Time)","162432","","2164","","","","offer","","<div class='trialBorder'><div class='vertical-center'><img style='vertical-align:center; align:center' src=img/fixation3.jpg></div><div class='cl'><div class='vertical-center'>$60<br>in<br>6 weeks</div></div><div class='cr'><div class='vertical-center'>$49<br><br>now</div></div><div class='respDivL'><div class='vertical-center'>(E)</div></div><div class='respDivR'><div class='vertical-center'>(I)</div></div></div>","I","$49<br><br>now","$60<br>in<br>6 weeks","1","49","60","6","NOW"
"html-keyboard-response","18","73868","0.0-5.0-3.4","63d7a9346e833b93500723d4","bdp_td","Sun Mar 26 2023 09:04:51 GMT-0400 (Eastern Daylight Time)","162432","","null","","","","offerFB","","<div class='trialBorder'><div class='vertical-center'><img style='vertical-align:center; align:center' src=img/fixation3.jpg></div><div class='cl'><div class='vertical-center'>$60<br>in<br>6 weeks</div></div><div class='cr'><div class='vertical-center'><font style='color:orange'>$49<br><br>now</font></div></div><div class='respDivL'><div class='vertical-center'>(E)</div></div><div class='respDivR'><div class='vertical-center'><font style='color:orange'>(I)</font></div></div></div>","null","$49<br><br>now","$60<br>in<br>6 weeks","1","49","60","6",""
"html-keyboard-response","19","74370","0.0-5.0-1.5","63d7a9346e833b93500723d4","bdp_td","Sun Mar 26 2023 09:04:51 GMT-0400 (Eastern Daylight Time)","162432","","null","","","","FIX","","<div class='trialBorder'><div class='vertical-center'><img style='vertical-align:center; align:center' src=img/fixation3.jpg></div></div>","null","","","","","","",""
"html-keyboard-response","20","77704","0.0-5.0-2.5","63d7a9346e833b93500723d4","bdp_td","Sun Mar 26 2023 09:04:51 GMT-0400 (Eastern Daylight Time)","162432","","3333","","","","offer","","<div class='trialBorder'><div class='vertical-center'><img style='vertical-align:center; align:center' src=img/fixation3.jpg></div><div class='cl'><div class='vertical-center'>$80<br>in<br>12 weeks</div></div><div class='cr'><div class='vertical-center'>$78<br><br>now</div></div><div class='respDivL'><div class='vertical-center'>(E)</div></div><div class='respDivR'><div class='vertical-center'>(I)</div></div></div>","I","$78<br><br>now","$80<br>in<br>12 weeks","1","78","80","12","NOW"
"html-keyboard-response","21","77958","0.0-5.0-3.5","63d7a9346e833b93500723d4","bdp_td","Sun Mar 26 2023 09:04:51 GMT-0400 (Eastern Daylight Time)","162432","","null","","","","offerFB","","<div class='trialBorder'><div class='vertical-center'><img style='vertical-align:center; align:center' src=img/fixation3.jpg></div><div class='cl'><div class='vertical-center'>$80<br>in<br>12 weeks</div></div><div class='cr'><div class='vertical-center'><font style='color:orange'>$78<br><br>now</font></div></div><div class='respDivL'><div class='vertical-center'>(E)</div></div><div class='respDivR'><div class='vertical-center'><font style='color:orange'>(I)</font></div></div></div>","null","$78<br><br>now","$80<br>in<br>12 weeks","1","78","80","12",""
"html-keyboard-response","22","78459","0.0-5.0-1.6","63d7a9346e833b93500723d4","bdp_td","Sun Mar 26 2023 09:04:51 GMT-0400 (Eastern Daylight Time)","162432","","null","","","","FIX","","<div class='trialBorder'><div class='vertical-center'><img style='vertical-align:center; align:center' src=img/fixation3.jpg></div></div>","null","","","","","","",""
"html-keyboard-response","23","82039","0.0-5.0-2.6","63d7a9346e833b93500723d4","bdp_td","Sun Mar 26 2023 09:04:51 GMT-0400 (Eastern Daylight Time)","162432","","3578","","","","offer","","<div class='trialBorder'><div class='vertical-center'><img style='vertical-align:center; align:center' src=img/fixation3.jpg></div><div class='cl'><div class='vertical-center'>$55<br>in<br>6 weeks</div></div><div class='cr'><div class='vertical-center'>$40<br><br>now</div></div><div class='respDivL'><div class='vertical-center'>(E)</div></div><div class='respDivR'><div class='vertical-center'>(I)</div></div></div>","I","$40<br><br>now","$55<br>in<br>6 weeks","1","40","55","6","NOW"
"html-keyboard-response","24","82291","0.0-5.0-3.6","63d7a9346e833b93500723d4","bdp_td","Sun Mar 26 2023 09:04:51 GMT-0400 (Eastern Daylight Time)","162432","","null","","","","offerFB","","<div class='trialBorder'><div class='vertical-center'><img style='vertical-align:center; align:center' src=img/fixation3.jpg></div><div class='cl'><div class='vertical-center'>$55<br>in<br>6 weeks</div></div><div class='cr'><div class='vertical-center'><font style='color:orange'>$40<br><br>now</font></div></div><div class='respDivL'><div class='vertical-center'>(E)</div></div><div class='respDivR'><div class='vertical-center'><font style='color:orange'>(I)</font></div></div></div>","null","$40<br><br>now","$55<br>in<br>6 weeks","1","40","55","6",""
"html-keyboard-response","25","82793","0.0-5.0-1.7","63d7a9346e833b93500723d4","bdp_td","Sun Mar 26 2023 09:04:51 GMT-0400 (Eastern Daylight Time)","162432","","null","","","","FIX","","<div class='trialBorder'><div class='vertical-center'><img style='vertical-align:center; align:center' src=img/fixation3.jpg></div></div>","null","","","","","","",""
"html-keyboard-response","26","85743","0.0-5.0-2.7","63d7a9346e833b93500723d4","bdp_td","Sun Mar 26 2023 09:04:51 GMT-0400 (Eastern Daylight Time)","162432","","2949","","","","offer","","<div class='trialBorder'><div class='vertical-center'><img style='vertical-align:center; align:center' src=img/fixation3.jpg></div><div class='cl'><div class='vertical-center'>$35<br>in<br>3 weeks</div></div><div class='cr'><div class='vertical-center'>$24<br><br>now</div></div><div class='respDivL'><div class='vertical-center'>(E)</div></div><div class='respDivR'><div class='vertical-center'>(I)</div></div></div>","I","$24<br><br>now","$35<br>in<br>3 weeks","1","24","35","3","NOW"
"html-keyboard-response","27","85995","0.0-5.0-3.7","63d7a9346e833b93500723d4","bdp_td","Sun Mar 26 2023 09:04:51 GMT-0400 (Eastern Daylight Time)","162432","","null","","","","offerFB","","<div class='trialBorder'><div class='vertical-center'><img style='vertical-align:center; align:center' src=img/fixation3.jpg></div><div class='cl'><div class='vertical-center'>$35<br>in<br>3 weeks</div></div><div class='cr'><div class='vertical-center'><font style='color:orange'>$24<br><br>now</font></div></div><div class='respDivL'><div class='vertical-center'>(E)</div></div><div class='respDivR'><div class='vertical-center'><font style='color:orange'>(I)</font></div></div></div>","null","$24<br><br>now","$35<br>in<br>3 weeks","1","24","35","3",""
"html-keyboard-response","28","86496","0.0-5.0-1.8","63d7a9346e833b93500723d4","bdp_td","Sun Mar 26 2023 09:04:51 GMT-0400 (Eastern Daylight Time)","162432","","null","","","","FIX","","<div class='trialBorder'><div class='vertical-center'><img style='vertical-align:center; align:center' src=img/fixation3.jpg></div></div>","null","","","","","","",""
"html-keyboard-response","29","88560","0.0-5.0-2.8","63d7a9346e833b93500723d4","bdp_td","Sun Mar 26 2023 09:04:51 GMT-0400 (Eastern Daylight Time)","162432","","2064","","","","offer","","<div class='trialBorder'><div class='vertical-center'><img style='vertical-align:center; align:center' src=img/fixation3.jpg></div><div class='cl'><div class='vertical-center'>$67<br><br>now</div></div><div class='cr'><div class='vertical-center'>$75<br>in<br>12 weeks</div></div><div class='respDivL'><div class='vertical-center'>(E)</div></div><div class='respDivR'><div class='vertical-center'>(I)</div></div></div>","E","$67<br><br>now","$75<br>in<br>12 weeks","0","67","75","12","NOW"
"html-keyboard-response","30","88813","0.0-5.0-3.8","63d7a9346e833b93500723d4","bdp_td","Sun Mar 26 2023 09:04:51 GMT-0400 (Eastern Daylight Time)","162432","","null","","","","offerFB","","<div class='trialBorder'><div class='vertical-center'><img style='vertical-align:center; align:center' src=img/fixation3.jpg></div><div class='cl'><div class='vertical-center'><font style='color:orange'>$67<br><br>now</font></div></div><div class='cr'><div class='vertical-center'>$75<br>in<br>12 weeks</div></div><div class='respDivL'><div class='vertical-center'><font style='color:orange'>(E)</font></div></div><div class='respDivR'><div class='vertical-center'>(I)</div></div></div>","null","$67<br><br>now","$75<br>in<br>12 weeks","0","67","75","12",""
"html-keyboard-response","31","89314","0.0-5.0-1.9","63d7a9346e833b93500723d4","bdp_td","Sun Mar 26 2023 09:04:51 GMT-0400 (Eastern Daylight Time)","162432","","null","","","","FIX","","<div class='trialBorder'><div class='vertical-center'><img style='vertical-align:center; align:center' src=img/fixation3.jpg></div></div>","null","","","","","","",""
"html-keyboard-response","32","90798","0.0-5.0-2.9","63d7a9346e833b93500723d4","bdp_td","Sun Mar 26 2023 09:04:51 GMT-0400 (Eastern Daylight Time)","162432","","1484","","","","offer","","<div class='trialBorder'><div class='vertical-center'><img style='vertical-align:center; align:center' src=img/fixation3.jpg></div><div class='cl'><div class='vertical-center'>$22<br><br>now</div></div><div class='cr'><div class='vertical-center'>$25<br>in<br>12 weeks</div></div><div class='respDivL'><div class='vertical-center'>(E)</div></div><div class='respDivR'><div class='vertical-center'>(I)</div></div></div>","E","$22<br><br>now","$25<br>in<br>12 weeks","0","22","25","12","NOW"
"html-keyboard-response","33","91051","0.0-5.0-3.9","63d7a9346e833b93500723d4","bdp_td","Sun Mar 26 2023 09:04:51 GMT-0400 (Eastern Daylight Time)","162432","","null","","","","offerFB","","<div class='trialBorder'><div class='vertical-center'><img style='vertical-align:center; align:center' src=img/fixation3.jpg></div><div class='cl'><div class='vertical-center'><font style='color:orange'>$22<br><br>now</font></div></div><div class='cr'><div class='vertical-center'>$25<br>in<br>12 weeks</div></div><div class='respDivL'><div class='vertical-center'><font style='color:orange'>(E)</font></div></div><div class='respDivR'><div class='vertical-center'>(I)</div></div></div>","null","$22<br><br>now","$25<br>in<br>12 weeks","0","22","25","12",""
"html-keyboard-response","34","91554","0.0-5.0-1.10","63d7a9346e833b93500723d4","bdp_td","Sun Mar 26 2023 09:04:51 GMT-0400 (Eastern Daylight Time)","162432","","null","","","","FIX","","<div class='trialBorder'><div class='vertical-center'><img style='vertical-align:center; align:center' src=img/fixation3.jpg></div></div>","null","","","","","","",""
"html-keyboard-response","35","95399","0.0-5.0-2.10","63d7a9346e833b93500723d4","bdp_td","Sun Mar 26 2023 09:04:51 GMT-0400 (Eastern Daylight Time)","162432","","3844","","","","offer","","<div class='trialBorder'><div class='vertical-center'><img style='vertical-align:center; align:center' src=img/fixation3.jpg></div><div class='cl'><div class='vertical-center'>$80<br>in<br>2 weeks</div></div><div class='cr'><div class='vertical-center'>$33<br><br>now</div></div><div class='respDivL'><div class='vertical-center'>(E)</div></div><div class='respDivR'><div class='vertical-center'>(I)</div></div></div>","E","$33<br><br>now","$80<br>in<br>2 weeks","1","33","80","2","THEN"
"html-keyboard-response","36","95652","0.0-5.0-3.10","63d7a9346e833b93500723d4","bdp_td","Sun Mar 26 2023 09:04:51 GMT-0400 (Eastern Daylight Time)","162432","","null","","","","offerFB","","<div class='trialBorder'><div class='vertical-center'><img style='vertical-align:center; align:center' src=img/fixation3.jpg></div><div class='cl'><div class='vertical-center'><font style='color:orange'>$80<br>in<br>2 weeks</font></div></div><div class='cr'><div class='vertical-center'>$33<br><br>now</div></div><div class='respDivL'><div class='vertical-center'><font style='color:orange'>(E)</font></div></div><div class='respDivR'><div class='vertical-center'>(I)</div></div></div>","null","$33<br><br>now","$80<br>in<br>2 weeks","1","33","80","2",""
"html-keyboard-response","37","96154","0.0-5.0-1.11","63d7a9346e833b93500723d4","bdp_td","Sun Mar 26 2023 09:04:51 GMT-0400 (Eastern Daylight Time)","162432","","null","","","","FIX","","<div class='trialBorder'><div class='vertical-center'><img style='vertical-align:center; align:center' src=img/fixation3.jpg></div></div>","null","","","","","","",""
"html-keyboard-response","38","101629","0.0-5.0-2.11","63d7a9346e833b93500723d4","bdp_td","Sun Mar 26 2023 09:04:51 GMT-0400 (Eastern Daylight Time)","162432","","5475","","","","offer","","<div class='trialBorder'><div class='vertical-center'><img style='vertical-align:center; align:center' src=img/fixation3.jpg></div><div class='cl'><div class='vertical-center'>$34<br><br>now</div></div><div class='cr'><div class='vertical-center'>$50<br>in<br>6 weeks</div></div><div class='respDivL'><div class='vertical-center'>(E)</div></div><div class='respDivR'><div class='vertical-center'>(I)</div></div></div>","E","$34<br><br>now","$50<br>in<br>6 weeks","0","34","50","6","NOW"
"html-keyboard-response","39","101881","0.0-5.0-3.11","63d7a9346e833b93500723d4","bdp_td","Sun Mar 26 2023 09:04:51 GMT-0400 (Eastern Daylight Time)","162432","","null","","","","offerFB","","<div class='trialBorder'><div class='vertical-center'><img style='vertical-align:center; align:center' src=img/fixation3.jpg></div><div class='cl'><div class='vertical-center'><font style='color:orange'>$34<br><br>now</font></div></div><div class='cr'><div class='vertical-center'>$50<br>in<br>6 weeks</div></div><div class='respDivL'><div class='vertical-center'><font style='color:orange'>(E)</font></div></div><div class='respDivR'><div class='vertical-center'>(I)</div></div></div>","null","$34<br><br>now","$50<br>in<br>6 weeks","0","34","50","6",""
"html-keyboard-response","40","102381","0.0-5.0-1.12","63d7a9346e833b93500723d4","bdp_td","Sun Mar 26 2023 09:04:51 GMT-0400 (Eastern Daylight Time)","162432","","null","","","","FIX","","<div class='trialBorder'><div class='vertical-center'><img style='vertical-align:center; align:center' src=img/fixation3.jpg></div></div>","null","","","","","","",""
"html-keyboard-response","41","108678","0.0-5.0-2.12","63d7a9346e833b93500723d4","bdp_td","Sun Mar 26 2023 09:04:51 GMT-0400 (Eastern Daylight Time)","162432","","6296","","","","offer","","<div class='trialBorder'><div class='vertical-center'><img style='vertical-align:center; align:center' src=img/fixation3.jpg></div><div class='cl'><div class='vertical-center'>$27<br><br>now</div></div><div class='cr'><div class='vertical-center'>$50<br>in<br>3 weeks</div></div><div class='respDivL'><div class='vertical-center'>(E)</div></div><div class='respDivR'><div class='vertical-center'>(I)</div></div></div>","E","$27<br><br>now","$50<br>in<br>3 weeks","0","27","50","3","NOW"
"html-keyboard-response","42","108932","0.0-5.0-3.12","63d7a9346e833b93500723d4","bdp_td","Sun Mar 26 2023 09:04:51 GMT-0400 (Eastern Daylight Time)","162432","","null","","","","offerFB","","<div class='trialBorder'><div class='vertical-center'><img style='vertical-align:center; align:center' src=img/fixation3.jpg></div><div class='cl'><div class='vertical-center'><font style='color:orange'>$27<br><br>now</font></div></div><div class='cr'><div class='vertical-center'>$50<br>in<br>3 weeks</div></div><div class='respDivL'><div class='vertical-center'><font style='color:orange'>(E)</font></div></div><div class='respDivR'><div class='vertical-center'>(I)</div></div></div>","null","$27<br><br>now","$50<br>in<br>3 weeks","0","27","50","3",""
"html-keyboard-response","43","109434","0.0-5.0-1.13","63d7a9346e833b93500723d4","bdp_td","Sun Mar 26 2023 09:04:51 GMT-0400 (Eastern Daylight Time)","162432","","null","","","","FIX","","<div class='trialBorder'><div class='vertical-center'><img style='vertical-align:center; align:center' src=img/fixation3.jpg></div></div>","null","","","","","","",""
"html-keyboard-response","44","113648","0.0-5.0-2.13","63d7a9346e833b93500723d4","bdp_td","Sun Mar 26 2023 09:04:51 GMT-0400 (Eastern Daylight Time)","162432","","4214","","","","offer","","<div class='trialBorder'><div class='vertical-center'><img style='vertical-align:center; align:center' src=img/fixation3.jpg></div><div class='cl'><div class='vertical-center'>$75<br>in<br>3 weeks</div></div><div class='cr'><div class='vertical-center'>$41<br><br>now</div></div><div class='respDivL'><div class='vertical-center'>(E)</div></div><div class='respDivR'><div class='vertical-center'>(I)</div></div></div>","E","$41<br><br>now","$75<br>in<br>3 weeks","1","41","75","3","THEN"
"html-keyboard-response","45","113901","0.0-5.0-3.13","63d7a9346e833b93500723d4","bdp_td","Sun Mar 26 2023 09:04:51 GMT-0400 (Eastern Daylight Time)","162432","","null","","","","offerFB","","<div class='trialBorder'><div class='vertical-center'><img style='vertical-align:center; align:center' src=img/fixation3.jpg></div><div class='cl'><div class='vertical-center'><font style='color:orange'>$75<br>in<br>3 weeks</font></div></div><div class='cr'><div class='vertical-center'>$41<br><br>now</div></div><div class='respDivL'><div class='vertical-center'><font style='color:orange'>(E)</font></div></div><div class='respDivR'><div class='vertical-center'>(I)</div></div></div>","null","$41<br><br>now","$75<br>in<br>3 weeks","1","41","75","3",""
"html-keyboard-response","46","114401","0.0-5.0-1.14","63d7a9346e833b93500723d4","bdp_td","Sun Mar 26 2023 09:04:51 GMT-0400 (Eastern Daylight Time)","162432","","null","","","","FIX","","<div class='trialBorder'><div class='vertical-center'><img style='vertical-align:center; align:center' src=img/fixation3.jpg></div></div>","null","","","","","","",""
"html-keyboard-response","47","117358","0.0-5.0-2.14","63d7a9346e833b93500723d4","bdp_td","Sun Mar 26 2023 09:04:51 GMT-0400 (Eastern Daylight Time)","162432","","2956","","","","offer","","<div class='trialBorder'><div class='vertical-center'><img style='vertical-align:center; align:center' src=img/fixation3.jpg></div><div class='cl'><div class='vertical-center'>$47<br><br>now</div></div><div class='cr'><div class='vertical-center'>$50<br>in<br>12 weeks</div></div><div class='respDivL'><div class='vertical-center'>(E)</div></div><div class='respDivR'><div class='vertical-center'>(I)</div></div></div>","E","$47<br><br>now","$50<br>in<br>12 weeks","0","47","50","12","NOW"
"html-keyboard-response","48","117611","0.0-5.0-3.14","63d7a9346e833b93500723d4","bdp_td","Sun Mar 26 2023 09:04:51 GMT-0400 (Eastern Daylight Time)","162432","","null","","","","offerFB","","<div class='trialBorder'><div class='vertical-center'><img style='vertical-align:center; align:center' src=img/fixation3.jpg></div><div class='cl'><div class='vertical-center'><font style='color:orange'>$47<br><br>now</font></div></div><div class='cr'><div class='vertical-center'>$50<br>in<br>12 weeks</div></div><div class='respDivL'><div class='vertical-center'><font style='color:orange'>(E)</font></div></div><div class='respDivR'><div class='vertical-center'>(I)</div></div></div>","null","$47<br><br>now","$50<br>in<br>12 weeks","0","47","50","12",""
"html-keyboard-response","49","118114","0.0-5.0-1.15","63d7a9346e833b93500723d4","bdp_td","Sun Mar 26 2023 09:04:51 GMT-0400 (Eastern Daylight Time)","162432","","null","","","","FIX","","<div class='trialBorder'><div class='vertical-center'><img style='vertical-align:center; align:center' src=img/fixation3.jpg></div></div>","null","","","","","","",""
"html-keyboard-response","50","123952","0.0-5.0-2.15","63d7a9346e833b93500723d4","bdp_td","Sun Mar 26 2023 09:04:51 GMT-0400 (Eastern Daylight Time)","162432","","5836","","","","offer","","<div class='trialBorder'><div class='vertical-center'><img style='vertical-align:center; align:center' src=img/fixation3.jpg></div><div class='cl'><div class='vertical-center'>$20<br><br>now</div></div><div class='cr'><div class='vertical-center'>$55<br>in<br>1 week</div></div><div class='respDivL'><div class='vertical-center'>(E)</div></div><div class='respDivR'><div class='vertical-center'>(I)</div></div></div>","I","$20<br><br>now","$55<br>in<br>1 week","0","20","55","1","THEN"
"html-keyboard-response","51","124206","0.0-5.0-3.15","63d7a9346e833b93500723d4","bdp_td","Sun Mar 26 2023 09:04:51 GMT-0400 (Eastern Daylight Time)","162432","","null","","","","offerFB","","<div class='trialBorder'><div class='vertical-center'><img style='vertical-align:center; align:center' src=img/fixation3.jpg></div><div class='cl'><div class='vertical-center'>$20<br><br>now</div></div><div class='cr'><div class='vertical-center'><font style='color:orange'>$55<br>in<br>1 week</font></div></div><div class='respDivL'><div class='vertical-center'>(E)</div></div><div class='respDivR'><div class='vertical-center'><font style='color:orange'>(I)</font></div></div></div>","null","$20<br><br>now","$55<br>in<br>1 week","0","20","55","1",""
"html-keyboard-response","52","124708","0.0-5.0-1.16","63d7a9346e833b93500723d4","bdp_td","Sun Mar 26 2023 09:04:51 GMT-0400 (Eastern Daylight Time)","162432","","null","","","","FIX","","<div class='trialBorder'><div class='vertical-center'><img style='vertical-align:center; align:center' src=img/fixation3.jpg></div></div>","null","","","","","","",""
"html-keyboard-response","53","126175","0.0-5.0-2.16","63d7a9346e833b93500723d4","bdp_td","Sun Mar 26 2023 09:04:51 GMT-0400 (Eastern Daylight Time)","162432","","1467","","","","offer","","<div class='trialBorder'><div class='vertical-center'><img style='vertical-align:center; align:center' src=img/fixation3.jpg></div><div class='cl'><div class='vertical-center'>$80<br><br>now</div></div><div class='cr'><div class='vertical-center'>$85<br>in<br>12 weeks</div></div><div class='respDivL'><div class='vertical-center'>(E)</div></div><div class='respDivR'><div class='vertical-center'>(I)</div></div></div>","E","$80<br><br>now","$85<br>in<br>12 weeks","0","80","85","12","NOW"
"html-keyboard-response","54","126428","0.0-5.0-3.16","63d7a9346e833b93500723d4","bdp_td","Sun Mar 26 2023 09:04:51 GMT-0400 (Eastern Daylight Time)","162432","","null","","","","offerFB","","<div class='trialBorder'><div class='vertical-center'><img style='vertical-align:center; align:center' src=img/fixation3.jpg></div><div class='cl'><div class='vertical-center'><font style='color:orange'>$80<br><br>now</font></div></div><div class='cr'><div class='vertical-center'>$85<br>in<br>12 weeks</div></div><div class='respDivL'><div class='vertical-center'><font style='color:orange'>(E)</font></div></div><div class='respDivR'><div class='vertical-center'>(I)</div></div></div>","null","$80<br><br>now","$85<br>in<br>12 weeks","0","80","85","12",""
"html-keyboard-response","55","126930","0.0-5.0-1.17","63d7a9346e833b93500723d4","bdp_td","Sun Mar 26 2023 09:04:51 GMT-0400 (Eastern Daylight Time)","162432","","null","","","","FIX","","<div class='trialBorder'><div class='vertical-center'><img style='vertical-align:center; align:center' src=img/fixation3.jpg></div></div>","null","","","","","","",""
"html-keyboard-response","56","128672","0.0-5.0-2.17","63d7a9346e833b93500723d4","bdp_td","Sun Mar 26 2023 09:04:51 GMT-0400 (Eastern Daylight Time)","162432","","1739","","","","offer","","<div class='trialBorder'><div class='vertical-center'><img style='vertical-align:center; align:center' src=img/fixation3.jpg></div><div class='cl'><div class='vertical-center'>$69<br><br>now</div></div><div class='cr'><div class='vertical-center'>$85<br>in<br>6 weeks</div></div><div class='respDivL'><div class='vertical-center'>(E)</div></div><div class='respDivR'><div class='vertical-center'>(I)</div></div></div>","E","$69<br><br>now","$85<br>in<br>6 weeks","0","69","85","6","NOW"
"html-keyboard-response","57","128924","0.0-5.0-3.17","63d7a9346e833b93500723d4","bdp_td","Sun Mar 26 2023 09:04:51 GMT-0400 (Eastern Daylight Time)","162432","","null","","","","offerFB","","<div class='trialBorder'><div class='vertical-center'><img style='vertical-align:center; align:center' src=img/fixation3.jpg></div><div class='cl'><div class='vertical-center'><font style='color:orange'>$69<br><br>now</font></div></div><div class='cr'><div class='vertical-center'>$85<br>in<br>6 weeks</div></div><div class='respDivL'><div class='vertical-center'><font style='color:orange'>(E)</font></div></div><div class='respDivR'><div class='vertical-center'>(I)</div></div></div>","null","$69<br><br>now","$85<br>in<br>6 weeks","0","69","85","6",""
"html-keyboard-response","58","129425","0.0-5.0-1.18","63d7a9346e833b93500723d4","bdp_td","Sun Mar 26 2023 09:04:51 GMT-0400 (Eastern Daylight Time)","162432","","null","","","","FIX","","<div class='trialBorder'><div class='vertical-center'><img style='vertical-align:center; align:center' src=img/fixation3.jpg></div></div>","null","","","","","","",""
"html-keyboard-response","59","131806","0.0-5.0-2.18","63d7a9346e833b93500723d4","bdp_td","Sun Mar 26 2023 09:04:51 GMT-0400 (Eastern Daylight Time)","162432","","2379","","","","offer","","<div class='trialBorder'><div class='vertical-center'><img style='vertical-align:center; align:center' src=img/fixation3.jpg></div><div class='cl'><div class='vertical-center'>$14<br><br>now</div></div><div class='cr'><div class='vertical-center'>$25<br>in<br>3 weeks</div></div><div class='respDivL'><div class='vertical-center'>(E)</div></div><div class='respDivR'><div class='vertical-center'>(I)</div></div></div>","E","$14<br><br>now","$25<br>in<br>3 weeks","0","14","25","3","NOW"
"html-keyboard-response","60","132058","0.0-5.0-3.18","63d7a9346e833b93500723d4","bdp_td","Sun Mar 26 2023 09:04:51 GMT-0400 (Eastern Daylight Time)","162432","","null","","","","offerFB","","<div class='trialBorder'><div class='vertical-center'><img style='vertical-align:center; align:center' src=img/fixation3.jpg></div><div class='cl'><div class='vertical-center'><font style='color:orange'>$14<br><br>now</font></div></div><div class='cr'><div class='vertical-center'>$25<br>in<br>3 weeks</div></div><div class='respDivL'><div class='vertical-center'><font style='color:orange'>(E)</font></div></div><div class='respDivR'><div class='vertical-center'>(I)</div></div></div>","null","$14<br><br>now","$25<br>in<br>3 weeks","0","14","25","3",""
"html-keyboard-response","61","132559","0.0-5.0-1.19","63d7a9346e833b93500723d4","bdp_td","Sun Mar 26 2023 09:04:51 GMT-0400 (Eastern Daylight Time)","162432","","null","","","","FIX","","<div class='trialBorder'><div class='vertical-center'><img style='vertical-align:center; align:center' src=img/fixation3.jpg></div></div>","null","","","","","","",""
"html-keyboard-response","62","135457","0.0-5.0-2.19","63d7a9346e833b93500723d4","bdp_td","Sun Mar 26 2023 09:04:51 GMT-0400 (Eastern Daylight Time)","162432","","2896","","","","offer","","<div class='trialBorder'><div class='vertical-center'><img style='vertical-align:center; align:center' src=img/fixation3.jpg></div><div class='cl'><div class='vertical-center'>$54<br><br>now</div></div><div class='cr'><div class='vertical-center'>$55<br>in<br>12 weeks</div></div><div class='respDivL'><div class='vertical-center'>(E)</div></div><div class='respDivR'><div class='vertical-center'>(I)</div></div></div>","E","$54<br><br>now","$55<br>in<br>12 weeks","0","54","55","12","NOW"
"html-keyboard-response","63","135709","0.0-5.0-3.19","63d7a9346e833b93500723d4","bdp_td","Sun Mar 26 2023 09:04:51 GMT-0400 (Eastern Daylight Time)","162432","","null","","","","offerFB","","<div class='trialBorder'><div class='vertical-center'><img style='vertical-align:center; align:center' src=img/fixation3.jpg></div><div class='cl'><div class='vertical-center'><font style='color:orange'>$54<br><br>now</font></div></div><div class='cr'><div class='vertical-center'>$55<br>in<br>12 weeks</div></div><div class='respDivL'><div class='vertical-center'><font style='color:orange'>(E)</font></div></div><div class='respDivR'><div class='vertical-center'>(I)</div></div></div>","null","$54<br><br>now","$55<br>in<br>12 weeks","0","54","55","12",""
"html-keyboard-response","64","136211","0.0-5.0-1.20","63d7a9346e833b93500723d4","bdp_td","Sun Mar 26 2023 09:04:51 GMT-0400 (Eastern Daylight Time)","162432","","null","","","","FIX","","<div class='trialBorder'><div class='vertical-center'><img style='vertical-align:center; align:center' src=img/fixation3.jpg></div></div>","null","","","","","","",""
"html-keyboard-response","65","137702","0.0-5.0-2.20","63d7a9346e833b93500723d4","bdp_td","Sun Mar 26 2023 09:04:51 GMT-0400 (Eastern Daylight Time)","162432","","1490","","","","offer","","<div class='trialBorder'><div class='vertical-center'><img style='vertical-align:center; align:center' src=img/fixation3.jpg></div><div class='cl'><div class='vertical-center'>$28<br><br>now</div></div><div class='cr'><div class='vertical-center'>$30<br>in<br>12 weeks</div></div><div class='respDivL'><div class='vertical-center'>(E)</div></div><div class='respDivR'><div class='vertical-center'>(I)</div></div></div>","E","$28<br><br>now","$30<br>in<br>12 weeks","0","28","30","12","NOW"
"html-keyboard-response","66","137953","0.0-5.0-3.20","63d7a9346e833b93500723d4","bdp_td","Sun Mar 26 2023 09:04:51 GMT-0400 (Eastern Daylight Time)","162432","","null","","","","offerFB","","<div class='trialBorder'><div class='vertical-center'><img style='vertical-align:center; align:center' src=img/fixation3.jpg></div><div class='cl'><div class='vertical-center'><font style='color:orange'>$28<br><br>now</font></div></div><div class='cr'><div class='vertical-center'>$30<br>in<br>12 weeks</div></div><div class='respDivL'><div class='vertical-center'><font style='color:orange'>(E)</font></div></div><div class='respDivR'><div class='vertical-center'>(I)</div></div></div>","null","$28<br><br>now","$30<br>in<br>12 weeks","0","28","30","12",""
"html-keyboard-response","67","138456","0.0-5.0-1.21","63d7a9346e833b93500723d4","bdp_td","Sun Mar 26 2023 09:04:51 GMT-0400 (Eastern Daylight Time)","162432","","null","","","","FIX","","<div class='trialBorder'><div class='vertical-center'><img style='vertical-align:center; align:center' src=img/fixation3.jpg></div></div>","null","","","","","","",""
"html-keyboard-response","68","140407","0.0-5.0-2.21","63d7a9346e833b93500723d4","bdp_td","Sun Mar 26 2023 09:04:51 GMT-0400 (Eastern Daylight Time)","162432","","1950","","","","offer","","<div class='trialBorder'><div class='vertical-center'><img style='vertical-align:center; align:center' src=img/fixation3.jpg></div><div class='cl'><div class='vertical-center'>$60<br>in<br>3 weeks</div></div><div class='cr'><div class='vertical-center'>$25<br><br>now</div></div><div class='respDivL'><div class='vertical-center'>(E)</div></div><div class='respDivR'><div class='vertical-center'>(I)</div></div></div>","E","$25<br><br>now","$60<br>in<br>3 weeks","1","25","60","3","THEN"
"html-keyboard-response","69","140660","0.0-5.0-3.21","63d7a9346e833b93500723d4","bdp_td","Sun Mar 26 2023 09:04:51 GMT-0400 (Eastern Daylight Time)","162432","","null","","","","offerFB","","<div class='trialBorder'><div class='vertical-center'><img style='vertical-align:center; align:center' src=img/fixation3.jpg></div><div class='cl'><div class='vertical-center'><font style='color:orange'>$60<br>in<br>3 weeks</font></div></div><div class='cr'><div class='vertical-center'>$25<br><br>now</div></div><div class='respDivL'><div class='vertical-center'><font style='color:orange'>(E)</font></div></div><div class='respDivR'><div class='vertical-center'>(I)</div></div></div>","null","$25<br><br>now","$60<br>in<br>3 weeks","1","25","60","3",""
"html-keyboard-response","70","141162","0.0-5.0-1.22","63d7a9346e833b93500723d4","bdp_td","Sun Mar 26 2023 09:04:51 GMT-0400 (Eastern Daylight Time)","162432","","null","","","","FIX","","<div class='trialBorder'><div class='vertical-center'><img style='vertical-align:center; align:center' src=img/fixation3.jpg></div></div>","null","","","","","","",""
"html-keyboard-response","71","143343","0.0-5.0-2.22","63d7a9346e833b93500723d4","bdp_td","Sun Mar 26 2023 09:04:51 GMT-0400 (Eastern Daylight Time)","162432","","2180","","","","offer","","<div class='trialBorder'><div class='vertical-center'><img style='vertical-align:center; align:center' src=img/fixation3.jpg></div><div class='cl'><div class='vertical-center'>$34<br><br>now</div></div><div class='cr'><div class='vertical-center'>$35<br>in<br>12 weeks</div></div><div class='respDivL'><div class='vertical-center'>(E)</div></div><div class='respDivR'><div class='vertical-center'>(I)</div></div></div>","E","$34<br><br>now","$35<br>in<br>12 weeks","0","34","35","12","NOW"
"html-keyboard-response","72","143595","0.0-5.0-3.22","63d7a9346e833b93500723d4","bdp_td","Sun Mar 26 2023 09:04:51 GMT-0400 (Eastern Daylight Time)","162432","","null","","","","offerFB","","<div class='trialBorder'><div class='vertical-center'><img style='vertical-align:center; align:center' src=img/fixation3.jpg></div><div class='cl'><div class='vertical-center'><font style='color:orange'>$34<br><br>now</font></div></div><div class='cr'><div class='vertical-center'>$35<br>in<br>12 weeks</div></div><div class='respDivL'><div class='vertical-center'><font style='color:orange'>(E)</font></div></div><div class='respDivR'><div class='vertical-center'>(I)</div></div></div>","null","$34<br><br>now","$35<br>in<br>12 weeks","0","34","35","12",""
"html-keyboard-response","73","144098","0.0-5.0-1.23","63d7a9346e833b93500723d4","bdp_td","Sun Mar 26 2023 09:04:51 GMT-0400 (Eastern Daylight Time)","162432","","null","","","","FIX","","<div class='trialBorder'><div class='vertical-center'><img style='vertical-align:center; align:center' src=img/fixation3.jpg></div></div>","null","","","","","","",""
"html-keyboard-response","74","145672","0.0-5.0-2.23","63d7a9346e833b93500723d4","bdp_td","Sun Mar 26 2023 09:04:51 GMT-0400 (Eastern Daylight Time)","162432","","1573","","","","offer","","<div class='trialBorder'><div class='vertical-center'><img style='vertical-align:center; align:center' src=img/fixation3.jpg></div><div class='cl'><div class='vertical-center'>$54<br><br>now</div></div><div class='cr'><div class='vertical-center'>$60<br>in<br>12 weeks</div></div><div class='respDivL'><div class='vertical-center'>(E)</div></div><div class='respDivR'><div class='vertical-center'>(I)</div></div></div>","E","$54<br><br>now","$60<br>in<br>12 weeks","0","54","60","12","NOW"
"html-keyboard-response","75","145923","0.0-5.0-3.23","63d7a9346e833b93500723d4","bdp_td","Sun Mar 26 2023 09:04:51 GMT-0400 (Eastern Daylight Time)","162432","","null","","","","offerFB","","<div class='trialBorder'><div class='vertical-center'><img style='vertical-align:center; align:center' src=img/fixation3.jpg></div><div class='cl'><div class='vertical-center'><font style='color:orange'>$54<br><br>now</font></div></div><div class='cr'><div class='vertical-center'>$60<br>in<br>12 weeks</div></div><div class='respDivL'><div class='vertical-center'><font style='color:orange'>(E)</font></div></div><div class='respDivR'><div class='vertical-center'>(I)</div></div></div>","null","$54<br><br>now","$60<br>in<br>12 weeks","0","54","60","12",""
"html-keyboard-response","76","146426","0.0-5.0-1.24","63d7a9346e833b93500723d4","bdp_td","Sun Mar 26 2023 09:04:51 GMT-0400 (Eastern Daylight Time)","162432","","null","","","","FIX","","<div class='trialBorder'><div class='vertical-center'><img style='vertical-align:center; align:center' src=img/fixation3.jpg></div></div>","null","","","","","","",""
"html-keyboard-response","77","152984","0.0-5.0-2.24","63d7a9346e833b93500723d4","bdp_td","Sun Mar 26 2023 09:04:51 GMT-0400 (Eastern Daylight Time)","162432","","6555","","","","offer","","<div class='trialBorder'><div class='vertical-center'><img style='vertical-align:center; align:center' src=img/fixation3.jpg></div><div class='cl'><div class='vertical-center'>$35<br>in<br>2 weeks</div></div><div class='cr'><div class='vertical-center'>$15<br><br>now</div></div><div class='respDivL'><div class='vertical-center'>(E)</div></div><div class='respDivR'><div class='vertical-center'>(I)</div></div></div>","I","$15<br><br>now","$35<br>in<br>2 weeks","1","15","35","2","NOW"
"html-keyboard-response","78","153237","0.0-5.0-3.24","63d7a9346e833b93500723d4","bdp_td","Sun Mar 26 2023 09:04:51 GMT-0400 (Eastern Daylight Time)","162432","","null","","","","offerFB","","<div class='trialBorder'><div class='vertical-center'><img style='vertical-align:center; align:center' src=img/fixation3.jpg></div><div class='cl'><div class='vertical-center'>$35<br>in<br>2 weeks</div></div><div class='cr'><div class='vertical-center'><font style='color:orange'>$15<br><br>now</font></div></div><div class='respDivL'><div class='vertical-center'>(E)</div></div><div class='respDivR'><div class='vertical-center'><font style='color:orange'>(I)</font></div></div></div>","null","$15<br><br>now","$35<br>in<br>2 weeks","1","15","35","2",""
"html-keyboard-response","79","153738","0.0-5.0-1.25","63d7a9346e833b93500723d4","bdp_td","Sun Mar 26 2023 09:04:51 GMT-0400 (Eastern Daylight Time)","162432","","null","","","","FIX","","<div class='trialBorder'><div class='vertical-center'><img style='vertical-align:center; align:center' src=img/fixation3.jpg></div></div>","null","","","","","","",""
"html-keyboard-response","80","155575","0.0-5.0-2.25","63d7a9346e833b93500723d4","bdp_td","Sun Mar 26 2023 09:04:51 GMT-0400 (Eastern Daylight Time)","162432","","1836","","","","offer","","<div class='trialBorder'><div class='vertical-center'><img style='vertical-align:center; align:center' src=img/fixation3.jpg></div><div class='cl'><div class='vertical-center'>$30<br>in<br>2 weeks</div></div><div class='cr'><div class='vertical-center'>$11<br><br>now</div></div><div class='respDivL'><div class='vertical-center'>(E)</div></div><div class='respDivR'><div class='vertical-center'>(I)</div></div></div>","E","$11<br><br>now","$30<br>in<br>2 weeks","1","11","30","2","THEN"
"html-keyboard-response","81","155828","0.0-5.0-3.25","63d7a9346e833b93500723d4","bdp_td","Sun Mar 26 2023 09:04:51 GMT-0400 (Eastern Daylight Time)","162432","","null","","","","offerFB","","<div class='trialBorder'><div class='vertical-center'><img style='vertical-align:center; align:center' src=img/fixation3.jpg></div><div class='cl'><div class='vertical-center'><font style='color:orange'>$30<br>in<br>2 weeks</font></div></div><div class='cr'><div class='vertical-center'>$11<br><br>now</div></div><div class='respDivL'><div class='vertical-center'><font style='color:orange'>(E)</font></div></div><div class='respDivR'><div class='vertical-center'>(I)</div></div></div>","null","$11<br><br>now","$30<br>in<br>2 weeks","1","11","30","2",""
"html-keyboard-response","82","156329","0.0-5.0-1.26","63d7a9346e833b93500723d4","bdp_td","Sun Mar 26 2023 09:04:51 GMT-0400 (Eastern Daylight Time)","162432","","null","","","","FIX","","<div class='trialBorder'><div class='vertical-center'><img style='vertical-align:center; align:center' src=img/fixation3.jpg></div></div>","null","","","","","","",""
"html-keyboard-response","83","161177","0.0-5.0-2.26","63d7a9346e833b93500723d4","bdp_td","Sun Mar 26 2023 09:04:51 GMT-0400 (Eastern Daylight Time)","162432","","4845","","","","offer","","<div class='trialBorder'><div class='vertical-center'><img style='vertical-align:center; align:center' src=img/fixation3.jpg></div><div class='cl'><div class='vertical-center'>$30<br>in<br>6 weeks</div></div><div class='cr'><div class='vertical-center'>$25<br><br>now</div></div><div class='respDivL'><div class='vertical-center'>(E)</div></div><div class='respDivR'><div class='vertical-center'>(I)</div></div></div>","I","$25<br><br>now","$30<br>in<br>6 weeks","1","25","30","6","NOW"
"html-keyboard-response","84","161430","0.0-5.0-3.26","63d7a9346e833b93500723d4","bdp_td","Sun Mar 26 2023 09:04:51 GMT-0400 (Eastern Daylight Time)","162432","","null","","","","offerFB","","<div class='trialBorder'><div class='vertical-center'><img style='vertical-align:center; align:center' src=img/fixation3.jpg></div><div class='cl'><div class='vertical-center'>$30<br>in<br>6 weeks</div></div><div class='cr'><div class='vertical-center'><font style='color:orange'>$25<br><br>now</font></div></div><div class='respDivL'><div class='vertical-center'>(E)</div></div><div class='respDivR'><div class='vertical-center'><font style='color:orange'>(I)</font></div></div></div>","null","$25<br><br>now","$30<br>in<br>6 weeks","1","25","30","6",""
"","","","","63d7a9346e833b93500723d4","bdp_td","Sun Mar 26 2023 09:04:51 GMT-0400 (Eastern Daylight Time)","162432","","","fullscreenexit","85","161447","fullscreenexit","","","","","","","","","",""
"fullscreen","85","162431","0.0-6.0","63d7a9346e833b93500723d4","bdp_td","Sun Mar 26 2023 09:04:51 GMT-0400 (Eastern Daylight Time)","162432","","","","","","","true","","","","","","","","",""
"html-keyboard-response","86","162934","0.0-7.0","","","","","","null","","","","","","","null","","","","","","",""
