"trial_type","trial_index","time_elapsed","internal_node_id","subject_id","task","startTime","totalTime","view_history","rt","event","trial","time","trialtype","success","stimulus","key_press","nowOffer","thenOffer","thenLeft","nowAmt","thenAmt","thenWeeks","chosen"
"pavlovia","0","4","0.0-0.0","60fd933d5461857048f9e74c","bdp_td","Sun Mar 26 2023 14:39:31 GMT-0700 (Pacific Daylight Time)","116825","","","","","","","","","","","","","","","",""
"instructions","1","1147","0.0-1.0","60fd933d5461857048f9e74c","bdp_td","Sun Mar 26 2023 14:39:31 GMT-0700 (Pacific Daylight Time)","116825","[{""page_index"":0,""viewing_time"":1141}]","1142","","","","","","","","","","","","","",""
"","","","","60fd933d5461857048f9e74c","bdp_td","Sun Mar 26 2023 14:39:31 GMT-0700 (Pacific Daylight Time)","116825","","","fullscreenenter","2","3864","fullscreenenter","","","","","","","","","",""
"fullscreen","2","4847","0.0-2.0","60fd933d5461857048f9e74c","bdp_td","Sun Mar 26 2023 14:39:31 GMT-0700 (Pacific Daylight Time)","116825","","","","","","","true","","","","","","","","",""
"instructions","3","35981","0.0-4.0","60fd933d5461857048f9e74c","bdp_td","Sun Mar 26 2023 14:39:31 GMT-0700 (Pacific Daylight Time)","116825","[{""page_index"":0,""viewing_time"":10477},{""page_index"":1,""viewing_time"":14174},{""page_index"":2,""viewing_time"":6482}]","31133","","","","","","","","","","","","","",""
"html-keyboard-response","4","36487","0.0-5.0-1.0","60fd933d5461857048f9e74c","bdp_td","Sun Mar 26 2023 14:39:31 GMT-0700 (Pacific Daylight Time)","116825","","null","","","","FIX","","<div class='trialBorder'><div class='vertical-center'><img style='vertical-align:center; align:center' src=img/fixation3.jpg></div></div>","null","","","","","","",""
"html-keyboard-response","5","41469","0.0-5.0-2.0","60fd933d5461857048f9e74c","bdp_td","Sun Mar 26 2023 14:39:31 GMT-0700 (Pacific Daylight Time)","116825","","4979","","","","offer","","<div class='trialBorder'><div class='vertical-center'><img style='vertical-align:center; align:center' src=img/fixation3.jpg></div><div class='cl'><div class='vertical-center'>$80<br><br>now</div></div><div class='cr'><div class='vertical-center'>$85<br>in<br>12 weeks</div></div><div class='respDivL'><div class='vertical-center'>(E)</div></div><div class='respDivR'><div class='vertical-center'>(I)</div></div></div>","I","$80<br><br>now","$85<br>in<br>12 weeks","0","80","85","12","THEN"
"html-keyboard-response","6","41724","0.0-5.0-3.0","60fd933d5461857048f9e74c","bdp_td","Sun Mar 26 2023 14:39:31 GMT-0700 (Pacific Daylight Time)","116825","","null","","","","offerFB","","<div class='trialBorder'><div class='vertical-center'><img style='vertical-align:center; align:center' src=img/fixation3.jpg></div><div class='cl'><div class='vertical-center'>$80<br><br>now</div></div><div class='cr'><div class='vertical-center'><font style='color:orange'>$85<br>in<br>12 weeks</font></div></div><div class='respDivL'><div class='vertical-center'>(E)</div></div><div class='respDivR'><div class='vertical-center'><font style='color:orange'>(I)</font></div></div></div>","null","$80<br><br>now","$85<br>in<br>12 weeks","0","80","85","12",""
"html-keyboard-response","7","42226","0.0-5.0-1.1","60fd933d5461857048f9e74c","bdp_td","Sun Mar 26 2023 14:39:31 GMT-0700 (Pacific Daylight Time)","116825","","null","","","","FIX","","<div class='trialBorder'><div class='vertical-center'><img style='vertical-align:center; align:center' src=img/fixation3.jpg></div></div>","null","","","","","","",""
"html-keyboard-response","8","49581","0.0-5.0-2.1","60fd933d5461857048f9e74c","bdp_td","Sun Mar 26 2023 14:39:31 GMT-0700 (Pacific Daylight Time)","116825","","7354","","","","offer","","<div class='trialBorder'><div class='vertical-center'><img style='vertical-align:center; align:center' src=img/fixation3.jpg></div><div class='cl'><div class='vertical-center'>$25<br>in<br>6 weeks</div></div><div class='cr'><div class='vertical-center'>$19<br><br>now</div></div><div class='respDivL'><div class='vertical-center'>(E)</div></div><div class='respDivR'><div class='vertical-center'>(I)</div></div></div>","E","$19<br><br>now","$25<br>in<br>6 weeks","1","19","25","6","THEN"
"html-keyboard-response","9","49834","0.0-5.0-3.1","60fd933d5461857048f9e74c","bdp_td","Sun Mar 26 2023 14:39:31 GMT-0700 (Pacific Daylight Time)","116825","","null","","","","offerFB","","<div class='trialBorder'><div class='vertical-center'><img style='vertical-align:center; align:center' src=img/fixation3.jpg></div><div class='cl'><div class='vertical-center'><font style='color:orange'>$25<br>in<br>6 weeks</font></div></div><div class='cr'><div class='vertical-center'>$19<br><br>now</div></div><div class='respDivL'><div class='vertical-center'><font style='color:orange'>(E)</font></div></div><div class='respDivR'><div class='vertical-center'>(I)</div></div></div>","null","$19<br><br>now","$25<br>in<br>6 weeks","1","19","25","6",""
"html-keyboard-response","10","50336","0.0-5.0-1.2","60fd933d5461857048f9e74c","bdp_td","Sun Mar 26 2023 14:39:31 GMT-0700 (Pacific Daylight Time)","116825","","null","","","","FIX","","<div class='trialBorder'><div class='vertical-center'><img style='vertical-align:center; align:center' src=img/fixation3.jpg></div></div>","null","","","","","","",""
"html-keyboard-response","11","56349","0.0-5.0-2.2","60fd933d5461857048f9e74c","bdp_td","Sun Mar 26 2023 14:39:31 GMT-0700 (Pacific Daylight Time)","116825","","6011","","","","offer","","<div class='trialBorder'><div class='vertical-center'><img style='vertical-align:center; align:center' src=img/fixation3.jpg></div><div class='cl'><div class='vertical-center'>$22<br><br>now</div></div><div class='cr'><div class='vertical-center'>$25<br>in<br>12 weeks</div></div><div class='respDivL'><div class='vertical-center'>(E)</div></div><div class='respDivR'><div class='vertical-center'>(I)</div></div></div>","I","$22<br><br>now","$25<br>in<br>12 weeks","0","22","25","12","THEN"
"html-keyboard-response","12","56603","0.0-5.0-3.2","60fd933d5461857048f9e74c","bdp_td","Sun Mar 26 2023 14:39:31 GMT-0700 (Pacific Daylight Time)","116825","","null","","","","offerFB","","<div class='trialBorder'><div class='vertical-center'><img style='vertical-align:center; align:center' src=img/fixation3.jpg></div><div class='cl'><div class='vertical-center'>$22<br><br>now</div></div><div class='cr'><div class='vertical-center'><font style='color:orange'>$25<br>in<br>12 weeks</font></div></div><div class='respDivL'><div class='vertical-center'>(E)</div></div><div class='respDivR'><div class='vertical-center'><font style='color:orange'>(I)</font></div></div></div>","null","$22<br><br>now","$25<br>in<br>12 weeks","0","22","25","12",""
"html-keyboard-response","13","57105","0.0-5.0-1.3","60fd933d5461857048f9e74c","bdp_td","Sun Mar 26 2023 14:39:31 GMT-0700 (Pacific Daylight Time)","116825","","null","","","","FIX","","<div class='trialBorder'><div class='vertical-center'><img style='vertical-align:center; align:center' src=img/fixation3.jpg></div></div>","null","","","","","","",""
"html-keyboard-response","14","59132","0.0-5.0-2.3","60fd933d5461857048f9e74c","bdp_td","Sun Mar 26 2023 14:39:31 GMT-0700 (Pacific Daylight Time)","116825","","2025","","","","offer","","<div class='trialBorder'><div class='vertical-center'><img style='vertical-align:center; align:center' src=img/fixation3.jpg></div><div class='cl'><div class='vertical-center'>$75<br>in<br>3 weeks</div></div><div class='cr'><div class='vertical-center'>$41<br><br>now</div></div><div class='respDivL'><div class='vertical-center'>(E)</div></div><div class='respDivR'><div class='vertical-center'>(I)</div></div></div>","E","$41<br><br>now","$75<br>in<br>3 weeks","1","41","75","3","THEN"
"html-keyboard-response","15","59385","0.0-5.0-3.3","60fd933d5461857048f9e74c","bdp_td","Sun Mar 26 2023 14:39:31 GMT-0700 (Pacific Daylight Time)","116825","","null","","","","offerFB","","<div class='trialBorder'><div class='vertical-center'><img style='vertical-align:center; align:center' src=img/fixation3.jpg></div><div class='cl'><div class='vertical-center'><font style='color:orange'>$75<br>in<br>3 weeks</font></div></div><div class='cr'><div class='vertical-center'>$41<br><br>now</div></div><div class='respDivL'><div class='vertical-center'><font style='color:orange'>(E)</font></div></div><div class='respDivR'><div class='vertical-center'>(I)</div></div></div>","null","$41<br><br>now","$75<br>in<br>3 weeks","1","41","75","3",""
"html-keyboard-response","16","59887","0.0-5.0-1.4","60fd933d5461857048f9e74c","bdp_td","Sun Mar 26 2023 14:39:31 GMT-0700 (Pacific Daylight Time)","116825","","null","","","","FIX","","<div class='trialBorder'><div class='vertical-center'><img style='vertical-align:center; align:center' src=img/fixation3.jpg></div></div>","null","","","","","","",""
"html-keyboard-response","17","62701","0.0-5.0-2.4","60fd933d5461857048f9e74c","bdp_td","Sun Mar 26 2023 14:39:31 GMT-0700 (Pacific Daylight Time)","116825","","2811","","","","offer","","<div class='trialBorder'><div class='vertical-center'><img style='vertical-align:center; align:center' src=img/fixation3.jpg></div><div class='cl'><div class='vertical-center'>$60<br>in<br>6 weeks</div></div><div class='cr'><div class='vertical-center'>$49<br><br>now</div></div><div class='respDivL'><div class='vertical-center'>(E)</div></div><div class='respDivR'><div class='vertical-center'>(I)</div></div></div>","E","$49<br><br>now","$60<br>in<br>6 weeks","1","49","60","6","THEN"
"html-keyboard-response","18","62954","0.0-5.0-3.4","60fd933d5461857048f9e74c","bdp_td","Sun Mar 26 2023 14:39:31 GMT-0700 (Pacific Daylight Time)","116825","","null","","","","offerFB","","<div class='trialBorder'><div class='vertical-center'><img style='vertical-align:center; align:center' src=img/fixation3.jpg></div><div class='cl'><div class='vertical-center'><font style='color:orange'>$60<br>in<br>6 weeks</font></div></div><div class='cr'><div class='vertical-center'>$49<br><br>now</div></div><div class='respDivL'><div class='vertical-center'><font style='color:orange'>(E)</font></div></div><div class='respDivR'><div class='vertical-center'>(I)</div></div></div>","null","$49<br><br>now","$60<br>in<br>6 weeks","1","49","60","6",""
"html-keyboard-response","19","63457","0.0-5.0-1.5","60fd933d5461857048f9e74c","bdp_td","Sun Mar 26 2023 14:39:31 GMT-0700 (Pacific Daylight Time)","116825","","null","","","","FIX","","<div class='trialBorder'><div class='vertical-center'><img style='vertical-align:center; align:center' src=img/fixation3.jpg></div></div>","null","","","","","","",""
"html-keyboard-response","20","64921","0.0-5.0-2.5","60fd933d5461857048f9e74c","bdp_td","Sun Mar 26 2023 14:39:31 GMT-0700 (Pacific Daylight Time)","116825","","1462","","","","offer","","<div class='trialBorder'><div class='vertical-center'><img style='vertical-align:center; align:center' src=img/fixation3.jpg></div><div class='cl'><div class='vertical-center'>$33<br><br>now</div></div><div class='cr'><div class='vertical-center'>$80<br>in<br>2 weeks</div></div><div class='respDivL'><div class='vertical-center'>(E)</div></div><div class='respDivR'><div class='vertical-center'>(I)</div></div></div>","I","$33<br><br>now","$80<br>in<br>2 weeks","0","33","80","2","THEN"
"html-keyboard-response","21","65174","0.0-5.0-3.5","60fd933d5461857048f9e74c","bdp_td","Sun Mar 26 2023 14:39:31 GMT-0700 (Pacific Daylight Time)","116825","","null","","","","offerFB","","<div class='trialBorder'><div class='vertical-center'><img style='vertical-align:center; align:center' src=img/fixation3.jpg></div><div class='cl'><div class='vertical-center'>$33<br><br>now</div></div><div class='cr'><div class='vertical-center'><font style='color:orange'>$80<br>in<br>2 weeks</font></div></div><div class='respDivL'><div class='vertical-center'>(E)</div></div><div class='respDivR'><div class='vertical-center'><font style='color:orange'>(I)</font></div></div></div>","null","$33<br><br>now","$80<br>in<br>2 weeks","0","33","80","2",""
"html-keyboard-response","22","65675","0.0-5.0-1.6","60fd933d5461857048f9e74c","bdp_td","Sun Mar 26 2023 14:39:31 GMT-0700 (Pacific Daylight Time)","116825","","null","","","","FIX","","<div class='trialBorder'><div class='vertical-center'><img style='vertical-align:center; align:center' src=img/fixation3.jpg></div></div>","null","","","","","","",""
"html-keyboard-response","23","67322","0.0-5.0-2.6","60fd933d5461857048f9e74c","bdp_td","Sun Mar 26 2023 14:39:31 GMT-0700 (Pacific Daylight Time)","116825","","1644","","","","offer","","<div class='trialBorder'><div class='vertical-center'><img style='vertical-align:center; align:center' src=img/fixation3.jpg></div><div class='cl'><div class='vertical-center'>$75<br>in<br>12 weeks</div></div><div class='cr'><div class='vertical-center'>$67<br><br>now</div></div><div class='respDivL'><div class='vertical-center'>(E)</div></div><div class='respDivR'><div class='vertical-center'>(I)</div></div></div>","E","$67<br><br>now","$75<br>in<br>12 weeks","1","67","75","12","THEN"
"html-keyboard-response","24","67574","0.0-5.0-3.6","60fd933d5461857048f9e74c","bdp_td","Sun Mar 26 2023 14:39:31 GMT-0700 (Pacific Daylight Time)","116825","","null","","","","offerFB","","<div class='trialBorder'><div class='vertical-center'><img style='vertical-align:center; align:center' src=img/fixation3.jpg></div><div class='cl'><div class='vertical-center'><font style='color:orange'>$75<br>in<br>12 weeks</font></div></div><div class='cr'><div class='vertical-center'>$67<br><br>now</div></div><div class='respDivL'><div class='vertical-center'><font style='color:orange'>(E)</font></div></div><div class='respDivR'><div class='vertical-center'>(I)</div></div></div>","null","$67<br><br>now","$75<br>in<br>12 weeks","1","67","75","12",""
"html-keyboard-response","25","68076","0.0-5.0-1.7","60fd933d5461857048f9e74c","bdp_td","Sun Mar 26 2023 14:39:31 GMT-0700 (Pacific Daylight Time)","116825","","null","","","","FIX","","<div class='trialBorder'><div class='vertical-center'><img style='vertical-align:center; align:center' src=img/fixation3.jpg></div></div>","null","","","","","","",""
"html-keyboard-response","26","69923","0.0-5.0-2.7","60fd933d5461857048f9e74c","bdp_td","Sun Mar 26 2023 14:39:31 GMT-0700 (Pacific Daylight Time)","116825","","1844","","","","offer","","<div class='trialBorder'><div class='vertical-center'><img style='vertical-align:center; align:center' src=img/fixation3.jpg></div><div class='cl'><div class='vertical-center'>$30<br>in<br>2 weeks</div></div><div class='cr'><div class='vertical-center'>$11<br><br>now</div></div><div class='respDivL'><div class='vertical-center'>(E)</div></div><div class='respDivR'><div class='vertical-center'>(I)</div></div></div>","E","$11<br><br>now","$30<br>in<br>2 weeks","1","11","30","2","THEN"
"html-keyboard-response","27","70175","0.0-5.0-3.7","60fd933d5461857048f9e74c","bdp_td","Sun Mar 26 2023 14:39:31 GMT-0700 (Pacific Daylight Time)","116825","","null","","","","offerFB","","<div class='trialBorder'><div class='vertical-center'><img style='vertical-align:center; align:center' src=img/fixation3.jpg></div><div class='cl'><div class='vertical-center'><font style='color:orange'>$30<br>in<br>2 weeks</font></div></div><div class='cr'><div class='vertical-center'>$11<br><br>now</div></div><div class='respDivL'><div class='vertical-center'><font style='color:orange'>(E)</font></div></div><div class='respDivR'><div class='vertical-center'>(I)</div></div></div>","null","$11<br><br>now","$30<br>in<br>2 weeks","1","11","30","2",""
"html-keyboard-response","28","70677","0.0-5.0-1.8","60fd933d5461857048f9e74c","bdp_td","Sun Mar 26 2023 14:39:31 GMT-0700 (Pacific Daylight Time)","116825","","null","","","","FIX","","<div class='trialBorder'><div class='vertical-center'><img style='vertical-align:center; align:center' src=img/fixation3.jpg></div></div>","null","","","","","","",""
"html-keyboard-response","29","72894","0.0-5.0-2.8","60fd933d5461857048f9e74c","bdp_td","Sun Mar 26 2023 14:39:31 GMT-0700 (Pacific Daylight Time)","116825","","2214","","","","offer","","<div class='trialBorder'><div class='vertical-center'><img style='vertical-align:center; align:center' src=img/fixation3.jpg></div><div class='cl'><div class='vertical-center'>$25<br><br>now</div></div><div class='cr'><div class='vertical-center'>$30<br>in<br>6 weeks</div></div><div class='respDivL'><div class='vertical-center'>(E)</div></div><div class='respDivR'><div class='vertical-center'>(I)</div></div></div>","I","$25<br><br>now","$30<br>in<br>6 weeks","0","25","30","6","THEN"
"html-keyboard-response","30","73147","0.0-5.0-3.8","60fd933d5461857048f9e74c","bdp_td","Sun Mar 26 2023 14:39:31 GMT-0700 (Pacific Daylight Time)","116825","","null","","","","offerFB","","<div class='trialBorder'><div class='vertical-center'><img style='vertical-align:center; align:center' src=img/fixation3.jpg></div><div class='cl'><div class='vertical-center'>$25<br><br>now</div></div><div class='cr'><div class='vertical-center'><font style='color:orange'>$30<br>in<br>6 weeks</font></div></div><div class='respDivL'><div class='vertical-center'>(E)</div></div><div class='respDivR'><div class='vertical-center'><font style='color:orange'>(I)</font></div></div></div>","null","$25<br><br>now","$30<br>in<br>6 weeks","0","25","30","6",""
"html-keyboard-response","31","73648","0.0-5.0-1.9","60fd933d5461857048f9e74c","bdp_td","Sun Mar 26 2023 14:39:31 GMT-0700 (Pacific Daylight Time)","116825","","null","","","","FIX","","<div class='trialBorder'><div class='vertical-center'><img style='vertical-align:center; align:center' src=img/fixation3.jpg></div></div>","null","","","","","","",""
"html-keyboard-response","32","75134","0.0-5.0-2.9","60fd933d5461857048f9e74c","bdp_td","Sun Mar 26 2023 14:39:31 GMT-0700 (Pacific Daylight Time)","116825","","1483","","","","offer","","<div class='trialBorder'><div class='vertical-center'><img style='vertical-align:center; align:center' src=img/fixation3.jpg></div><div class='cl'><div class='vertical-center'>$55<br><br>now</div></div><div class='cr'><div class='vertical-center'>$75<br>in<br>6 weeks</div></div><div class='respDivL'><div class='vertical-center'>(E)</div></div><div class='respDivR'><div class='vertical-center'>(I)</div></div></div>","I","$55<br><br>now","$75<br>in<br>6 weeks","0","55","75","6","THEN"
"html-keyboard-response","33","75387","0.0-5.0-3.9","60fd933d5461857048f9e74c","bdp_td","Sun Mar 26 2023 14:39:31 GMT-0700 (Pacific Daylight Time)","116825","","null","","","","offerFB","","<div class='trialBorder'><div class='vertical-center'><img style='vertical-align:center; align:center' src=img/fixation3.jpg></div><div class='cl'><div class='vertical-center'>$55<br><br>now</div></div><div class='cr'><div class='vertical-center'><font style='color:orange'>$75<br>in<br>6 weeks</font></div></div><div class='respDivL'><div class='vertical-center'>(E)</div></div><div class='respDivR'><div class='vertical-center'><font style='color:orange'>(I)</font></div></div></div>","null","$55<br><br>now","$75<br>in<br>6 weeks","0","55","75","6",""
"html-keyboard-response","34","75889","0.0-5.0-1.10","60fd933d5461857048f9e74c","bdp_td","Sun Mar 26 2023 14:39:31 GMT-0700 (Pacific Daylight Time)","116825","","null","","","","FIX","","<div class='trialBorder'><div class='vertical-center'><img style='vertical-align:center; align:center' src=img/fixation3.jpg></div></div>","null","","","","","","",""
"html-keyboard-response","35","80351","0.0-5.0-2.10","60fd933d5461857048f9e74c","bdp_td","Sun Mar 26 2023 14:39:31 GMT-0700 (Pacific Daylight Time)","116825","","4460","","","","offer","","<div class='trialBorder'><div class='vertical-center'><img style='vertical-align:center; align:center' src=img/fixation3.jpg></div><div class='cl'><div class='vertical-center'>$80<br>in<br>12 weeks</div></div><div class='cr'><div class='vertical-center'>$78<br><br>now</div></div><div class='respDivL'><div class='vertical-center'>(E)</div></div><div class='respDivR'><div class='vertical-center'>(I)</div></div></div>","I","$78<br><br>now","$80<br>in<br>12 weeks","1","78","80","12","NOW"
"html-keyboard-response","36","80611","0.0-5.0-3.10","60fd933d5461857048f9e74c","bdp_td","Sun Mar 26 2023 14:39:31 GMT-0700 (Pacific Daylight Time)","116825","","null","","","","offerFB","","<div class='trialBorder'><div class='vertical-center'><img style='vertical-align:center; align:center' src=img/fixation3.jpg></div><div class='cl'><div class='vertical-center'>$80<br>in<br>12 weeks</div></div><div class='cr'><div class='vertical-center'><font style='color:orange'>$78<br><br>now</font></div></div><div class='respDivL'><div class='vertical-center'>(E)</div></div><div class='respDivR'><div class='vertical-center'><font style='color:orange'>(I)</font></div></div></div>","null","$78<br><br>now","$80<br>in<br>12 weeks","1","78","80","12",""
"html-keyboard-response","37","81113","0.0-5.0-1.11","60fd933d5461857048f9e74c","bdp_td","Sun Mar 26 2023 14:39:31 GMT-0700 (Pacific Daylight Time)","116825","","null","","","","FIX","","<div class='trialBorder'><div class='vertical-center'><img style='vertical-align:center; align:center' src=img/fixation3.jpg></div></div>","null","","","","","","",""
"html-keyboard-response","38","85149","0.0-5.0-2.11","60fd933d5461857048f9e74c","bdp_td","Sun Mar 26 2023 14:39:31 GMT-0700 (Pacific Daylight Time)","116825","","4034","","","","offer","","<div class='trialBorder'><div class='vertical-center'><img style='vertical-align:center; align:center' src=img/fixation3.jpg></div><div class='cl'><div class='vertical-center'>$28<br><br>now</div></div><div class='cr'><div class='vertical-center'>$30<br>in<br>12 weeks</div></div><div class='respDivL'><div class='vertical-center'>(E)</div></div><div class='respDivR'><div class='vertical-center'>(I)</div></div></div>","E","$28<br><br>now","$30<br>in<br>12 weeks","0","28","30","12","NOW"
"html-keyboard-response","39","85402","0.0-5.0-3.11","60fd933d5461857048f9e74c","bdp_td","Sun Mar 26 2023 14:39:31 GMT-0700 (Pacific Daylight Time)","116825","","null","","","","offerFB","","<div class='trialBorder'><div class='vertical-center'><img style='vertical-align:center; align:center' src=img/fixation3.jpg></div><div class='cl'><div class='vertical-center'><font style='color:orange'>$28<br><br>now</font></div></div><div class='cr'><div class='vertical-center'>$30<br>in<br>12 weeks</div></div><div class='respDivL'><div class='vertical-center'><font style='color:orange'>(E)</font></div></div><div class='respDivR'><div class='vertical-center'>(I)</div></div></div>","null","$28<br><br>now","$30<br>in<br>12 weeks","0","28","30","12",""
"html-keyboard-response","40","85905","0.0-5.0-1.12","60fd933d5461857048f9e74c","bdp_td","Sun Mar 26 2023 14:39:31 GMT-0700 (Pacific Daylight Time)","116825","","null","","","","FIX","","<div class='trialBorder'><div class='vertical-center'><img style='vertical-align:center; align:center' src=img/fixation3.jpg></div></div>","null","","","","","","",""
"html-keyboard-response","41","87192","0.0-5.0-2.12","60fd933d5461857048f9e74c","bdp_td","Sun Mar 26 2023 14:39:31 GMT-0700 (Pacific Daylight Time)","116825","","1285","","","","offer","","<div class='trialBorder'><div class='vertical-center'><img style='vertical-align:center; align:center' src=img/fixation3.jpg></div><div class='cl'><div class='vertical-center'>$60<br>in<br>12 weeks</div></div><div class='cr'><div class='vertical-center'>$54<br><br>now</div></div><div class='respDivL'><div class='vertical-center'>(E)</div></div><div class='respDivR'><div class='vertical-center'>(I)</div></div></div>","E","$54<br><br>now","$60<br>in<br>12 weeks","1","54","60","12","THEN"
"html-keyboard-response","42","87445","0.0-5.0-3.12","60fd933d5461857048f9e74c","bdp_td","Sun Mar 26 2023 14:39:31 GMT-0700 (Pacific Daylight Time)","116825","","null","","","","offerFB","","<div class='trialBorder'><div class='vertical-center'><img style='vertical-align:center; align:center' src=img/fixation3.jpg></div><div class='cl'><div class='vertical-center'><font style='color:orange'>$60<br>in<br>12 weeks</font></div></div><div class='cr'><div class='vertical-center'>$54<br><br>now</div></div><div class='respDivL'><div class='vertical-center'><font style='color:orange'>(E)</font></div></div><div class='respDivR'><div class='vertical-center'>(I)</div></div></div>","null","$54<br><br>now","$60<br>in<br>12 weeks","1","54","60","12",""
"html-keyboard-response","43","87947","0.0-5.0-1.13","60fd933d5461857048f9e74c","bdp_td","Sun Mar 26 2023 14:39:31 GMT-0700 (Pacific Daylight Time)","116825","","null","","","","FIX","","<div class='trialBorder'><div class='vertical-center'><img style='vertical-align:center; align:center' src=img/fixation3.jpg></div></div>","null","","","","","","",""
"html-keyboard-response","44","88823","0.0-5.0-2.13","60fd933d5461857048f9e74c","bdp_td","Sun Mar 26 2023 14:39:31 GMT-0700 (Pacific Daylight Time)","116825","","873","","","","offer","","<div class='trialBorder'><div class='vertical-center'><img style='vertical-align:center; align:center' src=img/fixation3.jpg></div><div class='cl'><div class='vertical-center'>$54<br><br>now</div></div><div class='cr'><div class='vertical-center'>$80<br>in<br>3 weeks</div></div><div class='respDivL'><div class='vertical-center'>(E)</div></div><div class='respDivR'><div class='vertical-center'>(I)</div></div></div>","I","$54<br><br>now","$80<br>in<br>3 weeks","0","54","80","3","THEN"
"html-keyboard-response","45","89076","0.0-5.0-3.13","60fd933d5461857048f9e74c","bdp_td","Sun Mar 26 2023 14:39:31 GMT-0700 (Pacific Daylight Time)","116825","","null","","","","offerFB","","<div class='trialBorder'><div class='vertical-center'><img style='vertical-align:center; align:center' src=img/fixation3.jpg></div><div class='cl'><div class='vertical-center'>$54<br><br>now</div></div><div class='cr'><div class='vertical-center'><font style='color:orange'>$80<br>in<br>3 weeks</font></div></div><div class='respDivL'><div class='vertical-center'>(E)</div></div><div class='respDivR'><div class='vertical-center'><font style='color:orange'>(I)</font></div></div></div>","null","$54<br><br>now","$80<br>in<br>3 weeks","0","54","80","3",""
"html-keyboard-response","46","89578","0.0-5.0-1.14","60fd933d5461857048f9e74c","bdp_td","Sun Mar 26 2023 14:39:31 GMT-0700 (Pacific Daylight Time)","116825","","null","","","","FIX","","<div class='trialBorder'><div class='vertical-center'><img style='vertical-align:center; align:center' src=img/fixation3.jpg></div></div>","null","","","","","","",""
"html-keyboard-response","47","91676","0.0-5.0-2.14","60fd933d5461857048f9e74c","bdp_td","Sun Mar 26 2023 14:39:31 GMT-0700 (Pacific Daylight Time)","116825","","2096","","","","offer","","<div class='trialBorder'><div class='vertical-center'><img style='vertical-align:center; align:center' src=img/fixation3.jpg></div><div class='cl'><div class='vertical-center'>$50<br>in<br>6 weeks</div></div><div class='cr'><div class='vertical-center'>$34<br><br>now</div></div><div class='respDivL'><div class='vertical-center'>(E)</div></div><div class='respDivR'><div class='vertical-center'>(I)</div></div></div>","E","$34<br><br>now","$50<br>in<br>6 weeks","1","34","50","6","THEN"
"html-keyboard-response","48","91928","0.0-5.0-3.14","60fd933d5461857048f9e74c","bdp_td","Sun Mar 26 2023 14:39:31 GMT-0700 (Pacific Daylight Time)","116825","","null","","","","offerFB","","<div class='trialBorder'><div class='vertical-center'><img style='vertical-align:center; align:center' src=img/fixation3.jpg></div><div class='cl'><div class='vertical-center'><font style='color:orange'>$50<br>in<br>6 weeks</font></div></div><div class='cr'><div class='vertical-center'>$34<br><br>now</div></div><div class='respDivL'><div class='vertical-center'><font style='color:orange'>(E)</font></div></div><div class='respDivR'><div class='vertical-center'>(I)</div></div></div>","null","$34<br><br>now","$50<br>in<br>6 weeks","1","34","50","6",""
"html-keyboard-response","49","92431","0.0-5.0-1.15","60fd933d5461857048f9e74c","bdp_td","Sun Mar 26 2023 14:39:31 GMT-0700 (Pacific Daylight Time)","116825","","null","","","","FIX","","<div class='trialBorder'><div class='vertical-center'><img style='vertical-align:center; align:center' src=img/fixation3.jpg></div></div>","null","","","","","","",""
"html-keyboard-response","50","94256","0.0-5.0-2.15","60fd933d5461857048f9e74c","bdp_td","Sun Mar 26 2023 14:39:31 GMT-0700 (Pacific Daylight Time)","116825","","1824","","","","offer","","<div class='trialBorder'><div class='vertical-center'><img style='vertical-align:center; align:center' src=img/fixation3.jpg></div><div class='cl'><div class='vertical-center'>$24<br><br>now</div></div><div class='cr'><div class='vertical-center'>$35<br>in<br>3 weeks</div></div><div class='respDivL'><div class='vertical-center'>(E)</div></div><div class='respDivR'><div class='vertical-center'>(I)</div></div></div>","I","$24<br><br>now","$35<br>in<br>3 weeks","0","24","35","3","THEN"
"html-keyboard-response","51","94509","0.0-5.0-3.15","60fd933d5461857048f9e74c","bdp_td","Sun Mar 26 2023 14:39:31 GMT-0700 (Pacific Daylight Time)","116825","","null","","","","offerFB","","<div class='trialBorder'><div class='vertical-center'><img style='vertical-align:center; align:center' src=img/fixation3.jpg></div><div class='cl'><div class='vertical-center'>$24<br><br>now</div></div><div class='cr'><div class='vertical-center'><font style='color:orange'>$35<br>in<br>3 weeks</font></div></div><div class='respDivL'><div class='vertical-center'>(E)</div></div><div class='respDivR'><div class='vertical-center'><font style='color:orange'>(I)</font></div></div></div>","null","$24<br><br>now","$35<br>in<br>3 weeks","0","24","35","3",""
"html-keyboard-response","52","95012","0.0-5.0-1.16","60fd933d5461857048f9e74c","bdp_td","Sun Mar 26 2023 14:39:31 GMT-0700 (Pacific Daylight Time)","116825","","null","","","","FIX","","<div class='trialBorder'><div class='vertical-center'><img style='vertical-align:center; align:center' src=img/fixation3.jpg></div></div>","null","","","","","","",""
"html-keyboard-response","53","96308","0.0-5.0-2.16","60fd933d5461857048f9e74c","bdp_td","Sun Mar 26 2023 14:39:31 GMT-0700 (Pacific Daylight Time)","116825","","1294","","","","offer","","<div class='trialBorder'><div class='vertical-center'><img style='vertical-align:center; align:center' src=img/fixation3.jpg></div><div class='cl'><div class='vertical-center'>$69<br><br>now</div></div><div class='cr'><div class='vertical-center'>$85<br>in<br>6 weeks</div></div><div class='respDivL'><div class='vertical-center'>(E)</div></div><div class='respDivR'><div class='vertical-center'>(I)</div></div></div>","I","$69<br><br>now","$85<br>in<br>6 weeks","0","69","85","6","THEN"
"html-keyboard-response","54","96562","0.0-5.0-3.16","60fd933d5461857048f9e74c","bdp_td","Sun Mar 26 2023 14:39:31 GMT-0700 (Pacific Daylight Time)","116825","","null","","","","offerFB","","<div class='trialBorder'><div class='vertical-center'><img style='vertical-align:center; align:center' src=img/fixation3.jpg></div><div class='cl'><div class='vertical-center'>$69<br><br>now</div></div><div class='cr'><div class='vertical-center'><font style='color:orange'>$85<br>in<br>6 weeks</font></div></div><div class='respDivL'><div class='vertical-center'>(E)</div></div><div class='respDivR'><div class='vertical-center'><font style='color:orange'>(I)</font></div></div></div>","null","$69<br><br>now","$85<br>in<br>6 weeks","0","69","85","6",""
"html-keyboard-response","55","97064","0.0-5.0-1.17","60fd933d5461857048f9e74c","bdp_td","Sun Mar 26 2023 14:39:31 GMT-0700 (Pacific Daylight Time)","116825","","null","","","","FIX","","<div class='trialBorder'><div class='vertical-center'><img style='vertical-align:center; align:center' src=img/fixation3.jpg></div></div>","null","","","","","","",""
"html-keyboard-response","56","98557","0.0-5.0-2.17","60fd933d5461857048f9e74c","bdp_td","Sun Mar 26 2023 14:39:31 GMT-0700 (Pacific Daylight Time)","116825","","1491","","","","offer","","<div class='trialBorder'><div class='vertical-center'><img style='vertical-align:center; align:center' src=img/fixation3.jpg></div><div class='cl'><div class='vertical-center'>$54<br><br>now</div></div><div class='cr'><div class='vertical-center'>$55<br>in<br>12 weeks</div></div><div class='respDivL'><div class='vertical-center'>(E)</div></div><div class='respDivR'><div class='vertical-center'>(I)</div></div></div>","E","$54<br><br>now","$55<br>in<br>12 weeks","0","54","55","12","NOW"
"html-keyboard-response","57","98810","0.0-5.0-3.17","60fd933d5461857048f9e74c","bdp_td","Sun Mar 26 2023 14:39:31 GMT-0700 (Pacific Daylight Time)","116825","","null","","","","offerFB","","<div class='trialBorder'><div class='vertical-center'><img style='vertical-align:center; align:center' src=img/fixation3.jpg></div><div class='cl'><div class='vertical-center'><font style='color:orange'>$54<br><br>now</font></div></div><div class='cr'><div class='vertical-center'>$55<br>in<br>12 weeks</div></div><div class='respDivL'><div class='vertical-center'><font style='color:orange'>(E)</font></div></div><div class='respDivR'><div class='vertical-center'>(I)</div></div></div>","null","$54<br><br>now","$55<br>in<br>12 weeks","0","54","55","12",""
"html-keyboard-response","58","99313","0.0-5.0-1.18","60fd933d5461857048f9e74c","bdp_td","Sun Mar 26 2023 14:39:31 GMT-0700 (Pacific Daylight Time)","116825","","null","","","","FIX","","<div class='trialBorder'><div class='vertical-center'><img style='vertical-align:center; align:center' src=img/fixation3.jpg></div></div>","null","","","","","","",""
"html-keyboard-response","59","100530","0.0-5.0-2.18","60fd933d5461857048f9e74c","bdp_td","Sun Mar 26 2023 14:39:31 GMT-0700 (Pacific Daylight Time)","116825","","1214","","","","offer","","<div class='trialBorder'><div class='vertical-center'><img style='vertical-align:center; align:center' src=img/fixation3.jpg></div><div class='cl'><div class='vertical-center'>$15<br><br>now</div></div><div class='cr'><div class='vertical-center'>$35<br>in<br>2 weeks</div></div><div class='respDivL'><div class='vertical-center'>(E)</div></div><div class='respDivR'><div class='vertical-center'>(I)</div></div></div>","I","$15<br><br>now","$35<br>in<br>2 weeks","0","15","35","2","THEN"
"html-keyboard-response","60","100783","0.0-5.0-3.18","60fd933d5461857048f9e74c","bdp_td","Sun Mar 26 2023 14:39:31 GMT-0700 (Pacific Daylight Time)","116825","","null","","","","offerFB","","<div class='trialBorder'><div class='vertical-center'><img style='vertical-align:center; align:center' src=img/fixation3.jpg></div><div class='cl'><div class='vertical-center'>$15<br><br>now</div></div><div class='cr'><div class='vertical-center'><font style='color:orange'>$35<br>in<br>2 weeks</font></div></div><div class='respDivL'><div class='vertical-center'>(E)</div></div><div class='respDivR'><div class='vertical-center'><font style='color:orange'>(I)</font></div></div></div>","null","$15<br><br>now","$35<br>in<br>2 weeks","0","15","35","2",""
"html-keyboard-response","61","101286","0.0-5.0-1.19","60fd933d5461857048f9e74c","bdp_td","Sun Mar 26 2023 14:39:31 GMT-0700 (Pacific Daylight Time)","116825","","null","","","","FIX","","<div class='trialBorder'><div class='vertical-center'><img style='vertical-align:center; align:center' src=img/fixation3.jpg></div></div>","null","","","","","","",""
"html-keyboard-response","62","102190","0.0-5.0-2.19","60fd933d5461857048f9e74c","bdp_td","Sun Mar 26 2023 14:39:31 GMT-0700 (Pacific Daylight Time)","116825","","902","","","","offer","","<div class='trialBorder'><div class='vertical-center'><img style='vertical-align:center; align:center' src=img/fixation3.jpg></div><div class='cl'><div class='vertical-center'>$55<br>in<br>6 weeks</div></div><div class='cr'><div class='vertical-center'>$40<br><br>now</div></div><div class='respDivL'><div class='vertical-center'>(E)</div></div><div class='respDivR'><div class='vertical-center'>(I)</div></div></div>","E","$40<br><br>now","$55<br>in<br>6 weeks","1","40","55","6","THEN"
"html-keyboard-response","63","102444","0.0-5.0-3.19","60fd933d5461857048f9e74c","bdp_td","Sun Mar 26 2023 14:39:31 GMT-0700 (Pacific Daylight Time)","116825","","null","","","","offerFB","","<div class='trialBorder'><div class='vertical-center'><img style='vertical-align:center; align:center' src=img/fixation3.jpg></div><div class='cl'><div class='vertical-center'><font style='color:orange'>$55<br>in<br>6 weeks</font></div></div><div class='cr'><div class='vertical-center'>$40<br><br>now</div></div><div class='respDivL'><div class='vertical-center'><font style='color:orange'>(E)</font></div></div><div class='respDivR'><div class='vertical-center'>(I)</div></div></div>","null","$40<br><br>now","$55<br>in<br>6 weeks","1","40","55","6",""
"html-keyboard-response","64","102946","0.0-5.0-1.20","60fd933d5461857048f9e74c","bdp_td","Sun Mar 26 2023 14:39:31 GMT-0700 (Pacific Daylight Time)","116825","","null","","","","FIX","","<div class='trialBorder'><div class='vertical-center'><img style='vertical-align:center; align:center' src=img/fixation3.jpg></div></div>","null","","","","","","",""
"html-keyboard-response","65","103698","0.0-5.0-2.20","60fd933d5461857048f9e74c","bdp_td","Sun Mar 26 2023 14:39:31 GMT-0700 (Pacific Daylight Time)","116825","","751","","","","offer","","<div class='trialBorder'><div class='vertical-center'><img style='vertical-align:center; align:center' src=img/fixation3.jpg></div><div class='cl'><div class='vertical-center'>$60<br>in<br>3 weeks</div></div><div class='cr'><div class='vertical-center'>$25<br><br>now</div></div><div class='respDivL'><div class='vertical-center'>(E)</div></div><div class='respDivR'><div class='vertical-center'>(I)</div></div></div>","E","$25<br><br>now","$60<br>in<br>3 weeks","1","25","60","3","THEN"
"html-keyboard-response","66","103952","0.0-5.0-3.20","60fd933d5461857048f9e74c","bdp_td","Sun Mar 26 2023 14:39:31 GMT-0700 (Pacific Daylight Time)","116825","","null","","","","offerFB","","<div class='trialBorder'><div class='vertical-center'><img style='vertical-align:center; align:center' src=img/fixation3.jpg></div><div class='cl'><div class='vertical-center'><font style='color:orange'>$60<br>in<br>3 weeks</font></div></div><div class='cr'><div class='vertical-center'>$25<br><br>now</div></div><div class='respDivL'><div class='vertical-center'><font style='color:orange'>(E)</font></div></div><div class='respDivR'><div class='vertical-center'>(I)</div></div></div>","null","$25<br><br>now","$60<br>in<br>3 weeks","1","25","60","3",""
"html-keyboard-response","67","104453","0.0-5.0-1.21","60fd933d5461857048f9e74c","bdp_td","Sun Mar 26 2023 14:39:31 GMT-0700 (Pacific Daylight Time)","116825","","null","","","","FIX","","<div class='trialBorder'><div class='vertical-center'><img style='vertical-align:center; align:center' src=img/fixation3.jpg></div></div>","null","","","","","","",""
"html-keyboard-response","68","105527","0.0-5.0-2.21","60fd933d5461857048f9e74c","bdp_td","Sun Mar 26 2023 14:39:31 GMT-0700 (Pacific Daylight Time)","116825","","1072","","","","offer","","<div class='trialBorder'><div class='vertical-center'><img style='vertical-align:center; align:center' src=img/fixation3.jpg></div><div class='cl'><div class='vertical-center'>$50<br>in<br>3 weeks</div></div><div class='cr'><div class='vertical-center'>$27<br><br>now</div></div><div class='respDivL'><div class='vertical-center'>(E)</div></div><div class='respDivR'><div class='vertical-center'>(I)</div></div></div>","E","$27<br><br>now","$50<br>in<br>3 weeks","1","27","50","3","THEN"
"html-keyboard-response","69","105780","0.0-5.0-3.21","60fd933d5461857048f9e74c","bdp_td","Sun Mar 26 2023 14:39:31 GMT-0700 (Pacific Daylight Time)","116825","","null","","","","offerFB","","<div class='trialBorder'><div class='vertical-center'><img style='vertical-align:center; align:center' src=img/fixation3.jpg></div><div class='cl'><div class='vertical-center'><font style='color:orange'>$50<br>in<br>3 weeks</font></div></div><div class='cr'><div class='vertical-center'>$27<br><br>now</div></div><div class='respDivL'><div class='vertical-center'><font style='color:orange'>(E)</font></div></div><div class='respDivR'><div class='vertical-center'>(I)</div></div></div>","null","$27<br><br>now","$50<br>in<br>3 weeks","1","27","50","3",""
"html-keyboard-response","70","106282","0.0-5.0-1.22","60fd933d5461857048f9e74c","bdp_td","Sun Mar 26 2023 14:39:31 GMT-0700 (Pacific Daylight Time)","116825","","null","","","","FIX","","<div class='trialBorder'><div class='vertical-center'><img style='vertical-align:center; align:center' src=img/fixation3.jpg></div></div>","null","","","","","","",""
"html-keyboard-response","71","107998","0.0-5.0-2.22","60fd933d5461857048f9e74c","bdp_td","Sun Mar 26 2023 14:39:31 GMT-0700 (Pacific Daylight Time)","116825","","1715","","","","offer","","<div class='trialBorder'><div class='vertical-center'><img style='vertical-align:center; align:center' src=img/fixation3.jpg></div><div class='cl'><div class='vertical-center'>$34<br><br>now</div></div><div class='cr'><div class='vertical-center'>$35<br>in<br>12 weeks</div></div><div class='respDivL'><div class='vertical-center'>(E)</div></div><div class='respDivR'><div class='vertical-center'>(I)</div></div></div>","E","$34<br><br>now","$35<br>in<br>12 weeks","0","34","35","12","NOW"
"html-keyboard-response","72","108252","0.0-5.0-3.22","60fd933d5461857048f9e74c","bdp_td","Sun Mar 26 2023 14:39:31 GMT-0700 (Pacific Daylight Time)","116825","","null","","","","offerFB","","<div class='trialBorder'><div class='vertical-center'><img style='vertical-align:center; align:center' src=img/fixation3.jpg></div><div class='cl'><div class='vertical-center'><font style='color:orange'>$34<br><br>now</font></div></div><div class='cr'><div class='vertical-center'>$35<br>in<br>12 weeks</div></div><div class='respDivL'><div class='vertical-center'><font style='color:orange'>(E)</font></div></div><div class='respDivR'><div class='vertical-center'>(I)</div></div></div>","null","$34<br><br>now","$35<br>in<br>12 weeks","0","34","35","12",""
"html-keyboard-response","73","108753","0.0-5.0-1.23","60fd933d5461857048f9e74c","bdp_td","Sun Mar 26 2023 14:39:31 GMT-0700 (Pacific Daylight Time)","116825","","null","","","","FIX","","<div class='trialBorder'><div class='vertical-center'><img style='vertical-align:center; align:center' src=img/fixation3.jpg></div></div>","null","","","","","","",""
"html-keyboard-response","74","109860","0.0-5.0-2.23","60fd933d5461857048f9e74c","bdp_td","Sun Mar 26 2023 14:39:31 GMT-0700 (Pacific Daylight Time)","116825","","1104","","","","offer","","<div class='trialBorder'><div class='vertical-center'><img style='vertical-align:center; align:center' src=img/fixation3.jpg></div><div class='cl'><div class='vertical-center'>$47<br><br>now</div></div><div class='cr'><div class='vertical-center'>$50<br>in<br>12 weeks</div></div><div class='respDivL'><div class='vertical-center'>(E)</div></div><div class='respDivR'><div class='vertical-center'>(I)</div></div></div>","I","$47<br><br>now","$50<br>in<br>12 weeks","0","47","50","12","THEN"
"html-keyboard-response","75","110114","0.0-5.0-3.23","60fd933d5461857048f9e74c","bdp_td","Sun Mar 26 2023 14:39:31 GMT-0700 (Pacific Daylight Time)","116825","","null","","","","offerFB","","<div class='trialBorder'><div class='vertical-center'><img style='vertical-align:center; align:center' src=img/fixation3.jpg></div><div class='cl'><div class='vertical-center'>$47<br><br>now</div></div><div class='cr'><div class='vertical-center'><font style='color:orange'>$50<br>in<br>12 weeks</font></div></div><div class='respDivL'><div class='vertical-center'>(E)</div></div><div class='respDivR'><div class='vertical-center'><font style='color:orange'>(I)</font></div></div></div>","null","$47<br><br>now","$50<br>in<br>12 weeks","0","47","50","12",""
"html-keyboard-response","76","110616","0.0-5.0-1.24","60fd933d5461857048f9e74c","bdp_td","Sun Mar 26 2023 14:39:31 GMT-0700 (Pacific Daylight Time)","116825","","null","","","","FIX","","<div class='trialBorder'><div class='vertical-center'><img style='vertical-align:center; align:center' src=img/fixation3.jpg></div></div>","null","","","","","","",""
"html-keyboard-response","77","111378","0.0-5.0-2.24","60fd933d5461857048f9e74c","bdp_td","Sun Mar 26 2023 14:39:31 GMT-0700 (Pacific Daylight Time)","116825","","761","","","","offer","","<div class='trialBorder'><div class='vertical-center'><img style='vertical-align:center; align:center' src=img/fixation3.jpg></div><div class='cl'><div class='vertical-center'>$85<br>in<br>1 week</div></div><div class='cr'><div class='vertical-center'>$31<br><br>now</div></div><div class='respDivL'><div class='vertical-center'>(E)</div></div><div class='respDivR'><div class='vertical-center'>(I)</div></div></div>","E","$31<br><br>now","$85<br>in<br>1 week","1","31","85","1","THEN"
"html-keyboard-response","78","111632","0.0-5.0-3.24","60fd933d5461857048f9e74c","bdp_td","Sun Mar 26 2023 14:39:31 GMT-0700 (Pacific Daylight Time)","116825","","null","","","","offerFB","","<div class='trialBorder'><div class='vertical-center'><img style='vertical-align:center; align:center' src=img/fixation3.jpg></div><div class='cl'><div class='vertical-center'><font style='color:orange'>$85<br>in<br>1 week</font></div></div><div class='cr'><div class='vertical-center'>$31<br><br>now</div></div><div class='respDivL'><div class='vertical-center'><font style='color:orange'>(E)</font></div></div><div class='respDivR'><div class='vertical-center'>(I)</div></div></div>","null","$31<br><br>now","$85<br>in<br>1 week","1","31","85","1",""
"html-keyboard-response","79","112135","0.0-5.0-1.25","60fd933d5461857048f9e74c","bdp_td","Sun Mar 26 2023 14:39:31 GMT-0700 (Pacific Daylight Time)","116825","","null","","","","FIX","","<div class='trialBorder'><div class='vertical-center'><img style='vertical-align:center; align:center' src=img/fixation3.jpg></div></div>","null","","","","","","",""
"html-keyboard-response","80","114040","0.0-5.0-2.25","60fd933d5461857048f9e74c","bdp_td","Sun Mar 26 2023 14:39:31 GMT-0700 (Pacific Daylight Time)","116825","","1903","","","","offer","","<div class='trialBorder'><div class='vertical-center'><img style='vertical-align:center; align:center' src=img/fixation3.jpg></div><div class='cl'><div class='vertical-center'>$25<br>in<br>3 weeks</div></div><div class='cr'><div class='vertical-center'>$14<br><br>now</div></div><div class='respDivL'><div class='vertical-center'>(E)</div></div><div class='respDivR'><div class='vertical-center'>(I)</div></div></div>","E","$14<br><br>now","$25<br>in<br>3 weeks","1","14","25","3","THEN"
"html-keyboard-response","81","114292","0.0-5.0-3.25","60fd933d5461857048f9e74c","bdp_td","Sun Mar 26 2023 14:39:31 GMT-0700 (Pacific Daylight Time)","116825","","null","","","","offerFB","","<div class='trialBorder'><div class='vertical-center'><img style='vertical-align:center; align:center' src=img/fixation3.jpg></div><div class='cl'><div class='vertical-center'><font style='color:orange'>$25<br>in<br>3 weeks</font></div></div><div class='cr'><div class='vertical-center'>$14<br><br>now</div></div><div class='respDivL'><div class='vertical-center'><font style='color:orange'>(E)</font></div></div><div class='respDivR'><div class='vertical-center'>(I)</div></div></div>","null","$14<br><br>now","$25<br>in<br>3 weeks","1","14","25","3",""
"html-keyboard-response","82","114795","0.0-5.0-1.26","60fd933d5461857048f9e74c","bdp_td","Sun Mar 26 2023 14:39:31 GMT-0700 (Pacific Daylight Time)","116825","","null","","","","FIX","","<div class='trialBorder'><div class='vertical-center'><img style='vertical-align:center; align:center' src=img/fixation3.jpg></div></div>","null","","","","","","",""
"html-keyboard-response","83","115570","0.0-5.0-2.26","60fd933d5461857048f9e74c","bdp_td","Sun Mar 26 2023 14:39:31 GMT-0700 (Pacific Daylight Time)","116825","","774","","","","offer","","<div class='trialBorder'><div class='vertical-center'><img style='vertical-align:center; align:center' src=img/fixation3.jpg></div><div class='cl'><div class='vertical-center'>$20<br><br>now</div></div><div class='cr'><div class='vertical-center'>$55<br>in<br>1 week</div></div><div class='respDivL'><div class='vertical-center'>(E)</div></div><div class='respDivR'><div class='vertical-center'>(I)</div></div></div>","I","$20<br><br>now","$55<br>in<br>1 week","0","20","55","1","THEN"
"html-keyboard-response","84","115822","0.0-5.0-3.26","60fd933d5461857048f9e74c","bdp_td","Sun Mar 26 2023 14:39:31 GMT-0700 (Pacific Daylight Time)","116825","","null","","","","offerFB","","<div class='trialBorder'><div class='vertical-center'><img style='vertical-align:center; align:center' src=img/fixation3.jpg></div><div class='cl'><div class='vertical-center'>$20<br><br>now</div></div><div class='cr'><div class='vertical-center'><font style='color:orange'>$55<br>in<br>1 week</font></div></div><div class='respDivL'><div class='vertical-center'>(E)</div></div><div class='respDivR'><div class='vertical-center'><font style='color:orange'>(I)</font></div></div></div>","null","$20<br><br>now","$55<br>in<br>1 week","0","20","55","1",""
"","","","","60fd933d5461857048f9e74c","bdp_td","Sun Mar 26 2023 14:39:31 GMT-0700 (Pacific Daylight Time)","116825","","","fullscreenexit","85","115865","fullscreenexit","","","","","","","","","",""
"fullscreen","85","116825","0.0-6.0","60fd933d5461857048f9e74c","bdp_td","Sun Mar 26 2023 14:39:31 GMT-0700 (Pacific Daylight Time)","116825","","","","","","","true","","","","","","","","",""
"html-keyboard-response","86","117327","0.0-7.0","","","","","","null","","","","","","","null","","","","","","",""
