"trial_type","trial_index","time_elapsed","internal_node_id","subject_id","task","startTime","totalTime","view_history","rt","event","trial","time","trialtype","success","stimulus","key_press","nowOffer","thenOffer","thenLeft","nowAmt","thenAmt","thenWeeks","chosen"
"pavlovia","0","2","0.0-0.0","5df5b9f661721940c46c3cd3","bdp_td","Sun Mar 26 2023 02:21:21 GMT-0400 (Eastern Daylight Time)","108726","","","","","","","","","","","","","","","",""
"instructions","1","1997","0.0-1.0","5df5b9f661721940c46c3cd3","bdp_td","Sun Mar 26 2023 02:21:21 GMT-0400 (Eastern Daylight Time)","108726","[{""page_index"":0,""viewing_time"":1994}]","1994","","","","","","","","","","","","","",""
"","","","","5df5b9f661721940c46c3cd3","bdp_td","Sun Mar 26 2023 02:21:21 GMT-0400 (Eastern Daylight Time)","108726","","","fullscreenenter","2","4337","fullscreenenter","","","","","","","","","",""
"fullscreen","2","5316","0.0-2.0","5df5b9f661721940c46c3cd3","bdp_td","Sun Mar 26 2023 02:21:21 GMT-0400 (Eastern Daylight Time)","108726","","","","","","","true","","","","","","","","",""
"instructions","3","36045","0.0-4.0","5df5b9f661721940c46c3cd3","bdp_td","Sun Mar 26 2023 02:21:21 GMT-0400 (Eastern Daylight Time)","108726","[{""page_index"":0,""viewing_time"":13674},{""page_index"":1,""viewing_time"":13480},{""page_index"":2,""viewing_time"":3574}]","30728","","","","","","","","","","","","","",""
"html-keyboard-response","4","36553","0.0-5.0-1.0","5df5b9f661721940c46c3cd3","bdp_td","Sun Mar 26 2023 02:21:21 GMT-0400 (Eastern Daylight Time)","108726","","null","","","","FIX","","<div class='trialBorder'><div class='vertical-center'><img style='vertical-align:center; align:center' src=img/fixation3.jpg></div></div>","null","","","","","","",""
"html-keyboard-response","5","39220","0.0-5.0-2.0","5df5b9f661721940c46c3cd3","bdp_td","Sun Mar 26 2023 02:21:21 GMT-0400 (Eastern Daylight Time)","108726","","2666","","","","offer","","<div class='trialBorder'><div class='vertical-center'><img style='vertical-align:center; align:center' src=img/fixation3.jpg></div><div class='cl'><div class='vertical-center'>$31<br><br>now</div></div><div class='cr'><div class='vertical-center'>$85<br>in<br>1 week</div></div><div class='respDivL'><div class='vertical-center'>(E)</div></div><div class='respDivR'><div class='vertical-center'>(I)</div></div></div>","I","$31<br><br>now","$85<br>in<br>1 week","0","31","85","1","THEN"
"html-keyboard-response","6","39473","0.0-5.0-3.0","5df5b9f661721940c46c3cd3","bdp_td","Sun Mar 26 2023 02:21:21 GMT-0400 (Eastern Daylight Time)","108726","","null","","","","offerFB","","<div class='trialBorder'><div class='vertical-center'><img style='vertical-align:center; align:center' src=img/fixation3.jpg></div><div class='cl'><div class='vertical-center'>$31<br><br>now</div></div><div class='cr'><div class='vertical-center'><font style='color:orange'>$85<br>in<br>1 week</font></div></div><div class='respDivL'><div class='vertical-center'>(E)</div></div><div class='respDivR'><div class='vertical-center'><font style='color:orange'>(I)</font></div></div></div>","null","$31<br><br>now","$85<br>in<br>1 week","0","31","85","1",""
"html-keyboard-response","7","39977","0.0-5.0-1.1","5df5b9f661721940c46c3cd3","bdp_td","Sun Mar 26 2023 02:21:21 GMT-0400 (Eastern Daylight Time)","108726","","null","","","","FIX","","<div class='trialBorder'><div class='vertical-center'><img style='vertical-align:center; align:center' src=img/fixation3.jpg></div></div>","null","","","","","","",""
"html-keyboard-response","8","42455","0.0-5.0-2.1","5df5b9f661721940c46c3cd3","bdp_td","Sun Mar 26 2023 02:21:21 GMT-0400 (Eastern Daylight Time)","108726","","2476","","","","offer","","<div class='trialBorder'><div class='vertical-center'><img style='vertical-align:center; align:center' src=img/fixation3.jpg></div><div class='cl'><div class='vertical-center'>$78<br><br>now</div></div><div class='cr'><div class='vertical-center'>$80<br>in<br>12 weeks</div></div><div class='respDivL'><div class='vertical-center'>(E)</div></div><div class='respDivR'><div class='vertical-center'>(I)</div></div></div>","E","$78<br><br>now","$80<br>in<br>12 weeks","0","78","80","12","NOW"
"html-keyboard-response","9","42708","0.0-5.0-3.1","5df5b9f661721940c46c3cd3","bdp_td","Sun Mar 26 2023 02:21:21 GMT-0400 (Eastern Daylight Time)","108726","","null","","","","offerFB","","<div class='trialBorder'><div class='vertical-center'><img style='vertical-align:center; align:center' src=img/fixation3.jpg></div><div class='cl'><div class='vertical-center'><font style='color:orange'>$78<br><br>now</font></div></div><div class='cr'><div class='vertical-center'>$80<br>in<br>12 weeks</div></div><div class='respDivL'><div class='vertical-center'><font style='color:orange'>(E)</font></div></div><div class='respDivR'><div class='vertical-center'>(I)</div></div></div>","null","$78<br><br>now","$80<br>in<br>12 weeks","0","78","80","12",""
"html-keyboard-response","10","43220","0.0-5.0-1.2","5df5b9f661721940c46c3cd3","bdp_td","Sun Mar 26 2023 02:21:21 GMT-0400 (Eastern Daylight Time)","108726","","null","","","","FIX","","<div class='trialBorder'><div class='vertical-center'><img style='vertical-align:center; align:center' src=img/fixation3.jpg></div></div>","null","","","","","","",""
"html-keyboard-response","11","45613","0.0-5.0-2.2","5df5b9f661721940c46c3cd3","bdp_td","Sun Mar 26 2023 02:21:21 GMT-0400 (Eastern Daylight Time)","108726","","2392","","","","offer","","<div class='trialBorder'><div class='vertical-center'><img style='vertical-align:center; align:center' src=img/fixation3.jpg></div><div class='cl'><div class='vertical-center'>$24<br><br>now</div></div><div class='cr'><div class='vertical-center'>$35<br>in<br>3 weeks</div></div><div class='respDivL'><div class='vertical-center'>(E)</div></div><div class='respDivR'><div class='vertical-center'>(I)</div></div></div>","E","$24<br><br>now","$35<br>in<br>3 weeks","0","24","35","3","NOW"
"html-keyboard-response","12","45867","0.0-5.0-3.2","5df5b9f661721940c46c3cd3","bdp_td","Sun Mar 26 2023 02:21:21 GMT-0400 (Eastern Daylight Time)","108726","","null","","","","offerFB","","<div class='trialBorder'><div class='vertical-center'><img style='vertical-align:center; align:center' src=img/fixation3.jpg></div><div class='cl'><div class='vertical-center'><font style='color:orange'>$24<br><br>now</font></div></div><div class='cr'><div class='vertical-center'>$35<br>in<br>3 weeks</div></div><div class='respDivL'><div class='vertical-center'><font style='color:orange'>(E)</font></div></div><div class='respDivR'><div class='vertical-center'>(I)</div></div></div>","null","$24<br><br>now","$35<br>in<br>3 weeks","0","24","35","3",""
"html-keyboard-response","13","46371","0.0-5.0-1.3","5df5b9f661721940c46c3cd3","bdp_td","Sun Mar 26 2023 02:21:21 GMT-0400 (Eastern Daylight Time)","108726","","null","","","","FIX","","<div class='trialBorder'><div class='vertical-center'><img style='vertical-align:center; align:center' src=img/fixation3.jpg></div></div>","null","","","","","","",""
"html-keyboard-response","14","48560","0.0-5.0-2.3","5df5b9f661721940c46c3cd3","bdp_td","Sun Mar 26 2023 02:21:21 GMT-0400 (Eastern Daylight Time)","108726","","2187","","","","offer","","<div class='trialBorder'><div class='vertical-center'><img style='vertical-align:center; align:center' src=img/fixation3.jpg></div><div class='cl'><div class='vertical-center'>$75<br>in<br>12 weeks</div></div><div class='cr'><div class='vertical-center'>$67<br><br>now</div></div><div class='respDivL'><div class='vertical-center'>(E)</div></div><div class='respDivR'><div class='vertical-center'>(I)</div></div></div>","I","$67<br><br>now","$75<br>in<br>12 weeks","1","67","75","12","NOW"
"html-keyboard-response","15","48816","0.0-5.0-3.3","5df5b9f661721940c46c3cd3","bdp_td","Sun Mar 26 2023 02:21:21 GMT-0400 (Eastern Daylight Time)","108726","","null","","","","offerFB","","<div class='trialBorder'><div class='vertical-center'><img style='vertical-align:center; align:center' src=img/fixation3.jpg></div><div class='cl'><div class='vertical-center'>$75<br>in<br>12 weeks</div></div><div class='cr'><div class='vertical-center'><font style='color:orange'>$67<br><br>now</font></div></div><div class='respDivL'><div class='vertical-center'>(E)</div></div><div class='respDivR'><div class='vertical-center'><font style='color:orange'>(I)</font></div></div></div>","null","$67<br><br>now","$75<br>in<br>12 weeks","1","67","75","12",""
"html-keyboard-response","16","49324","0.0-5.0-1.4","5df5b9f661721940c46c3cd3","bdp_td","Sun Mar 26 2023 02:21:21 GMT-0400 (Eastern Daylight Time)","108726","","null","","","","FIX","","<div class='trialBorder'><div class='vertical-center'><img style='vertical-align:center; align:center' src=img/fixation3.jpg></div></div>","null","","","","","","",""
"html-keyboard-response","17","51358","0.0-5.0-2.4","5df5b9f661721940c46c3cd3","bdp_td","Sun Mar 26 2023 02:21:21 GMT-0400 (Eastern Daylight Time)","108726","","2032","","","","offer","","<div class='trialBorder'><div class='vertical-center'><img style='vertical-align:center; align:center' src=img/fixation3.jpg></div><div class='cl'><div class='vertical-center'>$27<br><br>now</div></div><div class='cr'><div class='vertical-center'>$50<br>in<br>3 weeks</div></div><div class='respDivL'><div class='vertical-center'>(E)</div></div><div class='respDivR'><div class='vertical-center'>(I)</div></div></div>","I","$27<br><br>now","$50<br>in<br>3 weeks","0","27","50","3","THEN"
"html-keyboard-response","18","51610","0.0-5.0-3.4","5df5b9f661721940c46c3cd3","bdp_td","Sun Mar 26 2023 02:21:21 GMT-0400 (Eastern Daylight Time)","108726","","null","","","","offerFB","","<div class='trialBorder'><div class='vertical-center'><img style='vertical-align:center; align:center' src=img/fixation3.jpg></div><div class='cl'><div class='vertical-center'>$27<br><br>now</div></div><div class='cr'><div class='vertical-center'><font style='color:orange'>$50<br>in<br>3 weeks</font></div></div><div class='respDivL'><div class='vertical-center'>(E)</div></div><div class='respDivR'><div class='vertical-center'><font style='color:orange'>(I)</font></div></div></div>","null","$27<br><br>now","$50<br>in<br>3 weeks","0","27","50","3",""
"html-keyboard-response","19","52113","0.0-5.0-1.5","5df5b9f661721940c46c3cd3","bdp_td","Sun Mar 26 2023 02:21:21 GMT-0400 (Eastern Daylight Time)","108726","","null","","","","FIX","","<div class='trialBorder'><div class='vertical-center'><img style='vertical-align:center; align:center' src=img/fixation3.jpg></div></div>","null","","","","","","",""
"html-keyboard-response","20","53813","0.0-5.0-2.5","5df5b9f661721940c46c3cd3","bdp_td","Sun Mar 26 2023 02:21:21 GMT-0400 (Eastern Daylight Time)","108726","","1698","","","","offer","","<div class='trialBorder'><div class='vertical-center'><img style='vertical-align:center; align:center' src=img/fixation3.jpg></div><div class='cl'><div class='vertical-center'>$35<br>in<br>2 weeks</div></div><div class='cr'><div class='vertical-center'>$15<br><br>now</div></div><div class='respDivL'><div class='vertical-center'>(E)</div></div><div class='respDivR'><div class='vertical-center'>(I)</div></div></div>","E","$15<br><br>now","$35<br>in<br>2 weeks","1","15","35","2","THEN"
"html-keyboard-response","21","54071","0.0-5.0-3.5","5df5b9f661721940c46c3cd3","bdp_td","Sun Mar 26 2023 02:21:21 GMT-0400 (Eastern Daylight Time)","108726","","null","","","","offerFB","","<div class='trialBorder'><div class='vertical-center'><img style='vertical-align:center; align:center' src=img/fixation3.jpg></div><div class='cl'><div class='vertical-center'><font style='color:orange'>$35<br>in<br>2 weeks</font></div></div><div class='cr'><div class='vertical-center'>$15<br><br>now</div></div><div class='respDivL'><div class='vertical-center'><font style='color:orange'>(E)</font></div></div><div class='respDivR'><div class='vertical-center'>(I)</div></div></div>","null","$15<br><br>now","$35<br>in<br>2 weeks","1","15","35","2",""
"html-keyboard-response","22","54576","0.0-5.0-1.6","5df5b9f661721940c46c3cd3","bdp_td","Sun Mar 26 2023 02:21:21 GMT-0400 (Eastern Daylight Time)","108726","","null","","","","FIX","","<div class='trialBorder'><div class='vertical-center'><img style='vertical-align:center; align:center' src=img/fixation3.jpg></div></div>","null","","","","","","",""
"html-keyboard-response","23","56185","0.0-5.0-2.6","5df5b9f661721940c46c3cd3","bdp_td","Sun Mar 26 2023 02:21:21 GMT-0400 (Eastern Daylight Time)","108726","","1608","","","","offer","","<div class='trialBorder'><div class='vertical-center'><img style='vertical-align:center; align:center' src=img/fixation3.jpg></div><div class='cl'><div class='vertical-center'>$30<br>in<br>2 weeks</div></div><div class='cr'><div class='vertical-center'>$11<br><br>now</div></div><div class='respDivL'><div class='vertical-center'>(E)</div></div><div class='respDivR'><div class='vertical-center'>(I)</div></div></div>","E","$11<br><br>now","$30<br>in<br>2 weeks","1","11","30","2","THEN"
"html-keyboard-response","24","56442","0.0-5.0-3.6","5df5b9f661721940c46c3cd3","bdp_td","Sun Mar 26 2023 02:21:21 GMT-0400 (Eastern Daylight Time)","108726","","null","","","","offerFB","","<div class='trialBorder'><div class='vertical-center'><img style='vertical-align:center; align:center' src=img/fixation3.jpg></div><div class='cl'><div class='vertical-center'><font style='color:orange'>$30<br>in<br>2 weeks</font></div></div><div class='cr'><div class='vertical-center'>$11<br><br>now</div></div><div class='respDivL'><div class='vertical-center'><font style='color:orange'>(E)</font></div></div><div class='respDivR'><div class='vertical-center'>(I)</div></div></div>","null","$11<br><br>now","$30<br>in<br>2 weeks","1","11","30","2",""
"html-keyboard-response","25","56945","0.0-5.0-1.7","5df5b9f661721940c46c3cd3","bdp_td","Sun Mar 26 2023 02:21:21 GMT-0400 (Eastern Daylight Time)","108726","","null","","","","FIX","","<div class='trialBorder'><div class='vertical-center'><img style='vertical-align:center; align:center' src=img/fixation3.jpg></div></div>","null","","","","","","",""
"html-keyboard-response","26","58415","0.0-5.0-2.7","5df5b9f661721940c46c3cd3","bdp_td","Sun Mar 26 2023 02:21:21 GMT-0400 (Eastern Daylight Time)","108726","","1470","","","","offer","","<div class='trialBorder'><div class='vertical-center'><img style='vertical-align:center; align:center' src=img/fixation3.jpg></div><div class='cl'><div class='vertical-center'>$54<br><br>now</div></div><div class='cr'><div class='vertical-center'>$55<br>in<br>12 weeks</div></div><div class='respDivL'><div class='vertical-center'>(E)</div></div><div class='respDivR'><div class='vertical-center'>(I)</div></div></div>","E","$54<br><br>now","$55<br>in<br>12 weeks","0","54","55","12","NOW"
"html-keyboard-response","27","58673","0.0-5.0-3.7","5df5b9f661721940c46c3cd3","bdp_td","Sun Mar 26 2023 02:21:21 GMT-0400 (Eastern Daylight Time)","108726","","null","","","","offerFB","","<div class='trialBorder'><div class='vertical-center'><img style='vertical-align:center; align:center' src=img/fixation3.jpg></div><div class='cl'><div class='vertical-center'><font style='color:orange'>$54<br><br>now</font></div></div><div class='cr'><div class='vertical-center'>$55<br>in<br>12 weeks</div></div><div class='respDivL'><div class='vertical-center'><font style='color:orange'>(E)</font></div></div><div class='respDivR'><div class='vertical-center'>(I)</div></div></div>","null","$54<br><br>now","$55<br>in<br>12 weeks","0","54","55","12",""
"html-keyboard-response","28","59178","0.0-5.0-1.8","5df5b9f661721940c46c3cd3","bdp_td","Sun Mar 26 2023 02:21:21 GMT-0400 (Eastern Daylight Time)","108726","","null","","","","FIX","","<div class='trialBorder'><div class='vertical-center'><img style='vertical-align:center; align:center' src=img/fixation3.jpg></div></div>","null","","","","","","",""
"html-keyboard-response","29","60785","0.0-5.0-2.8","5df5b9f661721940c46c3cd3","bdp_td","Sun Mar 26 2023 02:21:21 GMT-0400 (Eastern Daylight Time)","108726","","1605","","","","offer","","<div class='trialBorder'><div class='vertical-center'><img style='vertical-align:center; align:center' src=img/fixation3.jpg></div><div class='cl'><div class='vertical-center'>$30<br>in<br>6 weeks</div></div><div class='cr'><div class='vertical-center'>$25<br><br>now</div></div><div class='respDivL'><div class='vertical-center'>(E)</div></div><div class='respDivR'><div class='vertical-center'>(I)</div></div></div>","I","$25<br><br>now","$30<br>in<br>6 weeks","1","25","30","6","NOW"
"html-keyboard-response","30","61038","0.0-5.0-3.8","5df5b9f661721940c46c3cd3","bdp_td","Sun Mar 26 2023 02:21:21 GMT-0400 (Eastern Daylight Time)","108726","","null","","","","offerFB","","<div class='trialBorder'><div class='vertical-center'><img style='vertical-align:center; align:center' src=img/fixation3.jpg></div><div class='cl'><div class='vertical-center'>$30<br>in<br>6 weeks</div></div><div class='cr'><div class='vertical-center'><font style='color:orange'>$25<br><br>now</font></div></div><div class='respDivL'><div class='vertical-center'>(E)</div></div><div class='respDivR'><div class='vertical-center'><font style='color:orange'>(I)</font></div></div></div>","null","$25<br><br>now","$30<br>in<br>6 weeks","1","25","30","6",""
"html-keyboard-response","31","61540","0.0-5.0-1.9","5df5b9f661721940c46c3cd3","bdp_td","Sun Mar 26 2023 02:21:21 GMT-0400 (Eastern Daylight Time)","108726","","null","","","","FIX","","<div class='trialBorder'><div class='vertical-center'><img style='vertical-align:center; align:center' src=img/fixation3.jpg></div></div>","null","","","","","","",""
"html-keyboard-response","32","63232","0.0-5.0-2.9","5df5b9f661721940c46c3cd3","bdp_td","Sun Mar 26 2023 02:21:21 GMT-0400 (Eastern Daylight Time)","108726","","1690","","","","offer","","<div class='trialBorder'><div class='vertical-center'><img style='vertical-align:center; align:center' src=img/fixation3.jpg></div><div class='cl'><div class='vertical-center'>$85<br>in<br>12 weeks</div></div><div class='cr'><div class='vertical-center'>$80<br><br>now</div></div><div class='respDivL'><div class='vertical-center'>(E)</div></div><div class='respDivR'><div class='vertical-center'>(I)</div></div></div>","I","$80<br><br>now","$85<br>in<br>12 weeks","1","80","85","12","NOW"
"html-keyboard-response","33","63490","0.0-5.0-3.9","5df5b9f661721940c46c3cd3","bdp_td","Sun Mar 26 2023 02:21:21 GMT-0400 (Eastern Daylight Time)","108726","","null","","","","offerFB","","<div class='trialBorder'><div class='vertical-center'><img style='vertical-align:center; align:center' src=img/fixation3.jpg></div><div class='cl'><div class='vertical-center'>$85<br>in<br>12 weeks</div></div><div class='cr'><div class='vertical-center'><font style='color:orange'>$80<br><br>now</font></div></div><div class='respDivL'><div class='vertical-center'>(E)</div></div><div class='respDivR'><div class='vertical-center'><font style='color:orange'>(I)</font></div></div></div>","null","$80<br><br>now","$85<br>in<br>12 weeks","1","80","85","12",""
"html-keyboard-response","34","63993","0.0-5.0-1.10","5df5b9f661721940c46c3cd3","bdp_td","Sun Mar 26 2023 02:21:21 GMT-0400 (Eastern Daylight Time)","108726","","null","","","","FIX","","<div class='trialBorder'><div class='vertical-center'><img style='vertical-align:center; align:center' src=img/fixation3.jpg></div></div>","null","","","","","","",""
"html-keyboard-response","35","65895","0.0-5.0-2.10","5df5b9f661721940c46c3cd3","bdp_td","Sun Mar 26 2023 02:21:21 GMT-0400 (Eastern Daylight Time)","108726","","1901","","","","offer","","<div class='trialBorder'><div class='vertical-center'><img style='vertical-align:center; align:center' src=img/fixation3.jpg></div><div class='cl'><div class='vertical-center'>$20<br><br>now</div></div><div class='cr'><div class='vertical-center'>$55<br>in<br>1 week</div></div><div class='respDivL'><div class='vertical-center'>(E)</div></div><div class='respDivR'><div class='vertical-center'>(I)</div></div></div>","I","$20<br><br>now","$55<br>in<br>1 week","0","20","55","1","THEN"
"html-keyboard-response","36","66147","0.0-5.0-3.10","5df5b9f661721940c46c3cd3","bdp_td","Sun Mar 26 2023 02:21:21 GMT-0400 (Eastern Daylight Time)","108726","","null","","","","offerFB","","<div class='trialBorder'><div class='vertical-center'><img style='vertical-align:center; align:center' src=img/fixation3.jpg></div><div class='cl'><div class='vertical-center'>$20<br><br>now</div></div><div class='cr'><div class='vertical-center'><font style='color:orange'>$55<br>in<br>1 week</font></div></div><div class='respDivL'><div class='vertical-center'>(E)</div></div><div class='respDivR'><div class='vertical-center'><font style='color:orange'>(I)</font></div></div></div>","null","$20<br><br>now","$55<br>in<br>1 week","0","20","55","1",""
"html-keyboard-response","37","66649","0.0-5.0-1.11","5df5b9f661721940c46c3cd3","bdp_td","Sun Mar 26 2023 02:21:21 GMT-0400 (Eastern Daylight Time)","108726","","null","","","","FIX","","<div class='trialBorder'><div class='vertical-center'><img style='vertical-align:center; align:center' src=img/fixation3.jpg></div></div>","null","","","","","","",""
"html-keyboard-response","38","68120","0.0-5.0-2.11","5df5b9f661721940c46c3cd3","bdp_td","Sun Mar 26 2023 02:21:21 GMT-0400 (Eastern Daylight Time)","108726","","1470","","","","offer","","<div class='trialBorder'><div class='vertical-center'><img style='vertical-align:center; align:center' src=img/fixation3.jpg></div><div class='cl'><div class='vertical-center'>$30<br>in<br>12 weeks</div></div><div class='cr'><div class='vertical-center'>$28<br><br>now</div></div><div class='respDivL'><div class='vertical-center'>(E)</div></div><div class='respDivR'><div class='vertical-center'>(I)</div></div></div>","I","$28<br><br>now","$30<br>in<br>12 weeks","1","28","30","12","NOW"
"html-keyboard-response","39","68374","0.0-5.0-3.11","5df5b9f661721940c46c3cd3","bdp_td","Sun Mar 26 2023 02:21:21 GMT-0400 (Eastern Daylight Time)","108726","","null","","","","offerFB","","<div class='trialBorder'><div class='vertical-center'><img style='vertical-align:center; align:center' src=img/fixation3.jpg></div><div class='cl'><div class='vertical-center'>$30<br>in<br>12 weeks</div></div><div class='cr'><div class='vertical-center'><font style='color:orange'>$28<br><br>now</font></div></div><div class='respDivL'><div class='vertical-center'>(E)</div></div><div class='respDivR'><div class='vertical-center'><font style='color:orange'>(I)</font></div></div></div>","null","$28<br><br>now","$30<br>in<br>12 weeks","1","28","30","12",""
"html-keyboard-response","40","68885","0.0-5.0-1.12","5df5b9f661721940c46c3cd3","bdp_td","Sun Mar 26 2023 02:21:21 GMT-0400 (Eastern Daylight Time)","108726","","null","","","","FIX","","<div class='trialBorder'><div class='vertical-center'><img style='vertical-align:center; align:center' src=img/fixation3.jpg></div></div>","null","","","","","","",""
"html-keyboard-response","41","69998","0.0-5.0-2.12","5df5b9f661721940c46c3cd3","bdp_td","Sun Mar 26 2023 02:21:21 GMT-0400 (Eastern Daylight Time)","108726","","1113","","","","offer","","<div class='trialBorder'><div class='vertical-center'><img style='vertical-align:center; align:center' src=img/fixation3.jpg></div><div class='cl'><div class='vertical-center'>$19<br><br>now</div></div><div class='cr'><div class='vertical-center'>$25<br>in<br>6 weeks</div></div><div class='respDivL'><div class='vertical-center'>(E)</div></div><div class='respDivR'><div class='vertical-center'>(I)</div></div></div>","E","$19<br><br>now","$25<br>in<br>6 weeks","0","19","25","6","NOW"
"html-keyboard-response","42","70254","0.0-5.0-3.12","5df5b9f661721940c46c3cd3","bdp_td","Sun Mar 26 2023 02:21:21 GMT-0400 (Eastern Daylight Time)","108726","","null","","","","offerFB","","<div class='trialBorder'><div class='vertical-center'><img style='vertical-align:center; align:center' src=img/fixation3.jpg></div><div class='cl'><div class='vertical-center'><font style='color:orange'>$19<br><br>now</font></div></div><div class='cr'><div class='vertical-center'>$25<br>in<br>6 weeks</div></div><div class='respDivL'><div class='vertical-center'><font style='color:orange'>(E)</font></div></div><div class='respDivR'><div class='vertical-center'>(I)</div></div></div>","null","$19<br><br>now","$25<br>in<br>6 weeks","0","19","25","6",""
"html-keyboard-response","43","70758","0.0-5.0-1.13","5df5b9f661721940c46c3cd3","bdp_td","Sun Mar 26 2023 02:21:21 GMT-0400 (Eastern Daylight Time)","108726","","null","","","","FIX","","<div class='trialBorder'><div class='vertical-center'><img style='vertical-align:center; align:center' src=img/fixation3.jpg></div></div>","null","","","","","","",""
"html-keyboard-response","44","72355","0.0-5.0-2.13","5df5b9f661721940c46c3cd3","bdp_td","Sun Mar 26 2023 02:21:21 GMT-0400 (Eastern Daylight Time)","108726","","1595","","","","offer","","<div class='trialBorder'><div class='vertical-center'><img style='vertical-align:center; align:center' src=img/fixation3.jpg></div><div class='cl'><div class='vertical-center'>$50<br>in<br>12 weeks</div></div><div class='cr'><div class='vertical-center'>$47<br><br>now</div></div><div class='respDivL'><div class='vertical-center'>(E)</div></div><div class='respDivR'><div class='vertical-center'>(I)</div></div></div>","I","$47<br><br>now","$50<br>in<br>12 weeks","1","47","50","12","NOW"
"html-keyboard-response","45","72616","0.0-5.0-3.13","5df5b9f661721940c46c3cd3","bdp_td","Sun Mar 26 2023 02:21:21 GMT-0400 (Eastern Daylight Time)","108726","","null","","","","offerFB","","<div class='trialBorder'><div class='vertical-center'><img style='vertical-align:center; align:center' src=img/fixation3.jpg></div><div class='cl'><div class='vertical-center'>$50<br>in<br>12 weeks</div></div><div class='cr'><div class='vertical-center'><font style='color:orange'>$47<br><br>now</font></div></div><div class='respDivL'><div class='vertical-center'>(E)</div></div><div class='respDivR'><div class='vertical-center'><font style='color:orange'>(I)</font></div></div></div>","null","$47<br><br>now","$50<br>in<br>12 weeks","1","47","50","12",""
"html-keyboard-response","46","73120","0.0-5.0-1.14","5df5b9f661721940c46c3cd3","bdp_td","Sun Mar 26 2023 02:21:21 GMT-0400 (Eastern Daylight Time)","108726","","null","","","","FIX","","<div class='trialBorder'><div class='vertical-center'><img style='vertical-align:center; align:center' src=img/fixation3.jpg></div></div>","null","","","","","","",""
"html-keyboard-response","47","74816","0.0-5.0-2.14","5df5b9f661721940c46c3cd3","bdp_td","Sun Mar 26 2023 02:21:21 GMT-0400 (Eastern Daylight Time)","108726","","1695","","","","offer","","<div class='trialBorder'><div class='vertical-center'><img style='vertical-align:center; align:center' src=img/fixation3.jpg></div><div class='cl'><div class='vertical-center'>$40<br><br>now</div></div><div class='cr'><div class='vertical-center'>$55<br>in<br>6 weeks</div></div><div class='respDivL'><div class='vertical-center'>(E)</div></div><div class='respDivR'><div class='vertical-center'>(I)</div></div></div>","E","$40<br><br>now","$55<br>in<br>6 weeks","0","40","55","6","NOW"
"html-keyboard-response","48","75073","0.0-5.0-3.14","5df5b9f661721940c46c3cd3","bdp_td","Sun Mar 26 2023 02:21:21 GMT-0400 (Eastern Daylight Time)","108726","","null","","","","offerFB","","<div class='trialBorder'><div class='vertical-center'><img style='vertical-align:center; align:center' src=img/fixation3.jpg></div><div class='cl'><div class='vertical-center'><font style='color:orange'>$40<br><br>now</font></div></div><div class='cr'><div class='vertical-center'>$55<br>in<br>6 weeks</div></div><div class='respDivL'><div class='vertical-center'><font style='color:orange'>(E)</font></div></div><div class='respDivR'><div class='vertical-center'>(I)</div></div></div>","null","$40<br><br>now","$55<br>in<br>6 weeks","0","40","55","6",""
"html-keyboard-response","49","75578","0.0-5.0-1.15","5df5b9f661721940c46c3cd3","bdp_td","Sun Mar 26 2023 02:21:21 GMT-0400 (Eastern Daylight Time)","108726","","null","","","","FIX","","<div class='trialBorder'><div class='vertical-center'><img style='vertical-align:center; align:center' src=img/fixation3.jpg></div></div>","null","","","","","","",""
"html-keyboard-response","50","77621","0.0-5.0-2.15","5df5b9f661721940c46c3cd3","bdp_td","Sun Mar 26 2023 02:21:21 GMT-0400 (Eastern Daylight Time)","108726","","2042","","","","offer","","<div class='trialBorder'><div class='vertical-center'><img style='vertical-align:center; align:center' src=img/fixation3.jpg></div><div class='cl'><div class='vertical-center'>$50<br>in<br>6 weeks</div></div><div class='cr'><div class='vertical-center'>$34<br><br>now</div></div><div class='respDivL'><div class='vertical-center'>(E)</div></div><div class='respDivR'><div class='vertical-center'>(I)</div></div></div>","I","$34<br><br>now","$50<br>in<br>6 weeks","1","34","50","6","NOW"
"html-keyboard-response","51","77875","0.0-5.0-3.15","5df5b9f661721940c46c3cd3","bdp_td","Sun Mar 26 2023 02:21:21 GMT-0400 (Eastern Daylight Time)","108726","","null","","","","offerFB","","<div class='trialBorder'><div class='vertical-center'><img style='vertical-align:center; align:center' src=img/fixation3.jpg></div><div class='cl'><div class='vertical-center'>$50<br>in<br>6 weeks</div></div><div class='cr'><div class='vertical-center'><font style='color:orange'>$34<br><br>now</font></div></div><div class='respDivL'><div class='vertical-center'>(E)</div></div><div class='respDivR'><div class='vertical-center'><font style='color:orange'>(I)</font></div></div></div>","null","$34<br><br>now","$50<br>in<br>6 weeks","1","34","50","6",""
"html-keyboard-response","52","78384","0.0-5.0-1.16","5df5b9f661721940c46c3cd3","bdp_td","Sun Mar 26 2023 02:21:21 GMT-0400 (Eastern Daylight Time)","108726","","null","","","","FIX","","<div class='trialBorder'><div class='vertical-center'><img style='vertical-align:center; align:center' src=img/fixation3.jpg></div></div>","null","","","","","","",""
"html-keyboard-response","53","79854","0.0-5.0-2.16","5df5b9f661721940c46c3cd3","bdp_td","Sun Mar 26 2023 02:21:21 GMT-0400 (Eastern Daylight Time)","108726","","1468","","","","offer","","<div class='trialBorder'><div class='vertical-center'><img style='vertical-align:center; align:center' src=img/fixation3.jpg></div><div class='cl'><div class='vertical-center'>$69<br><br>now</div></div><div class='cr'><div class='vertical-center'>$85<br>in<br>6 weeks</div></div><div class='respDivL'><div class='vertical-center'>(E)</div></div><div class='respDivR'><div class='vertical-center'>(I)</div></div></div>","E","$69<br><br>now","$85<br>in<br>6 weeks","0","69","85","6","NOW"
"html-keyboard-response","54","80107","0.0-5.0-3.16","5df5b9f661721940c46c3cd3","bdp_td","Sun Mar 26 2023 02:21:21 GMT-0400 (Eastern Daylight Time)","108726","","null","","","","offerFB","","<div class='trialBorder'><div class='vertical-center'><img style='vertical-align:center; align:center' src=img/fixation3.jpg></div><div class='cl'><div class='vertical-center'><font style='color:orange'>$69<br><br>now</font></div></div><div class='cr'><div class='vertical-center'>$85<br>in<br>6 weeks</div></div><div class='respDivL'><div class='vertical-center'><font style='color:orange'>(E)</font></div></div><div class='respDivR'><div class='vertical-center'>(I)</div></div></div>","null","$69<br><br>now","$85<br>in<br>6 weeks","0","69","85","6",""
"html-keyboard-response","55","80610","0.0-5.0-1.17","5df5b9f661721940c46c3cd3","bdp_td","Sun Mar 26 2023 02:21:21 GMT-0400 (Eastern Daylight Time)","108726","","null","","","","FIX","","<div class='trialBorder'><div class='vertical-center'><img style='vertical-align:center; align:center' src=img/fixation3.jpg></div></div>","null","","","","","","",""
"html-keyboard-response","56","81912","0.0-5.0-2.17","5df5b9f661721940c46c3cd3","bdp_td","Sun Mar 26 2023 02:21:21 GMT-0400 (Eastern Daylight Time)","108726","","1300","","","","offer","","<div class='trialBorder'><div class='vertical-center'><img style='vertical-align:center; align:center' src=img/fixation3.jpg></div><div class='cl'><div class='vertical-center'>$60<br>in<br>6 weeks</div></div><div class='cr'><div class='vertical-center'>$49<br><br>now</div></div><div class='respDivL'><div class='vertical-center'>(E)</div></div><div class='respDivR'><div class='vertical-center'>(I)</div></div></div>","I","$49<br><br>now","$60<br>in<br>6 weeks","1","49","60","6","NOW"
"html-keyboard-response","57","82166","0.0-5.0-3.17","5df5b9f661721940c46c3cd3","bdp_td","Sun Mar 26 2023 02:21:21 GMT-0400 (Eastern Daylight Time)","108726","","null","","","","offerFB","","<div class='trialBorder'><div class='vertical-center'><img style='vertical-align:center; align:center' src=img/fixation3.jpg></div><div class='cl'><div class='vertical-center'>$60<br>in<br>6 weeks</div></div><div class='cr'><div class='vertical-center'><font style='color:orange'>$49<br><br>now</font></div></div><div class='respDivL'><div class='vertical-center'>(E)</div></div><div class='respDivR'><div class='vertical-center'><font style='color:orange'>(I)</font></div></div></div>","null","$49<br><br>now","$60<br>in<br>6 weeks","1","49","60","6",""
"html-keyboard-response","58","82669","0.0-5.0-1.18","5df5b9f661721940c46c3cd3","bdp_td","Sun Mar 26 2023 02:21:21 GMT-0400 (Eastern Daylight Time)","108726","","null","","","","FIX","","<div class='trialBorder'><div class='vertical-center'><img style='vertical-align:center; align:center' src=img/fixation3.jpg></div></div>","null","","","","","","",""
"html-keyboard-response","59","86310","0.0-5.0-2.18","5df5b9f661721940c46c3cd3","bdp_td","Sun Mar 26 2023 02:21:21 GMT-0400 (Eastern Daylight Time)","108726","","3639","","","","offer","","<div class='trialBorder'><div class='vertical-center'><img style='vertical-align:center; align:center' src=img/fixation3.jpg></div><div class='cl'><div class='vertical-center'>$75<br>in<br>3 weeks</div></div><div class='cr'><div class='vertical-center'>$41<br><br>now</div></div><div class='respDivL'><div class='vertical-center'>(E)</div></div><div class='respDivR'><div class='vertical-center'>(I)</div></div></div>","E","$41<br><br>now","$75<br>in<br>3 weeks","1","41","75","3","THEN"
"html-keyboard-response","60","86562","0.0-5.0-3.18","5df5b9f661721940c46c3cd3","bdp_td","Sun Mar 26 2023 02:21:21 GMT-0400 (Eastern Daylight Time)","108726","","null","","","","offerFB","","<div class='trialBorder'><div class='vertical-center'><img style='vertical-align:center; align:center' src=img/fixation3.jpg></div><div class='cl'><div class='vertical-center'><font style='color:orange'>$75<br>in<br>3 weeks</font></div></div><div class='cr'><div class='vertical-center'>$41<br><br>now</div></div><div class='respDivL'><div class='vertical-center'><font style='color:orange'>(E)</font></div></div><div class='respDivR'><div class='vertical-center'>(I)</div></div></div>","null","$41<br><br>now","$75<br>in<br>3 weeks","1","41","75","3",""
"html-keyboard-response","61","87068","0.0-5.0-1.19","5df5b9f661721940c46c3cd3","bdp_td","Sun Mar 26 2023 02:21:21 GMT-0400 (Eastern Daylight Time)","108726","","null","","","","FIX","","<div class='trialBorder'><div class='vertical-center'><img style='vertical-align:center; align:center' src=img/fixation3.jpg></div></div>","null","","","","","","",""
"html-keyboard-response","62","91594","0.0-5.0-2.19","5df5b9f661721940c46c3cd3","bdp_td","Sun Mar 26 2023 02:21:21 GMT-0400 (Eastern Daylight Time)","108726","","4525","","","","offer","","<div class='trialBorder'><div class='vertical-center'><img style='vertical-align:center; align:center' src=img/fixation3.jpg></div><div class='cl'><div class='vertical-center'>$60<br>in<br>3 weeks</div></div><div class='cr'><div class='vertical-center'>$25<br><br>now</div></div><div class='respDivL'><div class='vertical-center'>(E)</div></div><div class='respDivR'><div class='vertical-center'>(I)</div></div></div>","E","$25<br><br>now","$60<br>in<br>3 weeks","1","25","60","3","THEN"
"html-keyboard-response","63","91849","0.0-5.0-3.19","5df5b9f661721940c46c3cd3","bdp_td","Sun Mar 26 2023 02:21:21 GMT-0400 (Eastern Daylight Time)","108726","","null","","","","offerFB","","<div class='trialBorder'><div class='vertical-center'><img style='vertical-align:center; align:center' src=img/fixation3.jpg></div><div class='cl'><div class='vertical-center'><font style='color:orange'>$60<br>in<br>3 weeks</font></div></div><div class='cr'><div class='vertical-center'>$25<br><br>now</div></div><div class='respDivL'><div class='vertical-center'><font style='color:orange'>(E)</font></div></div><div class='respDivR'><div class='vertical-center'>(I)</div></div></div>","null","$25<br><br>now","$60<br>in<br>3 weeks","1","25","60","3",""
"html-keyboard-response","64","92356","0.0-5.0-1.20","5df5b9f661721940c46c3cd3","bdp_td","Sun Mar 26 2023 02:21:21 GMT-0400 (Eastern Daylight Time)","108726","","null","","","","FIX","","<div class='trialBorder'><div class='vertical-center'><img style='vertical-align:center; align:center' src=img/fixation3.jpg></div></div>","null","","","","","","",""
"html-keyboard-response","65","93465","0.0-5.0-2.20","5df5b9f661721940c46c3cd3","bdp_td","Sun Mar 26 2023 02:21:21 GMT-0400 (Eastern Daylight Time)","108726","","1108","","","","offer","","<div class='trialBorder'><div class='vertical-center'><img style='vertical-align:center; align:center' src=img/fixation3.jpg></div><div class='cl'><div class='vertical-center'>$35<br>in<br>12 weeks</div></div><div class='cr'><div class='vertical-center'>$34<br><br>now</div></div><div class='respDivL'><div class='vertical-center'>(E)</div></div><div class='respDivR'><div class='vertical-center'>(I)</div></div></div>","I","$34<br><br>now","$35<br>in<br>12 weeks","1","34","35","12","NOW"
"html-keyboard-response","66","93719","0.0-5.0-3.20","5df5b9f661721940c46c3cd3","bdp_td","Sun Mar 26 2023 02:21:21 GMT-0400 (Eastern Daylight Time)","108726","","null","","","","offerFB","","<div class='trialBorder'><div class='vertical-center'><img style='vertical-align:center; align:center' src=img/fixation3.jpg></div><div class='cl'><div class='vertical-center'>$35<br>in<br>12 weeks</div></div><div class='cr'><div class='vertical-center'><font style='color:orange'>$34<br><br>now</font></div></div><div class='respDivL'><div class='vertical-center'>(E)</div></div><div class='respDivR'><div class='vertical-center'><font style='color:orange'>(I)</font></div></div></div>","null","$34<br><br>now","$35<br>in<br>12 weeks","1","34","35","12",""
"html-keyboard-response","67","94222","0.0-5.0-1.21","5df5b9f661721940c46c3cd3","bdp_td","Sun Mar 26 2023 02:21:21 GMT-0400 (Eastern Daylight Time)","108726","","null","","","","FIX","","<div class='trialBorder'><div class='vertical-center'><img style='vertical-align:center; align:center' src=img/fixation3.jpg></div></div>","null","","","","","","",""
"html-keyboard-response","68","95598","0.0-5.0-2.21","5df5b9f661721940c46c3cd3","bdp_td","Sun Mar 26 2023 02:21:21 GMT-0400 (Eastern Daylight Time)","108726","","1375","","","","offer","","<div class='trialBorder'><div class='vertical-center'><img style='vertical-align:center; align:center' src=img/fixation3.jpg></div><div class='cl'><div class='vertical-center'>$25<br>in<br>12 weeks</div></div><div class='cr'><div class='vertical-center'>$22<br><br>now</div></div><div class='respDivL'><div class='vertical-center'>(E)</div></div><div class='respDivR'><div class='vertical-center'>(I)</div></div></div>","I","$22<br><br>now","$25<br>in<br>12 weeks","1","22","25","12","NOW"
"html-keyboard-response","69","95857","0.0-5.0-3.21","5df5b9f661721940c46c3cd3","bdp_td","Sun Mar 26 2023 02:21:21 GMT-0400 (Eastern Daylight Time)","108726","","null","","","","offerFB","","<div class='trialBorder'><div class='vertical-center'><img style='vertical-align:center; align:center' src=img/fixation3.jpg></div><div class='cl'><div class='vertical-center'>$25<br>in<br>12 weeks</div></div><div class='cr'><div class='vertical-center'><font style='color:orange'>$22<br><br>now</font></div></div><div class='respDivL'><div class='vertical-center'>(E)</div></div><div class='respDivR'><div class='vertical-center'><font style='color:orange'>(I)</font></div></div></div>","null","$22<br><br>now","$25<br>in<br>12 weeks","1","22","25","12",""
"html-keyboard-response","70","96360","0.0-5.0-1.22","5df5b9f661721940c46c3cd3","bdp_td","Sun Mar 26 2023 02:21:21 GMT-0400 (Eastern Daylight Time)","108726","","null","","","","FIX","","<div class='trialBorder'><div class='vertical-center'><img style='vertical-align:center; align:center' src=img/fixation3.jpg></div></div>","null","","","","","","",""
"html-keyboard-response","71","97968","0.0-5.0-2.22","5df5b9f661721940c46c3cd3","bdp_td","Sun Mar 26 2023 02:21:21 GMT-0400 (Eastern Daylight Time)","108726","","1607","","","","offer","","<div class='trialBorder'><div class='vertical-center'><img style='vertical-align:center; align:center' src=img/fixation3.jpg></div><div class='cl'><div class='vertical-center'>$54<br><br>now</div></div><div class='cr'><div class='vertical-center'>$80<br>in<br>3 weeks</div></div><div class='respDivL'><div class='vertical-center'>(E)</div></div><div class='respDivR'><div class='vertical-center'>(I)</div></div></div>","E","$54<br><br>now","$80<br>in<br>3 weeks","0","54","80","3","NOW"
"html-keyboard-response","72","98227","0.0-5.0-3.22","5df5b9f661721940c46c3cd3","bdp_td","Sun Mar 26 2023 02:21:21 GMT-0400 (Eastern Daylight Time)","108726","","null","","","","offerFB","","<div class='trialBorder'><div class='vertical-center'><img style='vertical-align:center; align:center' src=img/fixation3.jpg></div><div class='cl'><div class='vertical-center'><font style='color:orange'>$54<br><br>now</font></div></div><div class='cr'><div class='vertical-center'>$80<br>in<br>3 weeks</div></div><div class='respDivL'><div class='vertical-center'><font style='color:orange'>(E)</font></div></div><div class='respDivR'><div class='vertical-center'>(I)</div></div></div>","null","$54<br><br>now","$80<br>in<br>3 weeks","0","54","80","3",""
"html-keyboard-response","73","98731","0.0-5.0-1.23","5df5b9f661721940c46c3cd3","bdp_td","Sun Mar 26 2023 02:21:21 GMT-0400 (Eastern Daylight Time)","108726","","null","","","","FIX","","<div class='trialBorder'><div class='vertical-center'><img style='vertical-align:center; align:center' src=img/fixation3.jpg></div></div>","null","","","","","","",""
"html-keyboard-response","74","100466","0.0-5.0-2.23","5df5b9f661721940c46c3cd3","bdp_td","Sun Mar 26 2023 02:21:21 GMT-0400 (Eastern Daylight Time)","108726","","1734","","","","offer","","<div class='trialBorder'><div class='vertical-center'><img style='vertical-align:center; align:center' src=img/fixation3.jpg></div><div class='cl'><div class='vertical-center'>$33<br><br>now</div></div><div class='cr'><div class='vertical-center'>$80<br>in<br>2 weeks</div></div><div class='respDivL'><div class='vertical-center'>(E)</div></div><div class='respDivR'><div class='vertical-center'>(I)</div></div></div>","I","$33<br><br>now","$80<br>in<br>2 weeks","0","33","80","2","THEN"
"html-keyboard-response","75","100725","0.0-5.0-3.23","5df5b9f661721940c46c3cd3","bdp_td","Sun Mar 26 2023 02:21:21 GMT-0400 (Eastern Daylight Time)","108726","","null","","","","offerFB","","<div class='trialBorder'><div class='vertical-center'><img style='vertical-align:center; align:center' src=img/fixation3.jpg></div><div class='cl'><div class='vertical-center'>$33<br><br>now</div></div><div class='cr'><div class='vertical-center'><font style='color:orange'>$80<br>in<br>2 weeks</font></div></div><div class='respDivL'><div class='vertical-center'>(E)</div></div><div class='respDivR'><div class='vertical-center'><font style='color:orange'>(I)</font></div></div></div>","null","$33<br><br>now","$80<br>in<br>2 weeks","0","33","80","2",""
"html-keyboard-response","76","101229","0.0-5.0-1.24","5df5b9f661721940c46c3cd3","bdp_td","Sun Mar 26 2023 02:21:21 GMT-0400 (Eastern Daylight Time)","108726","","null","","","","FIX","","<div class='trialBorder'><div class='vertical-center'><img style='vertical-align:center; align:center' src=img/fixation3.jpg></div></div>","null","","","","","","",""
"html-keyboard-response","77","103672","0.0-5.0-2.24","5df5b9f661721940c46c3cd3","bdp_td","Sun Mar 26 2023 02:21:21 GMT-0400 (Eastern Daylight Time)","108726","","2443","","","","offer","","<div class='trialBorder'><div class='vertical-center'><img style='vertical-align:center; align:center' src=img/fixation3.jpg></div><div class='cl'><div class='vertical-center'>$14<br><br>now</div></div><div class='cr'><div class='vertical-center'>$25<br>in<br>3 weeks</div></div><div class='respDivL'><div class='vertical-center'>(E)</div></div><div class='respDivR'><div class='vertical-center'>(I)</div></div></div>","E","$14<br><br>now","$25<br>in<br>3 weeks","0","14","25","3","NOW"
"html-keyboard-response","78","103924","0.0-5.0-3.24","5df5b9f661721940c46c3cd3","bdp_td","Sun Mar 26 2023 02:21:21 GMT-0400 (Eastern Daylight Time)","108726","","null","","","","offerFB","","<div class='trialBorder'><div class='vertical-center'><img style='vertical-align:center; align:center' src=img/fixation3.jpg></div><div class='cl'><div class='vertical-center'><font style='color:orange'>$14<br><br>now</font></div></div><div class='cr'><div class='vertical-center'>$25<br>in<br>3 weeks</div></div><div class='respDivL'><div class='vertical-center'><font style='color:orange'>(E)</font></div></div><div class='respDivR'><div class='vertical-center'>(I)</div></div></div>","null","$14<br><br>now","$25<br>in<br>3 weeks","0","14","25","3",""
"html-keyboard-response","79","104427","0.0-5.0-1.25","5df5b9f661721940c46c3cd3","bdp_td","Sun Mar 26 2023 02:21:21 GMT-0400 (Eastern Daylight Time)","108726","","null","","","","FIX","","<div class='trialBorder'><div class='vertical-center'><img style='vertical-align:center; align:center' src=img/fixation3.jpg></div></div>","null","","","","","","",""
"html-keyboard-response","80","105752","0.0-5.0-2.25","5df5b9f661721940c46c3cd3","bdp_td","Sun Mar 26 2023 02:21:21 GMT-0400 (Eastern Daylight Time)","108726","","1323","","","","offer","","<div class='trialBorder'><div class='vertical-center'><img style='vertical-align:center; align:center' src=img/fixation3.jpg></div><div class='cl'><div class='vertical-center'>$55<br><br>now</div></div><div class='cr'><div class='vertical-center'>$75<br>in<br>6 weeks</div></div><div class='respDivL'><div class='vertical-center'>(E)</div></div><div class='respDivR'><div class='vertical-center'>(I)</div></div></div>","E","$55<br><br>now","$75<br>in<br>6 weeks","0","55","75","6","NOW"
"html-keyboard-response","81","106016","0.0-5.0-3.25","5df5b9f661721940c46c3cd3","bdp_td","Sun Mar 26 2023 02:21:21 GMT-0400 (Eastern Daylight Time)","108726","","null","","","","offerFB","","<div class='trialBorder'><div class='vertical-center'><img style='vertical-align:center; align:center' src=img/fixation3.jpg></div><div class='cl'><div class='vertical-center'><font style='color:orange'>$55<br><br>now</font></div></div><div class='cr'><div class='vertical-center'>$75<br>in<br>6 weeks</div></div><div class='respDivL'><div class='vertical-center'><font style='color:orange'>(E)</font></div></div><div class='respDivR'><div class='vertical-center'>(I)</div></div></div>","null","$55<br><br>now","$75<br>in<br>6 weeks","0","55","75","6",""
"html-keyboard-response","82","106518","0.0-5.0-1.26","5df5b9f661721940c46c3cd3","bdp_td","Sun Mar 26 2023 02:21:21 GMT-0400 (Eastern Daylight Time)","108726","","null","","","","FIX","","<div class='trialBorder'><div class='vertical-center'><img style='vertical-align:center; align:center' src=img/fixation3.jpg></div></div>","null","","","","","","",""
"html-keyboard-response","83","107467","0.0-5.0-2.26","5df5b9f661721940c46c3cd3","bdp_td","Sun Mar 26 2023 02:21:21 GMT-0400 (Eastern Daylight Time)","108726","","948","","","","offer","","<div class='trialBorder'><div class='vertical-center'><img style='vertical-align:center; align:center' src=img/fixation3.jpg></div><div class='cl'><div class='vertical-center'>$60<br>in<br>12 weeks</div></div><div class='cr'><div class='vertical-center'>$54<br><br>now</div></div><div class='respDivL'><div class='vertical-center'>(E)</div></div><div class='respDivR'><div class='vertical-center'>(I)</div></div></div>","I","$54<br><br>now","$60<br>in<br>12 weeks","1","54","60","12","NOW"
"html-keyboard-response","84","107722","0.0-5.0-3.26","5df5b9f661721940c46c3cd3","bdp_td","Sun Mar 26 2023 02:21:21 GMT-0400 (Eastern Daylight Time)","108726","","null","","","","offerFB","","<div class='trialBorder'><div class='vertical-center'><img style='vertical-align:center; align:center' src=img/fixation3.jpg></div><div class='cl'><div class='vertical-center'>$60<br>in<br>12 weeks</div></div><div class='cr'><div class='vertical-center'><font style='color:orange'>$54<br><br>now</font></div></div><div class='respDivL'><div class='vertical-center'>(E)</div></div><div class='respDivR'><div class='vertical-center'><font style='color:orange'>(I)</font></div></div></div>","null","$54<br><br>now","$60<br>in<br>12 weeks","1","54","60","12",""
"","","","","5df5b9f661721940c46c3cd3","bdp_td","Sun Mar 26 2023 02:21:21 GMT-0400 (Eastern Daylight Time)","108726","","","fullscreenexit","85","107751","fullscreenexit","","","","","","","","","",""
"fullscreen","85","108725","0.0-6.0","5df5b9f661721940c46c3cd3","bdp_td","Sun Mar 26 2023 02:21:21 GMT-0400 (Eastern Daylight Time)","108726","","","","","","","true","","","","","","","","",""
"html-keyboard-response","86","109229","0.0-7.0","","","","","","null","","","","","","","null","","","","","","",""
