"trial_type","trial_index","time_elapsed","internal_node_id","subject_id","task","startTime","totalTime","view_history","rt","event","trial","time","trialtype","success","stimulus","key_press","nowOffer","thenOffer","thenLeft","nowAmt","thenAmt","thenWeeks","chosen"
"pavlovia","0","3","0.0-0.0","63ee5e103b44d07673cc8bd6","bdp_td","Sun Apr 09 2023 16:21:36 GMT-0700 (Pacific Daylight Time)","57348","","","","","","","","","","","","","","","",""
"instructions","1","2105","0.0-1.0","63ee5e103b44d07673cc8bd6","bdp_td","Sun Apr 09 2023 16:21:36 GMT-0700 (Pacific Daylight Time)","57348","[{""page_index"":0,""viewing_time"":2102}]","2102","","","","","","","","","","","","","",""
"","","","","63ee5e103b44d07673cc8bd6","bdp_td","Sun Apr 09 2023 16:21:36 GMT-0700 (Pacific Daylight Time)","57348","","","fullscreenenter","2","4841","fullscreenenter","","","","","","","","","",""
"fullscreen","2","5819","0.0-2.0","63ee5e103b44d07673cc8bd6","bdp_td","Sun Apr 09 2023 16:21:36 GMT-0700 (Pacific Daylight Time)","57348","","","","","","","true","","","","","","","","",""
"instructions","3","12687","0.0-4.0","63ee5e103b44d07673cc8bd6","bdp_td","Sun Apr 09 2023 16:21:36 GMT-0700 (Pacific Daylight Time)","57348","[{""page_index"":0,""viewing_time"":1968},{""page_index"":1,""viewing_time"":2637},{""page_index"":2,""viewing_time"":2263}]","6868","","","","","","","","","","","","","",""
"html-keyboard-response","4","13189","0.0-5.0-1.0","63ee5e103b44d07673cc8bd6","bdp_td","Sun Apr 09 2023 16:21:36 GMT-0700 (Pacific Daylight Time)","57348","","null","","","","FIX","","<div class='trialBorder'><div class='vertical-center'><img style='vertical-align:center; align:center' src=img/fixation3.jpg></div></div>","null","","","","","","",""
"html-keyboard-response","5","15173","0.0-5.0-2.0","63ee5e103b44d07673cc8bd6","bdp_td","Sun Apr 09 2023 16:21:36 GMT-0700 (Pacific Daylight Time)","57348","","1983","","","","offer","","<div class='trialBorder'><div class='vertical-center'><img style='vertical-align:center; align:center' src=img/fixation3.jpg></div><div class='cl'><div class='vertical-center'>$80<br>in<br>3 weeks</div></div><div class='cr'><div class='vertical-center'>$54<br><br>now</div></div><div class='respDivL'><div class='vertical-center'>(E)</div></div><div class='respDivR'><div class='vertical-center'>(I)</div></div></div>","E","$54<br><br>now","$80<br>in<br>3 weeks","1","54","80","3","THEN"
"html-keyboard-response","6","15425","0.0-5.0-3.0","63ee5e103b44d07673cc8bd6","bdp_td","Sun Apr 09 2023 16:21:36 GMT-0700 (Pacific Daylight Time)","57348","","null","","","","offerFB","","<div class='trialBorder'><div class='vertical-center'><img style='vertical-align:center; align:center' src=img/fixation3.jpg></div><div class='cl'><div class='vertical-center'><font style='color:orange'>$80<br>in<br>3 weeks</font></div></div><div class='cr'><div class='vertical-center'>$54<br><br>now</div></div><div class='respDivL'><div class='vertical-center'><font style='color:orange'>(E)</font></div></div><div class='respDivR'><div class='vertical-center'>(I)</div></div></div>","null","$54<br><br>now","$80<br>in<br>3 weeks","1","54","80","3",""
"html-keyboard-response","7","15927","0.0-5.0-1.1","63ee5e103b44d07673cc8bd6","bdp_td","Sun Apr 09 2023 16:21:36 GMT-0700 (Pacific Daylight Time)","57348","","null","","","","FIX","","<div class='trialBorder'><div class='vertical-center'><img style='vertical-align:center; align:center' src=img/fixation3.jpg></div></div>","null","","","","","","",""
"html-keyboard-response","8","17037","0.0-5.0-2.1","63ee5e103b44d07673cc8bd6","bdp_td","Sun Apr 09 2023 16:21:36 GMT-0700 (Pacific Daylight Time)","57348","","1109","","","","offer","","<div class='trialBorder'><div class='vertical-center'><img style='vertical-align:center; align:center' src=img/fixation3.jpg></div><div class='cl'><div class='vertical-center'>$69<br><br>now</div></div><div class='cr'><div class='vertical-center'>$85<br>in<br>6 weeks</div></div><div class='respDivL'><div class='vertical-center'>(E)</div></div><div class='respDivR'><div class='vertical-center'>(I)</div></div></div>","E","$69<br><br>now","$85<br>in<br>6 weeks","0","69","85","6","NOW"
"html-keyboard-response","9","17288","0.0-5.0-3.1","63ee5e103b44d07673cc8bd6","bdp_td","Sun Apr 09 2023 16:21:36 GMT-0700 (Pacific Daylight Time)","57348","","null","","","","offerFB","","<div class='trialBorder'><div class='vertical-center'><img style='vertical-align:center; align:center' src=img/fixation3.jpg></div><div class='cl'><div class='vertical-center'><font style='color:orange'>$69<br><br>now</font></div></div><div class='cr'><div class='vertical-center'>$85<br>in<br>6 weeks</div></div><div class='respDivL'><div class='vertical-center'><font style='color:orange'>(E)</font></div></div><div class='respDivR'><div class='vertical-center'>(I)</div></div></div>","null","$69<br><br>now","$85<br>in<br>6 weeks","0","69","85","6",""
"html-keyboard-response","10","17790","0.0-5.0-1.2","63ee5e103b44d07673cc8bd6","bdp_td","Sun Apr 09 2023 16:21:36 GMT-0700 (Pacific Daylight Time)","57348","","null","","","","FIX","","<div class='trialBorder'><div class='vertical-center'><img style='vertical-align:center; align:center' src=img/fixation3.jpg></div></div>","null","","","","","","",""
"html-keyboard-response","11","18892","0.0-5.0-2.2","63ee5e103b44d07673cc8bd6","bdp_td","Sun Apr 09 2023 16:21:36 GMT-0700 (Pacific Daylight Time)","57348","","1102","","","","offer","","<div class='trialBorder'><div class='vertical-center'><img style='vertical-align:center; align:center' src=img/fixation3.jpg></div><div class='cl'><div class='vertical-center'>$28<br><br>now</div></div><div class='cr'><div class='vertical-center'>$30<br>in<br>12 weeks</div></div><div class='respDivL'><div class='vertical-center'>(E)</div></div><div class='respDivR'><div class='vertical-center'>(I)</div></div></div>","E","$28<br><br>now","$30<br>in<br>12 weeks","0","28","30","12","NOW"
"html-keyboard-response","12","19143","0.0-5.0-3.2","63ee5e103b44d07673cc8bd6","bdp_td","Sun Apr 09 2023 16:21:36 GMT-0700 (Pacific Daylight Time)","57348","","null","","","","offerFB","","<div class='trialBorder'><div class='vertical-center'><img style='vertical-align:center; align:center' src=img/fixation3.jpg></div><div class='cl'><div class='vertical-center'><font style='color:orange'>$28<br><br>now</font></div></div><div class='cr'><div class='vertical-center'>$30<br>in<br>12 weeks</div></div><div class='respDivL'><div class='vertical-center'><font style='color:orange'>(E)</font></div></div><div class='respDivR'><div class='vertical-center'>(I)</div></div></div>","null","$28<br><br>now","$30<br>in<br>12 weeks","0","28","30","12",""
"html-keyboard-response","13","19646","0.0-5.0-1.3","63ee5e103b44d07673cc8bd6","bdp_td","Sun Apr 09 2023 16:21:36 GMT-0700 (Pacific Daylight Time)","57348","","null","","","","FIX","","<div class='trialBorder'><div class='vertical-center'><img style='vertical-align:center; align:center' src=img/fixation3.jpg></div></div>","null","","","","","","",""
"html-keyboard-response","14","20381","0.0-5.0-2.3","63ee5e103b44d07673cc8bd6","bdp_td","Sun Apr 09 2023 16:21:36 GMT-0700 (Pacific Daylight Time)","57348","","735","","","","offer","","<div class='trialBorder'><div class='vertical-center'><img style='vertical-align:center; align:center' src=img/fixation3.jpg></div><div class='cl'><div class='vertical-center'>$25<br>in<br>3 weeks</div></div><div class='cr'><div class='vertical-center'>$14<br><br>now</div></div><div class='respDivL'><div class='vertical-center'>(E)</div></div><div class='respDivR'><div class='vertical-center'>(I)</div></div></div>","E","$14<br><br>now","$25<br>in<br>3 weeks","1","14","25","3","THEN"
"html-keyboard-response","15","20632","0.0-5.0-3.3","63ee5e103b44d07673cc8bd6","bdp_td","Sun Apr 09 2023 16:21:36 GMT-0700 (Pacific Daylight Time)","57348","","null","","","","offerFB","","<div class='trialBorder'><div class='vertical-center'><img style='vertical-align:center; align:center' src=img/fixation3.jpg></div><div class='cl'><div class='vertical-center'><font style='color:orange'>$25<br>in<br>3 weeks</font></div></div><div class='cr'><div class='vertical-center'>$14<br><br>now</div></div><div class='respDivL'><div class='vertical-center'><font style='color:orange'>(E)</font></div></div><div class='respDivR'><div class='vertical-center'>(I)</div></div></div>","null","$14<br><br>now","$25<br>in<br>3 weeks","1","14","25","3",""
"html-keyboard-response","16","21134","0.0-5.0-1.4","63ee5e103b44d07673cc8bd6","bdp_td","Sun Apr 09 2023 16:21:36 GMT-0700 (Pacific Daylight Time)","57348","","null","","","","FIX","","<div class='trialBorder'><div class='vertical-center'><img style='vertical-align:center; align:center' src=img/fixation3.jpg></div></div>","null","","","","","","",""
"html-keyboard-response","17","21744","0.0-5.0-2.4","63ee5e103b44d07673cc8bd6","bdp_td","Sun Apr 09 2023 16:21:36 GMT-0700 (Pacific Daylight Time)","57348","","609","","","","offer","","<div class='trialBorder'><div class='vertical-center'><img style='vertical-align:center; align:center' src=img/fixation3.jpg></div><div class='cl'><div class='vertical-center'>$75<br>in<br>3 weeks</div></div><div class='cr'><div class='vertical-center'>$41<br><br>now</div></div><div class='respDivL'><div class='vertical-center'>(E)</div></div><div class='respDivR'><div class='vertical-center'>(I)</div></div></div>","E","$41<br><br>now","$75<br>in<br>3 weeks","1","41","75","3","THEN"
"html-keyboard-response","18","21996","0.0-5.0-3.4","63ee5e103b44d07673cc8bd6","bdp_td","Sun Apr 09 2023 16:21:36 GMT-0700 (Pacific Daylight Time)","57348","","null","","","","offerFB","","<div class='trialBorder'><div class='vertical-center'><img style='vertical-align:center; align:center' src=img/fixation3.jpg></div><div class='cl'><div class='vertical-center'><font style='color:orange'>$75<br>in<br>3 weeks</font></div></div><div class='cr'><div class='vertical-center'>$41<br><br>now</div></div><div class='respDivL'><div class='vertical-center'><font style='color:orange'>(E)</font></div></div><div class='respDivR'><div class='vertical-center'>(I)</div></div></div>","null","$41<br><br>now","$75<br>in<br>3 weeks","1","41","75","3",""
"html-keyboard-response","19","22498","0.0-5.0-1.5","63ee5e103b44d07673cc8bd6","bdp_td","Sun Apr 09 2023 16:21:36 GMT-0700 (Pacific Daylight Time)","57348","","null","","","","FIX","","<div class='trialBorder'><div class='vertical-center'><img style='vertical-align:center; align:center' src=img/fixation3.jpg></div></div>","null","","","","","","",""
"html-keyboard-response","20","23153","0.0-5.0-2.5","63ee5e103b44d07673cc8bd6","bdp_td","Sun Apr 09 2023 16:21:36 GMT-0700 (Pacific Daylight Time)","57348","","655","","","","offer","","<div class='trialBorder'><div class='vertical-center'><img style='vertical-align:center; align:center' src=img/fixation3.jpg></div><div class='cl'><div class='vertical-center'>$80<br>in<br>12 weeks</div></div><div class='cr'><div class='vertical-center'>$78<br><br>now</div></div><div class='respDivL'><div class='vertical-center'>(E)</div></div><div class='respDivR'><div class='vertical-center'>(I)</div></div></div>","E","$78<br><br>now","$80<br>in<br>12 weeks","1","78","80","12","THEN"
"html-keyboard-response","21","23404","0.0-5.0-3.5","63ee5e103b44d07673cc8bd6","bdp_td","Sun Apr 09 2023 16:21:36 GMT-0700 (Pacific Daylight Time)","57348","","null","","","","offerFB","","<div class='trialBorder'><div class='vertical-center'><img style='vertical-align:center; align:center' src=img/fixation3.jpg></div><div class='cl'><div class='vertical-center'><font style='color:orange'>$80<br>in<br>12 weeks</font></div></div><div class='cr'><div class='vertical-center'>$78<br><br>now</div></div><div class='respDivL'><div class='vertical-center'><font style='color:orange'>(E)</font></div></div><div class='respDivR'><div class='vertical-center'>(I)</div></div></div>","null","$78<br><br>now","$80<br>in<br>12 weeks","1","78","80","12",""
"html-keyboard-response","22","23906","0.0-5.0-1.6","63ee5e103b44d07673cc8bd6","bdp_td","Sun Apr 09 2023 16:21:36 GMT-0700 (Pacific Daylight Time)","57348","","null","","","","FIX","","<div class='trialBorder'><div class='vertical-center'><img style='vertical-align:center; align:center' src=img/fixation3.jpg></div></div>","null","","","","","","",""
"html-keyboard-response","23","24874","0.0-5.0-2.6","63ee5e103b44d07673cc8bd6","bdp_td","Sun Apr 09 2023 16:21:36 GMT-0700 (Pacific Daylight Time)","57348","","966","","","","offer","","<div class='trialBorder'><div class='vertical-center'><img style='vertical-align:center; align:center' src=img/fixation3.jpg></div><div class='cl'><div class='vertical-center'>$55<br>in<br>6 weeks</div></div><div class='cr'><div class='vertical-center'>$40<br><br>now</div></div><div class='respDivL'><div class='vertical-center'>(E)</div></div><div class='respDivR'><div class='vertical-center'>(I)</div></div></div>","E","$40<br><br>now","$55<br>in<br>6 weeks","1","40","55","6","THEN"
"html-keyboard-response","24","25126","0.0-5.0-3.6","63ee5e103b44d07673cc8bd6","bdp_td","Sun Apr 09 2023 16:21:36 GMT-0700 (Pacific Daylight Time)","57348","","null","","","","offerFB","","<div class='trialBorder'><div class='vertical-center'><img style='vertical-align:center; align:center' src=img/fixation3.jpg></div><div class='cl'><div class='vertical-center'><font style='color:orange'>$55<br>in<br>6 weeks</font></div></div><div class='cr'><div class='vertical-center'>$40<br><br>now</div></div><div class='respDivL'><div class='vertical-center'><font style='color:orange'>(E)</font></div></div><div class='respDivR'><div class='vertical-center'>(I)</div></div></div>","null","$40<br><br>now","$55<br>in<br>6 weeks","1","40","55","6",""
"html-keyboard-response","25","25627","0.0-5.0-1.7","63ee5e103b44d07673cc8bd6","bdp_td","Sun Apr 09 2023 16:21:36 GMT-0700 (Pacific Daylight Time)","57348","","null","","","","FIX","","<div class='trialBorder'><div class='vertical-center'><img style='vertical-align:center; align:center' src=img/fixation3.jpg></div></div>","null","","","","","","",""
"html-keyboard-response","26","26465","0.0-5.0-2.7","63ee5e103b44d07673cc8bd6","bdp_td","Sun Apr 09 2023 16:21:36 GMT-0700 (Pacific Daylight Time)","57348","","837","","","","offer","","<div class='trialBorder'><div class='vertical-center'><img style='vertical-align:center; align:center' src=img/fixation3.jpg></div><div class='cl'><div class='vertical-center'>$24<br><br>now</div></div><div class='cr'><div class='vertical-center'>$35<br>in<br>3 weeks</div></div><div class='respDivL'><div class='vertical-center'>(E)</div></div><div class='respDivR'><div class='vertical-center'>(I)</div></div></div>","I","$24<br><br>now","$35<br>in<br>3 weeks","0","24","35","3","THEN"
"html-keyboard-response","27","26721","0.0-5.0-3.7","63ee5e103b44d07673cc8bd6","bdp_td","Sun Apr 09 2023 16:21:36 GMT-0700 (Pacific Daylight Time)","57348","","null","","","","offerFB","","<div class='trialBorder'><div class='vertical-center'><img style='vertical-align:center; align:center' src=img/fixation3.jpg></div><div class='cl'><div class='vertical-center'>$24<br><br>now</div></div><div class='cr'><div class='vertical-center'><font style='color:orange'>$35<br>in<br>3 weeks</font></div></div><div class='respDivL'><div class='vertical-center'>(E)</div></div><div class='respDivR'><div class='vertical-center'><font style='color:orange'>(I)</font></div></div></div>","null","$24<br><br>now","$35<br>in<br>3 weeks","0","24","35","3",""
"html-keyboard-response","28","27222","0.0-5.0-1.8","63ee5e103b44d07673cc8bd6","bdp_td","Sun Apr 09 2023 16:21:36 GMT-0700 (Pacific Daylight Time)","57348","","null","","","","FIX","","<div class='trialBorder'><div class='vertical-center'><img style='vertical-align:center; align:center' src=img/fixation3.jpg></div></div>","null","","","","","","",""
"html-keyboard-response","29","28300","0.0-5.0-2.8","63ee5e103b44d07673cc8bd6","bdp_td","Sun Apr 09 2023 16:21:36 GMT-0700 (Pacific Daylight Time)","57348","","1076","","","","offer","","<div class='trialBorder'><div class='vertical-center'><img style='vertical-align:center; align:center' src=img/fixation3.jpg></div><div class='cl'><div class='vertical-center'>$25<br>in<br>12 weeks</div></div><div class='cr'><div class='vertical-center'>$22<br><br>now</div></div><div class='respDivL'><div class='vertical-center'>(E)</div></div><div class='respDivR'><div class='vertical-center'>(I)</div></div></div>","I","$22<br><br>now","$25<br>in<br>12 weeks","1","22","25","12","NOW"
"html-keyboard-response","30","28558","0.0-5.0-3.8","63ee5e103b44d07673cc8bd6","bdp_td","Sun Apr 09 2023 16:21:36 GMT-0700 (Pacific Daylight Time)","57348","","null","","","","offerFB","","<div class='trialBorder'><div class='vertical-center'><img style='vertical-align:center; align:center' src=img/fixation3.jpg></div><div class='cl'><div class='vertical-center'>$25<br>in<br>12 weeks</div></div><div class='cr'><div class='vertical-center'><font style='color:orange'>$22<br><br>now</font></div></div><div class='respDivL'><div class='vertical-center'>(E)</div></div><div class='respDivR'><div class='vertical-center'><font style='color:orange'>(I)</font></div></div></div>","null","$22<br><br>now","$25<br>in<br>12 weeks","1","22","25","12",""
"html-keyboard-response","31","29058","0.0-5.0-1.9","63ee5e103b44d07673cc8bd6","bdp_td","Sun Apr 09 2023 16:21:36 GMT-0700 (Pacific Daylight Time)","57348","","null","","","","FIX","","<div class='trialBorder'><div class='vertical-center'><img style='vertical-align:center; align:center' src=img/fixation3.jpg></div></div>","null","","","","","","",""
"html-keyboard-response","32","30013","0.0-5.0-2.9","63ee5e103b44d07673cc8bd6","bdp_td","Sun Apr 09 2023 16:21:36 GMT-0700 (Pacific Daylight Time)","57348","","953","","","","offer","","<div class='trialBorder'><div class='vertical-center'><img style='vertical-align:center; align:center' src=img/fixation3.jpg></div><div class='cl'><div class='vertical-center'>$25<br><br>now</div></div><div class='cr'><div class='vertical-center'>$30<br>in<br>6 weeks</div></div><div class='respDivL'><div class='vertical-center'>(E)</div></div><div class='respDivR'><div class='vertical-center'>(I)</div></div></div>","I","$25<br><br>now","$30<br>in<br>6 weeks","0","25","30","6","THEN"
"html-keyboard-response","33","30265","0.0-5.0-3.9","63ee5e103b44d07673cc8bd6","bdp_td","Sun Apr 09 2023 16:21:36 GMT-0700 (Pacific Daylight Time)","57348","","null","","","","offerFB","","<div class='trialBorder'><div class='vertical-center'><img style='vertical-align:center; align:center' src=img/fixation3.jpg></div><div class='cl'><div class='vertical-center'>$25<br><br>now</div></div><div class='cr'><div class='vertical-center'><font style='color:orange'>$30<br>in<br>6 weeks</font></div></div><div class='respDivL'><div class='vertical-center'>(E)</div></div><div class='respDivR'><div class='vertical-center'><font style='color:orange'>(I)</font></div></div></div>","null","$25<br><br>now","$30<br>in<br>6 weeks","0","25","30","6",""
"html-keyboard-response","34","30766","0.0-5.0-1.10","63ee5e103b44d07673cc8bd6","bdp_td","Sun Apr 09 2023 16:21:36 GMT-0700 (Pacific Daylight Time)","57348","","null","","","","FIX","","<div class='trialBorder'><div class='vertical-center'><img style='vertical-align:center; align:center' src=img/fixation3.jpg></div></div>","null","","","","","","",""
"html-keyboard-response","35","31471","0.0-5.0-2.10","63ee5e103b44d07673cc8bd6","bdp_td","Sun Apr 09 2023 16:21:36 GMT-0700 (Pacific Daylight Time)","57348","","703","","","","offer","","<div class='trialBorder'><div class='vertical-center'><img style='vertical-align:center; align:center' src=img/fixation3.jpg></div><div class='cl'><div class='vertical-center'>$75<br>in<br>6 weeks</div></div><div class='cr'><div class='vertical-center'>$55<br><br>now</div></div><div class='respDivL'><div class='vertical-center'>(E)</div></div><div class='respDivR'><div class='vertical-center'>(I)</div></div></div>","E","$55<br><br>now","$75<br>in<br>6 weeks","1","55","75","6","THEN"
"html-keyboard-response","36","31723","0.0-5.0-3.10","63ee5e103b44d07673cc8bd6","bdp_td","Sun Apr 09 2023 16:21:36 GMT-0700 (Pacific Daylight Time)","57348","","null","","","","offerFB","","<div class='trialBorder'><div class='vertical-center'><img style='vertical-align:center; align:center' src=img/fixation3.jpg></div><div class='cl'><div class='vertical-center'><font style='color:orange'>$75<br>in<br>6 weeks</font></div></div><div class='cr'><div class='vertical-center'>$55<br><br>now</div></div><div class='respDivL'><div class='vertical-center'><font style='color:orange'>(E)</font></div></div><div class='respDivR'><div class='vertical-center'>(I)</div></div></div>","null","$55<br><br>now","$75<br>in<br>6 weeks","1","55","75","6",""
"html-keyboard-response","37","32225","0.0-5.0-1.11","63ee5e103b44d07673cc8bd6","bdp_td","Sun Apr 09 2023 16:21:36 GMT-0700 (Pacific Daylight Time)","57348","","null","","","","FIX","","<div class='trialBorder'><div class='vertical-center'><img style='vertical-align:center; align:center' src=img/fixation3.jpg></div></div>","null","","","","","","",""
"html-keyboard-response","38","32634","0.0-5.0-2.11","63ee5e103b44d07673cc8bd6","bdp_td","Sun Apr 09 2023 16:21:36 GMT-0700 (Pacific Daylight Time)","57348","","409","","","","offer","","<div class='trialBorder'><div class='vertical-center'><img style='vertical-align:center; align:center' src=img/fixation3.jpg></div><div class='cl'><div class='vertical-center'>$60<br>in<br>3 weeks</div></div><div class='cr'><div class='vertical-center'>$25<br><br>now</div></div><div class='respDivL'><div class='vertical-center'>(E)</div></div><div class='respDivR'><div class='vertical-center'>(I)</div></div></div>","E","$25<br><br>now","$60<br>in<br>3 weeks","1","25","60","3","THEN"
"html-keyboard-response","39","32886","0.0-5.0-3.11","63ee5e103b44d07673cc8bd6","bdp_td","Sun Apr 09 2023 16:21:36 GMT-0700 (Pacific Daylight Time)","57348","","null","","","","offerFB","","<div class='trialBorder'><div class='vertical-center'><img style='vertical-align:center; align:center' src=img/fixation3.jpg></div><div class='cl'><div class='vertical-center'><font style='color:orange'>$60<br>in<br>3 weeks</font></div></div><div class='cr'><div class='vertical-center'>$25<br><br>now</div></div><div class='respDivL'><div class='vertical-center'><font style='color:orange'>(E)</font></div></div><div class='respDivR'><div class='vertical-center'>(I)</div></div></div>","null","$25<br><br>now","$60<br>in<br>3 weeks","1","25","60","3",""
"html-keyboard-response","40","33387","0.0-5.0-1.12","63ee5e103b44d07673cc8bd6","bdp_td","Sun Apr 09 2023 16:21:36 GMT-0700 (Pacific Daylight Time)","57348","","null","","","","FIX","","<div class='trialBorder'><div class='vertical-center'><img style='vertical-align:center; align:center' src=img/fixation3.jpg></div></div>","null","","","","","","",""
"html-keyboard-response","41","34430","0.0-5.0-2.12","63ee5e103b44d07673cc8bd6","bdp_td","Sun Apr 09 2023 16:21:36 GMT-0700 (Pacific Daylight Time)","57348","","1042","","","","offer","","<div class='trialBorder'><div class='vertical-center'><img style='vertical-align:center; align:center' src=img/fixation3.jpg></div><div class='cl'><div class='vertical-center'>$20<br><br>now</div></div><div class='cr'><div class='vertical-center'>$55<br>in<br>1 week</div></div><div class='respDivL'><div class='vertical-center'>(E)</div></div><div class='respDivR'><div class='vertical-center'>(I)</div></div></div>","I","$20<br><br>now","$55<br>in<br>1 week","0","20","55","1","THEN"
"html-keyboard-response","42","34681","0.0-5.0-3.12","63ee5e103b44d07673cc8bd6","bdp_td","Sun Apr 09 2023 16:21:36 GMT-0700 (Pacific Daylight Time)","57348","","null","","","","offerFB","","<div class='trialBorder'><div class='vertical-center'><img style='vertical-align:center; align:center' src=img/fixation3.jpg></div><div class='cl'><div class='vertical-center'>$20<br><br>now</div></div><div class='cr'><div class='vertical-center'><font style='color:orange'>$55<br>in<br>1 week</font></div></div><div class='respDivL'><div class='vertical-center'>(E)</div></div><div class='respDivR'><div class='vertical-center'><font style='color:orange'>(I)</font></div></div></div>","null","$20<br><br>now","$55<br>in<br>1 week","0","20","55","1",""
"html-keyboard-response","43","35183","0.0-5.0-1.13","63ee5e103b44d07673cc8bd6","bdp_td","Sun Apr 09 2023 16:21:36 GMT-0700 (Pacific Daylight Time)","57348","","null","","","","FIX","","<div class='trialBorder'><div class='vertical-center'><img style='vertical-align:center; align:center' src=img/fixation3.jpg></div></div>","null","","","","","","",""
"html-keyboard-response","44","36028","0.0-5.0-2.13","63ee5e103b44d07673cc8bd6","bdp_td","Sun Apr 09 2023 16:21:36 GMT-0700 (Pacific Daylight Time)","57348","","845","","","","offer","","<div class='trialBorder'><div class='vertical-center'><img style='vertical-align:center; align:center' src=img/fixation3.jpg></div><div class='cl'><div class='vertical-center'>$60<br>in<br>12 weeks</div></div><div class='cr'><div class='vertical-center'>$54<br><br>now</div></div><div class='respDivL'><div class='vertical-center'>(E)</div></div><div class='respDivR'><div class='vertical-center'>(I)</div></div></div>","I","$54<br><br>now","$60<br>in<br>12 weeks","1","54","60","12","NOW"
"html-keyboard-response","45","36280","0.0-5.0-3.13","63ee5e103b44d07673cc8bd6","bdp_td","Sun Apr 09 2023 16:21:36 GMT-0700 (Pacific Daylight Time)","57348","","null","","","","offerFB","","<div class='trialBorder'><div class='vertical-center'><img style='vertical-align:center; align:center' src=img/fixation3.jpg></div><div class='cl'><div class='vertical-center'>$60<br>in<br>12 weeks</div></div><div class='cr'><div class='vertical-center'><font style='color:orange'>$54<br><br>now</font></div></div><div class='respDivL'><div class='vertical-center'>(E)</div></div><div class='respDivR'><div class='vertical-center'><font style='color:orange'>(I)</font></div></div></div>","null","$54<br><br>now","$60<br>in<br>12 weeks","1","54","60","12",""
"html-keyboard-response","46","36783","0.0-5.0-1.14","63ee5e103b44d07673cc8bd6","bdp_td","Sun Apr 09 2023 16:21:36 GMT-0700 (Pacific Daylight Time)","57348","","null","","","","FIX","","<div class='trialBorder'><div class='vertical-center'><img style='vertical-align:center; align:center' src=img/fixation3.jpg></div></div>","null","","","","","","",""
"html-keyboard-response","47","37705","0.0-5.0-2.14","63ee5e103b44d07673cc8bd6","bdp_td","Sun Apr 09 2023 16:21:36 GMT-0700 (Pacific Daylight Time)","57348","","922","","","","offer","","<div class='trialBorder'><div class='vertical-center'><img style='vertical-align:center; align:center' src=img/fixation3.jpg></div><div class='cl'><div class='vertical-center'>$80<br><br>now</div></div><div class='cr'><div class='vertical-center'>$85<br>in<br>12 weeks</div></div><div class='respDivL'><div class='vertical-center'>(E)</div></div><div class='respDivR'><div class='vertical-center'>(I)</div></div></div>","E","$80<br><br>now","$85<br>in<br>12 weeks","0","80","85","12","NOW"
"html-keyboard-response","48","37957","0.0-5.0-3.14","63ee5e103b44d07673cc8bd6","bdp_td","Sun Apr 09 2023 16:21:36 GMT-0700 (Pacific Daylight Time)","57348","","null","","","","offerFB","","<div class='trialBorder'><div class='vertical-center'><img style='vertical-align:center; align:center' src=img/fixation3.jpg></div><div class='cl'><div class='vertical-center'><font style='color:orange'>$80<br><br>now</font></div></div><div class='cr'><div class='vertical-center'>$85<br>in<br>12 weeks</div></div><div class='respDivL'><div class='vertical-center'><font style='color:orange'>(E)</font></div></div><div class='respDivR'><div class='vertical-center'>(I)</div></div></div>","null","$80<br><br>now","$85<br>in<br>12 weeks","0","80","85","12",""
"html-keyboard-response","49","38459","0.0-5.0-1.15","63ee5e103b44d07673cc8bd6","bdp_td","Sun Apr 09 2023 16:21:36 GMT-0700 (Pacific Daylight Time)","57348","","null","","","","FIX","","<div class='trialBorder'><div class='vertical-center'><img style='vertical-align:center; align:center' src=img/fixation3.jpg></div></div>","null","","","","","","",""
"html-keyboard-response","50","40165","0.0-5.0-2.15","63ee5e103b44d07673cc8bd6","bdp_td","Sun Apr 09 2023 16:21:36 GMT-0700 (Pacific Daylight Time)","57348","","1705","","","","offer","","<div class='trialBorder'><div class='vertical-center'><img style='vertical-align:center; align:center' src=img/fixation3.jpg></div><div class='cl'><div class='vertical-center'>$27<br><br>now</div></div><div class='cr'><div class='vertical-center'>$50<br>in<br>3 weeks</div></div><div class='respDivL'><div class='vertical-center'>(E)</div></div><div class='respDivR'><div class='vertical-center'>(I)</div></div></div>","I","$27<br><br>now","$50<br>in<br>3 weeks","0","27","50","3","THEN"
"html-keyboard-response","51","40417","0.0-5.0-3.15","63ee5e103b44d07673cc8bd6","bdp_td","Sun Apr 09 2023 16:21:36 GMT-0700 (Pacific Daylight Time)","57348","","null","","","","offerFB","","<div class='trialBorder'><div class='vertical-center'><img style='vertical-align:center; align:center' src=img/fixation3.jpg></div><div class='cl'><div class='vertical-center'>$27<br><br>now</div></div><div class='cr'><div class='vertical-center'><font style='color:orange'>$50<br>in<br>3 weeks</font></div></div><div class='respDivL'><div class='vertical-center'>(E)</div></div><div class='respDivR'><div class='vertical-center'><font style='color:orange'>(I)</font></div></div></div>","null","$27<br><br>now","$50<br>in<br>3 weeks","0","27","50","3",""
"html-keyboard-response","52","40918","0.0-5.0-1.16","63ee5e103b44d07673cc8bd6","bdp_td","Sun Apr 09 2023 16:21:36 GMT-0700 (Pacific Daylight Time)","57348","","null","","","","FIX","","<div class='trialBorder'><div class='vertical-center'><img style='vertical-align:center; align:center' src=img/fixation3.jpg></div></div>","null","","","","","","",""
"html-keyboard-response","53","41767","0.0-5.0-2.16","63ee5e103b44d07673cc8bd6","bdp_td","Sun Apr 09 2023 16:21:36 GMT-0700 (Pacific Daylight Time)","57348","","848","","","","offer","","<div class='trialBorder'><div class='vertical-center'><img style='vertical-align:center; align:center' src=img/fixation3.jpg></div><div class='cl'><div class='vertical-center'>$55<br>in<br>12 weeks</div></div><div class='cr'><div class='vertical-center'>$54<br><br>now</div></div><div class='respDivL'><div class='vertical-center'>(E)</div></div><div class='respDivR'><div class='vertical-center'>(I)</div></div></div>","I","$54<br><br>now","$55<br>in<br>12 weeks","1","54","55","12","NOW"
"html-keyboard-response","54","42020","0.0-5.0-3.16","63ee5e103b44d07673cc8bd6","bdp_td","Sun Apr 09 2023 16:21:36 GMT-0700 (Pacific Daylight Time)","57348","","null","","","","offerFB","","<div class='trialBorder'><div class='vertical-center'><img style='vertical-align:center; align:center' src=img/fixation3.jpg></div><div class='cl'><div class='vertical-center'>$55<br>in<br>12 weeks</div></div><div class='cr'><div class='vertical-center'><font style='color:orange'>$54<br><br>now</font></div></div><div class='respDivL'><div class='vertical-center'>(E)</div></div><div class='respDivR'><div class='vertical-center'><font style='color:orange'>(I)</font></div></div></div>","null","$54<br><br>now","$55<br>in<br>12 weeks","1","54","55","12",""
"html-keyboard-response","55","42521","0.0-5.0-1.17","63ee5e103b44d07673cc8bd6","bdp_td","Sun Apr 09 2023 16:21:36 GMT-0700 (Pacific Daylight Time)","57348","","null","","","","FIX","","<div class='trialBorder'><div class='vertical-center'><img style='vertical-align:center; align:center' src=img/fixation3.jpg></div></div>","null","","","","","","",""
"html-keyboard-response","56","43099","0.0-5.0-2.17","63ee5e103b44d07673cc8bd6","bdp_td","Sun Apr 09 2023 16:21:36 GMT-0700 (Pacific Daylight Time)","57348","","577","","","","offer","","<div class='trialBorder'><div class='vertical-center'><img style='vertical-align:center; align:center' src=img/fixation3.jpg></div><div class='cl'><div class='vertical-center'>$85<br>in<br>1 week</div></div><div class='cr'><div class='vertical-center'>$31<br><br>now</div></div><div class='respDivL'><div class='vertical-center'>(E)</div></div><div class='respDivR'><div class='vertical-center'>(I)</div></div></div>","E","$31<br><br>now","$85<br>in<br>1 week","1","31","85","1","THEN"
"html-keyboard-response","57","43351","0.0-5.0-3.17","63ee5e103b44d07673cc8bd6","bdp_td","Sun Apr 09 2023 16:21:36 GMT-0700 (Pacific Daylight Time)","57348","","null","","","","offerFB","","<div class='trialBorder'><div class='vertical-center'><img style='vertical-align:center; align:center' src=img/fixation3.jpg></div><div class='cl'><div class='vertical-center'><font style='color:orange'>$85<br>in<br>1 week</font></div></div><div class='cr'><div class='vertical-center'>$31<br><br>now</div></div><div class='respDivL'><div class='vertical-center'><font style='color:orange'>(E)</font></div></div><div class='respDivR'><div class='vertical-center'>(I)</div></div></div>","null","$31<br><br>now","$85<br>in<br>1 week","1","31","85","1",""
"html-keyboard-response","58","43852","0.0-5.0-1.18","63ee5e103b44d07673cc8bd6","bdp_td","Sun Apr 09 2023 16:21:36 GMT-0700 (Pacific Daylight Time)","57348","","null","","","","FIX","","<div class='trialBorder'><div class='vertical-center'><img style='vertical-align:center; align:center' src=img/fixation3.jpg></div></div>","null","","","","","","",""
"html-keyboard-response","59","44361","0.0-5.0-2.18","63ee5e103b44d07673cc8bd6","bdp_td","Sun Apr 09 2023 16:21:36 GMT-0700 (Pacific Daylight Time)","57348","","508","","","","offer","","<div class='trialBorder'><div class='vertical-center'><img style='vertical-align:center; align:center' src=img/fixation3.jpg></div><div class='cl'><div class='vertical-center'>$80<br>in<br>2 weeks</div></div><div class='cr'><div class='vertical-center'>$33<br><br>now</div></div><div class='respDivL'><div class='vertical-center'>(E)</div></div><div class='respDivR'><div class='vertical-center'>(I)</div></div></div>","E","$33<br><br>now","$80<br>in<br>2 weeks","1","33","80","2","THEN"
"html-keyboard-response","60","44612","0.0-5.0-3.18","63ee5e103b44d07673cc8bd6","bdp_td","Sun Apr 09 2023 16:21:36 GMT-0700 (Pacific Daylight Time)","57348","","null","","","","offerFB","","<div class='trialBorder'><div class='vertical-center'><img style='vertical-align:center; align:center' src=img/fixation3.jpg></div><div class='cl'><div class='vertical-center'><font style='color:orange'>$80<br>in<br>2 weeks</font></div></div><div class='cr'><div class='vertical-center'>$33<br><br>now</div></div><div class='respDivL'><div class='vertical-center'><font style='color:orange'>(E)</font></div></div><div class='respDivR'><div class='vertical-center'>(I)</div></div></div>","null","$33<br><br>now","$80<br>in<br>2 weeks","1","33","80","2",""
"html-keyboard-response","61","45114","0.0-5.0-1.19","63ee5e103b44d07673cc8bd6","bdp_td","Sun Apr 09 2023 16:21:36 GMT-0700 (Pacific Daylight Time)","57348","","null","","","","FIX","","<div class='trialBorder'><div class='vertical-center'><img style='vertical-align:center; align:center' src=img/fixation3.jpg></div></div>","null","","","","","","",""
"html-keyboard-response","62","45953","0.0-5.0-2.19","63ee5e103b44d07673cc8bd6","bdp_td","Sun Apr 09 2023 16:21:36 GMT-0700 (Pacific Daylight Time)","57348","","837","","","","offer","","<div class='trialBorder'><div class='vertical-center'><img style='vertical-align:center; align:center' src=img/fixation3.jpg></div><div class='cl'><div class='vertical-center'>$19<br><br>now</div></div><div class='cr'><div class='vertical-center'>$25<br>in<br>6 weeks</div></div><div class='respDivL'><div class='vertical-center'>(E)</div></div><div class='respDivR'><div class='vertical-center'>(I)</div></div></div>","E","$19<br><br>now","$25<br>in<br>6 weeks","0","19","25","6","NOW"
"html-keyboard-response","63","46205","0.0-5.0-3.19","63ee5e103b44d07673cc8bd6","bdp_td","Sun Apr 09 2023 16:21:36 GMT-0700 (Pacific Daylight Time)","57348","","null","","","","offerFB","","<div class='trialBorder'><div class='vertical-center'><img style='vertical-align:center; align:center' src=img/fixation3.jpg></div><div class='cl'><div class='vertical-center'><font style='color:orange'>$19<br><br>now</font></div></div><div class='cr'><div class='vertical-center'>$25<br>in<br>6 weeks</div></div><div class='respDivL'><div class='vertical-center'><font style='color:orange'>(E)</font></div></div><div class='respDivR'><div class='vertical-center'>(I)</div></div></div>","null","$19<br><br>now","$25<br>in<br>6 weeks","0","19","25","6",""
"html-keyboard-response","64","46707","0.0-5.0-1.20","63ee5e103b44d07673cc8bd6","bdp_td","Sun Apr 09 2023 16:21:36 GMT-0700 (Pacific Daylight Time)","57348","","null","","","","FIX","","<div class='trialBorder'><div class='vertical-center'><img style='vertical-align:center; align:center' src=img/fixation3.jpg></div></div>","null","","","","","","",""
"html-keyboard-response","65","47502","0.0-5.0-2.20","63ee5e103b44d07673cc8bd6","bdp_td","Sun Apr 09 2023 16:21:36 GMT-0700 (Pacific Daylight Time)","57348","","794","","","","offer","","<div class='trialBorder'><div class='vertical-center'><img style='vertical-align:center; align:center' src=img/fixation3.jpg></div><div class='cl'><div class='vertical-center'>$34<br><br>now</div></div><div class='cr'><div class='vertical-center'>$35<br>in<br>12 weeks</div></div><div class='respDivL'><div class='vertical-center'>(E)</div></div><div class='respDivR'><div class='vertical-center'>(I)</div></div></div>","E","$34<br><br>now","$35<br>in<br>12 weeks","0","34","35","12","NOW"
"html-keyboard-response","66","47754","0.0-5.0-3.20","63ee5e103b44d07673cc8bd6","bdp_td","Sun Apr 09 2023 16:21:36 GMT-0700 (Pacific Daylight Time)","57348","","null","","","","offerFB","","<div class='trialBorder'><div class='vertical-center'><img style='vertical-align:center; align:center' src=img/fixation3.jpg></div><div class='cl'><div class='vertical-center'><font style='color:orange'>$34<br><br>now</font></div></div><div class='cr'><div class='vertical-center'>$35<br>in<br>12 weeks</div></div><div class='respDivL'><div class='vertical-center'><font style='color:orange'>(E)</font></div></div><div class='respDivR'><div class='vertical-center'>(I)</div></div></div>","null","$34<br><br>now","$35<br>in<br>12 weeks","0","34","35","12",""
"html-keyboard-response","67","48255","0.0-5.0-1.21","63ee5e103b44d07673cc8bd6","bdp_td","Sun Apr 09 2023 16:21:36 GMT-0700 (Pacific Daylight Time)","57348","","null","","","","FIX","","<div class='trialBorder'><div class='vertical-center'><img style='vertical-align:center; align:center' src=img/fixation3.jpg></div></div>","null","","","","","","",""
"html-keyboard-response","68","48819","0.0-5.0-2.21","63ee5e103b44d07673cc8bd6","bdp_td","Sun Apr 09 2023 16:21:36 GMT-0700 (Pacific Daylight Time)","57348","","564","","","","offer","","<div class='trialBorder'><div class='vertical-center'><img style='vertical-align:center; align:center' src=img/fixation3.jpg></div><div class='cl'><div class='vertical-center'>$67<br><br>now</div></div><div class='cr'><div class='vertical-center'>$75<br>in<br>12 weeks</div></div><div class='respDivL'><div class='vertical-center'>(E)</div></div><div class='respDivR'><div class='vertical-center'>(I)</div></div></div>","E","$67<br><br>now","$75<br>in<br>12 weeks","0","67","75","12","NOW"
"html-keyboard-response","69","49070","0.0-5.0-3.21","63ee5e103b44d07673cc8bd6","bdp_td","Sun Apr 09 2023 16:21:36 GMT-0700 (Pacific Daylight Time)","57348","","null","","","","offerFB","","<div class='trialBorder'><div class='vertical-center'><img style='vertical-align:center; align:center' src=img/fixation3.jpg></div><div class='cl'><div class='vertical-center'><font style='color:orange'>$67<br><br>now</font></div></div><div class='cr'><div class='vertical-center'>$75<br>in<br>12 weeks</div></div><div class='respDivL'><div class='vertical-center'><font style='color:orange'>(E)</font></div></div><div class='respDivR'><div class='vertical-center'>(I)</div></div></div>","null","$67<br><br>now","$75<br>in<br>12 weeks","0","67","75","12",""
"html-keyboard-response","70","49572","0.0-5.0-1.22","63ee5e103b44d07673cc8bd6","bdp_td","Sun Apr 09 2023 16:21:36 GMT-0700 (Pacific Daylight Time)","57348","","null","","","","FIX","","<div class='trialBorder'><div class='vertical-center'><img style='vertical-align:center; align:center' src=img/fixation3.jpg></div></div>","null","","","","","","",""
"html-keyboard-response","71","50104","0.0-5.0-2.22","63ee5e103b44d07673cc8bd6","bdp_td","Sun Apr 09 2023 16:21:36 GMT-0700 (Pacific Daylight Time)","57348","","532","","","","offer","","<div class='trialBorder'><div class='vertical-center'><img style='vertical-align:center; align:center' src=img/fixation3.jpg></div><div class='cl'><div class='vertical-center'>$34<br><br>now</div></div><div class='cr'><div class='vertical-center'>$50<br>in<br>6 weeks</div></div><div class='respDivL'><div class='vertical-center'>(E)</div></div><div class='respDivR'><div class='vertical-center'>(I)</div></div></div>","E","$34<br><br>now","$50<br>in<br>6 weeks","0","34","50","6","NOW"
"html-keyboard-response","72","50356","0.0-5.0-3.22","63ee5e103b44d07673cc8bd6","bdp_td","Sun Apr 09 2023 16:21:36 GMT-0700 (Pacific Daylight Time)","57348","","null","","","","offerFB","","<div class='trialBorder'><div class='vertical-center'><img style='vertical-align:center; align:center' src=img/fixation3.jpg></div><div class='cl'><div class='vertical-center'><font style='color:orange'>$34<br><br>now</font></div></div><div class='cr'><div class='vertical-center'>$50<br>in<br>6 weeks</div></div><div class='respDivL'><div class='vertical-center'><font style='color:orange'>(E)</font></div></div><div class='respDivR'><div class='vertical-center'>(I)</div></div></div>","null","$34<br><br>now","$50<br>in<br>6 weeks","0","34","50","6",""
"html-keyboard-response","73","50857","0.0-5.0-1.23","63ee5e103b44d07673cc8bd6","bdp_td","Sun Apr 09 2023 16:21:36 GMT-0700 (Pacific Daylight Time)","57348","","null","","","","FIX","","<div class='trialBorder'><div class='vertical-center'><img style='vertical-align:center; align:center' src=img/fixation3.jpg></div></div>","null","","","","","","",""
"html-keyboard-response","74","51348","0.0-5.0-2.23","63ee5e103b44d07673cc8bd6","bdp_td","Sun Apr 09 2023 16:21:36 GMT-0700 (Pacific Daylight Time)","57348","","490","","","","offer","","<div class='trialBorder'><div class='vertical-center'><img style='vertical-align:center; align:center' src=img/fixation3.jpg></div><div class='cl'><div class='vertical-center'>$15<br><br>now</div></div><div class='cr'><div class='vertical-center'>$35<br>in<br>2 weeks</div></div><div class='respDivL'><div class='vertical-center'>(E)</div></div><div class='respDivR'><div class='vertical-center'>(I)</div></div></div>","I","$15<br><br>now","$35<br>in<br>2 weeks","0","15","35","2","THEN"
"html-keyboard-response","75","51600","0.0-5.0-3.23","63ee5e103b44d07673cc8bd6","bdp_td","Sun Apr 09 2023 16:21:36 GMT-0700 (Pacific Daylight Time)","57348","","null","","","","offerFB","","<div class='trialBorder'><div class='vertical-center'><img style='vertical-align:center; align:center' src=img/fixation3.jpg></div><div class='cl'><div class='vertical-center'>$15<br><br>now</div></div><div class='cr'><div class='vertical-center'><font style='color:orange'>$35<br>in<br>2 weeks</font></div></div><div class='respDivL'><div class='vertical-center'>(E)</div></div><div class='respDivR'><div class='vertical-center'><font style='color:orange'>(I)</font></div></div></div>","null","$15<br><br>now","$35<br>in<br>2 weeks","0","15","35","2",""
"html-keyboard-response","76","52101","0.0-5.0-1.24","63ee5e103b44d07673cc8bd6","bdp_td","Sun Apr 09 2023 16:21:36 GMT-0700 (Pacific Daylight Time)","57348","","null","","","","FIX","","<div class='trialBorder'><div class='vertical-center'><img style='vertical-align:center; align:center' src=img/fixation3.jpg></div></div>","null","","","","","","",""
"html-keyboard-response","77","52872","0.0-5.0-2.24","63ee5e103b44d07673cc8bd6","bdp_td","Sun Apr 09 2023 16:21:36 GMT-0700 (Pacific Daylight Time)","57348","","770","","","","offer","","<div class='trialBorder'><div class='vertical-center'><img style='vertical-align:center; align:center' src=img/fixation3.jpg></div><div class='cl'><div class='vertical-center'>$11<br><br>now</div></div><div class='cr'><div class='vertical-center'>$30<br>in<br>2 weeks</div></div><div class='respDivL'><div class='vertical-center'>(E)</div></div><div class='respDivR'><div class='vertical-center'>(I)</div></div></div>","I","$11<br><br>now","$30<br>in<br>2 weeks","0","11","30","2","THEN"
"html-keyboard-response","78","53132","0.0-5.0-3.24","63ee5e103b44d07673cc8bd6","bdp_td","Sun Apr 09 2023 16:21:36 GMT-0700 (Pacific Daylight Time)","57348","","null","","","","offerFB","","<div class='trialBorder'><div class='vertical-center'><img style='vertical-align:center; align:center' src=img/fixation3.jpg></div><div class='cl'><div class='vertical-center'>$11<br><br>now</div></div><div class='cr'><div class='vertical-center'><font style='color:orange'>$30<br>in<br>2 weeks</font></div></div><div class='respDivL'><div class='vertical-center'>(E)</div></div><div class='respDivR'><div class='vertical-center'><font style='color:orange'>(I)</font></div></div></div>","null","$11<br><br>now","$30<br>in<br>2 weeks","0","11","30","2",""
"html-keyboard-response","79","53634","0.0-5.0-1.25","63ee5e103b44d07673cc8bd6","bdp_td","Sun Apr 09 2023 16:21:36 GMT-0700 (Pacific Daylight Time)","57348","","null","","","","FIX","","<div class='trialBorder'><div class='vertical-center'><img style='vertical-align:center; align:center' src=img/fixation3.jpg></div></div>","null","","","","","","",""
"html-keyboard-response","80","54465","0.0-5.0-2.25","63ee5e103b44d07673cc8bd6","bdp_td","Sun Apr 09 2023 16:21:36 GMT-0700 (Pacific Daylight Time)","57348","","830","","","","offer","","<div class='trialBorder'><div class='vertical-center'><img style='vertical-align:center; align:center' src=img/fixation3.jpg></div><div class='cl'><div class='vertical-center'>$47<br><br>now</div></div><div class='cr'><div class='vertical-center'>$50<br>in<br>12 weeks</div></div><div class='respDivL'><div class='vertical-center'>(E)</div></div><div class='respDivR'><div class='vertical-center'>(I)</div></div></div>","E","$47<br><br>now","$50<br>in<br>12 weeks","0","47","50","12","NOW"
"html-keyboard-response","81","54717","0.0-5.0-3.25","63ee5e103b44d07673cc8bd6","bdp_td","Sun Apr 09 2023 16:21:36 GMT-0700 (Pacific Daylight Time)","57348","","null","","","","offerFB","","<div class='trialBorder'><div class='vertical-center'><img style='vertical-align:center; align:center' src=img/fixation3.jpg></div><div class='cl'><div class='vertical-center'><font style='color:orange'>$47<br><br>now</font></div></div><div class='cr'><div class='vertical-center'>$50<br>in<br>12 weeks</div></div><div class='respDivL'><div class='vertical-center'><font style='color:orange'>(E)</font></div></div><div class='respDivR'><div class='vertical-center'>(I)</div></div></div>","null","$47<br><br>now","$50<br>in<br>12 weeks","0","47","50","12",""
"html-keyboard-response","82","55218","0.0-5.0-1.26","63ee5e103b44d07673cc8bd6","bdp_td","Sun Apr 09 2023 16:21:36 GMT-0700 (Pacific Daylight Time)","57348","","null","","","","FIX","","<div class='trialBorder'><div class='vertical-center'><img style='vertical-align:center; align:center' src=img/fixation3.jpg></div></div>","null","","","","","","",""
"html-keyboard-response","83","56094","0.0-5.0-2.26","63ee5e103b44d07673cc8bd6","bdp_td","Sun Apr 09 2023 16:21:36 GMT-0700 (Pacific Daylight Time)","57348","","875","","","","offer","","<div class='trialBorder'><div class='vertical-center'><img style='vertical-align:center; align:center' src=img/fixation3.jpg></div><div class='cl'><div class='vertical-center'>$60<br>in<br>6 weeks</div></div><div class='cr'><div class='vertical-center'>$49<br><br>now</div></div><div class='respDivL'><div class='vertical-center'>(E)</div></div><div class='respDivR'><div class='vertical-center'>(I)</div></div></div>","I","$49<br><br>now","$60<br>in<br>6 weeks","1","49","60","6","NOW"
"html-keyboard-response","84","56346","0.0-5.0-3.26","63ee5e103b44d07673cc8bd6","bdp_td","Sun Apr 09 2023 16:21:36 GMT-0700 (Pacific Daylight Time)","57348","","null","","","","offerFB","","<div class='trialBorder'><div class='vertical-center'><img style='vertical-align:center; align:center' src=img/fixation3.jpg></div><div class='cl'><div class='vertical-center'>$60<br>in<br>6 weeks</div></div><div class='cr'><div class='vertical-center'><font style='color:orange'>$49<br><br>now</font></div></div><div class='respDivL'><div class='vertical-center'>(E)</div></div><div class='respDivR'><div class='vertical-center'><font style='color:orange'>(I)</font></div></div></div>","null","$49<br><br>now","$60<br>in<br>6 weeks","1","49","60","6",""
"","","","","63ee5e103b44d07673cc8bd6","bdp_td","Sun Apr 09 2023 16:21:36 GMT-0700 (Pacific Daylight Time)","57348","","","fullscreenexit","85","56358","fullscreenexit","","","","","","","","","",""
"fullscreen","85","57347","0.0-6.0","63ee5e103b44d07673cc8bd6","bdp_td","Sun Apr 09 2023 16:21:36 GMT-0700 (Pacific Daylight Time)","57348","","","","","","","true","","","","","","","","",""
"html-keyboard-response","86","57864","0.0-7.0","","","","","","null","","","","","","","null","","","","","","",""
