"trial_type","trial_index","time_elapsed","internal_node_id","subject_id","task","startTime","totalTime","view_history","rt","event","trial","time","trialtype","success","stimulus","key_press","nowOffer","thenOffer","thenLeft","nowAmt","thenAmt","thenWeeks","chosen"
"pavlovia","0","6","0.0-0.0","60fcd5602ff7c8f0866ecd0c","bdp_td","Sat Mar 25 2023 19:09:50 GMT-0400 (Eastern Daylight Time)","102211","","","","","","","","","","","","","","","",""
"instructions","1","3333","0.0-1.0","60fcd5602ff7c8f0866ecd0c","bdp_td","Sat Mar 25 2023 19:09:50 GMT-0400 (Eastern Daylight Time)","102211","[{""page_index"":0,""viewing_time"":3326}]","3326","","","","","","","","","","","","","",""
"","","","","60fcd5602ff7c8f0866ecd0c","bdp_td","Sat Mar 25 2023 19:09:50 GMT-0400 (Eastern Daylight Time)","102211","","","fullscreenenter","2","7154","fullscreenenter","","","","","","","","","",""
"fullscreen","2","8133","0.0-2.0","60fcd5602ff7c8f0866ecd0c","bdp_td","Sat Mar 25 2023 19:09:50 GMT-0400 (Eastern Daylight Time)","102211","","","","","","","true","","","","","","","","",""
"instructions","3","25825","0.0-4.0","60fcd5602ff7c8f0866ecd0c","bdp_td","Sat Mar 25 2023 19:09:50 GMT-0400 (Eastern Daylight Time)","102211","[{""page_index"":0,""viewing_time"":6610},{""page_index"":1,""viewing_time"":6971},{""page_index"":2,""viewing_time"":4109}]","17691","","","","","","","","","","","","","",""
"html-keyboard-response","4","26334","0.0-5.0-1.0","60fcd5602ff7c8f0866ecd0c","bdp_td","Sat Mar 25 2023 19:09:50 GMT-0400 (Eastern Daylight Time)","102211","","null","","","","FIX","","<div class='trialBorder'><div class='vertical-center'><img style='vertical-align:center; align:center' src=img/fixation3.jpg></div></div>","null","","","","","","",""
"html-keyboard-response","5","29458","0.0-5.0-2.0","60fcd5602ff7c8f0866ecd0c","bdp_td","Sat Mar 25 2023 19:09:50 GMT-0400 (Eastern Daylight Time)","102211","","3123","","","","offer","","<div class='trialBorder'><div class='vertical-center'><img style='vertical-align:center; align:center' src=img/fixation3.jpg></div><div class='cl'><div class='vertical-center'>$25<br>in<br>12 weeks</div></div><div class='cr'><div class='vertical-center'>$22<br><br>now</div></div><div class='respDivL'><div class='vertical-center'>(E)</div></div><div class='respDivR'><div class='vertical-center'>(I)</div></div></div>","I","$22<br><br>now","$25<br>in<br>12 weeks","1","22","25","12","NOW"
"html-keyboard-response","6","29711","0.0-5.0-3.0","60fcd5602ff7c8f0866ecd0c","bdp_td","Sat Mar 25 2023 19:09:50 GMT-0400 (Eastern Daylight Time)","102211","","null","","","","offerFB","","<div class='trialBorder'><div class='vertical-center'><img style='vertical-align:center; align:center' src=img/fixation3.jpg></div><div class='cl'><div class='vertical-center'>$25<br>in<br>12 weeks</div></div><div class='cr'><div class='vertical-center'><font style='color:orange'>$22<br><br>now</font></div></div><div class='respDivL'><div class='vertical-center'>(E)</div></div><div class='respDivR'><div class='vertical-center'><font style='color:orange'>(I)</font></div></div></div>","null","$22<br><br>now","$25<br>in<br>12 weeks","1","22","25","12",""
"html-keyboard-response","7","30213","0.0-5.0-1.1","60fcd5602ff7c8f0866ecd0c","bdp_td","Sat Mar 25 2023 19:09:50 GMT-0400 (Eastern Daylight Time)","102211","","null","","","","FIX","","<div class='trialBorder'><div class='vertical-center'><img style='vertical-align:center; align:center' src=img/fixation3.jpg></div></div>","null","","","","","","",""
"html-keyboard-response","8","33832","0.0-5.0-2.1","60fcd5602ff7c8f0866ecd0c","bdp_td","Sat Mar 25 2023 19:09:50 GMT-0400 (Eastern Daylight Time)","102211","","3616","","","","offer","","<div class='trialBorder'><div class='vertical-center'><img style='vertical-align:center; align:center' src=img/fixation3.jpg></div><div class='cl'><div class='vertical-center'>$33<br><br>now</div></div><div class='cr'><div class='vertical-center'>$80<br>in<br>2 weeks</div></div><div class='respDivL'><div class='vertical-center'>(E)</div></div><div class='respDivR'><div class='vertical-center'>(I)</div></div></div>","I","$33<br><br>now","$80<br>in<br>2 weeks","0","33","80","2","THEN"
"html-keyboard-response","9","34085","0.0-5.0-3.1","60fcd5602ff7c8f0866ecd0c","bdp_td","Sat Mar 25 2023 19:09:50 GMT-0400 (Eastern Daylight Time)","102211","","null","","","","offerFB","","<div class='trialBorder'><div class='vertical-center'><img style='vertical-align:center; align:center' src=img/fixation3.jpg></div><div class='cl'><div class='vertical-center'>$33<br><br>now</div></div><div class='cr'><div class='vertical-center'><font style='color:orange'>$80<br>in<br>2 weeks</font></div></div><div class='respDivL'><div class='vertical-center'>(E)</div></div><div class='respDivR'><div class='vertical-center'><font style='color:orange'>(I)</font></div></div></div>","null","$33<br><br>now","$80<br>in<br>2 weeks","0","33","80","2",""
"html-keyboard-response","10","34600","0.0-5.0-1.2","60fcd5602ff7c8f0866ecd0c","bdp_td","Sat Mar 25 2023 19:09:50 GMT-0400 (Eastern Daylight Time)","102211","","null","","","","FIX","","<div class='trialBorder'><div class='vertical-center'><img style='vertical-align:center; align:center' src=img/fixation3.jpg></div></div>","null","","","","","","",""
"html-keyboard-response","11","36183","0.0-5.0-2.2","60fcd5602ff7c8f0866ecd0c","bdp_td","Sat Mar 25 2023 19:09:50 GMT-0400 (Eastern Daylight Time)","102211","","1581","","","","offer","","<div class='trialBorder'><div class='vertical-center'><img style='vertical-align:center; align:center' src=img/fixation3.jpg></div><div class='cl'><div class='vertical-center'>$34<br><br>now</div></div><div class='cr'><div class='vertical-center'>$35<br>in<br>12 weeks</div></div><div class='respDivL'><div class='vertical-center'>(E)</div></div><div class='respDivR'><div class='vertical-center'>(I)</div></div></div>","E","$34<br><br>now","$35<br>in<br>12 weeks","0","34","35","12","NOW"
"html-keyboard-response","12","36436","0.0-5.0-3.2","60fcd5602ff7c8f0866ecd0c","bdp_td","Sat Mar 25 2023 19:09:50 GMT-0400 (Eastern Daylight Time)","102211","","null","","","","offerFB","","<div class='trialBorder'><div class='vertical-center'><img style='vertical-align:center; align:center' src=img/fixation3.jpg></div><div class='cl'><div class='vertical-center'><font style='color:orange'>$34<br><br>now</font></div></div><div class='cr'><div class='vertical-center'>$35<br>in<br>12 weeks</div></div><div class='respDivL'><div class='vertical-center'><font style='color:orange'>(E)</font></div></div><div class='respDivR'><div class='vertical-center'>(I)</div></div></div>","null","$34<br><br>now","$35<br>in<br>12 weeks","0","34","35","12",""
"html-keyboard-response","13","36938","0.0-5.0-1.3","60fcd5602ff7c8f0866ecd0c","bdp_td","Sat Mar 25 2023 19:09:50 GMT-0400 (Eastern Daylight Time)","102211","","null","","","","FIX","","<div class='trialBorder'><div class='vertical-center'><img style='vertical-align:center; align:center' src=img/fixation3.jpg></div></div>","null","","","","","","",""
"html-keyboard-response","14","40341","0.0-5.0-2.3","60fcd5602ff7c8f0866ecd0c","bdp_td","Sat Mar 25 2023 19:09:50 GMT-0400 (Eastern Daylight Time)","102211","","3402","","","","offer","","<div class='trialBorder'><div class='vertical-center'><img style='vertical-align:center; align:center' src=img/fixation3.jpg></div><div class='cl'><div class='vertical-center'>$75<br>in<br>3 weeks</div></div><div class='cr'><div class='vertical-center'>$41<br><br>now</div></div><div class='respDivL'><div class='vertical-center'>(E)</div></div><div class='respDivR'><div class='vertical-center'>(I)</div></div></div>","E","$41<br><br>now","$75<br>in<br>3 weeks","1","41","75","3","THEN"
"html-keyboard-response","15","40595","0.0-5.0-3.3","60fcd5602ff7c8f0866ecd0c","bdp_td","Sat Mar 25 2023 19:09:50 GMT-0400 (Eastern Daylight Time)","102211","","null","","","","offerFB","","<div class='trialBorder'><div class='vertical-center'><img style='vertical-align:center; align:center' src=img/fixation3.jpg></div><div class='cl'><div class='vertical-center'><font style='color:orange'>$75<br>in<br>3 weeks</font></div></div><div class='cr'><div class='vertical-center'>$41<br><br>now</div></div><div class='respDivL'><div class='vertical-center'><font style='color:orange'>(E)</font></div></div><div class='respDivR'><div class='vertical-center'>(I)</div></div></div>","null","$41<br><br>now","$75<br>in<br>3 weeks","1","41","75","3",""
"html-keyboard-response","16","41101","0.0-5.0-1.4","60fcd5602ff7c8f0866ecd0c","bdp_td","Sat Mar 25 2023 19:09:50 GMT-0400 (Eastern Daylight Time)","102211","","null","","","","FIX","","<div class='trialBorder'><div class='vertical-center'><img style='vertical-align:center; align:center' src=img/fixation3.jpg></div></div>","null","","","","","","",""
"html-keyboard-response","17","43073","0.0-5.0-2.4","60fcd5602ff7c8f0866ecd0c","bdp_td","Sat Mar 25 2023 19:09:50 GMT-0400 (Eastern Daylight Time)","102211","","1971","","","","offer","","<div class='trialBorder'><div class='vertical-center'><img style='vertical-align:center; align:center' src=img/fixation3.jpg></div><div class='cl'><div class='vertical-center'>$60<br>in<br>12 weeks</div></div><div class='cr'><div class='vertical-center'>$54<br><br>now</div></div><div class='respDivL'><div class='vertical-center'>(E)</div></div><div class='respDivR'><div class='vertical-center'>(I)</div></div></div>","I","$54<br><br>now","$60<br>in<br>12 weeks","1","54","60","12","NOW"
"html-keyboard-response","18","43325","0.0-5.0-3.4","60fcd5602ff7c8f0866ecd0c","bdp_td","Sat Mar 25 2023 19:09:50 GMT-0400 (Eastern Daylight Time)","102211","","null","","","","offerFB","","<div class='trialBorder'><div class='vertical-center'><img style='vertical-align:center; align:center' src=img/fixation3.jpg></div><div class='cl'><div class='vertical-center'>$60<br>in<br>12 weeks</div></div><div class='cr'><div class='vertical-center'><font style='color:orange'>$54<br><br>now</font></div></div><div class='respDivL'><div class='vertical-center'>(E)</div></div><div class='respDivR'><div class='vertical-center'><font style='color:orange'>(I)</font></div></div></div>","null","$54<br><br>now","$60<br>in<br>12 weeks","1","54","60","12",""
"html-keyboard-response","19","43837","0.0-5.0-1.5","60fcd5602ff7c8f0866ecd0c","bdp_td","Sat Mar 25 2023 19:09:50 GMT-0400 (Eastern Daylight Time)","102211","","null","","","","FIX","","<div class='trialBorder'><div class='vertical-center'><img style='vertical-align:center; align:center' src=img/fixation3.jpg></div></div>","null","","","","","","",""
"html-keyboard-response","20","45611","0.0-5.0-2.5","60fcd5602ff7c8f0866ecd0c","bdp_td","Sat Mar 25 2023 19:09:50 GMT-0400 (Eastern Daylight Time)","102211","","1772","","","","offer","","<div class='trialBorder'><div class='vertical-center'><img style='vertical-align:center; align:center' src=img/fixation3.jpg></div><div class='cl'><div class='vertical-center'>$27<br><br>now</div></div><div class='cr'><div class='vertical-center'>$50<br>in<br>3 weeks</div></div><div class='respDivL'><div class='vertical-center'>(E)</div></div><div class='respDivR'><div class='vertical-center'>(I)</div></div></div>","I","$27<br><br>now","$50<br>in<br>3 weeks","0","27","50","3","THEN"
"html-keyboard-response","21","45867","0.0-5.0-3.5","60fcd5602ff7c8f0866ecd0c","bdp_td","Sat Mar 25 2023 19:09:50 GMT-0400 (Eastern Daylight Time)","102211","","null","","","","offerFB","","<div class='trialBorder'><div class='vertical-center'><img style='vertical-align:center; align:center' src=img/fixation3.jpg></div><div class='cl'><div class='vertical-center'>$27<br><br>now</div></div><div class='cr'><div class='vertical-center'><font style='color:orange'>$50<br>in<br>3 weeks</font></div></div><div class='respDivL'><div class='vertical-center'>(E)</div></div><div class='respDivR'><div class='vertical-center'><font style='color:orange'>(I)</font></div></div></div>","null","$27<br><br>now","$50<br>in<br>3 weeks","0","27","50","3",""
"html-keyboard-response","22","46370","0.0-5.0-1.6","60fcd5602ff7c8f0866ecd0c","bdp_td","Sat Mar 25 2023 19:09:50 GMT-0400 (Eastern Daylight Time)","102211","","null","","","","FIX","","<div class='trialBorder'><div class='vertical-center'><img style='vertical-align:center; align:center' src=img/fixation3.jpg></div></div>","null","","","","","","",""
"html-keyboard-response","23","48980","0.0-5.0-2.6","60fcd5602ff7c8f0866ecd0c","bdp_td","Sat Mar 25 2023 19:09:50 GMT-0400 (Eastern Daylight Time)","102211","","2609","","","","offer","","<div class='trialBorder'><div class='vertical-center'><img style='vertical-align:center; align:center' src=img/fixation3.jpg></div><div class='cl'><div class='vertical-center'>$60<br>in<br>6 weeks</div></div><div class='cr'><div class='vertical-center'>$49<br><br>now</div></div><div class='respDivL'><div class='vertical-center'>(E)</div></div><div class='respDivR'><div class='vertical-center'>(I)</div></div></div>","E","$49<br><br>now","$60<br>in<br>6 weeks","1","49","60","6","THEN"
"html-keyboard-response","24","49239","0.0-5.0-3.6","60fcd5602ff7c8f0866ecd0c","bdp_td","Sat Mar 25 2023 19:09:50 GMT-0400 (Eastern Daylight Time)","102211","","null","","","","offerFB","","<div class='trialBorder'><div class='vertical-center'><img style='vertical-align:center; align:center' src=img/fixation3.jpg></div><div class='cl'><div class='vertical-center'><font style='color:orange'>$60<br>in<br>6 weeks</font></div></div><div class='cr'><div class='vertical-center'>$49<br><br>now</div></div><div class='respDivL'><div class='vertical-center'><font style='color:orange'>(E)</font></div></div><div class='respDivR'><div class='vertical-center'>(I)</div></div></div>","null","$49<br><br>now","$60<br>in<br>6 weeks","1","49","60","6",""
"html-keyboard-response","25","49744","0.0-5.0-1.7","60fcd5602ff7c8f0866ecd0c","bdp_td","Sat Mar 25 2023 19:09:50 GMT-0400 (Eastern Daylight Time)","102211","","null","","","","FIX","","<div class='trialBorder'><div class='vertical-center'><img style='vertical-align:center; align:center' src=img/fixation3.jpg></div></div>","null","","","","","","",""
"html-keyboard-response","26","51700","0.0-5.0-2.7","60fcd5602ff7c8f0866ecd0c","bdp_td","Sat Mar 25 2023 19:09:50 GMT-0400 (Eastern Daylight Time)","102211","","1955","","","","offer","","<div class='trialBorder'><div class='vertical-center'><img style='vertical-align:center; align:center' src=img/fixation3.jpg></div><div class='cl'><div class='vertical-center'>$55<br>in<br>1 week</div></div><div class='cr'><div class='vertical-center'>$20<br><br>now</div></div><div class='respDivL'><div class='vertical-center'>(E)</div></div><div class='respDivR'><div class='vertical-center'>(I)</div></div></div>","E","$20<br><br>now","$55<br>in<br>1 week","1","20","55","1","THEN"
"html-keyboard-response","27","51959","0.0-5.0-3.7","60fcd5602ff7c8f0866ecd0c","bdp_td","Sat Mar 25 2023 19:09:50 GMT-0400 (Eastern Daylight Time)","102211","","null","","","","offerFB","","<div class='trialBorder'><div class='vertical-center'><img style='vertical-align:center; align:center' src=img/fixation3.jpg></div><div class='cl'><div class='vertical-center'><font style='color:orange'>$55<br>in<br>1 week</font></div></div><div class='cr'><div class='vertical-center'>$20<br><br>now</div></div><div class='respDivL'><div class='vertical-center'><font style='color:orange'>(E)</font></div></div><div class='respDivR'><div class='vertical-center'>(I)</div></div></div>","null","$20<br><br>now","$55<br>in<br>1 week","1","20","55","1",""
"html-keyboard-response","28","52466","0.0-5.0-1.8","60fcd5602ff7c8f0866ecd0c","bdp_td","Sat Mar 25 2023 19:09:50 GMT-0400 (Eastern Daylight Time)","102211","","null","","","","FIX","","<div class='trialBorder'><div class='vertical-center'><img style='vertical-align:center; align:center' src=img/fixation3.jpg></div></div>","null","","","","","","",""
"html-keyboard-response","29","54404","0.0-5.0-2.8","60fcd5602ff7c8f0866ecd0c","bdp_td","Sat Mar 25 2023 19:09:50 GMT-0400 (Eastern Daylight Time)","102211","","1937","","","","offer","","<div class='trialBorder'><div class='vertical-center'><img style='vertical-align:center; align:center' src=img/fixation3.jpg></div><div class='cl'><div class='vertical-center'>$60<br>in<br>3 weeks</div></div><div class='cr'><div class='vertical-center'>$25<br><br>now</div></div><div class='respDivL'><div class='vertical-center'>(E)</div></div><div class='respDivR'><div class='vertical-center'>(I)</div></div></div>","E","$25<br><br>now","$60<br>in<br>3 weeks","1","25","60","3","THEN"
"html-keyboard-response","30","54661","0.0-5.0-3.8","60fcd5602ff7c8f0866ecd0c","bdp_td","Sat Mar 25 2023 19:09:50 GMT-0400 (Eastern Daylight Time)","102211","","null","","","","offerFB","","<div class='trialBorder'><div class='vertical-center'><img style='vertical-align:center; align:center' src=img/fixation3.jpg></div><div class='cl'><div class='vertical-center'><font style='color:orange'>$60<br>in<br>3 weeks</font></div></div><div class='cr'><div class='vertical-center'>$25<br><br>now</div></div><div class='respDivL'><div class='vertical-center'><font style='color:orange'>(E)</font></div></div><div class='respDivR'><div class='vertical-center'>(I)</div></div></div>","null","$25<br><br>now","$60<br>in<br>3 weeks","1","25","60","3",""
"html-keyboard-response","31","55177","0.0-5.0-1.9","60fcd5602ff7c8f0866ecd0c","bdp_td","Sat Mar 25 2023 19:09:50 GMT-0400 (Eastern Daylight Time)","102211","","null","","","","FIX","","<div class='trialBorder'><div class='vertical-center'><img style='vertical-align:center; align:center' src=img/fixation3.jpg></div></div>","null","","","","","","",""
"html-keyboard-response","32","57156","0.0-5.0-2.9","60fcd5602ff7c8f0866ecd0c","bdp_td","Sat Mar 25 2023 19:09:50 GMT-0400 (Eastern Daylight Time)","102211","","1977","","","","offer","","<div class='trialBorder'><div class='vertical-center'><img style='vertical-align:center; align:center' src=img/fixation3.jpg></div><div class='cl'><div class='vertical-center'>$25<br>in<br>3 weeks</div></div><div class='cr'><div class='vertical-center'>$14<br><br>now</div></div><div class='respDivL'><div class='vertical-center'>(E)</div></div><div class='respDivR'><div class='vertical-center'>(I)</div></div></div>","I","$14<br><br>now","$25<br>in<br>3 weeks","1","14","25","3","NOW"
"html-keyboard-response","33","57410","0.0-5.0-3.9","60fcd5602ff7c8f0866ecd0c","bdp_td","Sat Mar 25 2023 19:09:50 GMT-0400 (Eastern Daylight Time)","102211","","null","","","","offerFB","","<div class='trialBorder'><div class='vertical-center'><img style='vertical-align:center; align:center' src=img/fixation3.jpg></div><div class='cl'><div class='vertical-center'>$25<br>in<br>3 weeks</div></div><div class='cr'><div class='vertical-center'><font style='color:orange'>$14<br><br>now</font></div></div><div class='respDivL'><div class='vertical-center'>(E)</div></div><div class='respDivR'><div class='vertical-center'><font style='color:orange'>(I)</font></div></div></div>","null","$14<br><br>now","$25<br>in<br>3 weeks","1","14","25","3",""
"html-keyboard-response","34","57915","0.0-5.0-1.10","60fcd5602ff7c8f0866ecd0c","bdp_td","Sat Mar 25 2023 19:09:50 GMT-0400 (Eastern Daylight Time)","102211","","null","","","","FIX","","<div class='trialBorder'><div class='vertical-center'><img style='vertical-align:center; align:center' src=img/fixation3.jpg></div></div>","null","","","","","","",""
"html-keyboard-response","35","59740","0.0-5.0-2.10","60fcd5602ff7c8f0866ecd0c","bdp_td","Sat Mar 25 2023 19:09:50 GMT-0400 (Eastern Daylight Time)","102211","","1824","","","","offer","","<div class='trialBorder'><div class='vertical-center'><img style='vertical-align:center; align:center' src=img/fixation3.jpg></div><div class='cl'><div class='vertical-center'>$80<br><br>now</div></div><div class='cr'><div class='vertical-center'>$85<br>in<br>12 weeks</div></div><div class='respDivL'><div class='vertical-center'>(E)</div></div><div class='respDivR'><div class='vertical-center'>(I)</div></div></div>","E","$80<br><br>now","$85<br>in<br>12 weeks","0","80","85","12","NOW"
"html-keyboard-response","36","59993","0.0-5.0-3.10","60fcd5602ff7c8f0866ecd0c","bdp_td","Sat Mar 25 2023 19:09:50 GMT-0400 (Eastern Daylight Time)","102211","","null","","","","offerFB","","<div class='trialBorder'><div class='vertical-center'><img style='vertical-align:center; align:center' src=img/fixation3.jpg></div><div class='cl'><div class='vertical-center'><font style='color:orange'>$80<br><br>now</font></div></div><div class='cr'><div class='vertical-center'>$85<br>in<br>12 weeks</div></div><div class='respDivL'><div class='vertical-center'><font style='color:orange'>(E)</font></div></div><div class='respDivR'><div class='vertical-center'>(I)</div></div></div>","null","$80<br><br>now","$85<br>in<br>12 weeks","0","80","85","12",""
"html-keyboard-response","37","60496","0.0-5.0-1.11","60fcd5602ff7c8f0866ecd0c","bdp_td","Sat Mar 25 2023 19:09:50 GMT-0400 (Eastern Daylight Time)","102211","","null","","","","FIX","","<div class='trialBorder'><div class='vertical-center'><img style='vertical-align:center; align:center' src=img/fixation3.jpg></div></div>","null","","","","","","",""
"html-keyboard-response","38","63451","0.0-5.0-2.11","60fcd5602ff7c8f0866ecd0c","bdp_td","Sat Mar 25 2023 19:09:50 GMT-0400 (Eastern Daylight Time)","102211","","2954","","","","offer","","<div class='trialBorder'><div class='vertical-center'><img style='vertical-align:center; align:center' src=img/fixation3.jpg></div><div class='cl'><div class='vertical-center'>$30<br>in<br>2 weeks</div></div><div class='cr'><div class='vertical-center'>$11<br><br>now</div></div><div class='respDivL'><div class='vertical-center'>(E)</div></div><div class='respDivR'><div class='vertical-center'>(I)</div></div></div>","E","$11<br><br>now","$30<br>in<br>2 weeks","1","11","30","2","THEN"
"html-keyboard-response","39","63710","0.0-5.0-3.11","60fcd5602ff7c8f0866ecd0c","bdp_td","Sat Mar 25 2023 19:09:50 GMT-0400 (Eastern Daylight Time)","102211","","null","","","","offerFB","","<div class='trialBorder'><div class='vertical-center'><img style='vertical-align:center; align:center' src=img/fixation3.jpg></div><div class='cl'><div class='vertical-center'><font style='color:orange'>$30<br>in<br>2 weeks</font></div></div><div class='cr'><div class='vertical-center'>$11<br><br>now</div></div><div class='respDivL'><div class='vertical-center'><font style='color:orange'>(E)</font></div></div><div class='respDivR'><div class='vertical-center'>(I)</div></div></div>","null","$11<br><br>now","$30<br>in<br>2 weeks","1","11","30","2",""
"html-keyboard-response","40","64212","0.0-5.0-1.12","60fcd5602ff7c8f0866ecd0c","bdp_td","Sat Mar 25 2023 19:09:50 GMT-0400 (Eastern Daylight Time)","102211","","null","","","","FIX","","<div class='trialBorder'><div class='vertical-center'><img style='vertical-align:center; align:center' src=img/fixation3.jpg></div></div>","null","","","","","","",""
"html-keyboard-response","41","66953","0.0-5.0-2.12","60fcd5602ff7c8f0866ecd0c","bdp_td","Sat Mar 25 2023 19:09:50 GMT-0400 (Eastern Daylight Time)","102211","","2740","","","","offer","","<div class='trialBorder'><div class='vertical-center'><img style='vertical-align:center; align:center' src=img/fixation3.jpg></div><div class='cl'><div class='vertical-center'>$25<br><br>now</div></div><div class='cr'><div class='vertical-center'>$30<br>in<br>6 weeks</div></div><div class='respDivL'><div class='vertical-center'>(E)</div></div><div class='respDivR'><div class='vertical-center'>(I)</div></div></div>","E","$25<br><br>now","$30<br>in<br>6 weeks","0","25","30","6","NOW"
"html-keyboard-response","42","67209","0.0-5.0-3.12","60fcd5602ff7c8f0866ecd0c","bdp_td","Sat Mar 25 2023 19:09:50 GMT-0400 (Eastern Daylight Time)","102211","","null","","","","offerFB","","<div class='trialBorder'><div class='vertical-center'><img style='vertical-align:center; align:center' src=img/fixation3.jpg></div><div class='cl'><div class='vertical-center'><font style='color:orange'>$25<br><br>now</font></div></div><div class='cr'><div class='vertical-center'>$30<br>in<br>6 weeks</div></div><div class='respDivL'><div class='vertical-center'><font style='color:orange'>(E)</font></div></div><div class='respDivR'><div class='vertical-center'>(I)</div></div></div>","null","$25<br><br>now","$30<br>in<br>6 weeks","0","25","30","6",""
"html-keyboard-response","43","67716","0.0-5.0-1.13","60fcd5602ff7c8f0866ecd0c","bdp_td","Sat Mar 25 2023 19:09:50 GMT-0400 (Eastern Daylight Time)","102211","","null","","","","FIX","","<div class='trialBorder'><div class='vertical-center'><img style='vertical-align:center; align:center' src=img/fixation3.jpg></div></div>","null","","","","","","",""
"html-keyboard-response","44","69112","0.0-5.0-2.13","60fcd5602ff7c8f0866ecd0c","bdp_td","Sat Mar 25 2023 19:09:50 GMT-0400 (Eastern Daylight Time)","102211","","1395","","","","offer","","<div class='trialBorder'><div class='vertical-center'><img style='vertical-align:center; align:center' src=img/fixation3.jpg></div><div class='cl'><div class='vertical-center'>$28<br><br>now</div></div><div class='cr'><div class='vertical-center'>$30<br>in<br>12 weeks</div></div><div class='respDivL'><div class='vertical-center'>(E)</div></div><div class='respDivR'><div class='vertical-center'>(I)</div></div></div>","E","$28<br><br>now","$30<br>in<br>12 weeks","0","28","30","12","NOW"
"html-keyboard-response","45","69364","0.0-5.0-3.13","60fcd5602ff7c8f0866ecd0c","bdp_td","Sat Mar 25 2023 19:09:50 GMT-0400 (Eastern Daylight Time)","102211","","null","","","","offerFB","","<div class='trialBorder'><div class='vertical-center'><img style='vertical-align:center; align:center' src=img/fixation3.jpg></div><div class='cl'><div class='vertical-center'><font style='color:orange'>$28<br><br>now</font></div></div><div class='cr'><div class='vertical-center'>$30<br>in<br>12 weeks</div></div><div class='respDivL'><div class='vertical-center'><font style='color:orange'>(E)</font></div></div><div class='respDivR'><div class='vertical-center'>(I)</div></div></div>","null","$28<br><br>now","$30<br>in<br>12 weeks","0","28","30","12",""
"html-keyboard-response","46","69876","0.0-5.0-1.14","60fcd5602ff7c8f0866ecd0c","bdp_td","Sat Mar 25 2023 19:09:50 GMT-0400 (Eastern Daylight Time)","102211","","null","","","","FIX","","<div class='trialBorder'><div class='vertical-center'><img style='vertical-align:center; align:center' src=img/fixation3.jpg></div></div>","null","","","","","","",""
"html-keyboard-response","47","71947","0.0-5.0-2.14","60fcd5602ff7c8f0866ecd0c","bdp_td","Sat Mar 25 2023 19:09:50 GMT-0400 (Eastern Daylight Time)","102211","","2070","","","","offer","","<div class='trialBorder'><div class='vertical-center'><img style='vertical-align:center; align:center' src=img/fixation3.jpg></div><div class='cl'><div class='vertical-center'>$15<br><br>now</div></div><div class='cr'><div class='vertical-center'>$35<br>in<br>2 weeks</div></div><div class='respDivL'><div class='vertical-center'>(E)</div></div><div class='respDivR'><div class='vertical-center'>(I)</div></div></div>","I","$15<br><br>now","$35<br>in<br>2 weeks","0","15","35","2","THEN"
"html-keyboard-response","48","72207","0.0-5.0-3.14","60fcd5602ff7c8f0866ecd0c","bdp_td","Sat Mar 25 2023 19:09:50 GMT-0400 (Eastern Daylight Time)","102211","","null","","","","offerFB","","<div class='trialBorder'><div class='vertical-center'><img style='vertical-align:center; align:center' src=img/fixation3.jpg></div><div class='cl'><div class='vertical-center'>$15<br><br>now</div></div><div class='cr'><div class='vertical-center'><font style='color:orange'>$35<br>in<br>2 weeks</font></div></div><div class='respDivL'><div class='vertical-center'>(E)</div></div><div class='respDivR'><div class='vertical-center'><font style='color:orange'>(I)</font></div></div></div>","null","$15<br><br>now","$35<br>in<br>2 weeks","0","15","35","2",""
"html-keyboard-response","49","72716","0.0-5.0-1.15","60fcd5602ff7c8f0866ecd0c","bdp_td","Sat Mar 25 2023 19:09:50 GMT-0400 (Eastern Daylight Time)","102211","","null","","","","FIX","","<div class='trialBorder'><div class='vertical-center'><img style='vertical-align:center; align:center' src=img/fixation3.jpg></div></div>","null","","","","","","",""
"html-keyboard-response","50","75333","0.0-5.0-2.15","60fcd5602ff7c8f0866ecd0c","bdp_td","Sat Mar 25 2023 19:09:50 GMT-0400 (Eastern Daylight Time)","102211","","2616","","","","offer","","<div class='trialBorder'><div class='vertical-center'><img style='vertical-align:center; align:center' src=img/fixation3.jpg></div><div class='cl'><div class='vertical-center'>$40<br><br>now</div></div><div class='cr'><div class='vertical-center'>$55<br>in<br>6 weeks</div></div><div class='respDivL'><div class='vertical-center'>(E)</div></div><div class='respDivR'><div class='vertical-center'>(I)</div></div></div>","E","$40<br><br>now","$55<br>in<br>6 weeks","0","40","55","6","NOW"
"html-keyboard-response","51","75590","0.0-5.0-3.15","60fcd5602ff7c8f0866ecd0c","bdp_td","Sat Mar 25 2023 19:09:50 GMT-0400 (Eastern Daylight Time)","102211","","null","","","","offerFB","","<div class='trialBorder'><div class='vertical-center'><img style='vertical-align:center; align:center' src=img/fixation3.jpg></div><div class='cl'><div class='vertical-center'><font style='color:orange'>$40<br><br>now</font></div></div><div class='cr'><div class='vertical-center'>$55<br>in<br>6 weeks</div></div><div class='respDivL'><div class='vertical-center'><font style='color:orange'>(E)</font></div></div><div class='respDivR'><div class='vertical-center'>(I)</div></div></div>","null","$40<br><br>now","$55<br>in<br>6 weeks","0","40","55","6",""
"html-keyboard-response","52","76099","0.0-5.0-1.16","60fcd5602ff7c8f0866ecd0c","bdp_td","Sat Mar 25 2023 19:09:50 GMT-0400 (Eastern Daylight Time)","102211","","null","","","","FIX","","<div class='trialBorder'><div class='vertical-center'><img style='vertical-align:center; align:center' src=img/fixation3.jpg></div></div>","null","","","","","","",""
"html-keyboard-response","53","77747","0.0-5.0-2.16","60fcd5602ff7c8f0866ecd0c","bdp_td","Sat Mar 25 2023 19:09:50 GMT-0400 (Eastern Daylight Time)","102211","","1647","","","","offer","","<div class='trialBorder'><div class='vertical-center'><img style='vertical-align:center; align:center' src=img/fixation3.jpg></div><div class='cl'><div class='vertical-center'>$35<br>in<br>3 weeks</div></div><div class='cr'><div class='vertical-center'>$24<br><br>now</div></div><div class='respDivL'><div class='vertical-center'>(E)</div></div><div class='respDivR'><div class='vertical-center'>(I)</div></div></div>","I","$24<br><br>now","$35<br>in<br>3 weeks","1","24","35","3","NOW"
"html-keyboard-response","54","78009","0.0-5.0-3.16","60fcd5602ff7c8f0866ecd0c","bdp_td","Sat Mar 25 2023 19:09:50 GMT-0400 (Eastern Daylight Time)","102211","","null","","","","offerFB","","<div class='trialBorder'><div class='vertical-center'><img style='vertical-align:center; align:center' src=img/fixation3.jpg></div><div class='cl'><div class='vertical-center'>$35<br>in<br>3 weeks</div></div><div class='cr'><div class='vertical-center'><font style='color:orange'>$24<br><br>now</font></div></div><div class='respDivL'><div class='vertical-center'>(E)</div></div><div class='respDivR'><div class='vertical-center'><font style='color:orange'>(I)</font></div></div></div>","null","$24<br><br>now","$35<br>in<br>3 weeks","1","24","35","3",""
"html-keyboard-response","55","78511","0.0-5.0-1.17","60fcd5602ff7c8f0866ecd0c","bdp_td","Sat Mar 25 2023 19:09:50 GMT-0400 (Eastern Daylight Time)","102211","","null","","","","FIX","","<div class='trialBorder'><div class='vertical-center'><img style='vertical-align:center; align:center' src=img/fixation3.jpg></div></div>","null","","","","","","",""
"html-keyboard-response","56","80114","0.0-5.0-2.17","60fcd5602ff7c8f0866ecd0c","bdp_td","Sat Mar 25 2023 19:09:50 GMT-0400 (Eastern Daylight Time)","102211","","1602","","","","offer","","<div class='trialBorder'><div class='vertical-center'><img style='vertical-align:center; align:center' src=img/fixation3.jpg></div><div class='cl'><div class='vertical-center'>$54<br><br>now</div></div><div class='cr'><div class='vertical-center'>$55<br>in<br>12 weeks</div></div><div class='respDivL'><div class='vertical-center'>(E)</div></div><div class='respDivR'><div class='vertical-center'>(I)</div></div></div>","E","$54<br><br>now","$55<br>in<br>12 weeks","0","54","55","12","NOW"
"html-keyboard-response","57","80368","0.0-5.0-3.17","60fcd5602ff7c8f0866ecd0c","bdp_td","Sat Mar 25 2023 19:09:50 GMT-0400 (Eastern Daylight Time)","102211","","null","","","","offerFB","","<div class='trialBorder'><div class='vertical-center'><img style='vertical-align:center; align:center' src=img/fixation3.jpg></div><div class='cl'><div class='vertical-center'><font style='color:orange'>$54<br><br>now</font></div></div><div class='cr'><div class='vertical-center'>$55<br>in<br>12 weeks</div></div><div class='respDivL'><div class='vertical-center'><font style='color:orange'>(E)</font></div></div><div class='respDivR'><div class='vertical-center'>(I)</div></div></div>","null","$54<br><br>now","$55<br>in<br>12 weeks","0","54","55","12",""
"html-keyboard-response","58","80884","0.0-5.0-1.18","60fcd5602ff7c8f0866ecd0c","bdp_td","Sat Mar 25 2023 19:09:50 GMT-0400 (Eastern Daylight Time)","102211","","null","","","","FIX","","<div class='trialBorder'><div class='vertical-center'><img style='vertical-align:center; align:center' src=img/fixation3.jpg></div></div>","null","","","","","","",""
"html-keyboard-response","59","82396","0.0-5.0-2.18","60fcd5602ff7c8f0866ecd0c","bdp_td","Sat Mar 25 2023 19:09:50 GMT-0400 (Eastern Daylight Time)","102211","","1511","","","","offer","","<div class='trialBorder'><div class='vertical-center'><img style='vertical-align:center; align:center' src=img/fixation3.jpg></div><div class='cl'><div class='vertical-center'>$80<br>in<br>12 weeks</div></div><div class='cr'><div class='vertical-center'>$78<br><br>now</div></div><div class='respDivL'><div class='vertical-center'>(E)</div></div><div class='respDivR'><div class='vertical-center'>(I)</div></div></div>","I","$78<br><br>now","$80<br>in<br>12 weeks","1","78","80","12","NOW"
"html-keyboard-response","60","82656","0.0-5.0-3.18","60fcd5602ff7c8f0866ecd0c","bdp_td","Sat Mar 25 2023 19:09:50 GMT-0400 (Eastern Daylight Time)","102211","","null","","","","offerFB","","<div class='trialBorder'><div class='vertical-center'><img style='vertical-align:center; align:center' src=img/fixation3.jpg></div><div class='cl'><div class='vertical-center'>$80<br>in<br>12 weeks</div></div><div class='cr'><div class='vertical-center'><font style='color:orange'>$78<br><br>now</font></div></div><div class='respDivL'><div class='vertical-center'>(E)</div></div><div class='respDivR'><div class='vertical-center'><font style='color:orange'>(I)</font></div></div></div>","null","$78<br><br>now","$80<br>in<br>12 weeks","1","78","80","12",""
"html-keyboard-response","61","83163","0.0-5.0-1.19","60fcd5602ff7c8f0866ecd0c","bdp_td","Sat Mar 25 2023 19:09:50 GMT-0400 (Eastern Daylight Time)","102211","","null","","","","FIX","","<div class='trialBorder'><div class='vertical-center'><img style='vertical-align:center; align:center' src=img/fixation3.jpg></div></div>","null","","","","","","",""
"html-keyboard-response","62","85289","0.0-5.0-2.19","60fcd5602ff7c8f0866ecd0c","bdp_td","Sat Mar 25 2023 19:09:50 GMT-0400 (Eastern Daylight Time)","102211","","2125","","","","offer","","<div class='trialBorder'><div class='vertical-center'><img style='vertical-align:center; align:center' src=img/fixation3.jpg></div><div class='cl'><div class='vertical-center'>$55<br><br>now</div></div><div class='cr'><div class='vertical-center'>$75<br>in<br>6 weeks</div></div><div class='respDivL'><div class='vertical-center'>(E)</div></div><div class='respDivR'><div class='vertical-center'>(I)</div></div></div>","E","$55<br><br>now","$75<br>in<br>6 weeks","0","55","75","6","NOW"
"html-keyboard-response","63","85549","0.0-5.0-3.19","60fcd5602ff7c8f0866ecd0c","bdp_td","Sat Mar 25 2023 19:09:50 GMT-0400 (Eastern Daylight Time)","102211","","null","","","","offerFB","","<div class='trialBorder'><div class='vertical-center'><img style='vertical-align:center; align:center' src=img/fixation3.jpg></div><div class='cl'><div class='vertical-center'><font style='color:orange'>$55<br><br>now</font></div></div><div class='cr'><div class='vertical-center'>$75<br>in<br>6 weeks</div></div><div class='respDivL'><div class='vertical-center'><font style='color:orange'>(E)</font></div></div><div class='respDivR'><div class='vertical-center'>(I)</div></div></div>","null","$55<br><br>now","$75<br>in<br>6 weeks","0","55","75","6",""
"html-keyboard-response","64","86056","0.0-5.0-1.20","60fcd5602ff7c8f0866ecd0c","bdp_td","Sat Mar 25 2023 19:09:50 GMT-0400 (Eastern Daylight Time)","102211","","null","","","","FIX","","<div class='trialBorder'><div class='vertical-center'><img style='vertical-align:center; align:center' src=img/fixation3.jpg></div></div>","null","","","","","","",""
"html-keyboard-response","65","87616","0.0-5.0-2.20","60fcd5602ff7c8f0866ecd0c","bdp_td","Sat Mar 25 2023 19:09:50 GMT-0400 (Eastern Daylight Time)","102211","","1559","","","","offer","","<div class='trialBorder'><div class='vertical-center'><img style='vertical-align:center; align:center' src=img/fixation3.jpg></div><div class='cl'><div class='vertical-center'>$85<br>in<br>1 week</div></div><div class='cr'><div class='vertical-center'>$31<br><br>now</div></div><div class='respDivL'><div class='vertical-center'>(E)</div></div><div class='respDivR'><div class='vertical-center'>(I)</div></div></div>","E","$31<br><br>now","$85<br>in<br>1 week","1","31","85","1","THEN"
"html-keyboard-response","66","87870","0.0-5.0-3.20","60fcd5602ff7c8f0866ecd0c","bdp_td","Sat Mar 25 2023 19:09:50 GMT-0400 (Eastern Daylight Time)","102211","","null","","","","offerFB","","<div class='trialBorder'><div class='vertical-center'><img style='vertical-align:center; align:center' src=img/fixation3.jpg></div><div class='cl'><div class='vertical-center'><font style='color:orange'>$85<br>in<br>1 week</font></div></div><div class='cr'><div class='vertical-center'>$31<br><br>now</div></div><div class='respDivL'><div class='vertical-center'><font style='color:orange'>(E)</font></div></div><div class='respDivR'><div class='vertical-center'>(I)</div></div></div>","null","$31<br><br>now","$85<br>in<br>1 week","1","31","85","1",""
"html-keyboard-response","67","88374","0.0-5.0-1.21","60fcd5602ff7c8f0866ecd0c","bdp_td","Sat Mar 25 2023 19:09:50 GMT-0400 (Eastern Daylight Time)","102211","","null","","","","FIX","","<div class='trialBorder'><div class='vertical-center'><img style='vertical-align:center; align:center' src=img/fixation3.jpg></div></div>","null","","","","","","",""
"html-keyboard-response","68","90103","0.0-5.0-2.21","60fcd5602ff7c8f0866ecd0c","bdp_td","Sat Mar 25 2023 19:09:50 GMT-0400 (Eastern Daylight Time)","102211","","1727","","","","offer","","<div class='trialBorder'><div class='vertical-center'><img style='vertical-align:center; align:center' src=img/fixation3.jpg></div><div class='cl'><div class='vertical-center'>$50<br>in<br>6 weeks</div></div><div class='cr'><div class='vertical-center'>$34<br><br>now</div></div><div class='respDivL'><div class='vertical-center'>(E)</div></div><div class='respDivR'><div class='vertical-center'>(I)</div></div></div>","I","$34<br><br>now","$50<br>in<br>6 weeks","1","34","50","6","NOW"
"html-keyboard-response","69","90359","0.0-5.0-3.21","60fcd5602ff7c8f0866ecd0c","bdp_td","Sat Mar 25 2023 19:09:50 GMT-0400 (Eastern Daylight Time)","102211","","null","","","","offerFB","","<div class='trialBorder'><div class='vertical-center'><img style='vertical-align:center; align:center' src=img/fixation3.jpg></div><div class='cl'><div class='vertical-center'>$50<br>in<br>6 weeks</div></div><div class='cr'><div class='vertical-center'><font style='color:orange'>$34<br><br>now</font></div></div><div class='respDivL'><div class='vertical-center'>(E)</div></div><div class='respDivR'><div class='vertical-center'><font style='color:orange'>(I)</font></div></div></div>","null","$34<br><br>now","$50<br>in<br>6 weeks","1","34","50","6",""
"html-keyboard-response","70","90865","0.0-5.0-1.22","60fcd5602ff7c8f0866ecd0c","bdp_td","Sat Mar 25 2023 19:09:50 GMT-0400 (Eastern Daylight Time)","102211","","null","","","","FIX","","<div class='trialBorder'><div class='vertical-center'><img style='vertical-align:center; align:center' src=img/fixation3.jpg></div></div>","null","","","","","","",""
"html-keyboard-response","71","92589","0.0-5.0-2.22","60fcd5602ff7c8f0866ecd0c","bdp_td","Sat Mar 25 2023 19:09:50 GMT-0400 (Eastern Daylight Time)","102211","","1723","","","","offer","","<div class='trialBorder'><div class='vertical-center'><img style='vertical-align:center; align:center' src=img/fixation3.jpg></div><div class='cl'><div class='vertical-center'>$85<br>in<br>6 weeks</div></div><div class='cr'><div class='vertical-center'>$69<br><br>now</div></div><div class='respDivL'><div class='vertical-center'>(E)</div></div><div class='respDivR'><div class='vertical-center'>(I)</div></div></div>","I","$69<br><br>now","$85<br>in<br>6 weeks","1","69","85","6","NOW"
"html-keyboard-response","72","92846","0.0-5.0-3.22","60fcd5602ff7c8f0866ecd0c","bdp_td","Sat Mar 25 2023 19:09:50 GMT-0400 (Eastern Daylight Time)","102211","","null","","","","offerFB","","<div class='trialBorder'><div class='vertical-center'><img style='vertical-align:center; align:center' src=img/fixation3.jpg></div><div class='cl'><div class='vertical-center'>$85<br>in<br>6 weeks</div></div><div class='cr'><div class='vertical-center'><font style='color:orange'>$69<br><br>now</font></div></div><div class='respDivL'><div class='vertical-center'>(E)</div></div><div class='respDivR'><div class='vertical-center'><font style='color:orange'>(I)</font></div></div></div>","null","$69<br><br>now","$85<br>in<br>6 weeks","1","69","85","6",""
"html-keyboard-response","73","93351","0.0-5.0-1.23","60fcd5602ff7c8f0866ecd0c","bdp_td","Sat Mar 25 2023 19:09:50 GMT-0400 (Eastern Daylight Time)","102211","","null","","","","FIX","","<div class='trialBorder'><div class='vertical-center'><img style='vertical-align:center; align:center' src=img/fixation3.jpg></div></div>","null","","","","","","",""
"html-keyboard-response","74","94583","0.0-5.0-2.23","60fcd5602ff7c8f0866ecd0c","bdp_td","Sat Mar 25 2023 19:09:50 GMT-0400 (Eastern Daylight Time)","102211","","1231","","","","offer","","<div class='trialBorder'><div class='vertical-center'><img style='vertical-align:center; align:center' src=img/fixation3.jpg></div><div class='cl'><div class='vertical-center'>$67<br><br>now</div></div><div class='cr'><div class='vertical-center'>$75<br>in<br>12 weeks</div></div><div class='respDivL'><div class='vertical-center'>(E)</div></div><div class='respDivR'><div class='vertical-center'>(I)</div></div></div>","E","$67<br><br>now","$75<br>in<br>12 weeks","0","67","75","12","NOW"
"html-keyboard-response","75","94836","0.0-5.0-3.23","60fcd5602ff7c8f0866ecd0c","bdp_td","Sat Mar 25 2023 19:09:50 GMT-0400 (Eastern Daylight Time)","102211","","null","","","","offerFB","","<div class='trialBorder'><div class='vertical-center'><img style='vertical-align:center; align:center' src=img/fixation3.jpg></div><div class='cl'><div class='vertical-center'><font style='color:orange'>$67<br><br>now</font></div></div><div class='cr'><div class='vertical-center'>$75<br>in<br>12 weeks</div></div><div class='respDivL'><div class='vertical-center'><font style='color:orange'>(E)</font></div></div><div class='respDivR'><div class='vertical-center'>(I)</div></div></div>","null","$67<br><br>now","$75<br>in<br>12 weeks","0","67","75","12",""
"html-keyboard-response","76","95346","0.0-5.0-1.24","60fcd5602ff7c8f0866ecd0c","bdp_td","Sat Mar 25 2023 19:09:50 GMT-0400 (Eastern Daylight Time)","102211","","null","","","","FIX","","<div class='trialBorder'><div class='vertical-center'><img style='vertical-align:center; align:center' src=img/fixation3.jpg></div></div>","null","","","","","","",""
"html-keyboard-response","77","96509","0.0-5.0-2.24","60fcd5602ff7c8f0866ecd0c","bdp_td","Sat Mar 25 2023 19:09:50 GMT-0400 (Eastern Daylight Time)","102211","","1161","","","","offer","","<div class='trialBorder'><div class='vertical-center'><img style='vertical-align:center; align:center' src=img/fixation3.jpg></div><div class='cl'><div class='vertical-center'>$25<br>in<br>6 weeks</div></div><div class='cr'><div class='vertical-center'>$19<br><br>now</div></div><div class='respDivL'><div class='vertical-center'>(E)</div></div><div class='respDivR'><div class='vertical-center'>(I)</div></div></div>","I","$19<br><br>now","$25<br>in<br>6 weeks","1","19","25","6","NOW"
"html-keyboard-response","78","96770","0.0-5.0-3.24","60fcd5602ff7c8f0866ecd0c","bdp_td","Sat Mar 25 2023 19:09:50 GMT-0400 (Eastern Daylight Time)","102211","","null","","","","offerFB","","<div class='trialBorder'><div class='vertical-center'><img style='vertical-align:center; align:center' src=img/fixation3.jpg></div><div class='cl'><div class='vertical-center'>$25<br>in<br>6 weeks</div></div><div class='cr'><div class='vertical-center'><font style='color:orange'>$19<br><br>now</font></div></div><div class='respDivL'><div class='vertical-center'>(E)</div></div><div class='respDivR'><div class='vertical-center'><font style='color:orange'>(I)</font></div></div></div>","null","$19<br><br>now","$25<br>in<br>6 weeks","1","19","25","6",""
"html-keyboard-response","79","97272","0.0-5.0-1.25","60fcd5602ff7c8f0866ecd0c","bdp_td","Sat Mar 25 2023 19:09:50 GMT-0400 (Eastern Daylight Time)","102211","","null","","","","FIX","","<div class='trialBorder'><div class='vertical-center'><img style='vertical-align:center; align:center' src=img/fixation3.jpg></div></div>","null","","","","","","",""
"html-keyboard-response","80","98722","0.0-5.0-2.25","60fcd5602ff7c8f0866ecd0c","bdp_td","Sat Mar 25 2023 19:09:50 GMT-0400 (Eastern Daylight Time)","102211","","1448","","","","offer","","<div class='trialBorder'><div class='vertical-center'><img style='vertical-align:center; align:center' src=img/fixation3.jpg></div><div class='cl'><div class='vertical-center'>$47<br><br>now</div></div><div class='cr'><div class='vertical-center'>$50<br>in<br>12 weeks</div></div><div class='respDivL'><div class='vertical-center'>(E)</div></div><div class='respDivR'><div class='vertical-center'>(I)</div></div></div>","E","$47<br><br>now","$50<br>in<br>12 weeks","0","47","50","12","NOW"
"html-keyboard-response","81","98974","0.0-5.0-3.25","60fcd5602ff7c8f0866ecd0c","bdp_td","Sat Mar 25 2023 19:09:50 GMT-0400 (Eastern Daylight Time)","102211","","null","","","","offerFB","","<div class='trialBorder'><div class='vertical-center'><img style='vertical-align:center; align:center' src=img/fixation3.jpg></div><div class='cl'><div class='vertical-center'><font style='color:orange'>$47<br><br>now</font></div></div><div class='cr'><div class='vertical-center'>$50<br>in<br>12 weeks</div></div><div class='respDivL'><div class='vertical-center'><font style='color:orange'>(E)</font></div></div><div class='respDivR'><div class='vertical-center'>(I)</div></div></div>","null","$47<br><br>now","$50<br>in<br>12 weeks","0","47","50","12",""
"html-keyboard-response","82","99477","0.0-5.0-1.26","60fcd5602ff7c8f0866ecd0c","bdp_td","Sat Mar 25 2023 19:09:50 GMT-0400 (Eastern Daylight Time)","102211","","null","","","","FIX","","<div class='trialBorder'><div class='vertical-center'><img style='vertical-align:center; align:center' src=img/fixation3.jpg></div></div>","null","","","","","","",""
"html-keyboard-response","83","100949","0.0-5.0-2.26","60fcd5602ff7c8f0866ecd0c","bdp_td","Sat Mar 25 2023 19:09:50 GMT-0400 (Eastern Daylight Time)","102211","","1471","","","","offer","","<div class='trialBorder'><div class='vertical-center'><img style='vertical-align:center; align:center' src=img/fixation3.jpg></div><div class='cl'><div class='vertical-center'>$54<br><br>now</div></div><div class='cr'><div class='vertical-center'>$80<br>in<br>3 weeks</div></div><div class='respDivL'><div class='vertical-center'>(E)</div></div><div class='respDivR'><div class='vertical-center'>(I)</div></div></div>","I","$54<br><br>now","$80<br>in<br>3 weeks","0","54","80","3","THEN"
"html-keyboard-response","84","101207","0.0-5.0-3.26","60fcd5602ff7c8f0866ecd0c","bdp_td","Sat Mar 25 2023 19:09:50 GMT-0400 (Eastern Daylight Time)","102211","","null","","","","offerFB","","<div class='trialBorder'><div class='vertical-center'><img style='vertical-align:center; align:center' src=img/fixation3.jpg></div><div class='cl'><div class='vertical-center'>$54<br><br>now</div></div><div class='cr'><div class='vertical-center'><font style='color:orange'>$80<br>in<br>3 weeks</font></div></div><div class='respDivL'><div class='vertical-center'>(E)</div></div><div class='respDivR'><div class='vertical-center'><font style='color:orange'>(I)</font></div></div></div>","null","$54<br><br>now","$80<br>in<br>3 weeks","0","54","80","3",""
"","","","","60fcd5602ff7c8f0866ecd0c","bdp_td","Sat Mar 25 2023 19:09:50 GMT-0400 (Eastern Daylight Time)","102211","","","fullscreenexit","85","101212","fullscreenexit","","","","","","","","","",""
"fullscreen","85","102210","0.0-6.0","60fcd5602ff7c8f0866ecd0c","bdp_td","Sat Mar 25 2023 19:09:50 GMT-0400 (Eastern Daylight Time)","102211","","","","","","","true","","","","","","","","",""
"html-keyboard-response","86","102715","0.0-7.0","","","","","","null","","","","","","","null","","","","","","",""
