"event","trial","time","trialtype","subject_id","task","startTime","totalTime","trial_type","trial_index","time_elapsed","internal_node_id","view_history","rt","success","stimulus","key_press","nowOffer","thenOffer","thenLeft","nowAmt","thenAmt","thenWeeks","chosen"
"focus","0","0","focusevent","5e55e83cc65ccb5ed547cb04","bdp_td","Tue Mar 28 2023 21:33:03 GMT-0700 (Pacific Daylight Time)","85845","","","","","","","","","","","","","","","",""
"","","","","5e55e83cc65ccb5ed547cb04","bdp_td","Tue Mar 28 2023 21:33:03 GMT-0700 (Pacific Daylight Time)","85845","pavlovia","0","2","0.0-0.0","","","","","","","","","","","",""
"","","","","5e55e83cc65ccb5ed547cb04","bdp_td","Tue Mar 28 2023 21:33:03 GMT-0700 (Pacific Daylight Time)","85845","instructions","1","3869","0.0-1.0","[{""page_index"":0,""viewing_time"":3867}]","3867","","","","","","","","","",""
"fullscreenexit","2","7311","fullscreenexit","5e55e83cc65ccb5ed547cb04","bdp_td","Tue Mar 28 2023 21:33:03 GMT-0700 (Pacific Daylight Time)","85845","","","","","","","","","","","","","","","",""
"","","","","5e55e83cc65ccb5ed547cb04","bdp_td","Tue Mar 28 2023 21:33:03 GMT-0700 (Pacific Daylight Time)","85845","fullscreen","2","8094","0.0-2.0","","","true","","","","","","","","",""
"","","","fullscreenfail","5e55e83cc65ccb5ed547cb04","bdp_td","Tue Mar 28 2023 21:33:03 GMT-0700 (Pacific Daylight Time)","85845","image-keyboard-response","3","9252","0.0-3.0-0.0","","1155","","","32","","","","","","",""
"","","","","5e55e83cc65ccb5ed547cb04","bdp_td","Tue Mar 28 2023 21:33:03 GMT-0700 (Pacific Daylight Time)","85845","instructions","4","29606","0.0-4.0","[{""page_index"":0,""viewing_time"":5941},{""page_index"":1,""viewing_time"":9532},{""page_index"":2,""viewing_time"":4626}]","20099","","","","","","","","","",""
"","","","FIX","5e55e83cc65ccb5ed547cb04","bdp_td","Tue Mar 28 2023 21:33:03 GMT-0700 (Pacific Daylight Time)","85845","html-keyboard-response","5","30108","0.0-5.0-1.0","","null","","<div class='trialBorder'><div class='vertical-center'><img style='vertical-align:center; align:center' src=img/fixation3.jpg></div></div>","null","","","","","","",""
"","","","offer","5e55e83cc65ccb5ed547cb04","bdp_td","Tue Mar 28 2023 21:33:03 GMT-0700 (Pacific Daylight Time)","85845","html-keyboard-response","6","34000","0.0-5.0-2.0","","3892","","<div class='trialBorder'><div class='vertical-center'><img style='vertical-align:center; align:center' src=img/fixation3.jpg></div><div class='cl'><div class='vertical-center'>$60<br>in<br>3 weeks</div></div><div class='cr'><div class='vertical-center'>$25<br><br>now</div></div><div class='respDivL'><div class='vertical-center'>(E)</div></div><div class='respDivR'><div class='vertical-center'>(I)</div></div></div>","E","$25<br><br>now","$60<br>in<br>3 weeks","1","25","60","3","THEN"
"","","","offerFB","5e55e83cc65ccb5ed547cb04","bdp_td","Tue Mar 28 2023 21:33:03 GMT-0700 (Pacific Daylight Time)","85845","html-keyboard-response","7","34265","0.0-5.0-3.0","","null","","<div class='trialBorder'><div class='vertical-center'><img style='vertical-align:center; align:center' src=img/fixation3.jpg></div><div class='cl'><div class='vertical-center'><font style='color:orange'>$60<br>in<br>3 weeks</font></div></div><div class='cr'><div class='vertical-center'>$25<br><br>now</div></div><div class='respDivL'><div class='vertical-center'><font style='color:orange'>(E)</font></div></div><div class='respDivR'><div class='vertical-center'>(I)</div></div></div>","null","$25<br><br>now","$60<br>in<br>3 weeks","1","25","60","3",""
"","","","FIX","5e55e83cc65ccb5ed547cb04","bdp_td","Tue Mar 28 2023 21:33:03 GMT-0700 (Pacific Daylight Time)","85845","html-keyboard-response","8","34779","0.0-5.0-1.1","","null","","<div class='trialBorder'><div class='vertical-center'><img style='vertical-align:center; align:center' src=img/fixation3.jpg></div></div>","null","","","","","","",""
"","","","offer","5e55e83cc65ccb5ed547cb04","bdp_td","Tue Mar 28 2023 21:33:03 GMT-0700 (Pacific Daylight Time)","85845","html-keyboard-response","9","36730","0.0-5.0-2.1","","1950","","<div class='trialBorder'><div class='vertical-center'><img style='vertical-align:center; align:center' src=img/fixation3.jpg></div><div class='cl'><div class='vertical-center'>$30<br>in<br>12 weeks</div></div><div class='cr'><div class='vertical-center'>$28<br><br>now</div></div><div class='respDivL'><div class='vertical-center'>(E)</div></div><div class='respDivR'><div class='vertical-center'>(I)</div></div></div>","I","$28<br><br>now","$30<br>in<br>12 weeks","1","28","30","12","NOW"
"","","","offerFB","5e55e83cc65ccb5ed547cb04","bdp_td","Tue Mar 28 2023 21:33:03 GMT-0700 (Pacific Daylight Time)","85845","html-keyboard-response","10","36985","0.0-5.0-3.1","","null","","<div class='trialBorder'><div class='vertical-center'><img style='vertical-align:center; align:center' src=img/fixation3.jpg></div><div class='cl'><div class='vertical-center'>$30<br>in<br>12 weeks</div></div><div class='cr'><div class='vertical-center'><font style='color:orange'>$28<br><br>now</font></div></div><div class='respDivL'><div class='vertical-center'>(E)</div></div><div class='respDivR'><div class='vertical-center'><font style='color:orange'>(I)</font></div></div></div>","null","$28<br><br>now","$30<br>in<br>12 weeks","1","28","30","12",""
"","","","FIX","5e55e83cc65ccb5ed547cb04","bdp_td","Tue Mar 28 2023 21:33:03 GMT-0700 (Pacific Daylight Time)","85845","html-keyboard-response","11","37501","0.0-5.0-1.2","","null","","<div class='trialBorder'><div class='vertical-center'><img style='vertical-align:center; align:center' src=img/fixation3.jpg></div></div>","null","","","","","","",""
"","","","offer","5e55e83cc65ccb5ed547cb04","bdp_td","Tue Mar 28 2023 21:33:03 GMT-0700 (Pacific Daylight Time)","85845","html-keyboard-response","12","38807","0.0-5.0-2.2","","1306","","<div class='trialBorder'><div class='vertical-center'><img style='vertical-align:center; align:center' src=img/fixation3.jpg></div><div class='cl'><div class='vertical-center'>$34<br><br>now</div></div><div class='cr'><div class='vertical-center'>$35<br>in<br>12 weeks</div></div><div class='respDivL'><div class='vertical-center'>(E)</div></div><div class='respDivR'><div class='vertical-center'>(I)</div></div></div>","E","$34<br><br>now","$35<br>in<br>12 weeks","0","34","35","12","NOW"
"","","","offerFB","5e55e83cc65ccb5ed547cb04","bdp_td","Tue Mar 28 2023 21:33:03 GMT-0700 (Pacific Daylight Time)","85845","html-keyboard-response","13","39059","0.0-5.0-3.2","","null","","<div class='trialBorder'><div class='vertical-center'><img style='vertical-align:center; align:center' src=img/fixation3.jpg></div><div class='cl'><div class='vertical-center'><font style='color:orange'>$34<br><br>now</font></div></div><div class='cr'><div class='vertical-center'>$35<br>in<br>12 weeks</div></div><div class='respDivL'><div class='vertical-center'><font style='color:orange'>(E)</font></div></div><div class='respDivR'><div class='vertical-center'>(I)</div></div></div>","null","$34<br><br>now","$35<br>in<br>12 weeks","0","34","35","12",""
"","","","FIX","5e55e83cc65ccb5ed547cb04","bdp_td","Tue Mar 28 2023 21:33:03 GMT-0700 (Pacific Daylight Time)","85845","html-keyboard-response","14","39572","0.0-5.0-1.3","","null","","<div class='trialBorder'><div class='vertical-center'><img style='vertical-align:center; align:center' src=img/fixation3.jpg></div></div>","null","","","","","","",""
"","","","offer","5e55e83cc65ccb5ed547cb04","bdp_td","Tue Mar 28 2023 21:33:03 GMT-0700 (Pacific Daylight Time)","85845","html-keyboard-response","15","41126","0.0-5.0-2.3","","1552","","<div class='trialBorder'><div class='vertical-center'><img style='vertical-align:center; align:center' src=img/fixation3.jpg></div><div class='cl'><div class='vertical-center'>$54<br><br>now</div></div><div class='cr'><div class='vertical-center'>$55<br>in<br>12 weeks</div></div><div class='respDivL'><div class='vertical-center'>(E)</div></div><div class='respDivR'><div class='vertical-center'>(I)</div></div></div>","E","$54<br><br>now","$55<br>in<br>12 weeks","0","54","55","12","NOW"
"","","","offerFB","5e55e83cc65ccb5ed547cb04","bdp_td","Tue Mar 28 2023 21:33:03 GMT-0700 (Pacific Daylight Time)","85845","html-keyboard-response","16","41378","0.0-5.0-3.3","","null","","<div class='trialBorder'><div class='vertical-center'><img style='vertical-align:center; align:center' src=img/fixation3.jpg></div><div class='cl'><div class='vertical-center'><font style='color:orange'>$54<br><br>now</font></div></div><div class='cr'><div class='vertical-center'>$55<br>in<br>12 weeks</div></div><div class='respDivL'><div class='vertical-center'><font style='color:orange'>(E)</font></div></div><div class='respDivR'><div class='vertical-center'>(I)</div></div></div>","null","$54<br><br>now","$55<br>in<br>12 weeks","0","54","55","12",""
"","","","FIX","5e55e83cc65ccb5ed547cb04","bdp_td","Tue Mar 28 2023 21:33:03 GMT-0700 (Pacific Daylight Time)","85845","html-keyboard-response","17","41891","0.0-5.0-1.4","","null","","<div class='trialBorder'><div class='vertical-center'><img style='vertical-align:center; align:center' src=img/fixation3.jpg></div></div>","null","","","","","","",""
"","","","offer","5e55e83cc65ccb5ed547cb04","bdp_td","Tue Mar 28 2023 21:33:03 GMT-0700 (Pacific Daylight Time)","85845","html-keyboard-response","18","44381","0.0-5.0-2.4","","2488","","<div class='trialBorder'><div class='vertical-center'><img style='vertical-align:center; align:center' src=img/fixation3.jpg></div><div class='cl'><div class='vertical-center'>$55<br>in<br>1 week</div></div><div class='cr'><div class='vertical-center'>$20<br><br>now</div></div><div class='respDivL'><div class='vertical-center'>(E)</div></div><div class='respDivR'><div class='vertical-center'>(I)</div></div></div>","E","$20<br><br>now","$55<br>in<br>1 week","1","20","55","1","THEN"
"","","","offerFB","5e55e83cc65ccb5ed547cb04","bdp_td","Tue Mar 28 2023 21:33:03 GMT-0700 (Pacific Daylight Time)","85845","html-keyboard-response","19","44634","0.0-5.0-3.4","","null","","<div class='trialBorder'><div class='vertical-center'><img style='vertical-align:center; align:center' src=img/fixation3.jpg></div><div class='cl'><div class='vertical-center'><font style='color:orange'>$55<br>in<br>1 week</font></div></div><div class='cr'><div class='vertical-center'>$20<br><br>now</div></div><div class='respDivL'><div class='vertical-center'><font style='color:orange'>(E)</font></div></div><div class='respDivR'><div class='vertical-center'>(I)</div></div></div>","null","$20<br><br>now","$55<br>in<br>1 week","1","20","55","1",""
"","","","FIX","5e55e83cc65ccb5ed547cb04","bdp_td","Tue Mar 28 2023 21:33:03 GMT-0700 (Pacific Daylight Time)","85845","html-keyboard-response","20","45147","0.0-5.0-1.5","","null","","<div class='trialBorder'><div class='vertical-center'><img style='vertical-align:center; align:center' src=img/fixation3.jpg></div></div>","null","","","","","","",""
"","","","offer","5e55e83cc65ccb5ed547cb04","bdp_td","Tue Mar 28 2023 21:33:03 GMT-0700 (Pacific Daylight Time)","85845","html-keyboard-response","21","47028","0.0-5.0-2.5","","1881","","<div class='trialBorder'><div class='vertical-center'><img style='vertical-align:center; align:center' src=img/fixation3.jpg></div><div class='cl'><div class='vertical-center'>$24<br><br>now</div></div><div class='cr'><div class='vertical-center'>$35<br>in<br>3 weeks</div></div><div class='respDivL'><div class='vertical-center'>(E)</div></div><div class='respDivR'><div class='vertical-center'>(I)</div></div></div>","E","$24<br><br>now","$35<br>in<br>3 weeks","0","24","35","3","NOW"
"","","","offerFB","5e55e83cc65ccb5ed547cb04","bdp_td","Tue Mar 28 2023 21:33:03 GMT-0700 (Pacific Daylight Time)","85845","html-keyboard-response","22","47289","0.0-5.0-3.5","","null","","<div class='trialBorder'><div class='vertical-center'><img style='vertical-align:center; align:center' src=img/fixation3.jpg></div><div class='cl'><div class='vertical-center'><font style='color:orange'>$24<br><br>now</font></div></div><div class='cr'><div class='vertical-center'>$35<br>in<br>3 weeks</div></div><div class='respDivL'><div class='vertical-center'><font style='color:orange'>(E)</font></div></div><div class='respDivR'><div class='vertical-center'>(I)</div></div></div>","null","$24<br><br>now","$35<br>in<br>3 weeks","0","24","35","3",""
"","","","FIX","5e55e83cc65ccb5ed547cb04","bdp_td","Tue Mar 28 2023 21:33:03 GMT-0700 (Pacific Daylight Time)","85845","html-keyboard-response","23","47789","0.0-5.0-1.6","","null","","<div class='trialBorder'><div class='vertical-center'><img style='vertical-align:center; align:center' src=img/fixation3.jpg></div></div>","null","","","","","","",""
"","","","offer","5e55e83cc65ccb5ed547cb04","bdp_td","Tue Mar 28 2023 21:33:03 GMT-0700 (Pacific Daylight Time)","85845","html-keyboard-response","24","49567","0.0-5.0-2.6","","1776","","<div class='trialBorder'><div class='vertical-center'><img style='vertical-align:center; align:center' src=img/fixation3.jpg></div><div class='cl'><div class='vertical-center'>$80<br>in<br>12 weeks</div></div><div class='cr'><div class='vertical-center'>$78<br><br>now</div></div><div class='respDivL'><div class='vertical-center'>(E)</div></div><div class='respDivR'><div class='vertical-center'>(I)</div></div></div>","E","$78<br><br>now","$80<br>in<br>12 weeks","1","78","80","12","THEN"
"","","","offerFB","5e55e83cc65ccb5ed547cb04","bdp_td","Tue Mar 28 2023 21:33:03 GMT-0700 (Pacific Daylight Time)","85845","html-keyboard-response","25","49818","0.0-5.0-3.6","","null","","<div class='trialBorder'><div class='vertical-center'><img style='vertical-align:center; align:center' src=img/fixation3.jpg></div><div class='cl'><div class='vertical-center'><font style='color:orange'>$80<br>in<br>12 weeks</font></div></div><div class='cr'><div class='vertical-center'>$78<br><br>now</div></div><div class='respDivL'><div class='vertical-center'><font style='color:orange'>(E)</font></div></div><div class='respDivR'><div class='vertical-center'>(I)</div></div></div>","null","$78<br><br>now","$80<br>in<br>12 weeks","1","78","80","12",""
"","","","FIX","5e55e83cc65ccb5ed547cb04","bdp_td","Tue Mar 28 2023 21:33:03 GMT-0700 (Pacific Daylight Time)","85845","html-keyboard-response","26","50330","0.0-5.0-1.7","","null","","<div class='trialBorder'><div class='vertical-center'><img style='vertical-align:center; align:center' src=img/fixation3.jpg></div></div>","null","","","","","","",""
"","","","offer","5e55e83cc65ccb5ed547cb04","bdp_td","Tue Mar 28 2023 21:33:03 GMT-0700 (Pacific Daylight Time)","85845","html-keyboard-response","27","51516","0.0-5.0-2.7","","1186","","<div class='trialBorder'><div class='vertical-center'><img style='vertical-align:center; align:center' src=img/fixation3.jpg></div><div class='cl'><div class='vertical-center'>$55<br>in<br>6 weeks</div></div><div class='cr'><div class='vertical-center'>$40<br><br>now</div></div><div class='respDivL'><div class='vertical-center'>(E)</div></div><div class='respDivR'><div class='vertical-center'>(I)</div></div></div>","I","$40<br><br>now","$55<br>in<br>6 weeks","1","40","55","6","NOW"
"","","","offerFB","5e55e83cc65ccb5ed547cb04","bdp_td","Tue Mar 28 2023 21:33:03 GMT-0700 (Pacific Daylight Time)","85845","html-keyboard-response","28","51775","0.0-5.0-3.7","","null","","<div class='trialBorder'><div class='vertical-center'><img style='vertical-align:center; align:center' src=img/fixation3.jpg></div><div class='cl'><div class='vertical-center'>$55<br>in<br>6 weeks</div></div><div class='cr'><div class='vertical-center'><font style='color:orange'>$40<br><br>now</font></div></div><div class='respDivL'><div class='vertical-center'>(E)</div></div><div class='respDivR'><div class='vertical-center'><font style='color:orange'>(I)</font></div></div></div>","null","$40<br><br>now","$55<br>in<br>6 weeks","1","40","55","6",""
"","","","FIX","5e55e83cc65ccb5ed547cb04","bdp_td","Tue Mar 28 2023 21:33:03 GMT-0700 (Pacific Daylight Time)","85845","html-keyboard-response","29","52287","0.0-5.0-1.8","","null","","<div class='trialBorder'><div class='vertical-center'><img style='vertical-align:center; align:center' src=img/fixation3.jpg></div></div>","null","","","","","","",""
"","","","offer","5e55e83cc65ccb5ed547cb04","bdp_td","Tue Mar 28 2023 21:33:03 GMT-0700 (Pacific Daylight Time)","85845","html-keyboard-response","30","53072","0.0-5.0-2.8","","784","","<div class='trialBorder'><div class='vertical-center'><img style='vertical-align:center; align:center' src=img/fixation3.jpg></div><div class='cl'><div class='vertical-center'>$50<br>in<br>6 weeks</div></div><div class='cr'><div class='vertical-center'>$34<br><br>now</div></div><div class='respDivL'><div class='vertical-center'>(E)</div></div><div class='respDivR'><div class='vertical-center'>(I)</div></div></div>","I","$34<br><br>now","$50<br>in<br>6 weeks","1","34","50","6","NOW"
"","","","offerFB","5e55e83cc65ccb5ed547cb04","bdp_td","Tue Mar 28 2023 21:33:03 GMT-0700 (Pacific Daylight Time)","85845","html-keyboard-response","31","53328","0.0-5.0-3.8","","null","","<div class='trialBorder'><div class='vertical-center'><img style='vertical-align:center; align:center' src=img/fixation3.jpg></div><div class='cl'><div class='vertical-center'>$50<br>in<br>6 weeks</div></div><div class='cr'><div class='vertical-center'><font style='color:orange'>$34<br><br>now</font></div></div><div class='respDivL'><div class='vertical-center'>(E)</div></div><div class='respDivR'><div class='vertical-center'><font style='color:orange'>(I)</font></div></div></div>","null","$34<br><br>now","$50<br>in<br>6 weeks","1","34","50","6",""
"","","","FIX","5e55e83cc65ccb5ed547cb04","bdp_td","Tue Mar 28 2023 21:33:03 GMT-0700 (Pacific Daylight Time)","85845","html-keyboard-response","32","53840","0.0-5.0-1.9","","null","","<div class='trialBorder'><div class='vertical-center'><img style='vertical-align:center; align:center' src=img/fixation3.jpg></div></div>","null","","","","","","",""
"","","","offer","5e55e83cc65ccb5ed547cb04","bdp_td","Tue Mar 28 2023 21:33:03 GMT-0700 (Pacific Daylight Time)","85845","html-keyboard-response","33","54624","0.0-5.0-2.9","","783","","<div class='trialBorder'><div class='vertical-center'><img style='vertical-align:center; align:center' src=img/fixation3.jpg></div><div class='cl'><div class='vertical-center'>$25<br><br>now</div></div><div class='cr'><div class='vertical-center'>$30<br>in<br>6 weeks</div></div><div class='respDivL'><div class='vertical-center'>(E)</div></div><div class='respDivR'><div class='vertical-center'>(I)</div></div></div>","E","$25<br><br>now","$30<br>in<br>6 weeks","0","25","30","6","NOW"
"","","","offerFB","5e55e83cc65ccb5ed547cb04","bdp_td","Tue Mar 28 2023 21:33:03 GMT-0700 (Pacific Daylight Time)","85845","html-keyboard-response","34","54885","0.0-5.0-3.9","","null","","<div class='trialBorder'><div class='vertical-center'><img style='vertical-align:center; align:center' src=img/fixation3.jpg></div><div class='cl'><div class='vertical-center'><font style='color:orange'>$25<br><br>now</font></div></div><div class='cr'><div class='vertical-center'>$30<br>in<br>6 weeks</div></div><div class='respDivL'><div class='vertical-center'><font style='color:orange'>(E)</font></div></div><div class='respDivR'><div class='vertical-center'>(I)</div></div></div>","null","$25<br><br>now","$30<br>in<br>6 weeks","0","25","30","6",""
"","","","FIX","5e55e83cc65ccb5ed547cb04","bdp_td","Tue Mar 28 2023 21:33:03 GMT-0700 (Pacific Daylight Time)","85845","html-keyboard-response","35","55397","0.0-5.0-1.10","","null","","<div class='trialBorder'><div class='vertical-center'><img style='vertical-align:center; align:center' src=img/fixation3.jpg></div></div>","null","","","","","","",""
"","","","offer","5e55e83cc65ccb5ed547cb04","bdp_td","Tue Mar 28 2023 21:33:03 GMT-0700 (Pacific Daylight Time)","85845","html-keyboard-response","36","55974","0.0-5.0-2.10","","577","","<div class='trialBorder'><div class='vertical-center'><img style='vertical-align:center; align:center' src=img/fixation3.jpg></div><div class='cl'><div class='vertical-center'>$55<br><br>now</div></div><div class='cr'><div class='vertical-center'>$75<br>in<br>6 weeks</div></div><div class='respDivL'><div class='vertical-center'>(E)</div></div><div class='respDivR'><div class='vertical-center'>(I)</div></div></div>","E","$55<br><br>now","$75<br>in<br>6 weeks","0","55","75","6","NOW"
"","","","offerFB","5e55e83cc65ccb5ed547cb04","bdp_td","Tue Mar 28 2023 21:33:03 GMT-0700 (Pacific Daylight Time)","85845","html-keyboard-response","37","56238","0.0-5.0-3.10","","null","","<div class='trialBorder'><div class='vertical-center'><img style='vertical-align:center; align:center' src=img/fixation3.jpg></div><div class='cl'><div class='vertical-center'><font style='color:orange'>$55<br><br>now</font></div></div><div class='cr'><div class='vertical-center'>$75<br>in<br>6 weeks</div></div><div class='respDivL'><div class='vertical-center'><font style='color:orange'>(E)</font></div></div><div class='respDivR'><div class='vertical-center'>(I)</div></div></div>","null","$55<br><br>now","$75<br>in<br>6 weeks","0","55","75","6",""
"","","","FIX","5e55e83cc65ccb5ed547cb04","bdp_td","Tue Mar 28 2023 21:33:03 GMT-0700 (Pacific Daylight Time)","85845","html-keyboard-response","38","56751","0.0-5.0-1.11","","null","","<div class='trialBorder'><div class='vertical-center'><img style='vertical-align:center; align:center' src=img/fixation3.jpg></div></div>","null","","","","","","",""
"","","","offer","5e55e83cc65ccb5ed547cb04","bdp_td","Tue Mar 28 2023 21:33:03 GMT-0700 (Pacific Daylight Time)","85845","html-keyboard-response","39","58454","0.0-5.0-2.11","","1702","","<div class='trialBorder'><div class='vertical-center'><img style='vertical-align:center; align:center' src=img/fixation3.jpg></div><div class='cl'><div class='vertical-center'>$47<br><br>now</div></div><div class='cr'><div class='vertical-center'>$50<br>in<br>12 weeks</div></div><div class='respDivL'><div class='vertical-center'>(E)</div></div><div class='respDivR'><div class='vertical-center'>(I)</div></div></div>","E","$47<br><br>now","$50<br>in<br>12 weeks","0","47","50","12","NOW"
"","","","offerFB","5e55e83cc65ccb5ed547cb04","bdp_td","Tue Mar 28 2023 21:33:03 GMT-0700 (Pacific Daylight Time)","85845","html-keyboard-response","40","58713","0.0-5.0-3.11","","null","","<div class='trialBorder'><div class='vertical-center'><img style='vertical-align:center; align:center' src=img/fixation3.jpg></div><div class='cl'><div class='vertical-center'><font style='color:orange'>$47<br><br>now</font></div></div><div class='cr'><div class='vertical-center'>$50<br>in<br>12 weeks</div></div><div class='respDivL'><div class='vertical-center'><font style='color:orange'>(E)</font></div></div><div class='respDivR'><div class='vertical-center'>(I)</div></div></div>","null","$47<br><br>now","$50<br>in<br>12 weeks","0","47","50","12",""
"","","","FIX","5e55e83cc65ccb5ed547cb04","bdp_td","Tue Mar 28 2023 21:33:03 GMT-0700 (Pacific Daylight Time)","85845","html-keyboard-response","41","59226","0.0-5.0-1.12","","null","","<div class='trialBorder'><div class='vertical-center'><img style='vertical-align:center; align:center' src=img/fixation3.jpg></div></div>","null","","","","","","",""
"","","","offer","5e55e83cc65ccb5ed547cb04","bdp_td","Tue Mar 28 2023 21:33:03 GMT-0700 (Pacific Daylight Time)","85845","html-keyboard-response","42","60246","0.0-5.0-2.12","","1020","","<div class='trialBorder'><div class='vertical-center'><img style='vertical-align:center; align:center' src=img/fixation3.jpg></div><div class='cl'><div class='vertical-center'>$22<br><br>now</div></div><div class='cr'><div class='vertical-center'>$25<br>in<br>12 weeks</div></div><div class='respDivL'><div class='vertical-center'>(E)</div></div><div class='respDivR'><div class='vertical-center'>(I)</div></div></div>","E","$22<br><br>now","$25<br>in<br>12 weeks","0","22","25","12","NOW"
"","","","offerFB","5e55e83cc65ccb5ed547cb04","bdp_td","Tue Mar 28 2023 21:33:03 GMT-0700 (Pacific Daylight Time)","85845","html-keyboard-response","43","60505","0.0-5.0-3.12","","null","","<div class='trialBorder'><div class='vertical-center'><img style='vertical-align:center; align:center' src=img/fixation3.jpg></div><div class='cl'><div class='vertical-center'><font style='color:orange'>$22<br><br>now</font></div></div><div class='cr'><div class='vertical-center'>$25<br>in<br>12 weeks</div></div><div class='respDivL'><div class='vertical-center'><font style='color:orange'>(E)</font></div></div><div class='respDivR'><div class='vertical-center'>(I)</div></div></div>","null","$22<br><br>now","$25<br>in<br>12 weeks","0","22","25","12",""
"","","","FIX","5e55e83cc65ccb5ed547cb04","bdp_td","Tue Mar 28 2023 21:33:03 GMT-0700 (Pacific Daylight Time)","85845","html-keyboard-response","44","61018","0.0-5.0-1.13","","null","","<div class='trialBorder'><div class='vertical-center'><img style='vertical-align:center; align:center' src=img/fixation3.jpg></div></div>","null","","","","","","",""
"","","","offer","5e55e83cc65ccb5ed547cb04","bdp_td","Tue Mar 28 2023 21:33:03 GMT-0700 (Pacific Daylight Time)","85845","html-keyboard-response","45","62730","0.0-5.0-2.13","","1712","","<div class='trialBorder'><div class='vertical-center'><img style='vertical-align:center; align:center' src=img/fixation3.jpg></div><div class='cl'><div class='vertical-center'>$33<br><br>now</div></div><div class='cr'><div class='vertical-center'>$80<br>in<br>2 weeks</div></div><div class='respDivL'><div class='vertical-center'>(E)</div></div><div class='respDivR'><div class='vertical-center'>(I)</div></div></div>","I","$33<br><br>now","$80<br>in<br>2 weeks","0","33","80","2","THEN"
"","","","offerFB","5e55e83cc65ccb5ed547cb04","bdp_td","Tue Mar 28 2023 21:33:03 GMT-0700 (Pacific Daylight Time)","85845","html-keyboard-response","46","62996","0.0-5.0-3.13","","null","","<div class='trialBorder'><div class='vertical-center'><img style='vertical-align:center; align:center' src=img/fixation3.jpg></div><div class='cl'><div class='vertical-center'>$33<br><br>now</div></div><div class='cr'><div class='vertical-center'><font style='color:orange'>$80<br>in<br>2 weeks</font></div></div><div class='respDivL'><div class='vertical-center'>(E)</div></div><div class='respDivR'><div class='vertical-center'><font style='color:orange'>(I)</font></div></div></div>","null","$33<br><br>now","$80<br>in<br>2 weeks","0","33","80","2",""
"","","","FIX","5e55e83cc65ccb5ed547cb04","bdp_td","Tue Mar 28 2023 21:33:03 GMT-0700 (Pacific Daylight Time)","85845","html-keyboard-response","47","63508","0.0-5.0-1.14","","null","","<div class='trialBorder'><div class='vertical-center'><img style='vertical-align:center; align:center' src=img/fixation3.jpg></div></div>","null","","","","","","",""
"","","","offer","5e55e83cc65ccb5ed547cb04","bdp_td","Tue Mar 28 2023 21:33:03 GMT-0700 (Pacific Daylight Time)","85845","html-keyboard-response","48","65514","0.0-5.0-2.14","","2006","","<div class='trialBorder'><div class='vertical-center'><img style='vertical-align:center; align:center' src=img/fixation3.jpg></div><div class='cl'><div class='vertical-center'>$25<br>in<br>6 weeks</div></div><div class='cr'><div class='vertical-center'>$19<br><br>now</div></div><div class='respDivL'><div class='vertical-center'>(E)</div></div><div class='respDivR'><div class='vertical-center'>(I)</div></div></div>","I","$19<br><br>now","$25<br>in<br>6 weeks","1","19","25","6","NOW"
"","","","offerFB","5e55e83cc65ccb5ed547cb04","bdp_td","Tue Mar 28 2023 21:33:03 GMT-0700 (Pacific Daylight Time)","85845","html-keyboard-response","49","65776","0.0-5.0-3.14","","null","","<div class='trialBorder'><div class='vertical-center'><img style='vertical-align:center; align:center' src=img/fixation3.jpg></div><div class='cl'><div class='vertical-center'>$25<br>in<br>6 weeks</div></div><div class='cr'><div class='vertical-center'><font style='color:orange'>$19<br><br>now</font></div></div><div class='respDivL'><div class='vertical-center'>(E)</div></div><div class='respDivR'><div class='vertical-center'><font style='color:orange'>(I)</font></div></div></div>","null","$19<br><br>now","$25<br>in<br>6 weeks","1","19","25","6",""
"","","","FIX","5e55e83cc65ccb5ed547cb04","bdp_td","Tue Mar 28 2023 21:33:03 GMT-0700 (Pacific Daylight Time)","85845","html-keyboard-response","50","66289","0.0-5.0-1.15","","null","","<div class='trialBorder'><div class='vertical-center'><img style='vertical-align:center; align:center' src=img/fixation3.jpg></div></div>","null","","","","","","",""
"","","","offer","5e55e83cc65ccb5ed547cb04","bdp_td","Tue Mar 28 2023 21:33:03 GMT-0700 (Pacific Daylight Time)","85845","html-keyboard-response","51","67582","0.0-5.0-2.15","","1291","","<div class='trialBorder'><div class='vertical-center'><img style='vertical-align:center; align:center' src=img/fixation3.jpg></div><div class='cl'><div class='vertical-center'>$85<br>in<br>6 weeks</div></div><div class='cr'><div class='vertical-center'>$69<br><br>now</div></div><div class='respDivL'><div class='vertical-center'>(E)</div></div><div class='respDivR'><div class='vertical-center'>(I)</div></div></div>","I","$69<br><br>now","$85<br>in<br>6 weeks","1","69","85","6","NOW"
"","","","offerFB","5e55e83cc65ccb5ed547cb04","bdp_td","Tue Mar 28 2023 21:33:03 GMT-0700 (Pacific Daylight Time)","85845","html-keyboard-response","52","67835","0.0-5.0-3.15","","null","","<div class='trialBorder'><div class='vertical-center'><img style='vertical-align:center; align:center' src=img/fixation3.jpg></div><div class='cl'><div class='vertical-center'>$85<br>in<br>6 weeks</div></div><div class='cr'><div class='vertical-center'><font style='color:orange'>$69<br><br>now</font></div></div><div class='respDivL'><div class='vertical-center'>(E)</div></div><div class='respDivR'><div class='vertical-center'><font style='color:orange'>(I)</font></div></div></div>","null","$69<br><br>now","$85<br>in<br>6 weeks","1","69","85","6",""
"","","","FIX","5e55e83cc65ccb5ed547cb04","bdp_td","Tue Mar 28 2023 21:33:03 GMT-0700 (Pacific Daylight Time)","85845","html-keyboard-response","53","68349","0.0-5.0-1.16","","null","","<div class='trialBorder'><div class='vertical-center'><img style='vertical-align:center; align:center' src=img/fixation3.jpg></div></div>","null","","","","","","",""
"","","","offer","5e55e83cc65ccb5ed547cb04","bdp_td","Tue Mar 28 2023 21:33:03 GMT-0700 (Pacific Daylight Time)","85845","html-keyboard-response","54","69147","0.0-5.0-2.16","","798","","<div class='trialBorder'><div class='vertical-center'><img style='vertical-align:center; align:center' src=img/fixation3.jpg></div><div class='cl'><div class='vertical-center'>$60<br>in<br>6 weeks</div></div><div class='cr'><div class='vertical-center'>$49<br><br>now</div></div><div class='respDivL'><div class='vertical-center'>(E)</div></div><div class='respDivR'><div class='vertical-center'>(I)</div></div></div>","I","$49<br><br>now","$60<br>in<br>6 weeks","1","49","60","6","NOW"
"","","","offerFB","5e55e83cc65ccb5ed547cb04","bdp_td","Tue Mar 28 2023 21:33:03 GMT-0700 (Pacific Daylight Time)","85845","html-keyboard-response","55","69404","0.0-5.0-3.16","","null","","<div class='trialBorder'><div class='vertical-center'><img style='vertical-align:center; align:center' src=img/fixation3.jpg></div><div class='cl'><div class='vertical-center'>$60<br>in<br>6 weeks</div></div><div class='cr'><div class='vertical-center'><font style='color:orange'>$49<br><br>now</font></div></div><div class='respDivL'><div class='vertical-center'>(E)</div></div><div class='respDivR'><div class='vertical-center'><font style='color:orange'>(I)</font></div></div></div>","null","$49<br><br>now","$60<br>in<br>6 weeks","1","49","60","6",""
"","","","FIX","5e55e83cc65ccb5ed547cb04","bdp_td","Tue Mar 28 2023 21:33:03 GMT-0700 (Pacific Daylight Time)","85845","html-keyboard-response","56","69915","0.0-5.0-1.17","","null","","<div class='trialBorder'><div class='vertical-center'><img style='vertical-align:center; align:center' src=img/fixation3.jpg></div></div>","null","","","","","","",""
"","","","offer","5e55e83cc65ccb5ed547cb04","bdp_td","Tue Mar 28 2023 21:33:03 GMT-0700 (Pacific Daylight Time)","85845","html-keyboard-response","57","73331","0.0-5.0-2.17","","3415","","<div class='trialBorder'><div class='vertical-center'><img style='vertical-align:center; align:center' src=img/fixation3.jpg></div><div class='cl'><div class='vertical-center'>$14<br><br>now</div></div><div class='cr'><div class='vertical-center'>$25<br>in<br>3 weeks</div></div><div class='respDivL'><div class='vertical-center'>(E)</div></div><div class='respDivR'><div class='vertical-center'>(I)</div></div></div>","E","$14<br><br>now","$25<br>in<br>3 weeks","0","14","25","3","NOW"
"","","","offerFB","5e55e83cc65ccb5ed547cb04","bdp_td","Tue Mar 28 2023 21:33:03 GMT-0700 (Pacific Daylight Time)","85845","html-keyboard-response","58","73596","0.0-5.0-3.17","","null","","<div class='trialBorder'><div class='vertical-center'><img style='vertical-align:center; align:center' src=img/fixation3.jpg></div><div class='cl'><div class='vertical-center'><font style='color:orange'>$14<br><br>now</font></div></div><div class='cr'><div class='vertical-center'>$25<br>in<br>3 weeks</div></div><div class='respDivL'><div class='vertical-center'><font style='color:orange'>(E)</font></div></div><div class='respDivR'><div class='vertical-center'>(I)</div></div></div>","null","$14<br><br>now","$25<br>in<br>3 weeks","0","14","25","3",""
"","","","FIX","5e55e83cc65ccb5ed547cb04","bdp_td","Tue Mar 28 2023 21:33:03 GMT-0700 (Pacific Daylight Time)","85845","html-keyboard-response","59","74109","0.0-5.0-1.18","","null","","<div class='trialBorder'><div class='vertical-center'><img style='vertical-align:center; align:center' src=img/fixation3.jpg></div></div>","null","","","","","","",""
"","","","offer","5e55e83cc65ccb5ed547cb04","bdp_td","Tue Mar 28 2023 21:33:03 GMT-0700 (Pacific Daylight Time)","85845","html-keyboard-response","60","74641","0.0-5.0-2.18","","532","","<div class='trialBorder'><div class='vertical-center'><img style='vertical-align:center; align:center' src=img/fixation3.jpg></div><div class='cl'><div class='vertical-center'>$67<br><br>now</div></div><div class='cr'><div class='vertical-center'>$75<br>in<br>12 weeks</div></div><div class='respDivL'><div class='vertical-center'>(E)</div></div><div class='respDivR'><div class='vertical-center'>(I)</div></div></div>","E","$67<br><br>now","$75<br>in<br>12 weeks","0","67","75","12","NOW"
"","","","offerFB","5e55e83cc65ccb5ed547cb04","bdp_td","Tue Mar 28 2023 21:33:03 GMT-0700 (Pacific Daylight Time)","85845","html-keyboard-response","61","74902","0.0-5.0-3.18","","null","","<div class='trialBorder'><div class='vertical-center'><img style='vertical-align:center; align:center' src=img/fixation3.jpg></div><div class='cl'><div class='vertical-center'><font style='color:orange'>$67<br><br>now</font></div></div><div class='cr'><div class='vertical-center'>$75<br>in<br>12 weeks</div></div><div class='respDivL'><div class='vertical-center'><font style='color:orange'>(E)</font></div></div><div class='respDivR'><div class='vertical-center'>(I)</div></div></div>","null","$67<br><br>now","$75<br>in<br>12 weeks","0","67","75","12",""
"","","","FIX","5e55e83cc65ccb5ed547cb04","bdp_td","Tue Mar 28 2023 21:33:03 GMT-0700 (Pacific Daylight Time)","85845","html-keyboard-response","62","75415","0.0-5.0-1.19","","null","","<div class='trialBorder'><div class='vertical-center'><img style='vertical-align:center; align:center' src=img/fixation3.jpg></div></div>","null","","","","","","",""
"","","","offer","5e55e83cc65ccb5ed547cb04","bdp_td","Tue Mar 28 2023 21:33:03 GMT-0700 (Pacific Daylight Time)","85845","html-keyboard-response","63","75919","0.0-5.0-2.19","","502","","<div class='trialBorder'><div class='vertical-center'><img style='vertical-align:center; align:center' src=img/fixation3.jpg></div><div class='cl'><div class='vertical-center'>$85<br>in<br>12 weeks</div></div><div class='cr'><div class='vertical-center'>$80<br><br>now</div></div><div class='respDivL'><div class='vertical-center'>(E)</div></div><div class='respDivR'><div class='vertical-center'>(I)</div></div></div>","I","$80<br><br>now","$85<br>in<br>12 weeks","1","80","85","12","NOW"
"","","","offerFB","5e55e83cc65ccb5ed547cb04","bdp_td","Tue Mar 28 2023 21:33:03 GMT-0700 (Pacific Daylight Time)","85845","html-keyboard-response","64","76176","0.0-5.0-3.19","","null","","<div class='trialBorder'><div class='vertical-center'><img style='vertical-align:center; align:center' src=img/fixation3.jpg></div><div class='cl'><div class='vertical-center'>$85<br>in<br>12 weeks</div></div><div class='cr'><div class='vertical-center'><font style='color:orange'>$80<br><br>now</font></div></div><div class='respDivL'><div class='vertical-center'>(E)</div></div><div class='respDivR'><div class='vertical-center'><font style='color:orange'>(I)</font></div></div></div>","null","$80<br><br>now","$85<br>in<br>12 weeks","1","80","85","12",""
"","","","FIX","5e55e83cc65ccb5ed547cb04","bdp_td","Tue Mar 28 2023 21:33:03 GMT-0700 (Pacific Daylight Time)","85845","html-keyboard-response","65","76691","0.0-5.0-1.20","","null","","<div class='trialBorder'><div class='vertical-center'><img style='vertical-align:center; align:center' src=img/fixation3.jpg></div></div>","null","","","","","","",""
"","","","offer","5e55e83cc65ccb5ed547cb04","bdp_td","Tue Mar 28 2023 21:33:03 GMT-0700 (Pacific Daylight Time)","85845","html-keyboard-response","66","77138","0.0-5.0-2.20","","447","","<div class='trialBorder'><div class='vertical-center'><img style='vertical-align:center; align:center' src=img/fixation3.jpg></div><div class='cl'><div class='vertical-center'>$50<br>in<br>3 weeks</div></div><div class='cr'><div class='vertical-center'>$27<br><br>now</div></div><div class='respDivL'><div class='vertical-center'>(E)</div></div><div class='respDivR'><div class='vertical-center'>(I)</div></div></div>","I","$27<br><br>now","$50<br>in<br>3 weeks","1","27","50","3","NOW"
"","","","offerFB","5e55e83cc65ccb5ed547cb04","bdp_td","Tue Mar 28 2023 21:33:03 GMT-0700 (Pacific Daylight Time)","85845","html-keyboard-response","67","77391","0.0-5.0-3.20","","null","","<div class='trialBorder'><div class='vertical-center'><img style='vertical-align:center; align:center' src=img/fixation3.jpg></div><div class='cl'><div class='vertical-center'>$50<br>in<br>3 weeks</div></div><div class='cr'><div class='vertical-center'><font style='color:orange'>$27<br><br>now</font></div></div><div class='respDivL'><div class='vertical-center'>(E)</div></div><div class='respDivR'><div class='vertical-center'><font style='color:orange'>(I)</font></div></div></div>","null","$27<br><br>now","$50<br>in<br>3 weeks","1","27","50","3",""
"","","","FIX","5e55e83cc65ccb5ed547cb04","bdp_td","Tue Mar 28 2023 21:33:03 GMT-0700 (Pacific Daylight Time)","85845","html-keyboard-response","68","77903","0.0-5.0-1.21","","null","","<div class='trialBorder'><div class='vertical-center'><img style='vertical-align:center; align:center' src=img/fixation3.jpg></div></div>","null","","","","","","",""
"","","","offer","5e55e83cc65ccb5ed547cb04","bdp_td","Tue Mar 28 2023 21:33:03 GMT-0700 (Pacific Daylight Time)","85845","html-keyboard-response","69","78438","0.0-5.0-2.21","","535","","<div class='trialBorder'><div class='vertical-center'><img style='vertical-align:center; align:center' src=img/fixation3.jpg></div><div class='cl'><div class='vertical-center'>$85<br>in<br>1 week</div></div><div class='cr'><div class='vertical-center'>$31<br><br>now</div></div><div class='respDivL'><div class='vertical-center'>(E)</div></div><div class='respDivR'><div class='vertical-center'>(I)</div></div></div>","I","$31<br><br>now","$85<br>in<br>1 week","1","31","85","1","NOW"
"","","","offerFB","5e55e83cc65ccb5ed547cb04","bdp_td","Tue Mar 28 2023 21:33:03 GMT-0700 (Pacific Daylight Time)","85845","html-keyboard-response","70","78696","0.0-5.0-3.21","","null","","<div class='trialBorder'><div class='vertical-center'><img style='vertical-align:center; align:center' src=img/fixation3.jpg></div><div class='cl'><div class='vertical-center'>$85<br>in<br>1 week</div></div><div class='cr'><div class='vertical-center'><font style='color:orange'>$31<br><br>now</font></div></div><div class='respDivL'><div class='vertical-center'>(E)</div></div><div class='respDivR'><div class='vertical-center'><font style='color:orange'>(I)</font></div></div></div>","null","$31<br><br>now","$85<br>in<br>1 week","1","31","85","1",""
"","","","FIX","5e55e83cc65ccb5ed547cb04","bdp_td","Tue Mar 28 2023 21:33:03 GMT-0700 (Pacific Daylight Time)","85845","html-keyboard-response","71","79208","0.0-5.0-1.22","","null","","<div class='trialBorder'><div class='vertical-center'><img style='vertical-align:center; align:center' src=img/fixation3.jpg></div></div>","null","","","","","","",""
"","","","offer","5e55e83cc65ccb5ed547cb04","bdp_td","Tue Mar 28 2023 21:33:03 GMT-0700 (Pacific Daylight Time)","85845","html-keyboard-response","72","79708","0.0-5.0-2.22","","500","","<div class='trialBorder'><div class='vertical-center'><img style='vertical-align:center; align:center' src=img/fixation3.jpg></div><div class='cl'><div class='vertical-center'>$75<br>in<br>3 weeks</div></div><div class='cr'><div class='vertical-center'>$41<br><br>now</div></div><div class='respDivL'><div class='vertical-center'>(E)</div></div><div class='respDivR'><div class='vertical-center'>(I)</div></div></div>","I","$41<br><br>now","$75<br>in<br>3 weeks","1","41","75","3","NOW"
"","","","offerFB","5e55e83cc65ccb5ed547cb04","bdp_td","Tue Mar 28 2023 21:33:03 GMT-0700 (Pacific Daylight Time)","85845","html-keyboard-response","73","79967","0.0-5.0-3.22","","null","","<div class='trialBorder'><div class='vertical-center'><img style='vertical-align:center; align:center' src=img/fixation3.jpg></div><div class='cl'><div class='vertical-center'>$75<br>in<br>3 weeks</div></div><div class='cr'><div class='vertical-center'><font style='color:orange'>$41<br><br>now</font></div></div><div class='respDivL'><div class='vertical-center'>(E)</div></div><div class='respDivR'><div class='vertical-center'><font style='color:orange'>(I)</font></div></div></div>","null","$41<br><br>now","$75<br>in<br>3 weeks","1","41","75","3",""
"","","","FIX","5e55e83cc65ccb5ed547cb04","bdp_td","Tue Mar 28 2023 21:33:03 GMT-0700 (Pacific Daylight Time)","85845","html-keyboard-response","74","80483","0.0-5.0-1.23","","null","","<div class='trialBorder'><div class='vertical-center'><img style='vertical-align:center; align:center' src=img/fixation3.jpg></div></div>","null","","","","","","",""
"","","","offer","5e55e83cc65ccb5ed547cb04","bdp_td","Tue Mar 28 2023 21:33:03 GMT-0700 (Pacific Daylight Time)","85845","html-keyboard-response","75","80877","0.0-5.0-2.23","","394","","<div class='trialBorder'><div class='vertical-center'><img style='vertical-align:center; align:center' src=img/fixation3.jpg></div><div class='cl'><div class='vertical-center'>$80<br>in<br>3 weeks</div></div><div class='cr'><div class='vertical-center'>$54<br><br>now</div></div><div class='respDivL'><div class='vertical-center'>(E)</div></div><div class='respDivR'><div class='vertical-center'>(I)</div></div></div>","I","$54<br><br>now","$80<br>in<br>3 weeks","1","54","80","3","NOW"
"","","","offerFB","5e55e83cc65ccb5ed547cb04","bdp_td","Tue Mar 28 2023 21:33:03 GMT-0700 (Pacific Daylight Time)","85845","html-keyboard-response","76","81136","0.0-5.0-3.23","","null","","<div class='trialBorder'><div class='vertical-center'><img style='vertical-align:center; align:center' src=img/fixation3.jpg></div><div class='cl'><div class='vertical-center'>$80<br>in<br>3 weeks</div></div><div class='cr'><div class='vertical-center'><font style='color:orange'>$54<br><br>now</font></div></div><div class='respDivL'><div class='vertical-center'>(E)</div></div><div class='respDivR'><div class='vertical-center'><font style='color:orange'>(I)</font></div></div></div>","null","$54<br><br>now","$80<br>in<br>3 weeks","1","54","80","3",""
"","","","FIX","5e55e83cc65ccb5ed547cb04","bdp_td","Tue Mar 28 2023 21:33:03 GMT-0700 (Pacific Daylight Time)","85845","html-keyboard-response","77","81652","0.0-5.0-1.24","","null","","<div class='trialBorder'><div class='vertical-center'><img style='vertical-align:center; align:center' src=img/fixation3.jpg></div></div>","null","","","","","","",""
"","","","offer","5e55e83cc65ccb5ed547cb04","bdp_td","Tue Mar 28 2023 21:33:03 GMT-0700 (Pacific Daylight Time)","85845","html-keyboard-response","78","82159","0.0-5.0-2.24","","507","","<div class='trialBorder'><div class='vertical-center'><img style='vertical-align:center; align:center' src=img/fixation3.jpg></div><div class='cl'><div class='vertical-center'>$15<br><br>now</div></div><div class='cr'><div class='vertical-center'>$35<br>in<br>2 weeks</div></div><div class='respDivL'><div class='vertical-center'>(E)</div></div><div class='respDivR'><div class='vertical-center'>(I)</div></div></div>","E","$15<br><br>now","$35<br>in<br>2 weeks","0","15","35","2","NOW"
"","","","offerFB","5e55e83cc65ccb5ed547cb04","bdp_td","Tue Mar 28 2023 21:33:03 GMT-0700 (Pacific Daylight Time)","85845","html-keyboard-response","79","82411","0.0-5.0-3.24","","null","","<div class='trialBorder'><div class='vertical-center'><img style='vertical-align:center; align:center' src=img/fixation3.jpg></div><div class='cl'><div class='vertical-center'><font style='color:orange'>$15<br><br>now</font></div></div><div class='cr'><div class='vertical-center'>$35<br>in<br>2 weeks</div></div><div class='respDivL'><div class='vertical-center'><font style='color:orange'>(E)</font></div></div><div class='respDivR'><div class='vertical-center'>(I)</div></div></div>","null","$15<br><br>now","$35<br>in<br>2 weeks","0","15","35","2",""
"","","","FIX","5e55e83cc65ccb5ed547cb04","bdp_td","Tue Mar 28 2023 21:33:03 GMT-0700 (Pacific Daylight Time)","85845","html-keyboard-response","80","82927","0.0-5.0-1.25","","null","","<div class='trialBorder'><div class='vertical-center'><img style='vertical-align:center; align:center' src=img/fixation3.jpg></div></div>","null","","","","","","",""
"","","","offer","5e55e83cc65ccb5ed547cb04","bdp_td","Tue Mar 28 2023 21:33:03 GMT-0700 (Pacific Daylight Time)","85845","html-keyboard-response","81","83386","0.0-5.0-2.25","","459","","<div class='trialBorder'><div class='vertical-center'><img style='vertical-align:center; align:center' src=img/fixation3.jpg></div><div class='cl'><div class='vertical-center'>$54<br><br>now</div></div><div class='cr'><div class='vertical-center'>$60<br>in<br>12 weeks</div></div><div class='respDivL'><div class='vertical-center'>(E)</div></div><div class='respDivR'><div class='vertical-center'>(I)</div></div></div>","E","$54<br><br>now","$60<br>in<br>12 weeks","0","54","60","12","NOW"
"","","","offerFB","5e55e83cc65ccb5ed547cb04","bdp_td","Tue Mar 28 2023 21:33:03 GMT-0700 (Pacific Daylight Time)","85845","html-keyboard-response","82","83640","0.0-5.0-3.25","","null","","<div class='trialBorder'><div class='vertical-center'><img style='vertical-align:center; align:center' src=img/fixation3.jpg></div><div class='cl'><div class='vertical-center'><font style='color:orange'>$54<br><br>now</font></div></div><div class='cr'><div class='vertical-center'>$60<br>in<br>12 weeks</div></div><div class='respDivL'><div class='vertical-center'><font style='color:orange'>(E)</font></div></div><div class='respDivR'><div class='vertical-center'>(I)</div></div></div>","null","$54<br><br>now","$60<br>in<br>12 weeks","0","54","60","12",""
"","","","FIX","5e55e83cc65ccb5ed547cb04","bdp_td","Tue Mar 28 2023 21:33:03 GMT-0700 (Pacific Daylight Time)","85845","html-keyboard-response","83","84154","0.0-5.0-1.26","","null","","<div class='trialBorder'><div class='vertical-center'><img style='vertical-align:center; align:center' src=img/fixation3.jpg></div></div>","null","","","","","","",""
"","","","offer","5e55e83cc65ccb5ed547cb04","bdp_td","Tue Mar 28 2023 21:33:03 GMT-0700 (Pacific Daylight Time)","85845","html-keyboard-response","84","84585","0.0-5.0-2.26","","430","","<div class='trialBorder'><div class='vertical-center'><img style='vertical-align:center; align:center' src=img/fixation3.jpg></div><div class='cl'><div class='vertical-center'>$11<br><br>now</div></div><div class='cr'><div class='vertical-center'>$30<br>in<br>2 weeks</div></div><div class='respDivL'><div class='vertical-center'>(E)</div></div><div class='respDivR'><div class='vertical-center'>(I)</div></div></div>","E","$11<br><br>now","$30<br>in<br>2 weeks","0","11","30","2","NOW"
"","","","offerFB","5e55e83cc65ccb5ed547cb04","bdp_td","Tue Mar 28 2023 21:33:03 GMT-0700 (Pacific Daylight Time)","85845","html-keyboard-response","85","84836","0.0-5.0-3.26","","null","","<div class='trialBorder'><div class='vertical-center'><img style='vertical-align:center; align:center' src=img/fixation3.jpg></div><div class='cl'><div class='vertical-center'><font style='color:orange'>$11<br><br>now</font></div></div><div class='cr'><div class='vertical-center'>$30<br>in<br>2 weeks</div></div><div class='respDivL'><div class='vertical-center'><font style='color:orange'>(E)</font></div></div><div class='respDivR'><div class='vertical-center'>(I)</div></div></div>","null","$11<br><br>now","$30<br>in<br>2 weeks","0","11","30","2",""
"fullscreenexit","86","85060","fullscreenexit","5e55e83cc65ccb5ed547cb04","bdp_td","Tue Mar 28 2023 21:33:03 GMT-0700 (Pacific Daylight Time)","85845","","","","","","","","","","","","","","","",""
"","","","","5e55e83cc65ccb5ed547cb04","bdp_td","Tue Mar 28 2023 21:33:03 GMT-0700 (Pacific Daylight Time)","85845","fullscreen","86","85845","0.0-6.0","","","true","","","","","","","","",""
"","","","","","","","","html-keyboard-response","87","86360","0.0-7.0","","null","","","null","","","","","","",""
