"trial_type","trial_index","time_elapsed","internal_node_id","subject_id","task","startTime","totalTime","view_history","rt","event","trial","time","trialtype","success","stimulus","key_press","nowOffer","thenOffer","thenLeft","nowAmt","thenAmt","thenWeeks","chosen"
"pavlovia","0","3","0.0-0.0","63d1b93d9abc8c4b40e2d92f","bdp_td","Mon Mar 27 2023 11:10:11 GMT-0500 (Central Daylight Time)","82850","","","","","","","","","","","","","","","",""
"instructions","1","1855","0.0-1.0","63d1b93d9abc8c4b40e2d92f","bdp_td","Mon Mar 27 2023 11:10:11 GMT-0500 (Central Daylight Time)","82850","[{""page_index"":0,""viewing_time"":1852}]","1852","","","","","","","","","","","","","",""
"","","","","63d1b93d9abc8c4b40e2d92f","bdp_td","Mon Mar 27 2023 11:10:11 GMT-0500 (Central Daylight Time)","82850","","","fullscreenenter","2","6164","fullscreenenter","","","","","","","","","",""
"fullscreen","2","7141","0.0-2.0","63d1b93d9abc8c4b40e2d92f","bdp_td","Mon Mar 27 2023 11:10:11 GMT-0500 (Central Daylight Time)","82850","","","","","","","true","","","","","","","","",""
"instructions","3","19791","0.0-4.0","63d1b93d9abc8c4b40e2d92f","bdp_td","Mon Mar 27 2023 11:10:11 GMT-0500 (Central Daylight Time)","82850","[{""page_index"":0,""viewing_time"":2525},{""page_index"":1,""viewing_time"":8561},{""page_index"":2,""viewing_time"":1562}]","12648","","","","","","","","","","","","","",""
"html-keyboard-response","4","20294","0.0-5.0-1.0","63d1b93d9abc8c4b40e2d92f","bdp_td","Mon Mar 27 2023 11:10:11 GMT-0500 (Central Daylight Time)","82850","","null","","","","FIX","","<div class='trialBorder'><div class='vertical-center'><img style='vertical-align:center; align:center' src=img/fixation3.jpg></div></div>","null","","","","","","",""
"html-keyboard-response","5","24485","0.0-5.0-2.0","63d1b93d9abc8c4b40e2d92f","bdp_td","Mon Mar 27 2023 11:10:11 GMT-0500 (Central Daylight Time)","82850","","4190","","","","offer","","<div class='trialBorder'><div class='vertical-center'><img style='vertical-align:center; align:center' src=img/fixation3.jpg></div><div class='cl'><div class='vertical-center'>$30<br>in<br>2 weeks</div></div><div class='cr'><div class='vertical-center'>$11<br><br>now</div></div><div class='respDivL'><div class='vertical-center'>(E)</div></div><div class='respDivR'><div class='vertical-center'>(I)</div></div></div>","E","$11<br><br>now","$30<br>in<br>2 weeks","1","11","30","2","THEN"
"html-keyboard-response","6","24740","0.0-5.0-3.0","63d1b93d9abc8c4b40e2d92f","bdp_td","Mon Mar 27 2023 11:10:11 GMT-0500 (Central Daylight Time)","82850","","null","","","","offerFB","","<div class='trialBorder'><div class='vertical-center'><img style='vertical-align:center; align:center' src=img/fixation3.jpg></div><div class='cl'><div class='vertical-center'><font style='color:orange'>$30<br>in<br>2 weeks</font></div></div><div class='cr'><div class='vertical-center'>$11<br><br>now</div></div><div class='respDivL'><div class='vertical-center'><font style='color:orange'>(E)</font></div></div><div class='respDivR'><div class='vertical-center'>(I)</div></div></div>","null","$11<br><br>now","$30<br>in<br>2 weeks","1","11","30","2",""
"html-keyboard-response","7","25243","0.0-5.0-1.1","63d1b93d9abc8c4b40e2d92f","bdp_td","Mon Mar 27 2023 11:10:11 GMT-0500 (Central Daylight Time)","82850","","null","","","","FIX","","<div class='trialBorder'><div class='vertical-center'><img style='vertical-align:center; align:center' src=img/fixation3.jpg></div></div>","null","","","","","","",""
"html-keyboard-response","8","26613","0.0-5.0-2.1","63d1b93d9abc8c4b40e2d92f","bdp_td","Mon Mar 27 2023 11:10:11 GMT-0500 (Central Daylight Time)","82850","","1368","","","","offer","","<div class='trialBorder'><div class='vertical-center'><img style='vertical-align:center; align:center' src=img/fixation3.jpg></div><div class='cl'><div class='vertical-center'>$50<br>in<br>3 weeks</div></div><div class='cr'><div class='vertical-center'>$27<br><br>now</div></div><div class='respDivL'><div class='vertical-center'>(E)</div></div><div class='respDivR'><div class='vertical-center'>(I)</div></div></div>","E","$27<br><br>now","$50<br>in<br>3 weeks","1","27","50","3","THEN"
"html-keyboard-response","9","26866","0.0-5.0-3.1","63d1b93d9abc8c4b40e2d92f","bdp_td","Mon Mar 27 2023 11:10:11 GMT-0500 (Central Daylight Time)","82850","","null","","","","offerFB","","<div class='trialBorder'><div class='vertical-center'><img style='vertical-align:center; align:center' src=img/fixation3.jpg></div><div class='cl'><div class='vertical-center'><font style='color:orange'>$50<br>in<br>3 weeks</font></div></div><div class='cr'><div class='vertical-center'>$27<br><br>now</div></div><div class='respDivL'><div class='vertical-center'><font style='color:orange'>(E)</font></div></div><div class='respDivR'><div class='vertical-center'>(I)</div></div></div>","null","$27<br><br>now","$50<br>in<br>3 weeks","1","27","50","3",""
"html-keyboard-response","10","27369","0.0-5.0-1.2","63d1b93d9abc8c4b40e2d92f","bdp_td","Mon Mar 27 2023 11:10:11 GMT-0500 (Central Daylight Time)","82850","","null","","","","FIX","","<div class='trialBorder'><div class='vertical-center'><img style='vertical-align:center; align:center' src=img/fixation3.jpg></div></div>","null","","","","","","",""
"html-keyboard-response","11","29641","0.0-5.0-2.2","63d1b93d9abc8c4b40e2d92f","bdp_td","Mon Mar 27 2023 11:10:11 GMT-0500 (Central Daylight Time)","82850","","2269","","","","offer","","<div class='trialBorder'><div class='vertical-center'><img style='vertical-align:center; align:center' src=img/fixation3.jpg></div><div class='cl'><div class='vertical-center'>$55<br>in<br>1 week</div></div><div class='cr'><div class='vertical-center'>$20<br><br>now</div></div><div class='respDivL'><div class='vertical-center'>(E)</div></div><div class='respDivR'><div class='vertical-center'>(I)</div></div></div>","E","$20<br><br>now","$55<br>in<br>1 week","1","20","55","1","THEN"
"html-keyboard-response","12","29894","0.0-5.0-3.2","63d1b93d9abc8c4b40e2d92f","bdp_td","Mon Mar 27 2023 11:10:11 GMT-0500 (Central Daylight Time)","82850","","null","","","","offerFB","","<div class='trialBorder'><div class='vertical-center'><img style='vertical-align:center; align:center' src=img/fixation3.jpg></div><div class='cl'><div class='vertical-center'><font style='color:orange'>$55<br>in<br>1 week</font></div></div><div class='cr'><div class='vertical-center'>$20<br><br>now</div></div><div class='respDivL'><div class='vertical-center'><font style='color:orange'>(E)</font></div></div><div class='respDivR'><div class='vertical-center'>(I)</div></div></div>","null","$20<br><br>now","$55<br>in<br>1 week","1","20","55","1",""
"html-keyboard-response","13","30397","0.0-5.0-1.3","63d1b93d9abc8c4b40e2d92f","bdp_td","Mon Mar 27 2023 11:10:11 GMT-0500 (Central Daylight Time)","82850","","null","","","","FIX","","<div class='trialBorder'><div class='vertical-center'><img style='vertical-align:center; align:center' src=img/fixation3.jpg></div></div>","null","","","","","","",""
"html-keyboard-response","14","32054","0.0-5.0-2.3","63d1b93d9abc8c4b40e2d92f","bdp_td","Mon Mar 27 2023 11:10:11 GMT-0500 (Central Daylight Time)","82850","","1655","","","","offer","","<div class='trialBorder'><div class='vertical-center'><img style='vertical-align:center; align:center' src=img/fixation3.jpg></div><div class='cl'><div class='vertical-center'>$41<br><br>now</div></div><div class='cr'><div class='vertical-center'>$75<br>in<br>3 weeks</div></div><div class='respDivL'><div class='vertical-center'>(E)</div></div><div class='respDivR'><div class='vertical-center'>(I)</div></div></div>","I","$41<br><br>now","$75<br>in<br>3 weeks","0","41","75","3","THEN"
"html-keyboard-response","15","32306","0.0-5.0-3.3","63d1b93d9abc8c4b40e2d92f","bdp_td","Mon Mar 27 2023 11:10:11 GMT-0500 (Central Daylight Time)","82850","","null","","","","offerFB","","<div class='trialBorder'><div class='vertical-center'><img style='vertical-align:center; align:center' src=img/fixation3.jpg></div><div class='cl'><div class='vertical-center'>$41<br><br>now</div></div><div class='cr'><div class='vertical-center'><font style='color:orange'>$75<br>in<br>3 weeks</font></div></div><div class='respDivL'><div class='vertical-center'>(E)</div></div><div class='respDivR'><div class='vertical-center'><font style='color:orange'>(I)</font></div></div></div>","null","$41<br><br>now","$75<br>in<br>3 weeks","0","41","75","3",""
"html-keyboard-response","16","32809","0.0-5.0-1.4","63d1b93d9abc8c4b40e2d92f","bdp_td","Mon Mar 27 2023 11:10:11 GMT-0500 (Central Daylight Time)","82850","","null","","","","FIX","","<div class='trialBorder'><div class='vertical-center'><img style='vertical-align:center; align:center' src=img/fixation3.jpg></div></div>","null","","","","","","",""
"html-keyboard-response","17","33652","0.0-5.0-2.4","63d1b93d9abc8c4b40e2d92f","bdp_td","Mon Mar 27 2023 11:10:11 GMT-0500 (Central Daylight Time)","82850","","842","","","","offer","","<div class='trialBorder'><div class='vertical-center'><img style='vertical-align:center; align:center' src=img/fixation3.jpg></div><div class='cl'><div class='vertical-center'>$30<br>in<br>6 weeks</div></div><div class='cr'><div class='vertical-center'>$25<br><br>now</div></div><div class='respDivL'><div class='vertical-center'>(E)</div></div><div class='respDivR'><div class='vertical-center'>(I)</div></div></div>","E","$25<br><br>now","$30<br>in<br>6 weeks","1","25","30","6","THEN"
"html-keyboard-response","18","33904","0.0-5.0-3.4","63d1b93d9abc8c4b40e2d92f","bdp_td","Mon Mar 27 2023 11:10:11 GMT-0500 (Central Daylight Time)","82850","","null","","","","offerFB","","<div class='trialBorder'><div class='vertical-center'><img style='vertical-align:center; align:center' src=img/fixation3.jpg></div><div class='cl'><div class='vertical-center'><font style='color:orange'>$30<br>in<br>6 weeks</font></div></div><div class='cr'><div class='vertical-center'>$25<br><br>now</div></div><div class='respDivL'><div class='vertical-center'><font style='color:orange'>(E)</font></div></div><div class='respDivR'><div class='vertical-center'>(I)</div></div></div>","null","$25<br><br>now","$30<br>in<br>6 weeks","1","25","30","6",""
"html-keyboard-response","19","34406","0.0-5.0-1.5","63d1b93d9abc8c4b40e2d92f","bdp_td","Mon Mar 27 2023 11:10:11 GMT-0500 (Central Daylight Time)","82850","","null","","","","FIX","","<div class='trialBorder'><div class='vertical-center'><img style='vertical-align:center; align:center' src=img/fixation3.jpg></div></div>","null","","","","","","",""
"html-keyboard-response","20","36927","0.0-5.0-2.5","63d1b93d9abc8c4b40e2d92f","bdp_td","Mon Mar 27 2023 11:10:11 GMT-0500 (Central Daylight Time)","82850","","2519","","","","offer","","<div class='trialBorder'><div class='vertical-center'><img style='vertical-align:center; align:center' src=img/fixation3.jpg></div><div class='cl'><div class='vertical-center'>$50<br>in<br>6 weeks</div></div><div class='cr'><div class='vertical-center'>$34<br><br>now</div></div><div class='respDivL'><div class='vertical-center'>(E)</div></div><div class='respDivR'><div class='vertical-center'>(I)</div></div></div>","I","$34<br><br>now","$50<br>in<br>6 weeks","1","34","50","6","NOW"
"html-keyboard-response","21","37180","0.0-5.0-3.5","63d1b93d9abc8c4b40e2d92f","bdp_td","Mon Mar 27 2023 11:10:11 GMT-0500 (Central Daylight Time)","82850","","null","","","","offerFB","","<div class='trialBorder'><div class='vertical-center'><img style='vertical-align:center; align:center' src=img/fixation3.jpg></div><div class='cl'><div class='vertical-center'>$50<br>in<br>6 weeks</div></div><div class='cr'><div class='vertical-center'><font style='color:orange'>$34<br><br>now</font></div></div><div class='respDivL'><div class='vertical-center'>(E)</div></div><div class='respDivR'><div class='vertical-center'><font style='color:orange'>(I)</font></div></div></div>","null","$34<br><br>now","$50<br>in<br>6 weeks","1","34","50","6",""
"html-keyboard-response","22","37682","0.0-5.0-1.6","63d1b93d9abc8c4b40e2d92f","bdp_td","Mon Mar 27 2023 11:10:11 GMT-0500 (Central Daylight Time)","82850","","null","","","","FIX","","<div class='trialBorder'><div class='vertical-center'><img style='vertical-align:center; align:center' src=img/fixation3.jpg></div></div>","null","","","","","","",""
"html-keyboard-response","23","39334","0.0-5.0-2.6","63d1b93d9abc8c4b40e2d92f","bdp_td","Mon Mar 27 2023 11:10:11 GMT-0500 (Central Daylight Time)","82850","","1650","","","","offer","","<div class='trialBorder'><div class='vertical-center'><img style='vertical-align:center; align:center' src=img/fixation3.jpg></div><div class='cl'><div class='vertical-center'>$55<br>in<br>6 weeks</div></div><div class='cr'><div class='vertical-center'>$40<br><br>now</div></div><div class='respDivL'><div class='vertical-center'>(E)</div></div><div class='respDivR'><div class='vertical-center'>(I)</div></div></div>","I","$40<br><br>now","$55<br>in<br>6 weeks","1","40","55","6","NOW"
"html-keyboard-response","24","39587","0.0-5.0-3.6","63d1b93d9abc8c4b40e2d92f","bdp_td","Mon Mar 27 2023 11:10:11 GMT-0500 (Central Daylight Time)","82850","","null","","","","offerFB","","<div class='trialBorder'><div class='vertical-center'><img style='vertical-align:center; align:center' src=img/fixation3.jpg></div><div class='cl'><div class='vertical-center'>$55<br>in<br>6 weeks</div></div><div class='cr'><div class='vertical-center'><font style='color:orange'>$40<br><br>now</font></div></div><div class='respDivL'><div class='vertical-center'>(E)</div></div><div class='respDivR'><div class='vertical-center'><font style='color:orange'>(I)</font></div></div></div>","null","$40<br><br>now","$55<br>in<br>6 weeks","1","40","55","6",""
"html-keyboard-response","25","40090","0.0-5.0-1.7","63d1b93d9abc8c4b40e2d92f","bdp_td","Mon Mar 27 2023 11:10:11 GMT-0500 (Central Daylight Time)","82850","","null","","","","FIX","","<div class='trialBorder'><div class='vertical-center'><img style='vertical-align:center; align:center' src=img/fixation3.jpg></div></div>","null","","","","","","",""
"html-keyboard-response","26","41461","0.0-5.0-2.7","63d1b93d9abc8c4b40e2d92f","bdp_td","Mon Mar 27 2023 11:10:11 GMT-0500 (Central Daylight Time)","82850","","1369","","","","offer","","<div class='trialBorder'><div class='vertical-center'><img style='vertical-align:center; align:center' src=img/fixation3.jpg></div><div class='cl'><div class='vertical-center'>$49<br><br>now</div></div><div class='cr'><div class='vertical-center'>$60<br>in<br>6 weeks</div></div><div class='respDivL'><div class='vertical-center'>(E)</div></div><div class='respDivR'><div class='vertical-center'>(I)</div></div></div>","E","$49<br><br>now","$60<br>in<br>6 weeks","0","49","60","6","NOW"
"html-keyboard-response","27","41712","0.0-5.0-3.7","63d1b93d9abc8c4b40e2d92f","bdp_td","Mon Mar 27 2023 11:10:11 GMT-0500 (Central Daylight Time)","82850","","null","","","","offerFB","","<div class='trialBorder'><div class='vertical-center'><img style='vertical-align:center; align:center' src=img/fixation3.jpg></div><div class='cl'><div class='vertical-center'><font style='color:orange'>$49<br><br>now</font></div></div><div class='cr'><div class='vertical-center'>$60<br>in<br>6 weeks</div></div><div class='respDivL'><div class='vertical-center'><font style='color:orange'>(E)</font></div></div><div class='respDivR'><div class='vertical-center'>(I)</div></div></div>","null","$49<br><br>now","$60<br>in<br>6 weeks","0","49","60","6",""
"html-keyboard-response","28","42214","0.0-5.0-1.8","63d1b93d9abc8c4b40e2d92f","bdp_td","Mon Mar 27 2023 11:10:11 GMT-0500 (Central Daylight Time)","82850","","null","","","","FIX","","<div class='trialBorder'><div class='vertical-center'><img style='vertical-align:center; align:center' src=img/fixation3.jpg></div></div>","null","","","","","","",""
"html-keyboard-response","29","43760","0.0-5.0-2.8","63d1b93d9abc8c4b40e2d92f","bdp_td","Mon Mar 27 2023 11:10:11 GMT-0500 (Central Daylight Time)","82850","","1543","","","","offer","","<div class='trialBorder'><div class='vertical-center'><img style='vertical-align:center; align:center' src=img/fixation3.jpg></div><div class='cl'><div class='vertical-center'>$85<br>in<br>12 weeks</div></div><div class='cr'><div class='vertical-center'>$80<br><br>now</div></div><div class='respDivL'><div class='vertical-center'>(E)</div></div><div class='respDivR'><div class='vertical-center'>(I)</div></div></div>","I","$80<br><br>now","$85<br>in<br>12 weeks","1","80","85","12","NOW"
"html-keyboard-response","30","44013","0.0-5.0-3.8","63d1b93d9abc8c4b40e2d92f","bdp_td","Mon Mar 27 2023 11:10:11 GMT-0500 (Central Daylight Time)","82850","","null","","","","offerFB","","<div class='trialBorder'><div class='vertical-center'><img style='vertical-align:center; align:center' src=img/fixation3.jpg></div><div class='cl'><div class='vertical-center'>$85<br>in<br>12 weeks</div></div><div class='cr'><div class='vertical-center'><font style='color:orange'>$80<br><br>now</font></div></div><div class='respDivL'><div class='vertical-center'>(E)</div></div><div class='respDivR'><div class='vertical-center'><font style='color:orange'>(I)</font></div></div></div>","null","$80<br><br>now","$85<br>in<br>12 weeks","1","80","85","12",""
"html-keyboard-response","31","44514","0.0-5.0-1.9","63d1b93d9abc8c4b40e2d92f","bdp_td","Mon Mar 27 2023 11:10:11 GMT-0500 (Central Daylight Time)","82850","","null","","","","FIX","","<div class='trialBorder'><div class='vertical-center'><img style='vertical-align:center; align:center' src=img/fixation3.jpg></div></div>","null","","","","","","",""
"html-keyboard-response","32","46253","0.0-5.0-2.9","63d1b93d9abc8c4b40e2d92f","bdp_td","Mon Mar 27 2023 11:10:11 GMT-0500 (Central Daylight Time)","82850","","1737","","","","offer","","<div class='trialBorder'><div class='vertical-center'><img style='vertical-align:center; align:center' src=img/fixation3.jpg></div><div class='cl'><div class='vertical-center'>$55<br>in<br>12 weeks</div></div><div class='cr'><div class='vertical-center'>$54<br><br>now</div></div><div class='respDivL'><div class='vertical-center'>(E)</div></div><div class='respDivR'><div class='vertical-center'>(I)</div></div></div>","I","$54<br><br>now","$55<br>in<br>12 weeks","1","54","55","12","NOW"
"html-keyboard-response","33","46505","0.0-5.0-3.9","63d1b93d9abc8c4b40e2d92f","bdp_td","Mon Mar 27 2023 11:10:11 GMT-0500 (Central Daylight Time)","82850","","null","","","","offerFB","","<div class='trialBorder'><div class='vertical-center'><img style='vertical-align:center; align:center' src=img/fixation3.jpg></div><div class='cl'><div class='vertical-center'>$55<br>in<br>12 weeks</div></div><div class='cr'><div class='vertical-center'><font style='color:orange'>$54<br><br>now</font></div></div><div class='respDivL'><div class='vertical-center'>(E)</div></div><div class='respDivR'><div class='vertical-center'><font style='color:orange'>(I)</font></div></div></div>","null","$54<br><br>now","$55<br>in<br>12 weeks","1","54","55","12",""
"html-keyboard-response","34","47008","0.0-5.0-1.10","63d1b93d9abc8c4b40e2d92f","bdp_td","Mon Mar 27 2023 11:10:11 GMT-0500 (Central Daylight Time)","82850","","null","","","","FIX","","<div class='trialBorder'><div class='vertical-center'><img style='vertical-align:center; align:center' src=img/fixation3.jpg></div></div>","null","","","","","","",""
"html-keyboard-response","35","48356","0.0-5.0-2.10","63d1b93d9abc8c4b40e2d92f","bdp_td","Mon Mar 27 2023 11:10:11 GMT-0500 (Central Daylight Time)","82850","","1347","","","","offer","","<div class='trialBorder'><div class='vertical-center'><img style='vertical-align:center; align:center' src=img/fixation3.jpg></div><div class='cl'><div class='vertical-center'>$67<br><br>now</div></div><div class='cr'><div class='vertical-center'>$75<br>in<br>12 weeks</div></div><div class='respDivL'><div class='vertical-center'>(E)</div></div><div class='respDivR'><div class='vertical-center'>(I)</div></div></div>","E","$67<br><br>now","$75<br>in<br>12 weeks","0","67","75","12","NOW"
"html-keyboard-response","36","48608","0.0-5.0-3.10","63d1b93d9abc8c4b40e2d92f","bdp_td","Mon Mar 27 2023 11:10:11 GMT-0500 (Central Daylight Time)","82850","","null","","","","offerFB","","<div class='trialBorder'><div class='vertical-center'><img style='vertical-align:center; align:center' src=img/fixation3.jpg></div><div class='cl'><div class='vertical-center'><font style='color:orange'>$67<br><br>now</font></div></div><div class='cr'><div class='vertical-center'>$75<br>in<br>12 weeks</div></div><div class='respDivL'><div class='vertical-center'><font style='color:orange'>(E)</font></div></div><div class='respDivR'><div class='vertical-center'>(I)</div></div></div>","null","$67<br><br>now","$75<br>in<br>12 weeks","0","67","75","12",""
"html-keyboard-response","37","49110","0.0-5.0-1.11","63d1b93d9abc8c4b40e2d92f","bdp_td","Mon Mar 27 2023 11:10:11 GMT-0500 (Central Daylight Time)","82850","","null","","","","FIX","","<div class='trialBorder'><div class='vertical-center'><img style='vertical-align:center; align:center' src=img/fixation3.jpg></div></div>","null","","","","","","",""
"html-keyboard-response","38","51209","0.0-5.0-2.11","63d1b93d9abc8c4b40e2d92f","bdp_td","Mon Mar 27 2023 11:10:11 GMT-0500 (Central Daylight Time)","82850","","2097","","","","offer","","<div class='trialBorder'><div class='vertical-center'><img style='vertical-align:center; align:center' src=img/fixation3.jpg></div><div class='cl'><div class='vertical-center'>$14<br><br>now</div></div><div class='cr'><div class='vertical-center'>$25<br>in<br>3 weeks</div></div><div class='respDivL'><div class='vertical-center'>(E)</div></div><div class='respDivR'><div class='vertical-center'>(I)</div></div></div>","E","$14<br><br>now","$25<br>in<br>3 weeks","0","14","25","3","NOW"
"html-keyboard-response","39","51462","0.0-5.0-3.11","63d1b93d9abc8c4b40e2d92f","bdp_td","Mon Mar 27 2023 11:10:11 GMT-0500 (Central Daylight Time)","82850","","null","","","","offerFB","","<div class='trialBorder'><div class='vertical-center'><img style='vertical-align:center; align:center' src=img/fixation3.jpg></div><div class='cl'><div class='vertical-center'><font style='color:orange'>$14<br><br>now</font></div></div><div class='cr'><div class='vertical-center'>$25<br>in<br>3 weeks</div></div><div class='respDivL'><div class='vertical-center'><font style='color:orange'>(E)</font></div></div><div class='respDivR'><div class='vertical-center'>(I)</div></div></div>","null","$14<br><br>now","$25<br>in<br>3 weeks","0","14","25","3",""
"html-keyboard-response","40","51964","0.0-5.0-1.12","63d1b93d9abc8c4b40e2d92f","bdp_td","Mon Mar 27 2023 11:10:11 GMT-0500 (Central Daylight Time)","82850","","null","","","","FIX","","<div class='trialBorder'><div class='vertical-center'><img style='vertical-align:center; align:center' src=img/fixation3.jpg></div></div>","null","","","","","","",""
"html-keyboard-response","41","53175","0.0-5.0-2.12","63d1b93d9abc8c4b40e2d92f","bdp_td","Mon Mar 27 2023 11:10:11 GMT-0500 (Central Daylight Time)","82850","","1210","","","","offer","","<div class='trialBorder'><div class='vertical-center'><img style='vertical-align:center; align:center' src=img/fixation3.jpg></div><div class='cl'><div class='vertical-center'>$22<br><br>now</div></div><div class='cr'><div class='vertical-center'>$25<br>in<br>12 weeks</div></div><div class='respDivL'><div class='vertical-center'>(E)</div></div><div class='respDivR'><div class='vertical-center'>(I)</div></div></div>","E","$22<br><br>now","$25<br>in<br>12 weeks","0","22","25","12","NOW"
"html-keyboard-response","42","53429","0.0-5.0-3.12","63d1b93d9abc8c4b40e2d92f","bdp_td","Mon Mar 27 2023 11:10:11 GMT-0500 (Central Daylight Time)","82850","","null","","","","offerFB","","<div class='trialBorder'><div class='vertical-center'><img style='vertical-align:center; align:center' src=img/fixation3.jpg></div><div class='cl'><div class='vertical-center'><font style='color:orange'>$22<br><br>now</font></div></div><div class='cr'><div class='vertical-center'>$25<br>in<br>12 weeks</div></div><div class='respDivL'><div class='vertical-center'><font style='color:orange'>(E)</font></div></div><div class='respDivR'><div class='vertical-center'>(I)</div></div></div>","null","$22<br><br>now","$25<br>in<br>12 weeks","0","22","25","12",""
"html-keyboard-response","43","53931","0.0-5.0-1.13","63d1b93d9abc8c4b40e2d92f","bdp_td","Mon Mar 27 2023 11:10:11 GMT-0500 (Central Daylight Time)","82850","","null","","","","FIX","","<div class='trialBorder'><div class='vertical-center'><img style='vertical-align:center; align:center' src=img/fixation3.jpg></div></div>","null","","","","","","",""
"html-keyboard-response","44","55016","0.0-5.0-2.13","63d1b93d9abc8c4b40e2d92f","bdp_td","Mon Mar 27 2023 11:10:11 GMT-0500 (Central Daylight Time)","82850","","1084","","","","offer","","<div class='trialBorder'><div class='vertical-center'><img style='vertical-align:center; align:center' src=img/fixation3.jpg></div><div class='cl'><div class='vertical-center'>$80<br>in<br>12 weeks</div></div><div class='cr'><div class='vertical-center'>$78<br><br>now</div></div><div class='respDivL'><div class='vertical-center'>(E)</div></div><div class='respDivR'><div class='vertical-center'>(I)</div></div></div>","I","$78<br><br>now","$80<br>in<br>12 weeks","1","78","80","12","NOW"
"html-keyboard-response","45","55269","0.0-5.0-3.13","63d1b93d9abc8c4b40e2d92f","bdp_td","Mon Mar 27 2023 11:10:11 GMT-0500 (Central Daylight Time)","82850","","null","","","","offerFB","","<div class='trialBorder'><div class='vertical-center'><img style='vertical-align:center; align:center' src=img/fixation3.jpg></div><div class='cl'><div class='vertical-center'>$80<br>in<br>12 weeks</div></div><div class='cr'><div class='vertical-center'><font style='color:orange'>$78<br><br>now</font></div></div><div class='respDivL'><div class='vertical-center'>(E)</div></div><div class='respDivR'><div class='vertical-center'><font style='color:orange'>(I)</font></div></div></div>","null","$78<br><br>now","$80<br>in<br>12 weeks","1","78","80","12",""
"html-keyboard-response","46","55772","0.0-5.0-1.14","63d1b93d9abc8c4b40e2d92f","bdp_td","Mon Mar 27 2023 11:10:11 GMT-0500 (Central Daylight Time)","82850","","null","","","","FIX","","<div class='trialBorder'><div class='vertical-center'><img style='vertical-align:center; align:center' src=img/fixation3.jpg></div></div>","null","","","","","","",""
"html-keyboard-response","47","56764","0.0-5.0-2.14","63d1b93d9abc8c4b40e2d92f","bdp_td","Mon Mar 27 2023 11:10:11 GMT-0500 (Central Daylight Time)","82850","","991","","","","offer","","<div class='trialBorder'><div class='vertical-center'><img style='vertical-align:center; align:center' src=img/fixation3.jpg></div><div class='cl'><div class='vertical-center'>$47<br><br>now</div></div><div class='cr'><div class='vertical-center'>$50<br>in<br>12 weeks</div></div><div class='respDivL'><div class='vertical-center'>(E)</div></div><div class='respDivR'><div class='vertical-center'>(I)</div></div></div>","E","$47<br><br>now","$50<br>in<br>12 weeks","0","47","50","12","NOW"
"html-keyboard-response","48","57016","0.0-5.0-3.14","63d1b93d9abc8c4b40e2d92f","bdp_td","Mon Mar 27 2023 11:10:11 GMT-0500 (Central Daylight Time)","82850","","null","","","","offerFB","","<div class='trialBorder'><div class='vertical-center'><img style='vertical-align:center; align:center' src=img/fixation3.jpg></div><div class='cl'><div class='vertical-center'><font style='color:orange'>$47<br><br>now</font></div></div><div class='cr'><div class='vertical-center'>$50<br>in<br>12 weeks</div></div><div class='respDivL'><div class='vertical-center'><font style='color:orange'>(E)</font></div></div><div class='respDivR'><div class='vertical-center'>(I)</div></div></div>","null","$47<br><br>now","$50<br>in<br>12 weeks","0","47","50","12",""
"html-keyboard-response","49","57519","0.0-5.0-1.15","63d1b93d9abc8c4b40e2d92f","bdp_td","Mon Mar 27 2023 11:10:11 GMT-0500 (Central Daylight Time)","82850","","null","","","","FIX","","<div class='trialBorder'><div class='vertical-center'><img style='vertical-align:center; align:center' src=img/fixation3.jpg></div></div>","null","","","","","","",""
"html-keyboard-response","50","58477","0.0-5.0-2.15","63d1b93d9abc8c4b40e2d92f","bdp_td","Mon Mar 27 2023 11:10:11 GMT-0500 (Central Daylight Time)","82850","","957","","","","offer","","<div class='trialBorder'><div class='vertical-center'><img style='vertical-align:center; align:center' src=img/fixation3.jpg></div><div class='cl'><div class='vertical-center'>$55<br><br>now</div></div><div class='cr'><div class='vertical-center'>$75<br>in<br>6 weeks</div></div><div class='respDivL'><div class='vertical-center'>(E)</div></div><div class='respDivR'><div class='vertical-center'>(I)</div></div></div>","E","$55<br><br>now","$75<br>in<br>6 weeks","0","55","75","6","NOW"
"html-keyboard-response","51","58729","0.0-5.0-3.15","63d1b93d9abc8c4b40e2d92f","bdp_td","Mon Mar 27 2023 11:10:11 GMT-0500 (Central Daylight Time)","82850","","null","","","","offerFB","","<div class='trialBorder'><div class='vertical-center'><img style='vertical-align:center; align:center' src=img/fixation3.jpg></div><div class='cl'><div class='vertical-center'><font style='color:orange'>$55<br><br>now</font></div></div><div class='cr'><div class='vertical-center'>$75<br>in<br>6 weeks</div></div><div class='respDivL'><div class='vertical-center'><font style='color:orange'>(E)</font></div></div><div class='respDivR'><div class='vertical-center'>(I)</div></div></div>","null","$55<br><br>now","$75<br>in<br>6 weeks","0","55","75","6",""
"html-keyboard-response","52","59232","0.0-5.0-1.16","63d1b93d9abc8c4b40e2d92f","bdp_td","Mon Mar 27 2023 11:10:11 GMT-0500 (Central Daylight Time)","82850","","null","","","","FIX","","<div class='trialBorder'><div class='vertical-center'><img style='vertical-align:center; align:center' src=img/fixation3.jpg></div></div>","null","","","","","","",""
"html-keyboard-response","53","61030","0.0-5.0-2.16","63d1b93d9abc8c4b40e2d92f","bdp_td","Mon Mar 27 2023 11:10:11 GMT-0500 (Central Daylight Time)","82850","","1796","","","","offer","","<div class='trialBorder'><div class='vertical-center'><img style='vertical-align:center; align:center' src=img/fixation3.jpg></div><div class='cl'><div class='vertical-center'>$80<br>in<br>2 weeks</div></div><div class='cr'><div class='vertical-center'>$33<br><br>now</div></div><div class='respDivL'><div class='vertical-center'>(E)</div></div><div class='respDivR'><div class='vertical-center'>(I)</div></div></div>","E","$33<br><br>now","$80<br>in<br>2 weeks","1","33","80","2","THEN"
"html-keyboard-response","54","61283","0.0-5.0-3.16","63d1b93d9abc8c4b40e2d92f","bdp_td","Mon Mar 27 2023 11:10:11 GMT-0500 (Central Daylight Time)","82850","","null","","","","offerFB","","<div class='trialBorder'><div class='vertical-center'><img style='vertical-align:center; align:center' src=img/fixation3.jpg></div><div class='cl'><div class='vertical-center'><font style='color:orange'>$80<br>in<br>2 weeks</font></div></div><div class='cr'><div class='vertical-center'>$33<br><br>now</div></div><div class='respDivL'><div class='vertical-center'><font style='color:orange'>(E)</font></div></div><div class='respDivR'><div class='vertical-center'>(I)</div></div></div>","null","$33<br><br>now","$80<br>in<br>2 weeks","1","33","80","2",""
"html-keyboard-response","55","61786","0.0-5.0-1.17","63d1b93d9abc8c4b40e2d92f","bdp_td","Mon Mar 27 2023 11:10:11 GMT-0500 (Central Daylight Time)","82850","","null","","","","FIX","","<div class='trialBorder'><div class='vertical-center'><img style='vertical-align:center; align:center' src=img/fixation3.jpg></div></div>","null","","","","","","",""
"html-keyboard-response","56","62823","0.0-5.0-2.17","63d1b93d9abc8c4b40e2d92f","bdp_td","Mon Mar 27 2023 11:10:11 GMT-0500 (Central Daylight Time)","82850","","1035","","","","offer","","<div class='trialBorder'><div class='vertical-center'><img style='vertical-align:center; align:center' src=img/fixation3.jpg></div><div class='cl'><div class='vertical-center'>$34<br><br>now</div></div><div class='cr'><div class='vertical-center'>$35<br>in<br>12 weeks</div></div><div class='respDivL'><div class='vertical-center'>(E)</div></div><div class='respDivR'><div class='vertical-center'>(I)</div></div></div>","E","$34<br><br>now","$35<br>in<br>12 weeks","0","34","35","12","NOW"
"html-keyboard-response","57","63076","0.0-5.0-3.17","63d1b93d9abc8c4b40e2d92f","bdp_td","Mon Mar 27 2023 11:10:11 GMT-0500 (Central Daylight Time)","82850","","null","","","","offerFB","","<div class='trialBorder'><div class='vertical-center'><img style='vertical-align:center; align:center' src=img/fixation3.jpg></div><div class='cl'><div class='vertical-center'><font style='color:orange'>$34<br><br>now</font></div></div><div class='cr'><div class='vertical-center'>$35<br>in<br>12 weeks</div></div><div class='respDivL'><div class='vertical-center'><font style='color:orange'>(E)</font></div></div><div class='respDivR'><div class='vertical-center'>(I)</div></div></div>","null","$34<br><br>now","$35<br>in<br>12 weeks","0","34","35","12",""
"html-keyboard-response","58","63579","0.0-5.0-1.18","63d1b93d9abc8c4b40e2d92f","bdp_td","Mon Mar 27 2023 11:10:11 GMT-0500 (Central Daylight Time)","82850","","null","","","","FIX","","<div class='trialBorder'><div class='vertical-center'><img style='vertical-align:center; align:center' src=img/fixation3.jpg></div></div>","null","","","","","","",""
"html-keyboard-response","59","64519","0.0-5.0-2.18","63d1b93d9abc8c4b40e2d92f","bdp_td","Mon Mar 27 2023 11:10:11 GMT-0500 (Central Daylight Time)","82850","","939","","","","offer","","<div class='trialBorder'><div class='vertical-center'><img style='vertical-align:center; align:center' src=img/fixation3.jpg></div><div class='cl'><div class='vertical-center'>$60<br>in<br>3 weeks</div></div><div class='cr'><div class='vertical-center'>$25<br><br>now</div></div><div class='respDivL'><div class='vertical-center'>(E)</div></div><div class='respDivR'><div class='vertical-center'>(I)</div></div></div>","I","$25<br><br>now","$60<br>in<br>3 weeks","1","25","60","3","NOW"
"html-keyboard-response","60","64774","0.0-5.0-3.18","63d1b93d9abc8c4b40e2d92f","bdp_td","Mon Mar 27 2023 11:10:11 GMT-0500 (Central Daylight Time)","82850","","null","","","","offerFB","","<div class='trialBorder'><div class='vertical-center'><img style='vertical-align:center; align:center' src=img/fixation3.jpg></div><div class='cl'><div class='vertical-center'>$60<br>in<br>3 weeks</div></div><div class='cr'><div class='vertical-center'><font style='color:orange'>$25<br><br>now</font></div></div><div class='respDivL'><div class='vertical-center'>(E)</div></div><div class='respDivR'><div class='vertical-center'><font style='color:orange'>(I)</font></div></div></div>","null","$25<br><br>now","$60<br>in<br>3 weeks","1","25","60","3",""
"html-keyboard-response","61","65276","0.0-5.0-1.19","63d1b93d9abc8c4b40e2d92f","bdp_td","Mon Mar 27 2023 11:10:11 GMT-0500 (Central Daylight Time)","82850","","null","","","","FIX","","<div class='trialBorder'><div class='vertical-center'><img style='vertical-align:center; align:center' src=img/fixation3.jpg></div></div>","null","","","","","","",""
"html-keyboard-response","62","67392","0.0-5.0-2.19","63d1b93d9abc8c4b40e2d92f","bdp_td","Mon Mar 27 2023 11:10:11 GMT-0500 (Central Daylight Time)","82850","","2113","","","","offer","","<div class='trialBorder'><div class='vertical-center'><img style='vertical-align:center; align:center' src=img/fixation3.jpg></div><div class='cl'><div class='vertical-center'>$31<br><br>now</div></div><div class='cr'><div class='vertical-center'>$85<br>in<br>1 week</div></div><div class='respDivL'><div class='vertical-center'>(E)</div></div><div class='respDivR'><div class='vertical-center'>(I)</div></div></div>","I","$31<br><br>now","$85<br>in<br>1 week","0","31","85","1","THEN"
"html-keyboard-response","63","67645","0.0-5.0-3.19","63d1b93d9abc8c4b40e2d92f","bdp_td","Mon Mar 27 2023 11:10:11 GMT-0500 (Central Daylight Time)","82850","","null","","","","offerFB","","<div class='trialBorder'><div class='vertical-center'><img style='vertical-align:center; align:center' src=img/fixation3.jpg></div><div class='cl'><div class='vertical-center'>$31<br><br>now</div></div><div class='cr'><div class='vertical-center'><font style='color:orange'>$85<br>in<br>1 week</font></div></div><div class='respDivL'><div class='vertical-center'>(E)</div></div><div class='respDivR'><div class='vertical-center'><font style='color:orange'>(I)</font></div></div></div>","null","$31<br><br>now","$85<br>in<br>1 week","0","31","85","1",""
"html-keyboard-response","64","68148","0.0-5.0-1.20","63d1b93d9abc8c4b40e2d92f","bdp_td","Mon Mar 27 2023 11:10:11 GMT-0500 (Central Daylight Time)","82850","","null","","","","FIX","","<div class='trialBorder'><div class='vertical-center'><img style='vertical-align:center; align:center' src=img/fixation3.jpg></div></div>","null","","","","","","",""
"html-keyboard-response","65","69862","0.0-5.0-2.20","63d1b93d9abc8c4b40e2d92f","bdp_td","Mon Mar 27 2023 11:10:11 GMT-0500 (Central Daylight Time)","82850","","1713","","","","offer","","<div class='trialBorder'><div class='vertical-center'><img style='vertical-align:center; align:center' src=img/fixation3.jpg></div><div class='cl'><div class='vertical-center'>$15<br><br>now</div></div><div class='cr'><div class='vertical-center'>$35<br>in<br>2 weeks</div></div><div class='respDivL'><div class='vertical-center'>(E)</div></div><div class='respDivR'><div class='vertical-center'>(I)</div></div></div>","I","$15<br><br>now","$35<br>in<br>2 weeks","0","15","35","2","THEN"
"html-keyboard-response","66","70114","0.0-5.0-3.20","63d1b93d9abc8c4b40e2d92f","bdp_td","Mon Mar 27 2023 11:10:11 GMT-0500 (Central Daylight Time)","82850","","null","","","","offerFB","","<div class='trialBorder'><div class='vertical-center'><img style='vertical-align:center; align:center' src=img/fixation3.jpg></div><div class='cl'><div class='vertical-center'>$15<br><br>now</div></div><div class='cr'><div class='vertical-center'><font style='color:orange'>$35<br>in<br>2 weeks</font></div></div><div class='respDivL'><div class='vertical-center'>(E)</div></div><div class='respDivR'><div class='vertical-center'><font style='color:orange'>(I)</font></div></div></div>","null","$15<br><br>now","$35<br>in<br>2 weeks","0","15","35","2",""
"html-keyboard-response","67","70616","0.0-5.0-1.21","63d1b93d9abc8c4b40e2d92f","bdp_td","Mon Mar 27 2023 11:10:11 GMT-0500 (Central Daylight Time)","82850","","null","","","","FIX","","<div class='trialBorder'><div class='vertical-center'><img style='vertical-align:center; align:center' src=img/fixation3.jpg></div></div>","null","","","","","","",""
"html-keyboard-response","68","71679","0.0-5.0-2.21","63d1b93d9abc8c4b40e2d92f","bdp_td","Mon Mar 27 2023 11:10:11 GMT-0500 (Central Daylight Time)","82850","","1062","","","","offer","","<div class='trialBorder'><div class='vertical-center'><img style='vertical-align:center; align:center' src=img/fixation3.jpg></div><div class='cl'><div class='vertical-center'>$19<br><br>now</div></div><div class='cr'><div class='vertical-center'>$25<br>in<br>6 weeks</div></div><div class='respDivL'><div class='vertical-center'>(E)</div></div><div class='respDivR'><div class='vertical-center'>(I)</div></div></div>","E","$19<br><br>now","$25<br>in<br>6 weeks","0","19","25","6","NOW"
"html-keyboard-response","69","71932","0.0-5.0-3.21","63d1b93d9abc8c4b40e2d92f","bdp_td","Mon Mar 27 2023 11:10:11 GMT-0500 (Central Daylight Time)","82850","","null","","","","offerFB","","<div class='trialBorder'><div class='vertical-center'><img style='vertical-align:center; align:center' src=img/fixation3.jpg></div><div class='cl'><div class='vertical-center'><font style='color:orange'>$19<br><br>now</font></div></div><div class='cr'><div class='vertical-center'>$25<br>in<br>6 weeks</div></div><div class='respDivL'><div class='vertical-center'><font style='color:orange'>(E)</font></div></div><div class='respDivR'><div class='vertical-center'>(I)</div></div></div>","null","$19<br><br>now","$25<br>in<br>6 weeks","0","19","25","6",""
"html-keyboard-response","70","72435","0.0-5.0-1.22","63d1b93d9abc8c4b40e2d92f","bdp_td","Mon Mar 27 2023 11:10:11 GMT-0500 (Central Daylight Time)","82850","","null","","","","FIX","","<div class='trialBorder'><div class='vertical-center'><img style='vertical-align:center; align:center' src=img/fixation3.jpg></div></div>","null","","","","","","",""
"html-keyboard-response","71","73791","0.0-5.0-2.22","63d1b93d9abc8c4b40e2d92f","bdp_td","Mon Mar 27 2023 11:10:11 GMT-0500 (Central Daylight Time)","82850","","1353","","","","offer","","<div class='trialBorder'><div class='vertical-center'><img style='vertical-align:center; align:center' src=img/fixation3.jpg></div><div class='cl'><div class='vertical-center'>$54<br><br>now</div></div><div class='cr'><div class='vertical-center'>$60<br>in<br>12 weeks</div></div><div class='respDivL'><div class='vertical-center'>(E)</div></div><div class='respDivR'><div class='vertical-center'>(I)</div></div></div>","E","$54<br><br>now","$60<br>in<br>12 weeks","0","54","60","12","NOW"
"html-keyboard-response","72","74043","0.0-5.0-3.22","63d1b93d9abc8c4b40e2d92f","bdp_td","Mon Mar 27 2023 11:10:11 GMT-0500 (Central Daylight Time)","82850","","null","","","","offerFB","","<div class='trialBorder'><div class='vertical-center'><img style='vertical-align:center; align:center' src=img/fixation3.jpg></div><div class='cl'><div class='vertical-center'><font style='color:orange'>$54<br><br>now</font></div></div><div class='cr'><div class='vertical-center'>$60<br>in<br>12 weeks</div></div><div class='respDivL'><div class='vertical-center'><font style='color:orange'>(E)</font></div></div><div class='respDivR'><div class='vertical-center'>(I)</div></div></div>","null","$54<br><br>now","$60<br>in<br>12 weeks","0","54","60","12",""
"html-keyboard-response","73","74546","0.0-5.0-1.23","63d1b93d9abc8c4b40e2d92f","bdp_td","Mon Mar 27 2023 11:10:11 GMT-0500 (Central Daylight Time)","82850","","null","","","","FIX","","<div class='trialBorder'><div class='vertical-center'><img style='vertical-align:center; align:center' src=img/fixation3.jpg></div></div>","null","","","","","","",""
"html-keyboard-response","74","76071","0.0-5.0-2.23","63d1b93d9abc8c4b40e2d92f","bdp_td","Mon Mar 27 2023 11:10:11 GMT-0500 (Central Daylight Time)","82850","","1523","","","","offer","","<div class='trialBorder'><div class='vertical-center'><img style='vertical-align:center; align:center' src=img/fixation3.jpg></div><div class='cl'><div class='vertical-center'>$80<br>in<br>3 weeks</div></div><div class='cr'><div class='vertical-center'>$54<br><br>now</div></div><div class='respDivL'><div class='vertical-center'>(E)</div></div><div class='respDivR'><div class='vertical-center'>(I)</div></div></div>","I","$54<br><br>now","$80<br>in<br>3 weeks","1","54","80","3","NOW"
"html-keyboard-response","75","76323","0.0-5.0-3.23","63d1b93d9abc8c4b40e2d92f","bdp_td","Mon Mar 27 2023 11:10:11 GMT-0500 (Central Daylight Time)","82850","","null","","","","offerFB","","<div class='trialBorder'><div class='vertical-center'><img style='vertical-align:center; align:center' src=img/fixation3.jpg></div><div class='cl'><div class='vertical-center'>$80<br>in<br>3 weeks</div></div><div class='cr'><div class='vertical-center'><font style='color:orange'>$54<br><br>now</font></div></div><div class='respDivL'><div class='vertical-center'>(E)</div></div><div class='respDivR'><div class='vertical-center'><font style='color:orange'>(I)</font></div></div></div>","null","$54<br><br>now","$80<br>in<br>3 weeks","1","54","80","3",""
"html-keyboard-response","76","76824","0.0-5.0-1.24","63d1b93d9abc8c4b40e2d92f","bdp_td","Mon Mar 27 2023 11:10:11 GMT-0500 (Central Daylight Time)","82850","","null","","","","FIX","","<div class='trialBorder'><div class='vertical-center'><img style='vertical-align:center; align:center' src=img/fixation3.jpg></div></div>","null","","","","","","",""
"html-keyboard-response","77","78104","0.0-5.0-2.24","63d1b93d9abc8c4b40e2d92f","bdp_td","Mon Mar 27 2023 11:10:11 GMT-0500 (Central Daylight Time)","82850","","1278","","","","offer","","<div class='trialBorder'><div class='vertical-center'><img style='vertical-align:center; align:center' src=img/fixation3.jpg></div><div class='cl'><div class='vertical-center'>$30<br>in<br>12 weeks</div></div><div class='cr'><div class='vertical-center'>$28<br><br>now</div></div><div class='respDivL'><div class='vertical-center'>(E)</div></div><div class='respDivR'><div class='vertical-center'>(I)</div></div></div>","I","$28<br><br>now","$30<br>in<br>12 weeks","1","28","30","12","NOW"
"html-keyboard-response","78","78357","0.0-5.0-3.24","63d1b93d9abc8c4b40e2d92f","bdp_td","Mon Mar 27 2023 11:10:11 GMT-0500 (Central Daylight Time)","82850","","null","","","","offerFB","","<div class='trialBorder'><div class='vertical-center'><img style='vertical-align:center; align:center' src=img/fixation3.jpg></div><div class='cl'><div class='vertical-center'>$30<br>in<br>12 weeks</div></div><div class='cr'><div class='vertical-center'><font style='color:orange'>$28<br><br>now</font></div></div><div class='respDivL'><div class='vertical-center'>(E)</div></div><div class='respDivR'><div class='vertical-center'><font style='color:orange'>(I)</font></div></div></div>","null","$28<br><br>now","$30<br>in<br>12 weeks","1","28","30","12",""
"html-keyboard-response","79","78859","0.0-5.0-1.25","63d1b93d9abc8c4b40e2d92f","bdp_td","Mon Mar 27 2023 11:10:11 GMT-0500 (Central Daylight Time)","82850","","null","","","","FIX","","<div class='trialBorder'><div class='vertical-center'><img style='vertical-align:center; align:center' src=img/fixation3.jpg></div></div>","null","","","","","","",""
"html-keyboard-response","80","79990","0.0-5.0-2.25","63d1b93d9abc8c4b40e2d92f","bdp_td","Mon Mar 27 2023 11:10:11 GMT-0500 (Central Daylight Time)","82850","","1130","","","","offer","","<div class='trialBorder'><div class='vertical-center'><img style='vertical-align:center; align:center' src=img/fixation3.jpg></div><div class='cl'><div class='vertical-center'>$24<br><br>now</div></div><div class='cr'><div class='vertical-center'>$35<br>in<br>3 weeks</div></div><div class='respDivL'><div class='vertical-center'>(E)</div></div><div class='respDivR'><div class='vertical-center'>(I)</div></div></div>","E","$24<br><br>now","$35<br>in<br>3 weeks","0","24","35","3","NOW"
"html-keyboard-response","81","80243","0.0-5.0-3.25","63d1b93d9abc8c4b40e2d92f","bdp_td","Mon Mar 27 2023 11:10:11 GMT-0500 (Central Daylight Time)","82850","","null","","","","offerFB","","<div class='trialBorder'><div class='vertical-center'><img style='vertical-align:center; align:center' src=img/fixation3.jpg></div><div class='cl'><div class='vertical-center'><font style='color:orange'>$24<br><br>now</font></div></div><div class='cr'><div class='vertical-center'>$35<br>in<br>3 weeks</div></div><div class='respDivL'><div class='vertical-center'><font style='color:orange'>(E)</font></div></div><div class='respDivR'><div class='vertical-center'>(I)</div></div></div>","null","$24<br><br>now","$35<br>in<br>3 weeks","0","24","35","3",""
"html-keyboard-response","82","80744","0.0-5.0-1.26","63d1b93d9abc8c4b40e2d92f","bdp_td","Mon Mar 27 2023 11:10:11 GMT-0500 (Central Daylight Time)","82850","","null","","","","FIX","","<div class='trialBorder'><div class='vertical-center'><img style='vertical-align:center; align:center' src=img/fixation3.jpg></div></div>","null","","","","","","",""
"html-keyboard-response","83","81596","0.0-5.0-2.26","63d1b93d9abc8c4b40e2d92f","bdp_td","Mon Mar 27 2023 11:10:11 GMT-0500 (Central Daylight Time)","82850","","851","","","","offer","","<div class='trialBorder'><div class='vertical-center'><img style='vertical-align:center; align:center' src=img/fixation3.jpg></div><div class='cl'><div class='vertical-center'>$85<br>in<br>6 weeks</div></div><div class='cr'><div class='vertical-center'>$69<br><br>now</div></div><div class='respDivL'><div class='vertical-center'>(E)</div></div><div class='respDivR'><div class='vertical-center'>(I)</div></div></div>","I","$69<br><br>now","$85<br>in<br>6 weeks","1","69","85","6","NOW"
"html-keyboard-response","84","81847","0.0-5.0-3.26","63d1b93d9abc8c4b40e2d92f","bdp_td","Mon Mar 27 2023 11:10:11 GMT-0500 (Central Daylight Time)","82850","","null","","","","offerFB","","<div class='trialBorder'><div class='vertical-center'><img style='vertical-align:center; align:center' src=img/fixation3.jpg></div><div class='cl'><div class='vertical-center'>$85<br>in<br>6 weeks</div></div><div class='cr'><div class='vertical-center'><font style='color:orange'>$69<br><br>now</font></div></div><div class='respDivL'><div class='vertical-center'>(E)</div></div><div class='respDivR'><div class='vertical-center'><font style='color:orange'>(I)</font></div></div></div>","null","$69<br><br>now","$85<br>in<br>6 weeks","1","69","85","6",""
"","","","","63d1b93d9abc8c4b40e2d92f","bdp_td","Mon Mar 27 2023 11:10:11 GMT-0500 (Central Daylight Time)","82850","","","fullscreenexit","85","81879","fullscreenexit","","","","","","","","","",""
"fullscreen","85","82849","0.0-6.0","63d1b93d9abc8c4b40e2d92f","bdp_td","Mon Mar 27 2023 11:10:11 GMT-0500 (Central Daylight Time)","82850","","","","","","","true","","","","","","","","",""
"html-keyboard-response","86","83351","0.0-7.0","","","","","","null","","","","","","","null","","","","","","",""
