"trial_type","trial_index","time_elapsed","internal_node_id","subject_id","task","startTime","totalTime","view_history","rt","event","trial","time","trialtype","success","stimulus","key_press","nowOffer","thenOffer","thenLeft","nowAmt","thenAmt","thenWeeks","chosen"
"pavlovia","0","2","0.0-0.0","610940bbdb7795c3be364375","bdp_td","Mon Mar 27 2023 09:21:25 GMT-0500 (Central Daylight Time)","94286","","","","","","","","","","","","","","","",""
"instructions","1","1778","0.0-1.0","610940bbdb7795c3be364375","bdp_td","Mon Mar 27 2023 09:21:25 GMT-0500 (Central Daylight Time)","94286","[{""page_index"":0,""viewing_time"":1776}]","1776","","","","","","","","","","","","","",""
"","","","","610940bbdb7795c3be364375","bdp_td","Mon Mar 27 2023 09:21:25 GMT-0500 (Central Daylight Time)","94286","","","fullscreenenter","2","4723","fullscreenenter","","","","","","","","","",""
"fullscreen","2","5715","0.0-2.0","610940bbdb7795c3be364375","bdp_td","Mon Mar 27 2023 09:21:25 GMT-0500 (Central Daylight Time)","94286","","","","","","","true","","","","","","","","",""
"instructions","3","13737","0.0-4.0","610940bbdb7795c3be364375","bdp_td","Mon Mar 27 2023 09:21:25 GMT-0500 (Central Daylight Time)","94286","[{""page_index"":0,""viewing_time"":4775},{""page_index"":1,""viewing_time"":2471},{""page_index"":2,""viewing_time"":776}]","8022","","","","","","","","","","","","","",""
"html-keyboard-response","4","14238","0.0-5.0-1.0","610940bbdb7795c3be364375","bdp_td","Mon Mar 27 2023 09:21:25 GMT-0500 (Central Daylight Time)","94286","","null","","","","FIX","","<div class='trialBorder'><div class='vertical-center'><img style='vertical-align:center; align:center' src=img/fixation3.jpg></div></div>","null","","","","","","",""
"html-keyboard-response","5","16281","0.0-5.0-2.0","610940bbdb7795c3be364375","bdp_td","Mon Mar 27 2023 09:21:25 GMT-0500 (Central Daylight Time)","94286","","2042","","","","offer","","<div class='trialBorder'><div class='vertical-center'><img style='vertical-align:center; align:center' src=img/fixation3.jpg></div><div class='cl'><div class='vertical-center'>$24<br><br>now</div></div><div class='cr'><div class='vertical-center'>$35<br>in<br>3 weeks</div></div><div class='respDivL'><div class='vertical-center'>(E)</div></div><div class='respDivR'><div class='vertical-center'>(I)</div></div></div>","E","$24<br><br>now","$35<br>in<br>3 weeks","0","24","35","3","NOW"
"html-keyboard-response","6","16532","0.0-5.0-3.0","610940bbdb7795c3be364375","bdp_td","Mon Mar 27 2023 09:21:25 GMT-0500 (Central Daylight Time)","94286","","null","","","","offerFB","","<div class='trialBorder'><div class='vertical-center'><img style='vertical-align:center; align:center' src=img/fixation3.jpg></div><div class='cl'><div class='vertical-center'><font style='color:orange'>$24<br><br>now</font></div></div><div class='cr'><div class='vertical-center'>$35<br>in<br>3 weeks</div></div><div class='respDivL'><div class='vertical-center'><font style='color:orange'>(E)</font></div></div><div class='respDivR'><div class='vertical-center'>(I)</div></div></div>","null","$24<br><br>now","$35<br>in<br>3 weeks","0","24","35","3",""
"html-keyboard-response","7","17034","0.0-5.0-1.1","610940bbdb7795c3be364375","bdp_td","Mon Mar 27 2023 09:21:25 GMT-0500 (Central Daylight Time)","94286","","null","","","","FIX","","<div class='trialBorder'><div class='vertical-center'><img style='vertical-align:center; align:center' src=img/fixation3.jpg></div></div>","null","","","","","","",""
"html-keyboard-response","8","18322","0.0-5.0-2.1","610940bbdb7795c3be364375","bdp_td","Mon Mar 27 2023 09:21:25 GMT-0500 (Central Daylight Time)","94286","","1288","","","","offer","","<div class='trialBorder'><div class='vertical-center'><img style='vertical-align:center; align:center' src=img/fixation3.jpg></div><div class='cl'><div class='vertical-center'>$28<br><br>now</div></div><div class='cr'><div class='vertical-center'>$30<br>in<br>12 weeks</div></div><div class='respDivL'><div class='vertical-center'>(E)</div></div><div class='respDivR'><div class='vertical-center'>(I)</div></div></div>","E","$28<br><br>now","$30<br>in<br>12 weeks","0","28","30","12","NOW"
"html-keyboard-response","9","18573","0.0-5.0-3.1","610940bbdb7795c3be364375","bdp_td","Mon Mar 27 2023 09:21:25 GMT-0500 (Central Daylight Time)","94286","","null","","","","offerFB","","<div class='trialBorder'><div class='vertical-center'><img style='vertical-align:center; align:center' src=img/fixation3.jpg></div><div class='cl'><div class='vertical-center'><font style='color:orange'>$28<br><br>now</font></div></div><div class='cr'><div class='vertical-center'>$30<br>in<br>12 weeks</div></div><div class='respDivL'><div class='vertical-center'><font style='color:orange'>(E)</font></div></div><div class='respDivR'><div class='vertical-center'>(I)</div></div></div>","null","$28<br><br>now","$30<br>in<br>12 weeks","0","28","30","12",""
"html-keyboard-response","10","19074","0.0-5.0-1.2","610940bbdb7795c3be364375","bdp_td","Mon Mar 27 2023 09:21:25 GMT-0500 (Central Daylight Time)","94286","","null","","","","FIX","","<div class='trialBorder'><div class='vertical-center'><img style='vertical-align:center; align:center' src=img/fixation3.jpg></div></div>","null","","","","","","",""
"html-keyboard-response","11","21266","0.0-5.0-2.2","610940bbdb7795c3be364375","bdp_td","Mon Mar 27 2023 09:21:25 GMT-0500 (Central Daylight Time)","94286","","2190","","","","offer","","<div class='trialBorder'><div class='vertical-center'><img style='vertical-align:center; align:center' src=img/fixation3.jpg></div><div class='cl'><div class='vertical-center'>$19<br><br>now</div></div><div class='cr'><div class='vertical-center'>$25<br>in<br>6 weeks</div></div><div class='respDivL'><div class='vertical-center'>(E)</div></div><div class='respDivR'><div class='vertical-center'>(I)</div></div></div>","E","$19<br><br>now","$25<br>in<br>6 weeks","0","19","25","6","NOW"
"html-keyboard-response","12","21517","0.0-5.0-3.2","610940bbdb7795c3be364375","bdp_td","Mon Mar 27 2023 09:21:25 GMT-0500 (Central Daylight Time)","94286","","null","","","","offerFB","","<div class='trialBorder'><div class='vertical-center'><img style='vertical-align:center; align:center' src=img/fixation3.jpg></div><div class='cl'><div class='vertical-center'><font style='color:orange'>$19<br><br>now</font></div></div><div class='cr'><div class='vertical-center'>$25<br>in<br>6 weeks</div></div><div class='respDivL'><div class='vertical-center'><font style='color:orange'>(E)</font></div></div><div class='respDivR'><div class='vertical-center'>(I)</div></div></div>","null","$19<br><br>now","$25<br>in<br>6 weeks","0","19","25","6",""
"html-keyboard-response","13","22019","0.0-5.0-1.3","610940bbdb7795c3be364375","bdp_td","Mon Mar 27 2023 09:21:25 GMT-0500 (Central Daylight Time)","94286","","null","","","","FIX","","<div class='trialBorder'><div class='vertical-center'><img style='vertical-align:center; align:center' src=img/fixation3.jpg></div></div>","null","","","","","","",""
"html-keyboard-response","14","23698","0.0-5.0-2.3","610940bbdb7795c3be364375","bdp_td","Mon Mar 27 2023 09:21:25 GMT-0500 (Central Daylight Time)","94286","","1678","","","","offer","","<div class='trialBorder'><div class='vertical-center'><img style='vertical-align:center; align:center' src=img/fixation3.jpg></div><div class='cl'><div class='vertical-center'>$85<br>in<br>12 weeks</div></div><div class='cr'><div class='vertical-center'>$80<br><br>now</div></div><div class='respDivL'><div class='vertical-center'>(E)</div></div><div class='respDivR'><div class='vertical-center'>(I)</div></div></div>","I","$80<br><br>now","$85<br>in<br>12 weeks","1","80","85","12","NOW"
"html-keyboard-response","15","23949","0.0-5.0-3.3","610940bbdb7795c3be364375","bdp_td","Mon Mar 27 2023 09:21:25 GMT-0500 (Central Daylight Time)","94286","","null","","","","offerFB","","<div class='trialBorder'><div class='vertical-center'><img style='vertical-align:center; align:center' src=img/fixation3.jpg></div><div class='cl'><div class='vertical-center'>$85<br>in<br>12 weeks</div></div><div class='cr'><div class='vertical-center'><font style='color:orange'>$80<br><br>now</font></div></div><div class='respDivL'><div class='vertical-center'>(E)</div></div><div class='respDivR'><div class='vertical-center'><font style='color:orange'>(I)</font></div></div></div>","null","$80<br><br>now","$85<br>in<br>12 weeks","1","80","85","12",""
"html-keyboard-response","16","24450","0.0-5.0-1.4","610940bbdb7795c3be364375","bdp_td","Mon Mar 27 2023 09:21:25 GMT-0500 (Central Daylight Time)","94286","","null","","","","FIX","","<div class='trialBorder'><div class='vertical-center'><img style='vertical-align:center; align:center' src=img/fixation3.jpg></div></div>","null","","","","","","",""
"html-keyboard-response","17","26849","0.0-5.0-2.4","610940bbdb7795c3be364375","bdp_td","Mon Mar 27 2023 09:21:25 GMT-0500 (Central Daylight Time)","94286","","2398","","","","offer","","<div class='trialBorder'><div class='vertical-center'><img style='vertical-align:center; align:center' src=img/fixation3.jpg></div><div class='cl'><div class='vertical-center'>$55<br>in<br>6 weeks</div></div><div class='cr'><div class='vertical-center'>$40<br><br>now</div></div><div class='respDivL'><div class='vertical-center'>(E)</div></div><div class='respDivR'><div class='vertical-center'>(I)</div></div></div>","I","$40<br><br>now","$55<br>in<br>6 weeks","1","40","55","6","NOW"
"html-keyboard-response","18","27100","0.0-5.0-3.4","610940bbdb7795c3be364375","bdp_td","Mon Mar 27 2023 09:21:25 GMT-0500 (Central Daylight Time)","94286","","null","","","","offerFB","","<div class='trialBorder'><div class='vertical-center'><img style='vertical-align:center; align:center' src=img/fixation3.jpg></div><div class='cl'><div class='vertical-center'>$55<br>in<br>6 weeks</div></div><div class='cr'><div class='vertical-center'><font style='color:orange'>$40<br><br>now</font></div></div><div class='respDivL'><div class='vertical-center'>(E)</div></div><div class='respDivR'><div class='vertical-center'><font style='color:orange'>(I)</font></div></div></div>","null","$40<br><br>now","$55<br>in<br>6 weeks","1","40","55","6",""
"html-keyboard-response","19","27601","0.0-5.0-1.5","610940bbdb7795c3be364375","bdp_td","Mon Mar 27 2023 09:21:25 GMT-0500 (Central Daylight Time)","94286","","null","","","","FIX","","<div class='trialBorder'><div class='vertical-center'><img style='vertical-align:center; align:center' src=img/fixation3.jpg></div></div>","null","","","","","","",""
"html-keyboard-response","20","29425","0.0-5.0-2.5","610940bbdb7795c3be364375","bdp_td","Mon Mar 27 2023 09:21:25 GMT-0500 (Central Daylight Time)","94286","","1823","","","","offer","","<div class='trialBorder'><div class='vertical-center'><img style='vertical-align:center; align:center' src=img/fixation3.jpg></div><div class='cl'><div class='vertical-center'>$31<br><br>now</div></div><div class='cr'><div class='vertical-center'>$85<br>in<br>1 week</div></div><div class='respDivL'><div class='vertical-center'>(E)</div></div><div class='respDivR'><div class='vertical-center'>(I)</div></div></div>","I","$31<br><br>now","$85<br>in<br>1 week","0","31","85","1","THEN"
"html-keyboard-response","21","29676","0.0-5.0-3.5","610940bbdb7795c3be364375","bdp_td","Mon Mar 27 2023 09:21:25 GMT-0500 (Central Daylight Time)","94286","","null","","","","offerFB","","<div class='trialBorder'><div class='vertical-center'><img style='vertical-align:center; align:center' src=img/fixation3.jpg></div><div class='cl'><div class='vertical-center'>$31<br><br>now</div></div><div class='cr'><div class='vertical-center'><font style='color:orange'>$85<br>in<br>1 week</font></div></div><div class='respDivL'><div class='vertical-center'>(E)</div></div><div class='respDivR'><div class='vertical-center'><font style='color:orange'>(I)</font></div></div></div>","null","$31<br><br>now","$85<br>in<br>1 week","0","31","85","1",""
"html-keyboard-response","22","30177","0.0-5.0-1.6","610940bbdb7795c3be364375","bdp_td","Mon Mar 27 2023 09:21:25 GMT-0500 (Central Daylight Time)","94286","","null","","","","FIX","","<div class='trialBorder'><div class='vertical-center'><img style='vertical-align:center; align:center' src=img/fixation3.jpg></div></div>","null","","","","","","",""
"html-keyboard-response","23","32241","0.0-5.0-2.6","610940bbdb7795c3be364375","bdp_td","Mon Mar 27 2023 09:21:25 GMT-0500 (Central Daylight Time)","94286","","2063","","","","offer","","<div class='trialBorder'><div class='vertical-center'><img style='vertical-align:center; align:center' src=img/fixation3.jpg></div><div class='cl'><div class='vertical-center'>$34<br><br>now</div></div><div class='cr'><div class='vertical-center'>$50<br>in<br>6 weeks</div></div><div class='respDivL'><div class='vertical-center'>(E)</div></div><div class='respDivR'><div class='vertical-center'>(I)</div></div></div>","E","$34<br><br>now","$50<br>in<br>6 weeks","0","34","50","6","NOW"
"html-keyboard-response","24","32492","0.0-5.0-3.6","610940bbdb7795c3be364375","bdp_td","Mon Mar 27 2023 09:21:25 GMT-0500 (Central Daylight Time)","94286","","null","","","","offerFB","","<div class='trialBorder'><div class='vertical-center'><img style='vertical-align:center; align:center' src=img/fixation3.jpg></div><div class='cl'><div class='vertical-center'><font style='color:orange'>$34<br><br>now</font></div></div><div class='cr'><div class='vertical-center'>$50<br>in<br>6 weeks</div></div><div class='respDivL'><div class='vertical-center'><font style='color:orange'>(E)</font></div></div><div class='respDivR'><div class='vertical-center'>(I)</div></div></div>","null","$34<br><br>now","$50<br>in<br>6 weeks","0","34","50","6",""
"html-keyboard-response","25","32993","0.0-5.0-1.7","610940bbdb7795c3be364375","bdp_td","Mon Mar 27 2023 09:21:25 GMT-0500 (Central Daylight Time)","94286","","null","","","","FIX","","<div class='trialBorder'><div class='vertical-center'><img style='vertical-align:center; align:center' src=img/fixation3.jpg></div></div>","null","","","","","","",""
"html-keyboard-response","26","34121","0.0-5.0-2.7","610940bbdb7795c3be364375","bdp_td","Mon Mar 27 2023 09:21:25 GMT-0500 (Central Daylight Time)","94286","","1127","","","","offer","","<div class='trialBorder'><div class='vertical-center'><img style='vertical-align:center; align:center' src=img/fixation3.jpg></div><div class='cl'><div class='vertical-center'>$75<br>in<br>6 weeks</div></div><div class='cr'><div class='vertical-center'>$55<br><br>now</div></div><div class='respDivL'><div class='vertical-center'>(E)</div></div><div class='respDivR'><div class='vertical-center'>(I)</div></div></div>","E","$55<br><br>now","$75<br>in<br>6 weeks","1","55","75","6","THEN"
"html-keyboard-response","27","34372","0.0-5.0-3.7","610940bbdb7795c3be364375","bdp_td","Mon Mar 27 2023 09:21:25 GMT-0500 (Central Daylight Time)","94286","","null","","","","offerFB","","<div class='trialBorder'><div class='vertical-center'><img style='vertical-align:center; align:center' src=img/fixation3.jpg></div><div class='cl'><div class='vertical-center'><font style='color:orange'>$75<br>in<br>6 weeks</font></div></div><div class='cr'><div class='vertical-center'>$55<br><br>now</div></div><div class='respDivL'><div class='vertical-center'><font style='color:orange'>(E)</font></div></div><div class='respDivR'><div class='vertical-center'>(I)</div></div></div>","null","$55<br><br>now","$75<br>in<br>6 weeks","1","55","75","6",""
"html-keyboard-response","28","34874","0.0-5.0-1.8","610940bbdb7795c3be364375","bdp_td","Mon Mar 27 2023 09:21:25 GMT-0500 (Central Daylight Time)","94286","","null","","","","FIX","","<div class='trialBorder'><div class='vertical-center'><img style='vertical-align:center; align:center' src=img/fixation3.jpg></div></div>","null","","","","","","",""
"html-keyboard-response","29","36369","0.0-5.0-2.8","610940bbdb7795c3be364375","bdp_td","Mon Mar 27 2023 09:21:25 GMT-0500 (Central Daylight Time)","94286","","1495","","","","offer","","<div class='trialBorder'><div class='vertical-center'><img style='vertical-align:center; align:center' src=img/fixation3.jpg></div><div class='cl'><div class='vertical-center'>$50<br>in<br>12 weeks</div></div><div class='cr'><div class='vertical-center'>$47<br><br>now</div></div><div class='respDivL'><div class='vertical-center'>(E)</div></div><div class='respDivR'><div class='vertical-center'>(I)</div></div></div>","I","$47<br><br>now","$50<br>in<br>12 weeks","1","47","50","12","NOW"
"html-keyboard-response","30","36621","0.0-5.0-3.8","610940bbdb7795c3be364375","bdp_td","Mon Mar 27 2023 09:21:25 GMT-0500 (Central Daylight Time)","94286","","null","","","","offerFB","","<div class='trialBorder'><div class='vertical-center'><img style='vertical-align:center; align:center' src=img/fixation3.jpg></div><div class='cl'><div class='vertical-center'>$50<br>in<br>12 weeks</div></div><div class='cr'><div class='vertical-center'><font style='color:orange'>$47<br><br>now</font></div></div><div class='respDivL'><div class='vertical-center'>(E)</div></div><div class='respDivR'><div class='vertical-center'><font style='color:orange'>(I)</font></div></div></div>","null","$47<br><br>now","$50<br>in<br>12 weeks","1","47","50","12",""
"html-keyboard-response","31","37122","0.0-5.0-1.9","610940bbdb7795c3be364375","bdp_td","Mon Mar 27 2023 09:21:25 GMT-0500 (Central Daylight Time)","94286","","null","","","","FIX","","<div class='trialBorder'><div class='vertical-center'><img style='vertical-align:center; align:center' src=img/fixation3.jpg></div></div>","null","","","","","","",""
"html-keyboard-response","32","38785","0.0-5.0-2.9","610940bbdb7795c3be364375","bdp_td","Mon Mar 27 2023 09:21:25 GMT-0500 (Central Daylight Time)","94286","","1663","","","","offer","","<div class='trialBorder'><div class='vertical-center'><img style='vertical-align:center; align:center' src=img/fixation3.jpg></div><div class='cl'><div class='vertical-center'>$85<br>in<br>6 weeks</div></div><div class='cr'><div class='vertical-center'>$69<br><br>now</div></div><div class='respDivL'><div class='vertical-center'>(E)</div></div><div class='respDivR'><div class='vertical-center'>(I)</div></div></div>","I","$69<br><br>now","$85<br>in<br>6 weeks","1","69","85","6","NOW"
"html-keyboard-response","33","39037","0.0-5.0-3.9","610940bbdb7795c3be364375","bdp_td","Mon Mar 27 2023 09:21:25 GMT-0500 (Central Daylight Time)","94286","","null","","","","offerFB","","<div class='trialBorder'><div class='vertical-center'><img style='vertical-align:center; align:center' src=img/fixation3.jpg></div><div class='cl'><div class='vertical-center'>$85<br>in<br>6 weeks</div></div><div class='cr'><div class='vertical-center'><font style='color:orange'>$69<br><br>now</font></div></div><div class='respDivL'><div class='vertical-center'>(E)</div></div><div class='respDivR'><div class='vertical-center'><font style='color:orange'>(I)</font></div></div></div>","null","$69<br><br>now","$85<br>in<br>6 weeks","1","69","85","6",""
"html-keyboard-response","34","39539","0.0-5.0-1.10","610940bbdb7795c3be364375","bdp_td","Mon Mar 27 2023 09:21:25 GMT-0500 (Central Daylight Time)","94286","","null","","","","FIX","","<div class='trialBorder'><div class='vertical-center'><img style='vertical-align:center; align:center' src=img/fixation3.jpg></div></div>","null","","","","","","",""
"html-keyboard-response","35","42466","0.0-5.0-2.10","610940bbdb7795c3be364375","bdp_td","Mon Mar 27 2023 09:21:25 GMT-0500 (Central Daylight Time)","94286","","2926","","","","offer","","<div class='trialBorder'><div class='vertical-center'><img style='vertical-align:center; align:center' src=img/fixation3.jpg></div><div class='cl'><div class='vertical-center'>$49<br><br>now</div></div><div class='cr'><div class='vertical-center'>$60<br>in<br>6 weeks</div></div><div class='respDivL'><div class='vertical-center'>(E)</div></div><div class='respDivR'><div class='vertical-center'>(I)</div></div></div>","E","$49<br><br>now","$60<br>in<br>6 weeks","0","49","60","6","NOW"
"html-keyboard-response","36","42717","0.0-5.0-3.10","610940bbdb7795c3be364375","bdp_td","Mon Mar 27 2023 09:21:25 GMT-0500 (Central Daylight Time)","94286","","null","","","","offerFB","","<div class='trialBorder'><div class='vertical-center'><img style='vertical-align:center; align:center' src=img/fixation3.jpg></div><div class='cl'><div class='vertical-center'><font style='color:orange'>$49<br><br>now</font></div></div><div class='cr'><div class='vertical-center'>$60<br>in<br>6 weeks</div></div><div class='respDivL'><div class='vertical-center'><font style='color:orange'>(E)</font></div></div><div class='respDivR'><div class='vertical-center'>(I)</div></div></div>","null","$49<br><br>now","$60<br>in<br>6 weeks","0","49","60","6",""
"html-keyboard-response","37","43218","0.0-5.0-1.11","610940bbdb7795c3be364375","bdp_td","Mon Mar 27 2023 09:21:25 GMT-0500 (Central Daylight Time)","94286","","null","","","","FIX","","<div class='trialBorder'><div class='vertical-center'><img style='vertical-align:center; align:center' src=img/fixation3.jpg></div></div>","null","","","","","","",""
"html-keyboard-response","38","45009","0.0-5.0-2.11","610940bbdb7795c3be364375","bdp_td","Mon Mar 27 2023 09:21:25 GMT-0500 (Central Daylight Time)","94286","","1791","","","","offer","","<div class='trialBorder'><div class='vertical-center'><img style='vertical-align:center; align:center' src=img/fixation3.jpg></div><div class='cl'><div class='vertical-center'>$54<br><br>now</div></div><div class='cr'><div class='vertical-center'>$80<br>in<br>3 weeks</div></div><div class='respDivL'><div class='vertical-center'>(E)</div></div><div class='respDivR'><div class='vertical-center'>(I)</div></div></div>","I","$54<br><br>now","$80<br>in<br>3 weeks","0","54","80","3","THEN"
"html-keyboard-response","39","45260","0.0-5.0-3.11","610940bbdb7795c3be364375","bdp_td","Mon Mar 27 2023 09:21:25 GMT-0500 (Central Daylight Time)","94286","","null","","","","offerFB","","<div class='trialBorder'><div class='vertical-center'><img style='vertical-align:center; align:center' src=img/fixation3.jpg></div><div class='cl'><div class='vertical-center'>$54<br><br>now</div></div><div class='cr'><div class='vertical-center'><font style='color:orange'>$80<br>in<br>3 weeks</font></div></div><div class='respDivL'><div class='vertical-center'>(E)</div></div><div class='respDivR'><div class='vertical-center'><font style='color:orange'>(I)</font></div></div></div>","null","$54<br><br>now","$80<br>in<br>3 weeks","0","54","80","3",""
"html-keyboard-response","40","45761","0.0-5.0-1.12","610940bbdb7795c3be364375","bdp_td","Mon Mar 27 2023 09:21:25 GMT-0500 (Central Daylight Time)","94286","","null","","","","FIX","","<div class='trialBorder'><div class='vertical-center'><img style='vertical-align:center; align:center' src=img/fixation3.jpg></div></div>","null","","","","","","",""
"html-keyboard-response","41","47609","0.0-5.0-2.12","610940bbdb7795c3be364375","bdp_td","Mon Mar 27 2023 09:21:25 GMT-0500 (Central Daylight Time)","94286","","1848","","","","offer","","<div class='trialBorder'><div class='vertical-center'><img style='vertical-align:center; align:center' src=img/fixation3.jpg></div><div class='cl'><div class='vertical-center'>$30<br>in<br>6 weeks</div></div><div class='cr'><div class='vertical-center'>$25<br><br>now</div></div><div class='respDivL'><div class='vertical-center'>(E)</div></div><div class='respDivR'><div class='vertical-center'>(I)</div></div></div>","I","$25<br><br>now","$30<br>in<br>6 weeks","1","25","30","6","NOW"
"html-keyboard-response","42","47861","0.0-5.0-3.12","610940bbdb7795c3be364375","bdp_td","Mon Mar 27 2023 09:21:25 GMT-0500 (Central Daylight Time)","94286","","null","","","","offerFB","","<div class='trialBorder'><div class='vertical-center'><img style='vertical-align:center; align:center' src=img/fixation3.jpg></div><div class='cl'><div class='vertical-center'>$30<br>in<br>6 weeks</div></div><div class='cr'><div class='vertical-center'><font style='color:orange'>$25<br><br>now</font></div></div><div class='respDivL'><div class='vertical-center'>(E)</div></div><div class='respDivR'><div class='vertical-center'><font style='color:orange'>(I)</font></div></div></div>","null","$25<br><br>now","$30<br>in<br>6 weeks","1","25","30","6",""
"html-keyboard-response","43","48362","0.0-5.0-1.13","610940bbdb7795c3be364375","bdp_td","Mon Mar 27 2023 09:21:25 GMT-0500 (Central Daylight Time)","94286","","null","","","","FIX","","<div class='trialBorder'><div class='vertical-center'><img style='vertical-align:center; align:center' src=img/fixation3.jpg></div></div>","null","","","","","","",""
"html-keyboard-response","44","51249","0.0-5.0-2.13","610940bbdb7795c3be364375","bdp_td","Mon Mar 27 2023 09:21:25 GMT-0500 (Central Daylight Time)","94286","","2887","","","","offer","","<div class='trialBorder'><div class='vertical-center'><img style='vertical-align:center; align:center' src=img/fixation3.jpg></div><div class='cl'><div class='vertical-center'>$25<br><br>now</div></div><div class='cr'><div class='vertical-center'>$60<br>in<br>3 weeks</div></div><div class='respDivL'><div class='vertical-center'>(E)</div></div><div class='respDivR'><div class='vertical-center'>(I)</div></div></div>","I","$25<br><br>now","$60<br>in<br>3 weeks","0","25","60","3","THEN"
"html-keyboard-response","45","51501","0.0-5.0-3.13","610940bbdb7795c3be364375","bdp_td","Mon Mar 27 2023 09:21:25 GMT-0500 (Central Daylight Time)","94286","","null","","","","offerFB","","<div class='trialBorder'><div class='vertical-center'><img style='vertical-align:center; align:center' src=img/fixation3.jpg></div><div class='cl'><div class='vertical-center'>$25<br><br>now</div></div><div class='cr'><div class='vertical-center'><font style='color:orange'>$60<br>in<br>3 weeks</font></div></div><div class='respDivL'><div class='vertical-center'>(E)</div></div><div class='respDivR'><div class='vertical-center'><font style='color:orange'>(I)</font></div></div></div>","null","$25<br><br>now","$60<br>in<br>3 weeks","0","25","60","3",""
"html-keyboard-response","46","52003","0.0-5.0-1.14","610940bbdb7795c3be364375","bdp_td","Mon Mar 27 2023 09:21:25 GMT-0500 (Central Daylight Time)","94286","","null","","","","FIX","","<div class='trialBorder'><div class='vertical-center'><img style='vertical-align:center; align:center' src=img/fixation3.jpg></div></div>","null","","","","","","",""
"html-keyboard-response","47","54705","0.0-5.0-2.14","610940bbdb7795c3be364375","bdp_td","Mon Mar 27 2023 09:21:25 GMT-0500 (Central Daylight Time)","94286","","2702","","","","offer","","<div class='trialBorder'><div class='vertical-center'><img style='vertical-align:center; align:center' src=img/fixation3.jpg></div><div class='cl'><div class='vertical-center'>$55<br>in<br>1 week</div></div><div class='cr'><div class='vertical-center'>$20<br><br>now</div></div><div class='respDivL'><div class='vertical-center'>(E)</div></div><div class='respDivR'><div class='vertical-center'>(I)</div></div></div>","E","$20<br><br>now","$55<br>in<br>1 week","1","20","55","1","THEN"
"html-keyboard-response","48","54956","0.0-5.0-3.14","610940bbdb7795c3be364375","bdp_td","Mon Mar 27 2023 09:21:25 GMT-0500 (Central Daylight Time)","94286","","null","","","","offerFB","","<div class='trialBorder'><div class='vertical-center'><img style='vertical-align:center; align:center' src=img/fixation3.jpg></div><div class='cl'><div class='vertical-center'><font style='color:orange'>$55<br>in<br>1 week</font></div></div><div class='cr'><div class='vertical-center'>$20<br><br>now</div></div><div class='respDivL'><div class='vertical-center'><font style='color:orange'>(E)</font></div></div><div class='respDivR'><div class='vertical-center'>(I)</div></div></div>","null","$20<br><br>now","$55<br>in<br>1 week","1","20","55","1",""
"html-keyboard-response","49","55457","0.0-5.0-1.15","610940bbdb7795c3be364375","bdp_td","Mon Mar 27 2023 09:21:25 GMT-0500 (Central Daylight Time)","94286","","null","","","","FIX","","<div class='trialBorder'><div class='vertical-center'><img style='vertical-align:center; align:center' src=img/fixation3.jpg></div></div>","null","","","","","","",""
"html-keyboard-response","50","58201","0.0-5.0-2.15","610940bbdb7795c3be364375","bdp_td","Mon Mar 27 2023 09:21:25 GMT-0500 (Central Daylight Time)","94286","","2743","","","","offer","","<div class='trialBorder'><div class='vertical-center'><img style='vertical-align:center; align:center' src=img/fixation3.jpg></div><div class='cl'><div class='vertical-center'>$25<br>in<br>12 weeks</div></div><div class='cr'><div class='vertical-center'>$22<br><br>now</div></div><div class='respDivL'><div class='vertical-center'>(E)</div></div><div class='respDivR'><div class='vertical-center'>(I)</div></div></div>","I","$22<br><br>now","$25<br>in<br>12 weeks","1","22","25","12","NOW"
"html-keyboard-response","51","58452","0.0-5.0-3.15","610940bbdb7795c3be364375","bdp_td","Mon Mar 27 2023 09:21:25 GMT-0500 (Central Daylight Time)","94286","","null","","","","offerFB","","<div class='trialBorder'><div class='vertical-center'><img style='vertical-align:center; align:center' src=img/fixation3.jpg></div><div class='cl'><div class='vertical-center'>$25<br>in<br>12 weeks</div></div><div class='cr'><div class='vertical-center'><font style='color:orange'>$22<br><br>now</font></div></div><div class='respDivL'><div class='vertical-center'>(E)</div></div><div class='respDivR'><div class='vertical-center'><font style='color:orange'>(I)</font></div></div></div>","null","$22<br><br>now","$25<br>in<br>12 weeks","1","22","25","12",""
"html-keyboard-response","52","58953","0.0-5.0-1.16","610940bbdb7795c3be364375","bdp_td","Mon Mar 27 2023 09:21:25 GMT-0500 (Central Daylight Time)","94286","","null","","","","FIX","","<div class='trialBorder'><div class='vertical-center'><img style='vertical-align:center; align:center' src=img/fixation3.jpg></div></div>","null","","","","","","",""
"html-keyboard-response","53","60585","0.0-5.0-2.16","610940bbdb7795c3be364375","bdp_td","Mon Mar 27 2023 09:21:25 GMT-0500 (Central Daylight Time)","94286","","1630","","","","offer","","<div class='trialBorder'><div class='vertical-center'><img style='vertical-align:center; align:center' src=img/fixation3.jpg></div><div class='cl'><div class='vertical-center'>$34<br><br>now</div></div><div class='cr'><div class='vertical-center'>$35<br>in<br>12 weeks</div></div><div class='respDivL'><div class='vertical-center'>(E)</div></div><div class='respDivR'><div class='vertical-center'>(I)</div></div></div>","E","$34<br><br>now","$35<br>in<br>12 weeks","0","34","35","12","NOW"
"html-keyboard-response","54","60836","0.0-5.0-3.16","610940bbdb7795c3be364375","bdp_td","Mon Mar 27 2023 09:21:25 GMT-0500 (Central Daylight Time)","94286","","null","","","","offerFB","","<div class='trialBorder'><div class='vertical-center'><img style='vertical-align:center; align:center' src=img/fixation3.jpg></div><div class='cl'><div class='vertical-center'><font style='color:orange'>$34<br><br>now</font></div></div><div class='cr'><div class='vertical-center'>$35<br>in<br>12 weeks</div></div><div class='respDivL'><div class='vertical-center'><font style='color:orange'>(E)</font></div></div><div class='respDivR'><div class='vertical-center'>(I)</div></div></div>","null","$34<br><br>now","$35<br>in<br>12 weeks","0","34","35","12",""
"html-keyboard-response","55","61336","0.0-5.0-1.17","610940bbdb7795c3be364375","bdp_td","Mon Mar 27 2023 09:21:25 GMT-0500 (Central Daylight Time)","94286","","null","","","","FIX","","<div class='trialBorder'><div class='vertical-center'><img style='vertical-align:center; align:center' src=img/fixation3.jpg></div></div>","null","","","","","","",""
"html-keyboard-response","56","64913","0.0-5.0-2.17","610940bbdb7795c3be364375","bdp_td","Mon Mar 27 2023 09:21:25 GMT-0500 (Central Daylight Time)","94286","","3576","","","","offer","","<div class='trialBorder'><div class='vertical-center'><img style='vertical-align:center; align:center' src=img/fixation3.jpg></div><div class='cl'><div class='vertical-center'>$80<br>in<br>12 weeks</div></div><div class='cr'><div class='vertical-center'>$78<br><br>now</div></div><div class='respDivL'><div class='vertical-center'>(E)</div></div><div class='respDivR'><div class='vertical-center'>(I)</div></div></div>","I","$78<br><br>now","$80<br>in<br>12 weeks","1","78","80","12","NOW"
"html-keyboard-response","57","65165","0.0-5.0-3.17","610940bbdb7795c3be364375","bdp_td","Mon Mar 27 2023 09:21:25 GMT-0500 (Central Daylight Time)","94286","","null","","","","offerFB","","<div class='trialBorder'><div class='vertical-center'><img style='vertical-align:center; align:center' src=img/fixation3.jpg></div><div class='cl'><div class='vertical-center'>$80<br>in<br>12 weeks</div></div><div class='cr'><div class='vertical-center'><font style='color:orange'>$78<br><br>now</font></div></div><div class='respDivL'><div class='vertical-center'>(E)</div></div><div class='respDivR'><div class='vertical-center'><font style='color:orange'>(I)</font></div></div></div>","null","$78<br><br>now","$80<br>in<br>12 weeks","1","78","80","12",""
"html-keyboard-response","58","65667","0.0-5.0-1.18","610940bbdb7795c3be364375","bdp_td","Mon Mar 27 2023 09:21:25 GMT-0500 (Central Daylight Time)","94286","","null","","","","FIX","","<div class='trialBorder'><div class='vertical-center'><img style='vertical-align:center; align:center' src=img/fixation3.jpg></div></div>","null","","","","","","",""
"html-keyboard-response","59","66873","0.0-5.0-2.18","610940bbdb7795c3be364375","bdp_td","Mon Mar 27 2023 09:21:25 GMT-0500 (Central Daylight Time)","94286","","1206","","","","offer","","<div class='trialBorder'><div class='vertical-center'><img style='vertical-align:center; align:center' src=img/fixation3.jpg></div><div class='cl'><div class='vertical-center'>$54<br><br>now</div></div><div class='cr'><div class='vertical-center'>$55<br>in<br>12 weeks</div></div><div class='respDivL'><div class='vertical-center'>(E)</div></div><div class='respDivR'><div class='vertical-center'>(I)</div></div></div>","E","$54<br><br>now","$55<br>in<br>12 weeks","0","54","55","12","NOW"
"html-keyboard-response","60","67125","0.0-5.0-3.18","610940bbdb7795c3be364375","bdp_td","Mon Mar 27 2023 09:21:25 GMT-0500 (Central Daylight Time)","94286","","null","","","","offerFB","","<div class='trialBorder'><div class='vertical-center'><img style='vertical-align:center; align:center' src=img/fixation3.jpg></div><div class='cl'><div class='vertical-center'><font style='color:orange'>$54<br><br>now</font></div></div><div class='cr'><div class='vertical-center'>$55<br>in<br>12 weeks</div></div><div class='respDivL'><div class='vertical-center'><font style='color:orange'>(E)</font></div></div><div class='respDivR'><div class='vertical-center'>(I)</div></div></div>","null","$54<br><br>now","$55<br>in<br>12 weeks","0","54","55","12",""
"html-keyboard-response","61","67627","0.0-5.0-1.19","610940bbdb7795c3be364375","bdp_td","Mon Mar 27 2023 09:21:25 GMT-0500 (Central Daylight Time)","94286","","null","","","","FIX","","<div class='trialBorder'><div class='vertical-center'><img style='vertical-align:center; align:center' src=img/fixation3.jpg></div></div>","null","","","","","","",""
"html-keyboard-response","62","69385","0.0-5.0-2.19","610940bbdb7795c3be364375","bdp_td","Mon Mar 27 2023 09:21:25 GMT-0500 (Central Daylight Time)","94286","","1758","","","","offer","","<div class='trialBorder'><div class='vertical-center'><img style='vertical-align:center; align:center' src=img/fixation3.jpg></div><div class='cl'><div class='vertical-center'>$60<br>in<br>12 weeks</div></div><div class='cr'><div class='vertical-center'>$54<br><br>now</div></div><div class='respDivL'><div class='vertical-center'>(E)</div></div><div class='respDivR'><div class='vertical-center'>(I)</div></div></div>","I","$54<br><br>now","$60<br>in<br>12 weeks","1","54","60","12","NOW"
"html-keyboard-response","63","69635","0.0-5.0-3.19","610940bbdb7795c3be364375","bdp_td","Mon Mar 27 2023 09:21:25 GMT-0500 (Central Daylight Time)","94286","","null","","","","offerFB","","<div class='trialBorder'><div class='vertical-center'><img style='vertical-align:center; align:center' src=img/fixation3.jpg></div><div class='cl'><div class='vertical-center'>$60<br>in<br>12 weeks</div></div><div class='cr'><div class='vertical-center'><font style='color:orange'>$54<br><br>now</font></div></div><div class='respDivL'><div class='vertical-center'>(E)</div></div><div class='respDivR'><div class='vertical-center'><font style='color:orange'>(I)</font></div></div></div>","null","$54<br><br>now","$60<br>in<br>12 weeks","1","54","60","12",""
"html-keyboard-response","64","70136","0.0-5.0-1.20","610940bbdb7795c3be364375","bdp_td","Mon Mar 27 2023 09:21:25 GMT-0500 (Central Daylight Time)","94286","","null","","","","FIX","","<div class='trialBorder'><div class='vertical-center'><img style='vertical-align:center; align:center' src=img/fixation3.jpg></div></div>","null","","","","","","",""
"html-keyboard-response","65","71537","0.0-5.0-2.20","610940bbdb7795c3be364375","bdp_td","Mon Mar 27 2023 09:21:25 GMT-0500 (Central Daylight Time)","94286","","1401","","","","offer","","<div class='trialBorder'><div class='vertical-center'><img style='vertical-align:center; align:center' src=img/fixation3.jpg></div><div class='cl'><div class='vertical-center'>$50<br>in<br>3 weeks</div></div><div class='cr'><div class='vertical-center'>$27<br><br>now</div></div><div class='respDivL'><div class='vertical-center'>(E)</div></div><div class='respDivR'><div class='vertical-center'>(I)</div></div></div>","E","$27<br><br>now","$50<br>in<br>3 weeks","1","27","50","3","THEN"
"html-keyboard-response","66","71789","0.0-5.0-3.20","610940bbdb7795c3be364375","bdp_td","Mon Mar 27 2023 09:21:25 GMT-0500 (Central Daylight Time)","94286","","null","","","","offerFB","","<div class='trialBorder'><div class='vertical-center'><img style='vertical-align:center; align:center' src=img/fixation3.jpg></div><div class='cl'><div class='vertical-center'><font style='color:orange'>$50<br>in<br>3 weeks</font></div></div><div class='cr'><div class='vertical-center'>$27<br><br>now</div></div><div class='respDivL'><div class='vertical-center'><font style='color:orange'>(E)</font></div></div><div class='respDivR'><div class='vertical-center'>(I)</div></div></div>","null","$27<br><br>now","$50<br>in<br>3 weeks","1","27","50","3",""
"html-keyboard-response","67","72290","0.0-5.0-1.21","610940bbdb7795c3be364375","bdp_td","Mon Mar 27 2023 09:21:25 GMT-0500 (Central Daylight Time)","94286","","null","","","","FIX","","<div class='trialBorder'><div class='vertical-center'><img style='vertical-align:center; align:center' src=img/fixation3.jpg></div></div>","null","","","","","","",""
"html-keyboard-response","68","75513","0.0-5.0-2.21","610940bbdb7795c3be364375","bdp_td","Mon Mar 27 2023 09:21:25 GMT-0500 (Central Daylight Time)","94286","","3222","","","","offer","","<div class='trialBorder'><div class='vertical-center'><img style='vertical-align:center; align:center' src=img/fixation3.jpg></div><div class='cl'><div class='vertical-center'>$41<br><br>now</div></div><div class='cr'><div class='vertical-center'>$75<br>in<br>3 weeks</div></div><div class='respDivL'><div class='vertical-center'>(E)</div></div><div class='respDivR'><div class='vertical-center'>(I)</div></div></div>","I","$41<br><br>now","$75<br>in<br>3 weeks","0","41","75","3","THEN"
"html-keyboard-response","69","75765","0.0-5.0-3.21","610940bbdb7795c3be364375","bdp_td","Mon Mar 27 2023 09:21:25 GMT-0500 (Central Daylight Time)","94286","","null","","","","offerFB","","<div class='trialBorder'><div class='vertical-center'><img style='vertical-align:center; align:center' src=img/fixation3.jpg></div><div class='cl'><div class='vertical-center'>$41<br><br>now</div></div><div class='cr'><div class='vertical-center'><font style='color:orange'>$75<br>in<br>3 weeks</font></div></div><div class='respDivL'><div class='vertical-center'>(E)</div></div><div class='respDivR'><div class='vertical-center'><font style='color:orange'>(I)</font></div></div></div>","null","$41<br><br>now","$75<br>in<br>3 weeks","0","41","75","3",""
"html-keyboard-response","70","76266","0.0-5.0-1.22","610940bbdb7795c3be364375","bdp_td","Mon Mar 27 2023 09:21:25 GMT-0500 (Central Daylight Time)","94286","","null","","","","FIX","","<div class='trialBorder'><div class='vertical-center'><img style='vertical-align:center; align:center' src=img/fixation3.jpg></div></div>","null","","","","","","",""
"html-keyboard-response","71","77865","0.0-5.0-2.22","610940bbdb7795c3be364375","bdp_td","Mon Mar 27 2023 09:21:25 GMT-0500 (Central Daylight Time)","94286","","1598","","","","offer","","<div class='trialBorder'><div class='vertical-center'><img style='vertical-align:center; align:center' src=img/fixation3.jpg></div><div class='cl'><div class='vertical-center'>$25<br>in<br>3 weeks</div></div><div class='cr'><div class='vertical-center'>$14<br><br>now</div></div><div class='respDivL'><div class='vertical-center'>(E)</div></div><div class='respDivR'><div class='vertical-center'>(I)</div></div></div>","I","$14<br><br>now","$25<br>in<br>3 weeks","1","14","25","3","NOW"
"html-keyboard-response","72","78117","0.0-5.0-3.22","610940bbdb7795c3be364375","bdp_td","Mon Mar 27 2023 09:21:25 GMT-0500 (Central Daylight Time)","94286","","null","","","","offerFB","","<div class='trialBorder'><div class='vertical-center'><img style='vertical-align:center; align:center' src=img/fixation3.jpg></div><div class='cl'><div class='vertical-center'>$25<br>in<br>3 weeks</div></div><div class='cr'><div class='vertical-center'><font style='color:orange'>$14<br><br>now</font></div></div><div class='respDivL'><div class='vertical-center'>(E)</div></div><div class='respDivR'><div class='vertical-center'><font style='color:orange'>(I)</font></div></div></div>","null","$14<br><br>now","$25<br>in<br>3 weeks","1","14","25","3",""
"html-keyboard-response","73","78618","0.0-5.0-1.23","610940bbdb7795c3be364375","bdp_td","Mon Mar 27 2023 09:21:25 GMT-0500 (Central Daylight Time)","94286","","null","","","","FIX","","<div class='trialBorder'><div class='vertical-center'><img style='vertical-align:center; align:center' src=img/fixation3.jpg></div></div>","null","","","","","","",""
"html-keyboard-response","74","80625","0.0-5.0-2.23","610940bbdb7795c3be364375","bdp_td","Mon Mar 27 2023 09:21:25 GMT-0500 (Central Daylight Time)","94286","","2006","","","","offer","","<div class='trialBorder'><div class='vertical-center'><img style='vertical-align:center; align:center' src=img/fixation3.jpg></div><div class='cl'><div class='vertical-center'>$35<br>in<br>2 weeks</div></div><div class='cr'><div class='vertical-center'>$15<br><br>now</div></div><div class='respDivL'><div class='vertical-center'>(E)</div></div><div class='respDivR'><div class='vertical-center'>(I)</div></div></div>","E","$15<br><br>now","$35<br>in<br>2 weeks","1","15","35","2","THEN"
"html-keyboard-response","75","80877","0.0-5.0-3.23","610940bbdb7795c3be364375","bdp_td","Mon Mar 27 2023 09:21:25 GMT-0500 (Central Daylight Time)","94286","","null","","","","offerFB","","<div class='trialBorder'><div class='vertical-center'><img style='vertical-align:center; align:center' src=img/fixation3.jpg></div><div class='cl'><div class='vertical-center'><font style='color:orange'>$35<br>in<br>2 weeks</font></div></div><div class='cr'><div class='vertical-center'>$15<br><br>now</div></div><div class='respDivL'><div class='vertical-center'><font style='color:orange'>(E)</font></div></div><div class='respDivR'><div class='vertical-center'>(I)</div></div></div>","null","$15<br><br>now","$35<br>in<br>2 weeks","1","15","35","2",""
"html-keyboard-response","76","81378","0.0-5.0-1.24","610940bbdb7795c3be364375","bdp_td","Mon Mar 27 2023 09:21:25 GMT-0500 (Central Daylight Time)","94286","","null","","","","FIX","","<div class='trialBorder'><div class='vertical-center'><img style='vertical-align:center; align:center' src=img/fixation3.jpg></div></div>","null","","","","","","",""
"html-keyboard-response","77","83113","0.0-5.0-2.24","610940bbdb7795c3be364375","bdp_td","Mon Mar 27 2023 09:21:25 GMT-0500 (Central Daylight Time)","94286","","1735","","","","offer","","<div class='trialBorder'><div class='vertical-center'><img style='vertical-align:center; align:center' src=img/fixation3.jpg></div><div class='cl'><div class='vertical-center'>$11<br><br>now</div></div><div class='cr'><div class='vertical-center'>$30<br>in<br>2 weeks</div></div><div class='respDivL'><div class='vertical-center'>(E)</div></div><div class='respDivR'><div class='vertical-center'>(I)</div></div></div>","I","$11<br><br>now","$30<br>in<br>2 weeks","0","11","30","2","THEN"
"html-keyboard-response","78","83364","0.0-5.0-3.24","610940bbdb7795c3be364375","bdp_td","Mon Mar 27 2023 09:21:25 GMT-0500 (Central Daylight Time)","94286","","null","","","","offerFB","","<div class='trialBorder'><div class='vertical-center'><img style='vertical-align:center; align:center' src=img/fixation3.jpg></div><div class='cl'><div class='vertical-center'>$11<br><br>now</div></div><div class='cr'><div class='vertical-center'><font style='color:orange'>$30<br>in<br>2 weeks</font></div></div><div class='respDivL'><div class='vertical-center'>(E)</div></div><div class='respDivR'><div class='vertical-center'><font style='color:orange'>(I)</font></div></div></div>","null","$11<br><br>now","$30<br>in<br>2 weeks","0","11","30","2",""
"html-keyboard-response","79","83865","0.0-5.0-1.25","610940bbdb7795c3be364375","bdp_td","Mon Mar 27 2023 09:21:25 GMT-0500 (Central Daylight Time)","94286","","null","","","","FIX","","<div class='trialBorder'><div class='vertical-center'><img style='vertical-align:center; align:center' src=img/fixation3.jpg></div></div>","null","","","","","","",""
"html-keyboard-response","80","86257","0.0-5.0-2.25","610940bbdb7795c3be364375","bdp_td","Mon Mar 27 2023 09:21:25 GMT-0500 (Central Daylight Time)","94286","","2392","","","","offer","","<div class='trialBorder'><div class='vertical-center'><img style='vertical-align:center; align:center' src=img/fixation3.jpg></div><div class='cl'><div class='vertical-center'>$67<br><br>now</div></div><div class='cr'><div class='vertical-center'>$75<br>in<br>12 weeks</div></div><div class='respDivL'><div class='vertical-center'>(E)</div></div><div class='respDivR'><div class='vertical-center'>(I)</div></div></div>","E","$67<br><br>now","$75<br>in<br>12 weeks","0","67","75","12","NOW"
"html-keyboard-response","81","86509","0.0-5.0-3.25","610940bbdb7795c3be364375","bdp_td","Mon Mar 27 2023 09:21:25 GMT-0500 (Central Daylight Time)","94286","","null","","","","offerFB","","<div class='trialBorder'><div class='vertical-center'><img style='vertical-align:center; align:center' src=img/fixation3.jpg></div><div class='cl'><div class='vertical-center'><font style='color:orange'>$67<br><br>now</font></div></div><div class='cr'><div class='vertical-center'>$75<br>in<br>12 weeks</div></div><div class='respDivL'><div class='vertical-center'><font style='color:orange'>(E)</font></div></div><div class='respDivR'><div class='vertical-center'>(I)</div></div></div>","null","$67<br><br>now","$75<br>in<br>12 weeks","0","67","75","12",""
"html-keyboard-response","82","87010","0.0-5.0-1.26","610940bbdb7795c3be364375","bdp_td","Mon Mar 27 2023 09:21:25 GMT-0500 (Central Daylight Time)","94286","","null","","","","FIX","","<div class='trialBorder'><div class='vertical-center'><img style='vertical-align:center; align:center' src=img/fixation3.jpg></div></div>","null","","","","","","",""
"html-keyboard-response","83","93032","0.0-5.0-2.26","610940bbdb7795c3be364375","bdp_td","Mon Mar 27 2023 09:21:25 GMT-0500 (Central Daylight Time)","94286","","6022","","","","offer","","<div class='trialBorder'><div class='vertical-center'><img style='vertical-align:center; align:center' src=img/fixation3.jpg></div><div class='cl'><div class='vertical-center'>$80<br>in<br>2 weeks</div></div><div class='cr'><div class='vertical-center'>$33<br><br>now</div></div><div class='respDivL'><div class='vertical-center'>(E)</div></div><div class='respDivR'><div class='vertical-center'>(I)</div></div></div>","E","$33<br><br>now","$80<br>in<br>2 weeks","1","33","80","2","THEN"
"html-keyboard-response","84","93285","0.0-5.0-3.26","610940bbdb7795c3be364375","bdp_td","Mon Mar 27 2023 09:21:25 GMT-0500 (Central Daylight Time)","94286","","null","","","","offerFB","","<div class='trialBorder'><div class='vertical-center'><img style='vertical-align:center; align:center' src=img/fixation3.jpg></div><div class='cl'><div class='vertical-center'><font style='color:orange'>$80<br>in<br>2 weeks</font></div></div><div class='cr'><div class='vertical-center'>$33<br><br>now</div></div><div class='respDivL'><div class='vertical-center'><font style='color:orange'>(E)</font></div></div><div class='respDivR'><div class='vertical-center'>(I)</div></div></div>","null","$33<br><br>now","$80<br>in<br>2 weeks","1","33","80","2",""
"","","","","610940bbdb7795c3be364375","bdp_td","Mon Mar 27 2023 09:21:25 GMT-0500 (Central Daylight Time)","94286","","","fullscreenexit","85","93297","fullscreenexit","","","","","","","","","",""
"fullscreen","85","94286","0.0-6.0","610940bbdb7795c3be364375","bdp_td","Mon Mar 27 2023 09:21:25 GMT-0500 (Central Daylight Time)","94286","","","","","","","true","","","","","","","","",""
"html-keyboard-response","86","94787","0.0-7.0","","","","","","null","","","","","","","null","","","","","","",""
