"trial_type","trial_index","time_elapsed","internal_node_id","subject_id","task","startTime","totalTime","view_history","rt","event","trial","time","trialtype","success","stimulus","key_press","nowOffer","thenOffer","thenLeft","nowAmt","thenAmt","thenWeeks","chosen"
"pavlovia","0","2","0.0-0.0","63f3a7e45f338798fd025d99","bdp_td","Tue Mar 28 2023 08:39:18 GMT-0500 (Central Daylight Time)","113061","","","","","","","","","","","","","","","",""
"instructions","1","1666","0.0-1.0","63f3a7e45f338798fd025d99","bdp_td","Tue Mar 28 2023 08:39:18 GMT-0500 (Central Daylight Time)","113061","[{""page_index"":0,""viewing_time"":1664}]","1664","","","","","","","","","","","","","",""
"","","","","63f3a7e45f338798fd025d99","bdp_td","Tue Mar 28 2023 08:39:18 GMT-0500 (Central Daylight Time)","113061","","","fullscreenenter","2","5148","fullscreenenter","","","","","","","","","",""
"fullscreen","2","6131","0.0-2.0","63f3a7e45f338798fd025d99","bdp_td","Tue Mar 28 2023 08:39:18 GMT-0500 (Central Daylight Time)","113061","","","","","","","true","","","","","","","","",""
"instructions","3","29574","0.0-4.0","63f3a7e45f338798fd025d99","bdp_td","Tue Mar 28 2023 08:39:18 GMT-0500 (Central Daylight Time)","113061","[{""page_index"":0,""viewing_time"":10333},{""page_index"":1,""viewing_time"":5879},{""page_index"":2,""viewing_time"":7231}]","23443","","","","","","","","","","","","","",""
"html-keyboard-response","4","30076","0.0-5.0-1.0","63f3a7e45f338798fd025d99","bdp_td","Tue Mar 28 2023 08:39:18 GMT-0500 (Central Daylight Time)","113061","","null","","","","FIX","","<div class='trialBorder'><div class='vertical-center'><img style='vertical-align:center; align:center' src=img/fixation3.jpg></div></div>","null","","","","","","",""
"html-keyboard-response","5","34420","0.0-5.0-2.0","63f3a7e45f338798fd025d99","bdp_td","Tue Mar 28 2023 08:39:18 GMT-0500 (Central Daylight Time)","113061","","4343","","","","offer","","<div class='trialBorder'><div class='vertical-center'><img style='vertical-align:center; align:center' src=img/fixation3.jpg></div><div class='cl'><div class='vertical-center'>$80<br>in<br>2 weeks</div></div><div class='cr'><div class='vertical-center'>$33<br><br>now</div></div><div class='respDivL'><div class='vertical-center'>(E)</div></div><div class='respDivR'><div class='vertical-center'>(I)</div></div></div>","E","$33<br><br>now","$80<br>in<br>2 weeks","1","33","80","2","THEN"
"html-keyboard-response","6","34671","0.0-5.0-3.0","63f3a7e45f338798fd025d99","bdp_td","Tue Mar 28 2023 08:39:18 GMT-0500 (Central Daylight Time)","113061","","null","","","","offerFB","","<div class='trialBorder'><div class='vertical-center'><img style='vertical-align:center; align:center' src=img/fixation3.jpg></div><div class='cl'><div class='vertical-center'><font style='color:orange'>$80<br>in<br>2 weeks</font></div></div><div class='cr'><div class='vertical-center'>$33<br><br>now</div></div><div class='respDivL'><div class='vertical-center'><font style='color:orange'>(E)</font></div></div><div class='respDivR'><div class='vertical-center'>(I)</div></div></div>","null","$33<br><br>now","$80<br>in<br>2 weeks","1","33","80","2",""
"html-keyboard-response","7","35172","0.0-5.0-1.1","63f3a7e45f338798fd025d99","bdp_td","Tue Mar 28 2023 08:39:18 GMT-0500 (Central Daylight Time)","113061","","null","","","","FIX","","<div class='trialBorder'><div class='vertical-center'><img style='vertical-align:center; align:center' src=img/fixation3.jpg></div></div>","null","","","","","","",""
"html-keyboard-response","8","37586","0.0-5.0-2.1","63f3a7e45f338798fd025d99","bdp_td","Tue Mar 28 2023 08:39:18 GMT-0500 (Central Daylight Time)","113061","","2413","","","","offer","","<div class='trialBorder'><div class='vertical-center'><img style='vertical-align:center; align:center' src=img/fixation3.jpg></div><div class='cl'><div class='vertical-center'>$55<br>in<br>12 weeks</div></div><div class='cr'><div class='vertical-center'>$54<br><br>now</div></div><div class='respDivL'><div class='vertical-center'>(E)</div></div><div class='respDivR'><div class='vertical-center'>(I)</div></div></div>","I","$54<br><br>now","$55<br>in<br>12 weeks","1","54","55","12","NOW"
"html-keyboard-response","9","37837","0.0-5.0-3.1","63f3a7e45f338798fd025d99","bdp_td","Tue Mar 28 2023 08:39:18 GMT-0500 (Central Daylight Time)","113061","","null","","","","offerFB","","<div class='trialBorder'><div class='vertical-center'><img style='vertical-align:center; align:center' src=img/fixation3.jpg></div><div class='cl'><div class='vertical-center'>$55<br>in<br>12 weeks</div></div><div class='cr'><div class='vertical-center'><font style='color:orange'>$54<br><br>now</font></div></div><div class='respDivL'><div class='vertical-center'>(E)</div></div><div class='respDivR'><div class='vertical-center'><font style='color:orange'>(I)</font></div></div></div>","null","$54<br><br>now","$55<br>in<br>12 weeks","1","54","55","12",""
"html-keyboard-response","10","38338","0.0-5.0-1.2","63f3a7e45f338798fd025d99","bdp_td","Tue Mar 28 2023 08:39:18 GMT-0500 (Central Daylight Time)","113061","","null","","","","FIX","","<div class='trialBorder'><div class='vertical-center'><img style='vertical-align:center; align:center' src=img/fixation3.jpg></div></div>","null","","","","","","",""
"html-keyboard-response","11","39787","0.0-5.0-2.2","63f3a7e45f338798fd025d99","bdp_td","Tue Mar 28 2023 08:39:18 GMT-0500 (Central Daylight Time)","113061","","1448","","","","offer","","<div class='trialBorder'><div class='vertical-center'><img style='vertical-align:center; align:center' src=img/fixation3.jpg></div><div class='cl'><div class='vertical-center'>$35<br>in<br>2 weeks</div></div><div class='cr'><div class='vertical-center'>$15<br><br>now</div></div><div class='respDivL'><div class='vertical-center'>(E)</div></div><div class='respDivR'><div class='vertical-center'>(I)</div></div></div>","E","$15<br><br>now","$35<br>in<br>2 weeks","1","15","35","2","THEN"
"html-keyboard-response","12","40039","0.0-5.0-3.2","63f3a7e45f338798fd025d99","bdp_td","Tue Mar 28 2023 08:39:18 GMT-0500 (Central Daylight Time)","113061","","null","","","","offerFB","","<div class='trialBorder'><div class='vertical-center'><img style='vertical-align:center; align:center' src=img/fixation3.jpg></div><div class='cl'><div class='vertical-center'><font style='color:orange'>$35<br>in<br>2 weeks</font></div></div><div class='cr'><div class='vertical-center'>$15<br><br>now</div></div><div class='respDivL'><div class='vertical-center'><font style='color:orange'>(E)</font></div></div><div class='respDivR'><div class='vertical-center'>(I)</div></div></div>","null","$15<br><br>now","$35<br>in<br>2 weeks","1","15","35","2",""
"html-keyboard-response","13","40540","0.0-5.0-1.3","63f3a7e45f338798fd025d99","bdp_td","Tue Mar 28 2023 08:39:18 GMT-0500 (Central Daylight Time)","113061","","null","","","","FIX","","<div class='trialBorder'><div class='vertical-center'><img style='vertical-align:center; align:center' src=img/fixation3.jpg></div></div>","null","","","","","","",""
"html-keyboard-response","14","42448","0.0-5.0-2.3","63f3a7e45f338798fd025d99","bdp_td","Tue Mar 28 2023 08:39:18 GMT-0500 (Central Daylight Time)","113061","","1908","","","","offer","","<div class='trialBorder'><div class='vertical-center'><img style='vertical-align:center; align:center' src=img/fixation3.jpg></div><div class='cl'><div class='vertical-center'>$85<br>in<br>12 weeks</div></div><div class='cr'><div class='vertical-center'>$80<br><br>now</div></div><div class='respDivL'><div class='vertical-center'>(E)</div></div><div class='respDivR'><div class='vertical-center'>(I)</div></div></div>","I","$80<br><br>now","$85<br>in<br>12 weeks","1","80","85","12","NOW"
"html-keyboard-response","15","42699","0.0-5.0-3.3","63f3a7e45f338798fd025d99","bdp_td","Tue Mar 28 2023 08:39:18 GMT-0500 (Central Daylight Time)","113061","","null","","","","offerFB","","<div class='trialBorder'><div class='vertical-center'><img style='vertical-align:center; align:center' src=img/fixation3.jpg></div><div class='cl'><div class='vertical-center'>$85<br>in<br>12 weeks</div></div><div class='cr'><div class='vertical-center'><font style='color:orange'>$80<br><br>now</font></div></div><div class='respDivL'><div class='vertical-center'>(E)</div></div><div class='respDivR'><div class='vertical-center'><font style='color:orange'>(I)</font></div></div></div>","null","$80<br><br>now","$85<br>in<br>12 weeks","1","80","85","12",""
"html-keyboard-response","16","43200","0.0-5.0-1.4","63f3a7e45f338798fd025d99","bdp_td","Tue Mar 28 2023 08:39:18 GMT-0500 (Central Daylight Time)","113061","","null","","","","FIX","","<div class='trialBorder'><div class='vertical-center'><img style='vertical-align:center; align:center' src=img/fixation3.jpg></div></div>","null","","","","","","",""
"html-keyboard-response","17","45162","0.0-5.0-2.4","63f3a7e45f338798fd025d99","bdp_td","Tue Mar 28 2023 08:39:18 GMT-0500 (Central Daylight Time)","113061","","1961","","","","offer","","<div class='trialBorder'><div class='vertical-center'><img style='vertical-align:center; align:center' src=img/fixation3.jpg></div><div class='cl'><div class='vertical-center'>$54<br><br>now</div></div><div class='cr'><div class='vertical-center'>$80<br>in<br>3 weeks</div></div><div class='respDivL'><div class='vertical-center'>(E)</div></div><div class='respDivR'><div class='vertical-center'>(I)</div></div></div>","I","$54<br><br>now","$80<br>in<br>3 weeks","0","54","80","3","THEN"
"html-keyboard-response","18","45413","0.0-5.0-3.4","63f3a7e45f338798fd025d99","bdp_td","Tue Mar 28 2023 08:39:18 GMT-0500 (Central Daylight Time)","113061","","null","","","","offerFB","","<div class='trialBorder'><div class='vertical-center'><img style='vertical-align:center; align:center' src=img/fixation3.jpg></div><div class='cl'><div class='vertical-center'>$54<br><br>now</div></div><div class='cr'><div class='vertical-center'><font style='color:orange'>$80<br>in<br>3 weeks</font></div></div><div class='respDivL'><div class='vertical-center'>(E)</div></div><div class='respDivR'><div class='vertical-center'><font style='color:orange'>(I)</font></div></div></div>","null","$54<br><br>now","$80<br>in<br>3 weeks","0","54","80","3",""
"html-keyboard-response","19","45914","0.0-5.0-1.5","63f3a7e45f338798fd025d99","bdp_td","Tue Mar 28 2023 08:39:18 GMT-0500 (Central Daylight Time)","113061","","null","","","","FIX","","<div class='trialBorder'><div class='vertical-center'><img style='vertical-align:center; align:center' src=img/fixation3.jpg></div></div>","null","","","","","","",""
"html-keyboard-response","20","53181","0.0-5.0-2.5","63f3a7e45f338798fd025d99","bdp_td","Tue Mar 28 2023 08:39:18 GMT-0500 (Central Daylight Time)","113061","","7266","","","","offer","","<div class='trialBorder'><div class='vertical-center'><img style='vertical-align:center; align:center' src=img/fixation3.jpg></div><div class='cl'><div class='vertical-center'>$49<br><br>now</div></div><div class='cr'><div class='vertical-center'>$60<br>in<br>6 weeks</div></div><div class='respDivL'><div class='vertical-center'>(E)</div></div><div class='respDivR'><div class='vertical-center'>(I)</div></div></div>","I","$49<br><br>now","$60<br>in<br>6 weeks","0","49","60","6","THEN"
"html-keyboard-response","21","53432","0.0-5.0-3.5","63f3a7e45f338798fd025d99","bdp_td","Tue Mar 28 2023 08:39:18 GMT-0500 (Central Daylight Time)","113061","","null","","","","offerFB","","<div class='trialBorder'><div class='vertical-center'><img style='vertical-align:center; align:center' src=img/fixation3.jpg></div><div class='cl'><div class='vertical-center'>$49<br><br>now</div></div><div class='cr'><div class='vertical-center'><font style='color:orange'>$60<br>in<br>6 weeks</font></div></div><div class='respDivL'><div class='vertical-center'>(E)</div></div><div class='respDivR'><div class='vertical-center'><font style='color:orange'>(I)</font></div></div></div>","null","$49<br><br>now","$60<br>in<br>6 weeks","0","49","60","6",""
"html-keyboard-response","22","53933","0.0-5.0-1.6","63f3a7e45f338798fd025d99","bdp_td","Tue Mar 28 2023 08:39:18 GMT-0500 (Central Daylight Time)","113061","","null","","","","FIX","","<div class='trialBorder'><div class='vertical-center'><img style='vertical-align:center; align:center' src=img/fixation3.jpg></div></div>","null","","","","","","",""
"html-keyboard-response","23","55730","0.0-5.0-2.6","63f3a7e45f338798fd025d99","bdp_td","Tue Mar 28 2023 08:39:18 GMT-0500 (Central Daylight Time)","113061","","1797","","","","offer","","<div class='trialBorder'><div class='vertical-center'><img style='vertical-align:center; align:center' src=img/fixation3.jpg></div><div class='cl'><div class='vertical-center'>$20<br><br>now</div></div><div class='cr'><div class='vertical-center'>$55<br>in<br>1 week</div></div><div class='respDivL'><div class='vertical-center'>(E)</div></div><div class='respDivR'><div class='vertical-center'>(I)</div></div></div>","I","$20<br><br>now","$55<br>in<br>1 week","0","20","55","1","THEN"
"html-keyboard-response","24","55981","0.0-5.0-3.6","63f3a7e45f338798fd025d99","bdp_td","Tue Mar 28 2023 08:39:18 GMT-0500 (Central Daylight Time)","113061","","null","","","","offerFB","","<div class='trialBorder'><div class='vertical-center'><img style='vertical-align:center; align:center' src=img/fixation3.jpg></div><div class='cl'><div class='vertical-center'>$20<br><br>now</div></div><div class='cr'><div class='vertical-center'><font style='color:orange'>$55<br>in<br>1 week</font></div></div><div class='respDivL'><div class='vertical-center'>(E)</div></div><div class='respDivR'><div class='vertical-center'><font style='color:orange'>(I)</font></div></div></div>","null","$20<br><br>now","$55<br>in<br>1 week","0","20","55","1",""
"html-keyboard-response","25","56482","0.0-5.0-1.7","63f3a7e45f338798fd025d99","bdp_td","Tue Mar 28 2023 08:39:18 GMT-0500 (Central Daylight Time)","113061","","null","","","","FIX","","<div class='trialBorder'><div class='vertical-center'><img style='vertical-align:center; align:center' src=img/fixation3.jpg></div></div>","null","","","","","","",""
"html-keyboard-response","26","58363","0.0-5.0-2.7","63f3a7e45f338798fd025d99","bdp_td","Tue Mar 28 2023 08:39:18 GMT-0500 (Central Daylight Time)","113061","","1880","","","","offer","","<div class='trialBorder'><div class='vertical-center'><img style='vertical-align:center; align:center' src=img/fixation3.jpg></div><div class='cl'><div class='vertical-center'>$22<br><br>now</div></div><div class='cr'><div class='vertical-center'>$25<br>in<br>12 weeks</div></div><div class='respDivL'><div class='vertical-center'>(E)</div></div><div class='respDivR'><div class='vertical-center'>(I)</div></div></div>","E","$22<br><br>now","$25<br>in<br>12 weeks","0","22","25","12","NOW"
"html-keyboard-response","27","58614","0.0-5.0-3.7","63f3a7e45f338798fd025d99","bdp_td","Tue Mar 28 2023 08:39:18 GMT-0500 (Central Daylight Time)","113061","","null","","","","offerFB","","<div class='trialBorder'><div class='vertical-center'><img style='vertical-align:center; align:center' src=img/fixation3.jpg></div><div class='cl'><div class='vertical-center'><font style='color:orange'>$22<br><br>now</font></div></div><div class='cr'><div class='vertical-center'>$25<br>in<br>12 weeks</div></div><div class='respDivL'><div class='vertical-center'><font style='color:orange'>(E)</font></div></div><div class='respDivR'><div class='vertical-center'>(I)</div></div></div>","null","$22<br><br>now","$25<br>in<br>12 weeks","0","22","25","12",""
"html-keyboard-response","28","59115","0.0-5.0-1.8","63f3a7e45f338798fd025d99","bdp_td","Tue Mar 28 2023 08:39:18 GMT-0500 (Central Daylight Time)","113061","","null","","","","FIX","","<div class='trialBorder'><div class='vertical-center'><img style='vertical-align:center; align:center' src=img/fixation3.jpg></div></div>","null","","","","","","",""
"html-keyboard-response","29","60623","0.0-5.0-2.8","63f3a7e45f338798fd025d99","bdp_td","Tue Mar 28 2023 08:39:18 GMT-0500 (Central Daylight Time)","113061","","1508","","","","offer","","<div class='trialBorder'><div class='vertical-center'><img style='vertical-align:center; align:center' src=img/fixation3.jpg></div><div class='cl'><div class='vertical-center'>$24<br><br>now</div></div><div class='cr'><div class='vertical-center'>$35<br>in<br>3 weeks</div></div><div class='respDivL'><div class='vertical-center'>(E)</div></div><div class='respDivR'><div class='vertical-center'>(I)</div></div></div>","I","$24<br><br>now","$35<br>in<br>3 weeks","0","24","35","3","THEN"
"html-keyboard-response","30","60874","0.0-5.0-3.8","63f3a7e45f338798fd025d99","bdp_td","Tue Mar 28 2023 08:39:18 GMT-0500 (Central Daylight Time)","113061","","null","","","","offerFB","","<div class='trialBorder'><div class='vertical-center'><img style='vertical-align:center; align:center' src=img/fixation3.jpg></div><div class='cl'><div class='vertical-center'>$24<br><br>now</div></div><div class='cr'><div class='vertical-center'><font style='color:orange'>$35<br>in<br>3 weeks</font></div></div><div class='respDivL'><div class='vertical-center'>(E)</div></div><div class='respDivR'><div class='vertical-center'><font style='color:orange'>(I)</font></div></div></div>","null","$24<br><br>now","$35<br>in<br>3 weeks","0","24","35","3",""
"html-keyboard-response","31","61375","0.0-5.0-1.9","63f3a7e45f338798fd025d99","bdp_td","Tue Mar 28 2023 08:39:18 GMT-0500 (Central Daylight Time)","113061","","null","","","","FIX","","<div class='trialBorder'><div class='vertical-center'><img style='vertical-align:center; align:center' src=img/fixation3.jpg></div></div>","null","","","","","","",""
"html-keyboard-response","32","62930","0.0-5.0-2.9","63f3a7e45f338798fd025d99","bdp_td","Tue Mar 28 2023 08:39:18 GMT-0500 (Central Daylight Time)","113061","","1553","","","","offer","","<div class='trialBorder'><div class='vertical-center'><img style='vertical-align:center; align:center' src=img/fixation3.jpg></div><div class='cl'><div class='vertical-center'>$75<br>in<br>6 weeks</div></div><div class='cr'><div class='vertical-center'>$55<br><br>now</div></div><div class='respDivL'><div class='vertical-center'>(E)</div></div><div class='respDivR'><div class='vertical-center'>(I)</div></div></div>","E","$55<br><br>now","$75<br>in<br>6 weeks","1","55","75","6","THEN"
"html-keyboard-response","33","63181","0.0-5.0-3.9","63f3a7e45f338798fd025d99","bdp_td","Tue Mar 28 2023 08:39:18 GMT-0500 (Central Daylight Time)","113061","","null","","","","offerFB","","<div class='trialBorder'><div class='vertical-center'><img style='vertical-align:center; align:center' src=img/fixation3.jpg></div><div class='cl'><div class='vertical-center'><font style='color:orange'>$75<br>in<br>6 weeks</font></div></div><div class='cr'><div class='vertical-center'>$55<br><br>now</div></div><div class='respDivL'><div class='vertical-center'><font style='color:orange'>(E)</font></div></div><div class='respDivR'><div class='vertical-center'>(I)</div></div></div>","null","$55<br><br>now","$75<br>in<br>6 weeks","1","55","75","6",""
"html-keyboard-response","34","63682","0.0-5.0-1.10","63f3a7e45f338798fd025d99","bdp_td","Tue Mar 28 2023 08:39:18 GMT-0500 (Central Daylight Time)","113061","","null","","","","FIX","","<div class='trialBorder'><div class='vertical-center'><img style='vertical-align:center; align:center' src=img/fixation3.jpg></div></div>","null","","","","","","",""
"html-keyboard-response","35","64945","0.0-5.0-2.10","63f3a7e45f338798fd025d99","bdp_td","Tue Mar 28 2023 08:39:18 GMT-0500 (Central Daylight Time)","113061","","1263","","","","offer","","<div class='trialBorder'><div class='vertical-center'><img style='vertical-align:center; align:center' src=img/fixation3.jpg></div><div class='cl'><div class='vertical-center'>$75<br>in<br>3 weeks</div></div><div class='cr'><div class='vertical-center'>$41<br><br>now</div></div><div class='respDivL'><div class='vertical-center'>(E)</div></div><div class='respDivR'><div class='vertical-center'>(I)</div></div></div>","E","$41<br><br>now","$75<br>in<br>3 weeks","1","41","75","3","THEN"
"html-keyboard-response","36","65196","0.0-5.0-3.10","63f3a7e45f338798fd025d99","bdp_td","Tue Mar 28 2023 08:39:18 GMT-0500 (Central Daylight Time)","113061","","null","","","","offerFB","","<div class='trialBorder'><div class='vertical-center'><img style='vertical-align:center; align:center' src=img/fixation3.jpg></div><div class='cl'><div class='vertical-center'><font style='color:orange'>$75<br>in<br>3 weeks</font></div></div><div class='cr'><div class='vertical-center'>$41<br><br>now</div></div><div class='respDivL'><div class='vertical-center'><font style='color:orange'>(E)</font></div></div><div class='respDivR'><div class='vertical-center'>(I)</div></div></div>","null","$41<br><br>now","$75<br>in<br>3 weeks","1","41","75","3",""
"html-keyboard-response","37","65697","0.0-5.0-1.11","63f3a7e45f338798fd025d99","bdp_td","Tue Mar 28 2023 08:39:18 GMT-0500 (Central Daylight Time)","113061","","null","","","","FIX","","<div class='trialBorder'><div class='vertical-center'><img style='vertical-align:center; align:center' src=img/fixation3.jpg></div></div>","null","","","","","","",""
"html-keyboard-response","38","67845","0.0-5.0-2.11","63f3a7e45f338798fd025d99","bdp_td","Tue Mar 28 2023 08:39:18 GMT-0500 (Central Daylight Time)","113061","","2147","","","","offer","","<div class='trialBorder'><div class='vertical-center'><img style='vertical-align:center; align:center' src=img/fixation3.jpg></div><div class='cl'><div class='vertical-center'>$54<br><br>now</div></div><div class='cr'><div class='vertical-center'>$60<br>in<br>12 weeks</div></div><div class='respDivL'><div class='vertical-center'>(E)</div></div><div class='respDivR'><div class='vertical-center'>(I)</div></div></div>","E","$54<br><br>now","$60<br>in<br>12 weeks","0","54","60","12","NOW"
"html-keyboard-response","39","68096","0.0-5.0-3.11","63f3a7e45f338798fd025d99","bdp_td","Tue Mar 28 2023 08:39:18 GMT-0500 (Central Daylight Time)","113061","","null","","","","offerFB","","<div class='trialBorder'><div class='vertical-center'><img style='vertical-align:center; align:center' src=img/fixation3.jpg></div><div class='cl'><div class='vertical-center'><font style='color:orange'>$54<br><br>now</font></div></div><div class='cr'><div class='vertical-center'>$60<br>in<br>12 weeks</div></div><div class='respDivL'><div class='vertical-center'><font style='color:orange'>(E)</font></div></div><div class='respDivR'><div class='vertical-center'>(I)</div></div></div>","null","$54<br><br>now","$60<br>in<br>12 weeks","0","54","60","12",""
"html-keyboard-response","40","68597","0.0-5.0-1.12","63f3a7e45f338798fd025d99","bdp_td","Tue Mar 28 2023 08:39:18 GMT-0500 (Central Daylight Time)","113061","","null","","","","FIX","","<div class='trialBorder'><div class='vertical-center'><img style='vertical-align:center; align:center' src=img/fixation3.jpg></div></div>","null","","","","","","",""
"html-keyboard-response","41","72186","0.0-5.0-2.12","63f3a7e45f338798fd025d99","bdp_td","Tue Mar 28 2023 08:39:18 GMT-0500 (Central Daylight Time)","113061","","3588","","","","offer","","<div class='trialBorder'><div class='vertical-center'><img style='vertical-align:center; align:center' src=img/fixation3.jpg></div><div class='cl'><div class='vertical-center'>$25<br>in<br>3 weeks</div></div><div class='cr'><div class='vertical-center'>$14<br><br>now</div></div><div class='respDivL'><div class='vertical-center'>(E)</div></div><div class='respDivR'><div class='vertical-center'>(I)</div></div></div>","E","$14<br><br>now","$25<br>in<br>3 weeks","1","14","25","3","THEN"
"html-keyboard-response","42","72437","0.0-5.0-3.12","63f3a7e45f338798fd025d99","bdp_td","Tue Mar 28 2023 08:39:18 GMT-0500 (Central Daylight Time)","113061","","null","","","","offerFB","","<div class='trialBorder'><div class='vertical-center'><img style='vertical-align:center; align:center' src=img/fixation3.jpg></div><div class='cl'><div class='vertical-center'><font style='color:orange'>$25<br>in<br>3 weeks</font></div></div><div class='cr'><div class='vertical-center'>$14<br><br>now</div></div><div class='respDivL'><div class='vertical-center'><font style='color:orange'>(E)</font></div></div><div class='respDivR'><div class='vertical-center'>(I)</div></div></div>","null","$14<br><br>now","$25<br>in<br>3 weeks","1","14","25","3",""
"html-keyboard-response","43","72938","0.0-5.0-1.13","63f3a7e45f338798fd025d99","bdp_td","Tue Mar 28 2023 08:39:18 GMT-0500 (Central Daylight Time)","113061","","null","","","","FIX","","<div class='trialBorder'><div class='vertical-center'><img style='vertical-align:center; align:center' src=img/fixation3.jpg></div></div>","null","","","","","","",""
"html-keyboard-response","44","74867","0.0-5.0-2.13","63f3a7e45f338798fd025d99","bdp_td","Tue Mar 28 2023 08:39:18 GMT-0500 (Central Daylight Time)","113061","","1929","","","","offer","","<div class='trialBorder'><div class='vertical-center'><img style='vertical-align:center; align:center' src=img/fixation3.jpg></div><div class='cl'><div class='vertical-center'>$25<br>in<br>6 weeks</div></div><div class='cr'><div class='vertical-center'>$19<br><br>now</div></div><div class='respDivL'><div class='vertical-center'>(E)</div></div><div class='respDivR'><div class='vertical-center'>(I)</div></div></div>","I","$19<br><br>now","$25<br>in<br>6 weeks","1","19","25","6","NOW"
"html-keyboard-response","45","75118","0.0-5.0-3.13","63f3a7e45f338798fd025d99","bdp_td","Tue Mar 28 2023 08:39:18 GMT-0500 (Central Daylight Time)","113061","","null","","","","offerFB","","<div class='trialBorder'><div class='vertical-center'><img style='vertical-align:center; align:center' src=img/fixation3.jpg></div><div class='cl'><div class='vertical-center'>$25<br>in<br>6 weeks</div></div><div class='cr'><div class='vertical-center'><font style='color:orange'>$19<br><br>now</font></div></div><div class='respDivL'><div class='vertical-center'>(E)</div></div><div class='respDivR'><div class='vertical-center'><font style='color:orange'>(I)</font></div></div></div>","null","$19<br><br>now","$25<br>in<br>6 weeks","1","19","25","6",""
"html-keyboard-response","46","75620","0.0-5.0-1.14","63f3a7e45f338798fd025d99","bdp_td","Tue Mar 28 2023 08:39:18 GMT-0500 (Central Daylight Time)","113061","","null","","","","FIX","","<div class='trialBorder'><div class='vertical-center'><img style='vertical-align:center; align:center' src=img/fixation3.jpg></div></div>","null","","","","","","",""
"html-keyboard-response","47","77796","0.0-5.0-2.14","63f3a7e45f338798fd025d99","bdp_td","Tue Mar 28 2023 08:39:18 GMT-0500 (Central Daylight Time)","113061","","2176","","","","offer","","<div class='trialBorder'><div class='vertical-center'><img style='vertical-align:center; align:center' src=img/fixation3.jpg></div><div class='cl'><div class='vertical-center'>$34<br><br>now</div></div><div class='cr'><div class='vertical-center'>$50<br>in<br>6 weeks</div></div><div class='respDivL'><div class='vertical-center'>(E)</div></div><div class='respDivR'><div class='vertical-center'>(I)</div></div></div>","I","$34<br><br>now","$50<br>in<br>6 weeks","0","34","50","6","THEN"
"html-keyboard-response","48","78047","0.0-5.0-3.14","63f3a7e45f338798fd025d99","bdp_td","Tue Mar 28 2023 08:39:18 GMT-0500 (Central Daylight Time)","113061","","null","","","","offerFB","","<div class='trialBorder'><div class='vertical-center'><img style='vertical-align:center; align:center' src=img/fixation3.jpg></div><div class='cl'><div class='vertical-center'>$34<br><br>now</div></div><div class='cr'><div class='vertical-center'><font style='color:orange'>$50<br>in<br>6 weeks</font></div></div><div class='respDivL'><div class='vertical-center'>(E)</div></div><div class='respDivR'><div class='vertical-center'><font style='color:orange'>(I)</font></div></div></div>","null","$34<br><br>now","$50<br>in<br>6 weeks","0","34","50","6",""
"html-keyboard-response","49","78548","0.0-5.0-1.15","63f3a7e45f338798fd025d99","bdp_td","Tue Mar 28 2023 08:39:18 GMT-0500 (Central Daylight Time)","113061","","null","","","","FIX","","<div class='trialBorder'><div class='vertical-center'><img style='vertical-align:center; align:center' src=img/fixation3.jpg></div></div>","null","","","","","","",""
"html-keyboard-response","50","80197","0.0-5.0-2.15","63f3a7e45f338798fd025d99","bdp_td","Tue Mar 28 2023 08:39:18 GMT-0500 (Central Daylight Time)","113061","","1648","","","","offer","","<div class='trialBorder'><div class='vertical-center'><img style='vertical-align:center; align:center' src=img/fixation3.jpg></div><div class='cl'><div class='vertical-center'>$75<br>in<br>12 weeks</div></div><div class='cr'><div class='vertical-center'>$67<br><br>now</div></div><div class='respDivL'><div class='vertical-center'>(E)</div></div><div class='respDivR'><div class='vertical-center'>(I)</div></div></div>","I","$67<br><br>now","$75<br>in<br>12 weeks","1","67","75","12","NOW"
"html-keyboard-response","51","80449","0.0-5.0-3.15","63f3a7e45f338798fd025d99","bdp_td","Tue Mar 28 2023 08:39:18 GMT-0500 (Central Daylight Time)","113061","","null","","","","offerFB","","<div class='trialBorder'><div class='vertical-center'><img style='vertical-align:center; align:center' src=img/fixation3.jpg></div><div class='cl'><div class='vertical-center'>$75<br>in<br>12 weeks</div></div><div class='cr'><div class='vertical-center'><font style='color:orange'>$67<br><br>now</font></div></div><div class='respDivL'><div class='vertical-center'>(E)</div></div><div class='respDivR'><div class='vertical-center'><font style='color:orange'>(I)</font></div></div></div>","null","$67<br><br>now","$75<br>in<br>12 weeks","1","67","75","12",""
"html-keyboard-response","52","80950","0.0-5.0-1.16","63f3a7e45f338798fd025d99","bdp_td","Tue Mar 28 2023 08:39:18 GMT-0500 (Central Daylight Time)","113061","","null","","","","FIX","","<div class='trialBorder'><div class='vertical-center'><img style='vertical-align:center; align:center' src=img/fixation3.jpg></div></div>","null","","","","","","",""
"html-keyboard-response","53","83379","0.0-5.0-2.16","63f3a7e45f338798fd025d99","bdp_td","Tue Mar 28 2023 08:39:18 GMT-0500 (Central Daylight Time)","113061","","2429","","","","offer","","<div class='trialBorder'><div class='vertical-center'><img style='vertical-align:center; align:center' src=img/fixation3.jpg></div><div class='cl'><div class='vertical-center'>$40<br><br>now</div></div><div class='cr'><div class='vertical-center'>$55<br>in<br>6 weeks</div></div><div class='respDivL'><div class='vertical-center'>(E)</div></div><div class='respDivR'><div class='vertical-center'>(I)</div></div></div>","E","$40<br><br>now","$55<br>in<br>6 weeks","0","40","55","6","NOW"
"html-keyboard-response","54","83630","0.0-5.0-3.16","63f3a7e45f338798fd025d99","bdp_td","Tue Mar 28 2023 08:39:18 GMT-0500 (Central Daylight Time)","113061","","null","","","","offerFB","","<div class='trialBorder'><div class='vertical-center'><img style='vertical-align:center; align:center' src=img/fixation3.jpg></div><div class='cl'><div class='vertical-center'><font style='color:orange'>$40<br><br>now</font></div></div><div class='cr'><div class='vertical-center'>$55<br>in<br>6 weeks</div></div><div class='respDivL'><div class='vertical-center'><font style='color:orange'>(E)</font></div></div><div class='respDivR'><div class='vertical-center'>(I)</div></div></div>","null","$40<br><br>now","$55<br>in<br>6 weeks","0","40","55","6",""
"html-keyboard-response","55","84131","0.0-5.0-1.17","63f3a7e45f338798fd025d99","bdp_td","Tue Mar 28 2023 08:39:18 GMT-0500 (Central Daylight Time)","113061","","null","","","","FIX","","<div class='trialBorder'><div class='vertical-center'><img style='vertical-align:center; align:center' src=img/fixation3.jpg></div></div>","null","","","","","","",""
"html-keyboard-response","56","86563","0.0-5.0-2.17","63f3a7e45f338798fd025d99","bdp_td","Tue Mar 28 2023 08:39:18 GMT-0500 (Central Daylight Time)","113061","","2431","","","","offer","","<div class='trialBorder'><div class='vertical-center'><img style='vertical-align:center; align:center' src=img/fixation3.jpg></div><div class='cl'><div class='vertical-center'>$25<br><br>now</div></div><div class='cr'><div class='vertical-center'>$30<br>in<br>6 weeks</div></div><div class='respDivL'><div class='vertical-center'>(E)</div></div><div class='respDivR'><div class='vertical-center'>(I)</div></div></div>","E","$25<br><br>now","$30<br>in<br>6 weeks","0","25","30","6","NOW"
"html-keyboard-response","57","86814","0.0-5.0-3.17","63f3a7e45f338798fd025d99","bdp_td","Tue Mar 28 2023 08:39:18 GMT-0500 (Central Daylight Time)","113061","","null","","","","offerFB","","<div class='trialBorder'><div class='vertical-center'><img style='vertical-align:center; align:center' src=img/fixation3.jpg></div><div class='cl'><div class='vertical-center'><font style='color:orange'>$25<br><br>now</font></div></div><div class='cr'><div class='vertical-center'>$30<br>in<br>6 weeks</div></div><div class='respDivL'><div class='vertical-center'><font style='color:orange'>(E)</font></div></div><div class='respDivR'><div class='vertical-center'>(I)</div></div></div>","null","$25<br><br>now","$30<br>in<br>6 weeks","0","25","30","6",""
"html-keyboard-response","58","87315","0.0-5.0-1.18","63f3a7e45f338798fd025d99","bdp_td","Tue Mar 28 2023 08:39:18 GMT-0500 (Central Daylight Time)","113061","","null","","","","FIX","","<div class='trialBorder'><div class='vertical-center'><img style='vertical-align:center; align:center' src=img/fixation3.jpg></div></div>","null","","","","","","",""
"html-keyboard-response","59","88877","0.0-5.0-2.18","63f3a7e45f338798fd025d99","bdp_td","Tue Mar 28 2023 08:39:18 GMT-0500 (Central Daylight Time)","113061","","1560","","","","offer","","<div class='trialBorder'><div class='vertical-center'><img style='vertical-align:center; align:center' src=img/fixation3.jpg></div><div class='cl'><div class='vertical-center'>$27<br><br>now</div></div><div class='cr'><div class='vertical-center'>$50<br>in<br>3 weeks</div></div><div class='respDivL'><div class='vertical-center'>(E)</div></div><div class='respDivR'><div class='vertical-center'>(I)</div></div></div>","I","$27<br><br>now","$50<br>in<br>3 weeks","0","27","50","3","THEN"
"html-keyboard-response","60","89128","0.0-5.0-3.18","63f3a7e45f338798fd025d99","bdp_td","Tue Mar 28 2023 08:39:18 GMT-0500 (Central Daylight Time)","113061","","null","","","","offerFB","","<div class='trialBorder'><div class='vertical-center'><img style='vertical-align:center; align:center' src=img/fixation3.jpg></div><div class='cl'><div class='vertical-center'>$27<br><br>now</div></div><div class='cr'><div class='vertical-center'><font style='color:orange'>$50<br>in<br>3 weeks</font></div></div><div class='respDivL'><div class='vertical-center'>(E)</div></div><div class='respDivR'><div class='vertical-center'><font style='color:orange'>(I)</font></div></div></div>","null","$27<br><br>now","$50<br>in<br>3 weeks","0","27","50","3",""
"html-keyboard-response","61","89629","0.0-5.0-1.19","63f3a7e45f338798fd025d99","bdp_td","Tue Mar 28 2023 08:39:18 GMT-0500 (Central Daylight Time)","113061","","null","","","","FIX","","<div class='trialBorder'><div class='vertical-center'><img style='vertical-align:center; align:center' src=img/fixation3.jpg></div></div>","null","","","","","","",""
"html-keyboard-response","62","91502","0.0-5.0-2.19","63f3a7e45f338798fd025d99","bdp_td","Tue Mar 28 2023 08:39:18 GMT-0500 (Central Daylight Time)","113061","","1873","","","","offer","","<div class='trialBorder'><div class='vertical-center'><img style='vertical-align:center; align:center' src=img/fixation3.jpg></div><div class='cl'><div class='vertical-center'>$80<br>in<br>12 weeks</div></div><div class='cr'><div class='vertical-center'>$78<br><br>now</div></div><div class='respDivL'><div class='vertical-center'>(E)</div></div><div class='respDivR'><div class='vertical-center'>(I)</div></div></div>","I","$78<br><br>now","$80<br>in<br>12 weeks","1","78","80","12","NOW"
"html-keyboard-response","63","91753","0.0-5.0-3.19","63f3a7e45f338798fd025d99","bdp_td","Tue Mar 28 2023 08:39:18 GMT-0500 (Central Daylight Time)","113061","","null","","","","offerFB","","<div class='trialBorder'><div class='vertical-center'><img style='vertical-align:center; align:center' src=img/fixation3.jpg></div><div class='cl'><div class='vertical-center'>$80<br>in<br>12 weeks</div></div><div class='cr'><div class='vertical-center'><font style='color:orange'>$78<br><br>now</font></div></div><div class='respDivL'><div class='vertical-center'>(E)</div></div><div class='respDivR'><div class='vertical-center'><font style='color:orange'>(I)</font></div></div></div>","null","$78<br><br>now","$80<br>in<br>12 weeks","1","78","80","12",""
"html-keyboard-response","64","92254","0.0-5.0-1.20","63f3a7e45f338798fd025d99","bdp_td","Tue Mar 28 2023 08:39:18 GMT-0500 (Central Daylight Time)","113061","","null","","","","FIX","","<div class='trialBorder'><div class='vertical-center'><img style='vertical-align:center; align:center' src=img/fixation3.jpg></div></div>","null","","","","","","",""
"html-keyboard-response","65","94534","0.0-5.0-2.20","63f3a7e45f338798fd025d99","bdp_td","Tue Mar 28 2023 08:39:18 GMT-0500 (Central Daylight Time)","113061","","2279","","","","offer","","<div class='trialBorder'><div class='vertical-center'><img style='vertical-align:center; align:center' src=img/fixation3.jpg></div><div class='cl'><div class='vertical-center'>$30<br>in<br>2 weeks</div></div><div class='cr'><div class='vertical-center'>$11<br><br>now</div></div><div class='respDivL'><div class='vertical-center'>(E)</div></div><div class='respDivR'><div class='vertical-center'>(I)</div></div></div>","E","$11<br><br>now","$30<br>in<br>2 weeks","1","11","30","2","THEN"
"html-keyboard-response","66","94785","0.0-5.0-3.20","63f3a7e45f338798fd025d99","bdp_td","Tue Mar 28 2023 08:39:18 GMT-0500 (Central Daylight Time)","113061","","null","","","","offerFB","","<div class='trialBorder'><div class='vertical-center'><img style='vertical-align:center; align:center' src=img/fixation3.jpg></div><div class='cl'><div class='vertical-center'><font style='color:orange'>$30<br>in<br>2 weeks</font></div></div><div class='cr'><div class='vertical-center'>$11<br><br>now</div></div><div class='respDivL'><div class='vertical-center'><font style='color:orange'>(E)</font></div></div><div class='respDivR'><div class='vertical-center'>(I)</div></div></div>","null","$11<br><br>now","$30<br>in<br>2 weeks","1","11","30","2",""
"html-keyboard-response","67","95286","0.0-5.0-1.21","63f3a7e45f338798fd025d99","bdp_td","Tue Mar 28 2023 08:39:18 GMT-0500 (Central Daylight Time)","113061","","null","","","","FIX","","<div class='trialBorder'><div class='vertical-center'><img style='vertical-align:center; align:center' src=img/fixation3.jpg></div></div>","null","","","","","","",""
"html-keyboard-response","68","96787","0.0-5.0-2.21","63f3a7e45f338798fd025d99","bdp_td","Tue Mar 28 2023 08:39:18 GMT-0500 (Central Daylight Time)","113061","","1501","","","","offer","","<div class='trialBorder'><div class='vertical-center'><img style='vertical-align:center; align:center' src=img/fixation3.jpg></div><div class='cl'><div class='vertical-center'>$60<br>in<br>3 weeks</div></div><div class='cr'><div class='vertical-center'>$25<br><br>now</div></div><div class='respDivL'><div class='vertical-center'>(E)</div></div><div class='respDivR'><div class='vertical-center'>(I)</div></div></div>","E","$25<br><br>now","$60<br>in<br>3 weeks","1","25","60","3","THEN"
"html-keyboard-response","69","97038","0.0-5.0-3.21","63f3a7e45f338798fd025d99","bdp_td","Tue Mar 28 2023 08:39:18 GMT-0500 (Central Daylight Time)","113061","","null","","","","offerFB","","<div class='trialBorder'><div class='vertical-center'><img style='vertical-align:center; align:center' src=img/fixation3.jpg></div><div class='cl'><div class='vertical-center'><font style='color:orange'>$60<br>in<br>3 weeks</font></div></div><div class='cr'><div class='vertical-center'>$25<br><br>now</div></div><div class='respDivL'><div class='vertical-center'><font style='color:orange'>(E)</font></div></div><div class='respDivR'><div class='vertical-center'>(I)</div></div></div>","null","$25<br><br>now","$60<br>in<br>3 weeks","1","25","60","3",""
"html-keyboard-response","70","97539","0.0-5.0-1.22","63f3a7e45f338798fd025d99","bdp_td","Tue Mar 28 2023 08:39:18 GMT-0500 (Central Daylight Time)","113061","","null","","","","FIX","","<div class='trialBorder'><div class='vertical-center'><img style='vertical-align:center; align:center' src=img/fixation3.jpg></div></div>","null","","","","","","",""
"html-keyboard-response","71","99017","0.0-5.0-2.22","63f3a7e45f338798fd025d99","bdp_td","Tue Mar 28 2023 08:39:18 GMT-0500 (Central Daylight Time)","113061","","1476","","","","offer","","<div class='trialBorder'><div class='vertical-center'><img style='vertical-align:center; align:center' src=img/fixation3.jpg></div><div class='cl'><div class='vertical-center'>$30<br>in<br>12 weeks</div></div><div class='cr'><div class='vertical-center'>$28<br><br>now</div></div><div class='respDivL'><div class='vertical-center'>(E)</div></div><div class='respDivR'><div class='vertical-center'>(I)</div></div></div>","I","$28<br><br>now","$30<br>in<br>12 weeks","1","28","30","12","NOW"
"html-keyboard-response","72","99268","0.0-5.0-3.22","63f3a7e45f338798fd025d99","bdp_td","Tue Mar 28 2023 08:39:18 GMT-0500 (Central Daylight Time)","113061","","null","","","","offerFB","","<div class='trialBorder'><div class='vertical-center'><img style='vertical-align:center; align:center' src=img/fixation3.jpg></div><div class='cl'><div class='vertical-center'>$30<br>in<br>12 weeks</div></div><div class='cr'><div class='vertical-center'><font style='color:orange'>$28<br><br>now</font></div></div><div class='respDivL'><div class='vertical-center'>(E)</div></div><div class='respDivR'><div class='vertical-center'><font style='color:orange'>(I)</font></div></div></div>","null","$28<br><br>now","$30<br>in<br>12 weeks","1","28","30","12",""
"html-keyboard-response","73","99768","0.0-5.0-1.23","63f3a7e45f338798fd025d99","bdp_td","Tue Mar 28 2023 08:39:18 GMT-0500 (Central Daylight Time)","113061","","null","","","","FIX","","<div class='trialBorder'><div class='vertical-center'><img style='vertical-align:center; align:center' src=img/fixation3.jpg></div></div>","null","","","","","","",""
"html-keyboard-response","74","102734","0.0-5.0-2.23","63f3a7e45f338798fd025d99","bdp_td","Tue Mar 28 2023 08:39:18 GMT-0500 (Central Daylight Time)","113061","","2965","","","","offer","","<div class='trialBorder'><div class='vertical-center'><img style='vertical-align:center; align:center' src=img/fixation3.jpg></div><div class='cl'><div class='vertical-center'>$69<br><br>now</div></div><div class='cr'><div class='vertical-center'>$85<br>in<br>6 weeks</div></div><div class='respDivL'><div class='vertical-center'>(E)</div></div><div class='respDivR'><div class='vertical-center'>(I)</div></div></div>","E","$69<br><br>now","$85<br>in<br>6 weeks","0","69","85","6","NOW"
"html-keyboard-response","75","102985","0.0-5.0-3.23","63f3a7e45f338798fd025d99","bdp_td","Tue Mar 28 2023 08:39:18 GMT-0500 (Central Daylight Time)","113061","","null","","","","offerFB","","<div class='trialBorder'><div class='vertical-center'><img style='vertical-align:center; align:center' src=img/fixation3.jpg></div><div class='cl'><div class='vertical-center'><font style='color:orange'>$69<br><br>now</font></div></div><div class='cr'><div class='vertical-center'>$85<br>in<br>6 weeks</div></div><div class='respDivL'><div class='vertical-center'><font style='color:orange'>(E)</font></div></div><div class='respDivR'><div class='vertical-center'>(I)</div></div></div>","null","$69<br><br>now","$85<br>in<br>6 weeks","0","69","85","6",""
"html-keyboard-response","76","103486","0.0-5.0-1.24","63f3a7e45f338798fd025d99","bdp_td","Tue Mar 28 2023 08:39:18 GMT-0500 (Central Daylight Time)","113061","","null","","","","FIX","","<div class='trialBorder'><div class='vertical-center'><img style='vertical-align:center; align:center' src=img/fixation3.jpg></div></div>","null","","","","","","",""
"html-keyboard-response","77","105709","0.0-5.0-2.24","63f3a7e45f338798fd025d99","bdp_td","Tue Mar 28 2023 08:39:18 GMT-0500 (Central Daylight Time)","113061","","2223","","","","offer","","<div class='trialBorder'><div class='vertical-center'><img style='vertical-align:center; align:center' src=img/fixation3.jpg></div><div class='cl'><div class='vertical-center'>$34<br><br>now</div></div><div class='cr'><div class='vertical-center'>$35<br>in<br>12 weeks</div></div><div class='respDivL'><div class='vertical-center'>(E)</div></div><div class='respDivR'><div class='vertical-center'>(I)</div></div></div>","E","$34<br><br>now","$35<br>in<br>12 weeks","0","34","35","12","NOW"
"html-keyboard-response","78","105960","0.0-5.0-3.24","63f3a7e45f338798fd025d99","bdp_td","Tue Mar 28 2023 08:39:18 GMT-0500 (Central Daylight Time)","113061","","null","","","","offerFB","","<div class='trialBorder'><div class='vertical-center'><img style='vertical-align:center; align:center' src=img/fixation3.jpg></div><div class='cl'><div class='vertical-center'><font style='color:orange'>$34<br><br>now</font></div></div><div class='cr'><div class='vertical-center'>$35<br>in<br>12 weeks</div></div><div class='respDivL'><div class='vertical-center'><font style='color:orange'>(E)</font></div></div><div class='respDivR'><div class='vertical-center'>(I)</div></div></div>","null","$34<br><br>now","$35<br>in<br>12 weeks","0","34","35","12",""
"html-keyboard-response","79","106461","0.0-5.0-1.25","63f3a7e45f338798fd025d99","bdp_td","Tue Mar 28 2023 08:39:18 GMT-0500 (Central Daylight Time)","113061","","null","","","","FIX","","<div class='trialBorder'><div class='vertical-center'><img style='vertical-align:center; align:center' src=img/fixation3.jpg></div></div>","null","","","","","","",""
"html-keyboard-response","80","109170","0.0-5.0-2.25","63f3a7e45f338798fd025d99","bdp_td","Tue Mar 28 2023 08:39:18 GMT-0500 (Central Daylight Time)","113061","","2708","","","","offer","","<div class='trialBorder'><div class='vertical-center'><img style='vertical-align:center; align:center' src=img/fixation3.jpg></div><div class='cl'><div class='vertical-center'>$47<br><br>now</div></div><div class='cr'><div class='vertical-center'>$50<br>in<br>12 weeks</div></div><div class='respDivL'><div class='vertical-center'>(E)</div></div><div class='respDivR'><div class='vertical-center'>(I)</div></div></div>","E","$47<br><br>now","$50<br>in<br>12 weeks","0","47","50","12","NOW"
"html-keyboard-response","81","109421","0.0-5.0-3.25","63f3a7e45f338798fd025d99","bdp_td","Tue Mar 28 2023 08:39:18 GMT-0500 (Central Daylight Time)","113061","","null","","","","offerFB","","<div class='trialBorder'><div class='vertical-center'><img style='vertical-align:center; align:center' src=img/fixation3.jpg></div><div class='cl'><div class='vertical-center'><font style='color:orange'>$47<br><br>now</font></div></div><div class='cr'><div class='vertical-center'>$50<br>in<br>12 weeks</div></div><div class='respDivL'><div class='vertical-center'><font style='color:orange'>(E)</font></div></div><div class='respDivR'><div class='vertical-center'>(I)</div></div></div>","null","$47<br><br>now","$50<br>in<br>12 weeks","0","47","50","12",""
"html-keyboard-response","82","109922","0.0-5.0-1.26","63f3a7e45f338798fd025d99","bdp_td","Tue Mar 28 2023 08:39:18 GMT-0500 (Central Daylight Time)","113061","","null","","","","FIX","","<div class='trialBorder'><div class='vertical-center'><img style='vertical-align:center; align:center' src=img/fixation3.jpg></div></div>","null","","","","","","",""
"html-keyboard-response","83","111809","0.0-5.0-2.26","63f3a7e45f338798fd025d99","bdp_td","Tue Mar 28 2023 08:39:18 GMT-0500 (Central Daylight Time)","113061","","1886","","","","offer","","<div class='trialBorder'><div class='vertical-center'><img style='vertical-align:center; align:center' src=img/fixation3.jpg></div><div class='cl'><div class='vertical-center'>$85<br>in<br>1 week</div></div><div class='cr'><div class='vertical-center'>$31<br><br>now</div></div><div class='respDivL'><div class='vertical-center'>(E)</div></div><div class='respDivR'><div class='vertical-center'>(I)</div></div></div>","E","$31<br><br>now","$85<br>in<br>1 week","1","31","85","1","THEN"
"html-keyboard-response","84","112060","0.0-5.0-3.26","63f3a7e45f338798fd025d99","bdp_td","Tue Mar 28 2023 08:39:18 GMT-0500 (Central Daylight Time)","113061","","null","","","","offerFB","","<div class='trialBorder'><div class='vertical-center'><img style='vertical-align:center; align:center' src=img/fixation3.jpg></div><div class='cl'><div class='vertical-center'><font style='color:orange'>$85<br>in<br>1 week</font></div></div><div class='cr'><div class='vertical-center'>$31<br><br>now</div></div><div class='respDivL'><div class='vertical-center'><font style='color:orange'>(E)</font></div></div><div class='respDivR'><div class='vertical-center'>(I)</div></div></div>","null","$31<br><br>now","$85<br>in<br>1 week","1","31","85","1",""
"","","","","63f3a7e45f338798fd025d99","bdp_td","Tue Mar 28 2023 08:39:18 GMT-0500 (Central Daylight Time)","113061","","","fullscreenexit","85","112080","fullscreenexit","","","","","","","","","",""
"fullscreen","85","113061","0.0-6.0","63f3a7e45f338798fd025d99","bdp_td","Tue Mar 28 2023 08:39:18 GMT-0500 (Central Daylight Time)","113061","","","","","","","true","","","","","","","","",""
"html-keyboard-response","86","113562","0.0-7.0","","","","","","null","","","","","","","null","","","","","","",""
