"trial_type","trial_index","time_elapsed","internal_node_id","subject_id","task","startTime","totalTime","view_history","rt","event","trial","time","trialtype","success","stimulus","key_press","nowOffer","thenOffer","thenLeft","nowAmt","thenAmt","thenWeeks","chosen"
"pavlovia","0","5","0.0-0.0","61282ca83be28773ac7c421f","bdp_td","Mon Mar 27 2023 13:58:33 GMT-0400 (Eastern Daylight Time)","488312","","","","","","","","","","","","","","","",""
"instructions","1","154680","0.0-1.0","61282ca83be28773ac7c421f","bdp_td","Mon Mar 27 2023 13:58:33 GMT-0400 (Eastern Daylight Time)","488312","[{""page_index"":0,""viewing_time"":154674}]","154675","","","","","","","","","","","","","",""
"","","","","61282ca83be28773ac7c421f","bdp_td","Mon Mar 27 2023 13:58:33 GMT-0400 (Eastern Daylight Time)","488312","","","fullscreenenter","2","160094","fullscreenenter","","","","","","","","","",""
"fullscreen","2","161087","0.0-2.0","61282ca83be28773ac7c421f","bdp_td","Mon Mar 27 2023 13:58:33 GMT-0400 (Eastern Daylight Time)","488312","","","","","","","true","","","","","","","","",""
"instructions","3","346121","0.0-4.0","61282ca83be28773ac7c421f","bdp_td","Mon Mar 27 2023 13:58:33 GMT-0400 (Eastern Daylight Time)","488312","[{""page_index"":0,""viewing_time"":128430},{""page_index"":1,""viewing_time"":18371},{""page_index"":2,""viewing_time"":38231}]","185032","","","","","","","","","","","","","",""
"html-keyboard-response","4","346624","0.0-5.0-1.0","61282ca83be28773ac7c421f","bdp_td","Mon Mar 27 2023 13:58:33 GMT-0400 (Eastern Daylight Time)","488312","","null","","","","FIX","","<div class='trialBorder'><div class='vertical-center'><img style='vertical-align:center; align:center' src=img/fixation3.jpg></div></div>","null","","","","","","",""
"html-keyboard-response","5","360634","0.0-5.0-2.0","61282ca83be28773ac7c421f","bdp_td","Mon Mar 27 2023 13:58:33 GMT-0400 (Eastern Daylight Time)","488312","","14009","","","","offer","","<div class='trialBorder'><div class='vertical-center'><img style='vertical-align:center; align:center' src=img/fixation3.jpg></div><div class='cl'><div class='vertical-center'>$50<br>in<br>3 weeks</div></div><div class='cr'><div class='vertical-center'>$27<br><br>now</div></div><div class='respDivL'><div class='vertical-center'>(E)</div></div><div class='respDivR'><div class='vertical-center'>(I)</div></div></div>","I","$27<br><br>now","$50<br>in<br>3 weeks","1","27","50","3","NOW"
"html-keyboard-response","6","360887","0.0-5.0-3.0","61282ca83be28773ac7c421f","bdp_td","Mon Mar 27 2023 13:58:33 GMT-0400 (Eastern Daylight Time)","488312","","null","","","","offerFB","","<div class='trialBorder'><div class='vertical-center'><img style='vertical-align:center; align:center' src=img/fixation3.jpg></div><div class='cl'><div class='vertical-center'>$50<br>in<br>3 weeks</div></div><div class='cr'><div class='vertical-center'><font style='color:orange'>$27<br><br>now</font></div></div><div class='respDivL'><div class='vertical-center'>(E)</div></div><div class='respDivR'><div class='vertical-center'><font style='color:orange'>(I)</font></div></div></div>","null","$27<br><br>now","$50<br>in<br>3 weeks","1","27","50","3",""
"html-keyboard-response","7","361392","0.0-5.0-1.1","61282ca83be28773ac7c421f","bdp_td","Mon Mar 27 2023 13:58:33 GMT-0400 (Eastern Daylight Time)","488312","","null","","","","FIX","","<div class='trialBorder'><div class='vertical-center'><img style='vertical-align:center; align:center' src=img/fixation3.jpg></div></div>","null","","","","","","",""
"html-keyboard-response","8","363440","0.0-5.0-2.1","61282ca83be28773ac7c421f","bdp_td","Mon Mar 27 2023 13:58:33 GMT-0400 (Eastern Daylight Time)","488312","","2047","","","","offer","","<div class='trialBorder'><div class='vertical-center'><img style='vertical-align:center; align:center' src=img/fixation3.jpg></div><div class='cl'><div class='vertical-center'>$55<br>in<br>6 weeks</div></div><div class='cr'><div class='vertical-center'>$40<br><br>now</div></div><div class='respDivL'><div class='vertical-center'>(E)</div></div><div class='respDivR'><div class='vertical-center'>(I)</div></div></div>","I","$40<br><br>now","$55<br>in<br>6 weeks","1","40","55","6","NOW"
"html-keyboard-response","9","363696","0.0-5.0-3.1","61282ca83be28773ac7c421f","bdp_td","Mon Mar 27 2023 13:58:33 GMT-0400 (Eastern Daylight Time)","488312","","null","","","","offerFB","","<div class='trialBorder'><div class='vertical-center'><img style='vertical-align:center; align:center' src=img/fixation3.jpg></div><div class='cl'><div class='vertical-center'>$55<br>in<br>6 weeks</div></div><div class='cr'><div class='vertical-center'><font style='color:orange'>$40<br><br>now</font></div></div><div class='respDivL'><div class='vertical-center'>(E)</div></div><div class='respDivR'><div class='vertical-center'><font style='color:orange'>(I)</font></div></div></div>","null","$40<br><br>now","$55<br>in<br>6 weeks","1","40","55","6",""
"html-keyboard-response","10","364199","0.0-5.0-1.2","61282ca83be28773ac7c421f","bdp_td","Mon Mar 27 2023 13:58:33 GMT-0400 (Eastern Daylight Time)","488312","","null","","","","FIX","","<div class='trialBorder'><div class='vertical-center'><img style='vertical-align:center; align:center' src=img/fixation3.jpg></div></div>","null","","","","","","",""
"html-keyboard-response","11","368353","0.0-5.0-2.2","61282ca83be28773ac7c421f","bdp_td","Mon Mar 27 2023 13:58:33 GMT-0400 (Eastern Daylight Time)","488312","","4153","","","","offer","","<div class='trialBorder'><div class='vertical-center'><img style='vertical-align:center; align:center' src=img/fixation3.jpg></div><div class='cl'><div class='vertical-center'>$60<br>in<br>12 weeks</div></div><div class='cr'><div class='vertical-center'>$54<br><br>now</div></div><div class='respDivL'><div class='vertical-center'>(E)</div></div><div class='respDivR'><div class='vertical-center'>(I)</div></div></div>","I","$54<br><br>now","$60<br>in<br>12 weeks","1","54","60","12","NOW"
"html-keyboard-response","12","368608","0.0-5.0-3.2","61282ca83be28773ac7c421f","bdp_td","Mon Mar 27 2023 13:58:33 GMT-0400 (Eastern Daylight Time)","488312","","null","","","","offerFB","","<div class='trialBorder'><div class='vertical-center'><img style='vertical-align:center; align:center' src=img/fixation3.jpg></div><div class='cl'><div class='vertical-center'>$60<br>in<br>12 weeks</div></div><div class='cr'><div class='vertical-center'><font style='color:orange'>$54<br><br>now</font></div></div><div class='respDivL'><div class='vertical-center'>(E)</div></div><div class='respDivR'><div class='vertical-center'><font style='color:orange'>(I)</font></div></div></div>","null","$54<br><br>now","$60<br>in<br>12 weeks","1","54","60","12",""
"html-keyboard-response","13","369112","0.0-5.0-1.3","61282ca83be28773ac7c421f","bdp_td","Mon Mar 27 2023 13:58:33 GMT-0400 (Eastern Daylight Time)","488312","","null","","","","FIX","","<div class='trialBorder'><div class='vertical-center'><img style='vertical-align:center; align:center' src=img/fixation3.jpg></div></div>","null","","","","","","",""
"html-keyboard-response","14","371685","0.0-5.0-2.3","61282ca83be28773ac7c421f","bdp_td","Mon Mar 27 2023 13:58:33 GMT-0400 (Eastern Daylight Time)","488312","","2573","","","","offer","","<div class='trialBorder'><div class='vertical-center'><img style='vertical-align:center; align:center' src=img/fixation3.jpg></div><div class='cl'><div class='vertical-center'>$54<br><br>now</div></div><div class='cr'><div class='vertical-center'>$80<br>in<br>3 weeks</div></div><div class='respDivL'><div class='vertical-center'>(E)</div></div><div class='respDivR'><div class='vertical-center'>(I)</div></div></div>","E","$54<br><br>now","$80<br>in<br>3 weeks","0","54","80","3","NOW"
"html-keyboard-response","15","371944","0.0-5.0-3.3","61282ca83be28773ac7c421f","bdp_td","Mon Mar 27 2023 13:58:33 GMT-0400 (Eastern Daylight Time)","488312","","null","","","","offerFB","","<div class='trialBorder'><div class='vertical-center'><img style='vertical-align:center; align:center' src=img/fixation3.jpg></div><div class='cl'><div class='vertical-center'><font style='color:orange'>$54<br><br>now</font></div></div><div class='cr'><div class='vertical-center'>$80<br>in<br>3 weeks</div></div><div class='respDivL'><div class='vertical-center'><font style='color:orange'>(E)</font></div></div><div class='respDivR'><div class='vertical-center'>(I)</div></div></div>","null","$54<br><br>now","$80<br>in<br>3 weeks","0","54","80","3",""
"html-keyboard-response","16","372448","0.0-5.0-1.4","61282ca83be28773ac7c421f","bdp_td","Mon Mar 27 2023 13:58:33 GMT-0400 (Eastern Daylight Time)","488312","","null","","","","FIX","","<div class='trialBorder'><div class='vertical-center'><img style='vertical-align:center; align:center' src=img/fixation3.jpg></div></div>","null","","","","","","",""
"html-keyboard-response","17","376111","0.0-5.0-2.4","61282ca83be28773ac7c421f","bdp_td","Mon Mar 27 2023 13:58:33 GMT-0400 (Eastern Daylight Time)","488312","","3662","","","","offer","","<div class='trialBorder'><div class='vertical-center'><img style='vertical-align:center; align:center' src=img/fixation3.jpg></div><div class='cl'><div class='vertical-center'>$33<br><br>now</div></div><div class='cr'><div class='vertical-center'>$80<br>in<br>2 weeks</div></div><div class='respDivL'><div class='vertical-center'>(E)</div></div><div class='respDivR'><div class='vertical-center'>(I)</div></div></div>","I","$33<br><br>now","$80<br>in<br>2 weeks","0","33","80","2","THEN"
"html-keyboard-response","18","376367","0.0-5.0-3.4","61282ca83be28773ac7c421f","bdp_td","Mon Mar 27 2023 13:58:33 GMT-0400 (Eastern Daylight Time)","488312","","null","","","","offerFB","","<div class='trialBorder'><div class='vertical-center'><img style='vertical-align:center; align:center' src=img/fixation3.jpg></div><div class='cl'><div class='vertical-center'>$33<br><br>now</div></div><div class='cr'><div class='vertical-center'><font style='color:orange'>$80<br>in<br>2 weeks</font></div></div><div class='respDivL'><div class='vertical-center'>(E)</div></div><div class='respDivR'><div class='vertical-center'><font style='color:orange'>(I)</font></div></div></div>","null","$33<br><br>now","$80<br>in<br>2 weeks","0","33","80","2",""
"html-keyboard-response","19","376871","0.0-5.0-1.5","61282ca83be28773ac7c421f","bdp_td","Mon Mar 27 2023 13:58:33 GMT-0400 (Eastern Daylight Time)","488312","","null","","","","FIX","","<div class='trialBorder'><div class='vertical-center'><img style='vertical-align:center; align:center' src=img/fixation3.jpg></div></div>","null","","","","","","",""
"html-keyboard-response","20","380073","0.0-5.0-2.5","61282ca83be28773ac7c421f","bdp_td","Mon Mar 27 2023 13:58:33 GMT-0400 (Eastern Daylight Time)","488312","","3200","","","","offer","","<div class='trialBorder'><div class='vertical-center'><img style='vertical-align:center; align:center' src=img/fixation3.jpg></div><div class='cl'><div class='vertical-center'>$20<br><br>now</div></div><div class='cr'><div class='vertical-center'>$55<br>in<br>1 week</div></div><div class='respDivL'><div class='vertical-center'>(E)</div></div><div class='respDivR'><div class='vertical-center'>(I)</div></div></div>","I","$20<br><br>now","$55<br>in<br>1 week","0","20","55","1","THEN"
"html-keyboard-response","21","380327","0.0-5.0-3.5","61282ca83be28773ac7c421f","bdp_td","Mon Mar 27 2023 13:58:33 GMT-0400 (Eastern Daylight Time)","488312","","null","","","","offerFB","","<div class='trialBorder'><div class='vertical-center'><img style='vertical-align:center; align:center' src=img/fixation3.jpg></div><div class='cl'><div class='vertical-center'>$20<br><br>now</div></div><div class='cr'><div class='vertical-center'><font style='color:orange'>$55<br>in<br>1 week</font></div></div><div class='respDivL'><div class='vertical-center'>(E)</div></div><div class='respDivR'><div class='vertical-center'><font style='color:orange'>(I)</font></div></div></div>","null","$20<br><br>now","$55<br>in<br>1 week","0","20","55","1",""
"html-keyboard-response","22","380832","0.0-5.0-1.6","61282ca83be28773ac7c421f","bdp_td","Mon Mar 27 2023 13:58:33 GMT-0400 (Eastern Daylight Time)","488312","","null","","","","FIX","","<div class='trialBorder'><div class='vertical-center'><img style='vertical-align:center; align:center' src=img/fixation3.jpg></div></div>","null","","","","","","",""
"html-keyboard-response","23","383040","0.0-5.0-2.6","61282ca83be28773ac7c421f","bdp_td","Mon Mar 27 2023 13:58:33 GMT-0400 (Eastern Daylight Time)","488312","","2207","","","","offer","","<div class='trialBorder'><div class='vertical-center'><img style='vertical-align:center; align:center' src=img/fixation3.jpg></div><div class='cl'><div class='vertical-center'>$28<br><br>now</div></div><div class='cr'><div class='vertical-center'>$30<br>in<br>12 weeks</div></div><div class='respDivL'><div class='vertical-center'>(E)</div></div><div class='respDivR'><div class='vertical-center'>(I)</div></div></div>","E","$28<br><br>now","$30<br>in<br>12 weeks","0","28","30","12","NOW"
"html-keyboard-response","24","383295","0.0-5.0-3.6","61282ca83be28773ac7c421f","bdp_td","Mon Mar 27 2023 13:58:33 GMT-0400 (Eastern Daylight Time)","488312","","null","","","","offerFB","","<div class='trialBorder'><div class='vertical-center'><img style='vertical-align:center; align:center' src=img/fixation3.jpg></div><div class='cl'><div class='vertical-center'><font style='color:orange'>$28<br><br>now</font></div></div><div class='cr'><div class='vertical-center'>$30<br>in<br>12 weeks</div></div><div class='respDivL'><div class='vertical-center'><font style='color:orange'>(E)</font></div></div><div class='respDivR'><div class='vertical-center'>(I)</div></div></div>","null","$28<br><br>now","$30<br>in<br>12 weeks","0","28","30","12",""
"html-keyboard-response","25","383800","0.0-5.0-1.7","61282ca83be28773ac7c421f","bdp_td","Mon Mar 27 2023 13:58:33 GMT-0400 (Eastern Daylight Time)","488312","","null","","","","FIX","","<div class='trialBorder'><div class='vertical-center'><img style='vertical-align:center; align:center' src=img/fixation3.jpg></div></div>","null","","","","","","",""
"html-keyboard-response","26","387781","0.0-5.0-2.7","61282ca83be28773ac7c421f","bdp_td","Mon Mar 27 2023 13:58:33 GMT-0400 (Eastern Daylight Time)","488312","","3979","","","","offer","","<div class='trialBorder'><div class='vertical-center'><img style='vertical-align:center; align:center' src=img/fixation3.jpg></div><div class='cl'><div class='vertical-center'>$35<br>in<br>12 weeks</div></div><div class='cr'><div class='vertical-center'>$34<br><br>now</div></div><div class='respDivL'><div class='vertical-center'>(E)</div></div><div class='respDivR'><div class='vertical-center'>(I)</div></div></div>","I","$34<br><br>now","$35<br>in<br>12 weeks","1","34","35","12","NOW"
"html-keyboard-response","27","388039","0.0-5.0-3.7","61282ca83be28773ac7c421f","bdp_td","Mon Mar 27 2023 13:58:33 GMT-0400 (Eastern Daylight Time)","488312","","null","","","","offerFB","","<div class='trialBorder'><div class='vertical-center'><img style='vertical-align:center; align:center' src=img/fixation3.jpg></div><div class='cl'><div class='vertical-center'>$35<br>in<br>12 weeks</div></div><div class='cr'><div class='vertical-center'><font style='color:orange'>$34<br><br>now</font></div></div><div class='respDivL'><div class='vertical-center'>(E)</div></div><div class='respDivR'><div class='vertical-center'><font style='color:orange'>(I)</font></div></div></div>","null","$34<br><br>now","$35<br>in<br>12 weeks","1","34","35","12",""
"html-keyboard-response","28","388543","0.0-5.0-1.8","61282ca83be28773ac7c421f","bdp_td","Mon Mar 27 2023 13:58:33 GMT-0400 (Eastern Daylight Time)","488312","","null","","","","FIX","","<div class='trialBorder'><div class='vertical-center'><img style='vertical-align:center; align:center' src=img/fixation3.jpg></div></div>","null","","","","","","",""
"html-keyboard-response","29","391122","0.0-5.0-2.8","61282ca83be28773ac7c421f","bdp_td","Mon Mar 27 2023 13:58:33 GMT-0400 (Eastern Daylight Time)","488312","","2578","","","","offer","","<div class='trialBorder'><div class='vertical-center'><img style='vertical-align:center; align:center' src=img/fixation3.jpg></div><div class='cl'><div class='vertical-center'>$67<br><br>now</div></div><div class='cr'><div class='vertical-center'>$75<br>in<br>12 weeks</div></div><div class='respDivL'><div class='vertical-center'>(E)</div></div><div class='respDivR'><div class='vertical-center'>(I)</div></div></div>","E","$67<br><br>now","$75<br>in<br>12 weeks","0","67","75","12","NOW"
"html-keyboard-response","30","391375","0.0-5.0-3.8","61282ca83be28773ac7c421f","bdp_td","Mon Mar 27 2023 13:58:33 GMT-0400 (Eastern Daylight Time)","488312","","null","","","","offerFB","","<div class='trialBorder'><div class='vertical-center'><img style='vertical-align:center; align:center' src=img/fixation3.jpg></div><div class='cl'><div class='vertical-center'><font style='color:orange'>$67<br><br>now</font></div></div><div class='cr'><div class='vertical-center'>$75<br>in<br>12 weeks</div></div><div class='respDivL'><div class='vertical-center'><font style='color:orange'>(E)</font></div></div><div class='respDivR'><div class='vertical-center'>(I)</div></div></div>","null","$67<br><br>now","$75<br>in<br>12 weeks","0","67","75","12",""
"html-keyboard-response","31","391879","0.0-5.0-1.9","61282ca83be28773ac7c421f","bdp_td","Mon Mar 27 2023 13:58:33 GMT-0400 (Eastern Daylight Time)","488312","","null","","","","FIX","","<div class='trialBorder'><div class='vertical-center'><img style='vertical-align:center; align:center' src=img/fixation3.jpg></div></div>","null","","","","","","",""
"html-keyboard-response","32","399069","0.0-5.0-2.9","61282ca83be28773ac7c421f","bdp_td","Mon Mar 27 2023 13:58:33 GMT-0400 (Eastern Daylight Time)","488312","","7189","","","","offer","","<div class='trialBorder'><div class='vertical-center'><img style='vertical-align:center; align:center' src=img/fixation3.jpg></div><div class='cl'><div class='vertical-center'>$35<br>in<br>3 weeks</div></div><div class='cr'><div class='vertical-center'>$24<br><br>now</div></div><div class='respDivL'><div class='vertical-center'>(E)</div></div><div class='respDivR'><div class='vertical-center'>(I)</div></div></div>","I","$24<br><br>now","$35<br>in<br>3 weeks","1","24","35","3","NOW"
"html-keyboard-response","33","399327","0.0-5.0-3.9","61282ca83be28773ac7c421f","bdp_td","Mon Mar 27 2023 13:58:33 GMT-0400 (Eastern Daylight Time)","488312","","null","","","","offerFB","","<div class='trialBorder'><div class='vertical-center'><img style='vertical-align:center; align:center' src=img/fixation3.jpg></div><div class='cl'><div class='vertical-center'>$35<br>in<br>3 weeks</div></div><div class='cr'><div class='vertical-center'><font style='color:orange'>$24<br><br>now</font></div></div><div class='respDivL'><div class='vertical-center'>(E)</div></div><div class='respDivR'><div class='vertical-center'><font style='color:orange'>(I)</font></div></div></div>","null","$24<br><br>now","$35<br>in<br>3 weeks","1","24","35","3",""
"html-keyboard-response","34","399832","0.0-5.0-1.10","61282ca83be28773ac7c421f","bdp_td","Mon Mar 27 2023 13:58:33 GMT-0400 (Eastern Daylight Time)","488312","","null","","","","FIX","","<div class='trialBorder'><div class='vertical-center'><img style='vertical-align:center; align:center' src=img/fixation3.jpg></div></div>","null","","","","","","",""
"html-keyboard-response","35","403368","0.0-5.0-2.10","61282ca83be28773ac7c421f","bdp_td","Mon Mar 27 2023 13:58:33 GMT-0400 (Eastern Daylight Time)","488312","","3535","","","","offer","","<div class='trialBorder'><div class='vertical-center'><img style='vertical-align:center; align:center' src=img/fixation3.jpg></div><div class='cl'><div class='vertical-center'>$31<br><br>now</div></div><div class='cr'><div class='vertical-center'>$85<br>in<br>1 week</div></div><div class='respDivL'><div class='vertical-center'>(E)</div></div><div class='respDivR'><div class='vertical-center'>(I)</div></div></div>","I","$31<br><br>now","$85<br>in<br>1 week","0","31","85","1","THEN"
"html-keyboard-response","36","403624","0.0-5.0-3.10","61282ca83be28773ac7c421f","bdp_td","Mon Mar 27 2023 13:58:33 GMT-0400 (Eastern Daylight Time)","488312","","null","","","","offerFB","","<div class='trialBorder'><div class='vertical-center'><img style='vertical-align:center; align:center' src=img/fixation3.jpg></div><div class='cl'><div class='vertical-center'>$31<br><br>now</div></div><div class='cr'><div class='vertical-center'><font style='color:orange'>$85<br>in<br>1 week</font></div></div><div class='respDivL'><div class='vertical-center'>(E)</div></div><div class='respDivR'><div class='vertical-center'><font style='color:orange'>(I)</font></div></div></div>","null","$31<br><br>now","$85<br>in<br>1 week","0","31","85","1",""
"html-keyboard-response","37","404127","0.0-5.0-1.11","61282ca83be28773ac7c421f","bdp_td","Mon Mar 27 2023 13:58:33 GMT-0400 (Eastern Daylight Time)","488312","","null","","","","FIX","","<div class='trialBorder'><div class='vertical-center'><img style='vertical-align:center; align:center' src=img/fixation3.jpg></div></div>","null","","","","","","",""
"html-keyboard-response","38","406440","0.0-5.0-2.11","61282ca83be28773ac7c421f","bdp_td","Mon Mar 27 2023 13:58:33 GMT-0400 (Eastern Daylight Time)","488312","","2312","","","","offer","","<div class='trialBorder'><div class='vertical-center'><img style='vertical-align:center; align:center' src=img/fixation3.jpg></div><div class='cl'><div class='vertical-center'>$78<br><br>now</div></div><div class='cr'><div class='vertical-center'>$80<br>in<br>12 weeks</div></div><div class='respDivL'><div class='vertical-center'>(E)</div></div><div class='respDivR'><div class='vertical-center'>(I)</div></div></div>","E","$78<br><br>now","$80<br>in<br>12 weeks","0","78","80","12","NOW"
"html-keyboard-response","39","406695","0.0-5.0-3.11","61282ca83be28773ac7c421f","bdp_td","Mon Mar 27 2023 13:58:33 GMT-0400 (Eastern Daylight Time)","488312","","null","","","","offerFB","","<div class='trialBorder'><div class='vertical-center'><img style='vertical-align:center; align:center' src=img/fixation3.jpg></div><div class='cl'><div class='vertical-center'><font style='color:orange'>$78<br><br>now</font></div></div><div class='cr'><div class='vertical-center'>$80<br>in<br>12 weeks</div></div><div class='respDivL'><div class='vertical-center'><font style='color:orange'>(E)</font></div></div><div class='respDivR'><div class='vertical-center'>(I)</div></div></div>","null","$78<br><br>now","$80<br>in<br>12 weeks","0","78","80","12",""
"html-keyboard-response","40","407199","0.0-5.0-1.12","61282ca83be28773ac7c421f","bdp_td","Mon Mar 27 2023 13:58:33 GMT-0400 (Eastern Daylight Time)","488312","","null","","","","FIX","","<div class='trialBorder'><div class='vertical-center'><img style='vertical-align:center; align:center' src=img/fixation3.jpg></div></div>","null","","","","","","",""
"html-keyboard-response","41","410186","0.0-5.0-2.12","61282ca83be28773ac7c421f","bdp_td","Mon Mar 27 2023 13:58:33 GMT-0400 (Eastern Daylight Time)","488312","","2986","","","","offer","","<div class='trialBorder'><div class='vertical-center'><img style='vertical-align:center; align:center' src=img/fixation3.jpg></div><div class='cl'><div class='vertical-center'>$75<br>in<br>6 weeks</div></div><div class='cr'><div class='vertical-center'>$55<br><br>now</div></div><div class='respDivL'><div class='vertical-center'>(E)</div></div><div class='respDivR'><div class='vertical-center'>(I)</div></div></div>","I","$55<br><br>now","$75<br>in<br>6 weeks","1","55","75","6","NOW"
"html-keyboard-response","42","410440","0.0-5.0-3.12","61282ca83be28773ac7c421f","bdp_td","Mon Mar 27 2023 13:58:33 GMT-0400 (Eastern Daylight Time)","488312","","null","","","","offerFB","","<div class='trialBorder'><div class='vertical-center'><img style='vertical-align:center; align:center' src=img/fixation3.jpg></div><div class='cl'><div class='vertical-center'>$75<br>in<br>6 weeks</div></div><div class='cr'><div class='vertical-center'><font style='color:orange'>$55<br><br>now</font></div></div><div class='respDivL'><div class='vertical-center'>(E)</div></div><div class='respDivR'><div class='vertical-center'><font style='color:orange'>(I)</font></div></div></div>","null","$55<br><br>now","$75<br>in<br>6 weeks","1","55","75","6",""
"html-keyboard-response","43","410943","0.0-5.0-1.13","61282ca83be28773ac7c421f","bdp_td","Mon Mar 27 2023 13:58:33 GMT-0400 (Eastern Daylight Time)","488312","","null","","","","FIX","","<div class='trialBorder'><div class='vertical-center'><img style='vertical-align:center; align:center' src=img/fixation3.jpg></div></div>","null","","","","","","",""
"html-keyboard-response","44","413542","0.0-5.0-2.13","61282ca83be28773ac7c421f","bdp_td","Mon Mar 27 2023 13:58:33 GMT-0400 (Eastern Daylight Time)","488312","","2598","","","","offer","","<div class='trialBorder'><div class='vertical-center'><img style='vertical-align:center; align:center' src=img/fixation3.jpg></div><div class='cl'><div class='vertical-center'>$49<br><br>now</div></div><div class='cr'><div class='vertical-center'>$60<br>in<br>6 weeks</div></div><div class='respDivL'><div class='vertical-center'>(E)</div></div><div class='respDivR'><div class='vertical-center'>(I)</div></div></div>","E","$49<br><br>now","$60<br>in<br>6 weeks","0","49","60","6","NOW"
"html-keyboard-response","45","413800","0.0-5.0-3.13","61282ca83be28773ac7c421f","bdp_td","Mon Mar 27 2023 13:58:33 GMT-0400 (Eastern Daylight Time)","488312","","null","","","","offerFB","","<div class='trialBorder'><div class='vertical-center'><img style='vertical-align:center; align:center' src=img/fixation3.jpg></div><div class='cl'><div class='vertical-center'><font style='color:orange'>$49<br><br>now</font></div></div><div class='cr'><div class='vertical-center'>$60<br>in<br>6 weeks</div></div><div class='respDivL'><div class='vertical-center'><font style='color:orange'>(E)</font></div></div><div class='respDivR'><div class='vertical-center'>(I)</div></div></div>","null","$49<br><br>now","$60<br>in<br>6 weeks","0","49","60","6",""
"html-keyboard-response","46","414303","0.0-5.0-1.14","61282ca83be28773ac7c421f","bdp_td","Mon Mar 27 2023 13:58:33 GMT-0400 (Eastern Daylight Time)","488312","","null","","","","FIX","","<div class='trialBorder'><div class='vertical-center'><img style='vertical-align:center; align:center' src=img/fixation3.jpg></div></div>","null","","","","","","",""
"html-keyboard-response","47","430701","0.0-5.0-2.14","61282ca83be28773ac7c421f","bdp_td","Mon Mar 27 2023 13:58:33 GMT-0400 (Eastern Daylight Time)","488312","","16397","","","","offer","","<div class='trialBorder'><div class='vertical-center'><img style='vertical-align:center; align:center' src=img/fixation3.jpg></div><div class='cl'><div class='vertical-center'>$25<br>in<br>6 weeks</div></div><div class='cr'><div class='vertical-center'>$19<br><br>now</div></div><div class='respDivL'><div class='vertical-center'>(E)</div></div><div class='respDivR'><div class='vertical-center'>(I)</div></div></div>","I","$19<br><br>now","$25<br>in<br>6 weeks","1","19","25","6","NOW"
"html-keyboard-response","48","430954","0.0-5.0-3.14","61282ca83be28773ac7c421f","bdp_td","Mon Mar 27 2023 13:58:33 GMT-0400 (Eastern Daylight Time)","488312","","null","","","","offerFB","","<div class='trialBorder'><div class='vertical-center'><img style='vertical-align:center; align:center' src=img/fixation3.jpg></div><div class='cl'><div class='vertical-center'>$25<br>in<br>6 weeks</div></div><div class='cr'><div class='vertical-center'><font style='color:orange'>$19<br><br>now</font></div></div><div class='respDivL'><div class='vertical-center'>(E)</div></div><div class='respDivR'><div class='vertical-center'><font style='color:orange'>(I)</font></div></div></div>","null","$19<br><br>now","$25<br>in<br>6 weeks","1","19","25","6",""
"html-keyboard-response","49","431463","0.0-5.0-1.15","61282ca83be28773ac7c421f","bdp_td","Mon Mar 27 2023 13:58:33 GMT-0400 (Eastern Daylight Time)","488312","","null","","","","FIX","","<div class='trialBorder'><div class='vertical-center'><img style='vertical-align:center; align:center' src=img/fixation3.jpg></div></div>","null","","","","","","",""
"html-keyboard-response","50","438735","0.0-5.0-2.15","61282ca83be28773ac7c421f","bdp_td","Mon Mar 27 2023 13:58:33 GMT-0400 (Eastern Daylight Time)","488312","","7271","","","","offer","","<div class='trialBorder'><div class='vertical-center'><img style='vertical-align:center; align:center' src=img/fixation3.jpg></div><div class='cl'><div class='vertical-center'>$11<br><br>now</div></div><div class='cr'><div class='vertical-center'>$30<br>in<br>2 weeks</div></div><div class='respDivL'><div class='vertical-center'>(E)</div></div><div class='respDivR'><div class='vertical-center'>(I)</div></div></div>","I","$11<br><br>now","$30<br>in<br>2 weeks","0","11","30","2","THEN"
"html-keyboard-response","51","438991","0.0-5.0-3.15","61282ca83be28773ac7c421f","bdp_td","Mon Mar 27 2023 13:58:33 GMT-0400 (Eastern Daylight Time)","488312","","null","","","","offerFB","","<div class='trialBorder'><div class='vertical-center'><img style='vertical-align:center; align:center' src=img/fixation3.jpg></div><div class='cl'><div class='vertical-center'>$11<br><br>now</div></div><div class='cr'><div class='vertical-center'><font style='color:orange'>$30<br>in<br>2 weeks</font></div></div><div class='respDivL'><div class='vertical-center'>(E)</div></div><div class='respDivR'><div class='vertical-center'><font style='color:orange'>(I)</font></div></div></div>","null","$11<br><br>now","$30<br>in<br>2 weeks","0","11","30","2",""
"html-keyboard-response","52","439495","0.0-5.0-1.16","61282ca83be28773ac7c421f","bdp_td","Mon Mar 27 2023 13:58:33 GMT-0400 (Eastern Daylight Time)","488312","","null","","","","FIX","","<div class='trialBorder'><div class='vertical-center'><img style='vertical-align:center; align:center' src=img/fixation3.jpg></div></div>","null","","","","","","",""
"html-keyboard-response","53","442284","0.0-5.0-2.16","61282ca83be28773ac7c421f","bdp_td","Mon Mar 27 2023 13:58:33 GMT-0400 (Eastern Daylight Time)","488312","","2787","","","","offer","","<div class='trialBorder'><div class='vertical-center'><img style='vertical-align:center; align:center' src=img/fixation3.jpg></div><div class='cl'><div class='vertical-center'>$85<br>in<br>12 weeks</div></div><div class='cr'><div class='vertical-center'>$80<br><br>now</div></div><div class='respDivL'><div class='vertical-center'>(E)</div></div><div class='respDivR'><div class='vertical-center'>(I)</div></div></div>","I","$80<br><br>now","$85<br>in<br>12 weeks","1","80","85","12","NOW"
"html-keyboard-response","54","442536","0.0-5.0-3.16","61282ca83be28773ac7c421f","bdp_td","Mon Mar 27 2023 13:58:33 GMT-0400 (Eastern Daylight Time)","488312","","null","","","","offerFB","","<div class='trialBorder'><div class='vertical-center'><img style='vertical-align:center; align:center' src=img/fixation3.jpg></div><div class='cl'><div class='vertical-center'>$85<br>in<br>12 weeks</div></div><div class='cr'><div class='vertical-center'><font style='color:orange'>$80<br><br>now</font></div></div><div class='respDivL'><div class='vertical-center'>(E)</div></div><div class='respDivR'><div class='vertical-center'><font style='color:orange'>(I)</font></div></div></div>","null","$80<br><br>now","$85<br>in<br>12 weeks","1","80","85","12",""
"html-keyboard-response","55","443040","0.0-5.0-1.17","61282ca83be28773ac7c421f","bdp_td","Mon Mar 27 2023 13:58:33 GMT-0400 (Eastern Daylight Time)","488312","","null","","","","FIX","","<div class='trialBorder'><div class='vertical-center'><img style='vertical-align:center; align:center' src=img/fixation3.jpg></div></div>","null","","","","","","",""
"html-keyboard-response","56","453740","0.0-5.0-2.17","61282ca83be28773ac7c421f","bdp_td","Mon Mar 27 2023 13:58:33 GMT-0400 (Eastern Daylight Time)","488312","","10698","","","","offer","","<div class='trialBorder'><div class='vertical-center'><img style='vertical-align:center; align:center' src=img/fixation3.jpg></div><div class='cl'><div class='vertical-center'>$35<br>in<br>2 weeks</div></div><div class='cr'><div class='vertical-center'>$15<br><br>now</div></div><div class='respDivL'><div class='vertical-center'>(E)</div></div><div class='respDivR'><div class='vertical-center'>(I)</div></div></div>","I","$15<br><br>now","$35<br>in<br>2 weeks","1","15","35","2","NOW"
"html-keyboard-response","57","453999","0.0-5.0-3.17","61282ca83be28773ac7c421f","bdp_td","Mon Mar 27 2023 13:58:33 GMT-0400 (Eastern Daylight Time)","488312","","null","","","","offerFB","","<div class='trialBorder'><div class='vertical-center'><img style='vertical-align:center; align:center' src=img/fixation3.jpg></div><div class='cl'><div class='vertical-center'>$35<br>in<br>2 weeks</div></div><div class='cr'><div class='vertical-center'><font style='color:orange'>$15<br><br>now</font></div></div><div class='respDivL'><div class='vertical-center'>(E)</div></div><div class='respDivR'><div class='vertical-center'><font style='color:orange'>(I)</font></div></div></div>","null","$15<br><br>now","$35<br>in<br>2 weeks","1","15","35","2",""
"html-keyboard-response","58","454504","0.0-5.0-1.18","61282ca83be28773ac7c421f","bdp_td","Mon Mar 27 2023 13:58:33 GMT-0400 (Eastern Daylight Time)","488312","","null","","","","FIX","","<div class='trialBorder'><div class='vertical-center'><img style='vertical-align:center; align:center' src=img/fixation3.jpg></div></div>","null","","","","","","",""
"html-keyboard-response","59","458136","0.0-5.0-2.18","61282ca83be28773ac7c421f","bdp_td","Mon Mar 27 2023 13:58:33 GMT-0400 (Eastern Daylight Time)","488312","","3630","","","","offer","","<div class='trialBorder'><div class='vertical-center'><img style='vertical-align:center; align:center' src=img/fixation3.jpg></div><div class='cl'><div class='vertical-center'>$50<br>in<br>6 weeks</div></div><div class='cr'><div class='vertical-center'>$34<br><br>now</div></div><div class='respDivL'><div class='vertical-center'>(E)</div></div><div class='respDivR'><div class='vertical-center'>(I)</div></div></div>","I","$34<br><br>now","$50<br>in<br>6 weeks","1","34","50","6","NOW"
"html-keyboard-response","60","458392","0.0-5.0-3.18","61282ca83be28773ac7c421f","bdp_td","Mon Mar 27 2023 13:58:33 GMT-0400 (Eastern Daylight Time)","488312","","null","","","","offerFB","","<div class='trialBorder'><div class='vertical-center'><img style='vertical-align:center; align:center' src=img/fixation3.jpg></div><div class='cl'><div class='vertical-center'>$50<br>in<br>6 weeks</div></div><div class='cr'><div class='vertical-center'><font style='color:orange'>$34<br><br>now</font></div></div><div class='respDivL'><div class='vertical-center'>(E)</div></div><div class='respDivR'><div class='vertical-center'><font style='color:orange'>(I)</font></div></div></div>","null","$34<br><br>now","$50<br>in<br>6 weeks","1","34","50","6",""
"html-keyboard-response","61","458895","0.0-5.0-1.19","61282ca83be28773ac7c421f","bdp_td","Mon Mar 27 2023 13:58:33 GMT-0400 (Eastern Daylight Time)","488312","","null","","","","FIX","","<div class='trialBorder'><div class='vertical-center'><img style='vertical-align:center; align:center' src=img/fixation3.jpg></div></div>","null","","","","","","",""
"html-keyboard-response","62","462020","0.0-5.0-2.19","61282ca83be28773ac7c421f","bdp_td","Mon Mar 27 2023 13:58:33 GMT-0400 (Eastern Daylight Time)","488312","","3124","","","","offer","","<div class='trialBorder'><div class='vertical-center'><img style='vertical-align:center; align:center' src=img/fixation3.jpg></div><div class='cl'><div class='vertical-center'>$41<br><br>now</div></div><div class='cr'><div class='vertical-center'>$75<br>in<br>3 weeks</div></div><div class='respDivL'><div class='vertical-center'>(E)</div></div><div class='respDivR'><div class='vertical-center'>(I)</div></div></div>","E","$41<br><br>now","$75<br>in<br>3 weeks","0","41","75","3","NOW"
"html-keyboard-response","63","462279","0.0-5.0-3.19","61282ca83be28773ac7c421f","bdp_td","Mon Mar 27 2023 13:58:33 GMT-0400 (Eastern Daylight Time)","488312","","null","","","","offerFB","","<div class='trialBorder'><div class='vertical-center'><img style='vertical-align:center; align:center' src=img/fixation3.jpg></div><div class='cl'><div class='vertical-center'><font style='color:orange'>$41<br><br>now</font></div></div><div class='cr'><div class='vertical-center'>$75<br>in<br>3 weeks</div></div><div class='respDivL'><div class='vertical-center'><font style='color:orange'>(E)</font></div></div><div class='respDivR'><div class='vertical-center'>(I)</div></div></div>","null","$41<br><br>now","$75<br>in<br>3 weeks","0","41","75","3",""
"html-keyboard-response","64","462784","0.0-5.0-1.20","61282ca83be28773ac7c421f","bdp_td","Mon Mar 27 2023 13:58:33 GMT-0400 (Eastern Daylight Time)","488312","","null","","","","FIX","","<div class='trialBorder'><div class='vertical-center'><img style='vertical-align:center; align:center' src=img/fixation3.jpg></div></div>","null","","","","","","",""
"html-keyboard-response","65","465561","0.0-5.0-2.20","61282ca83be28773ac7c421f","bdp_td","Mon Mar 27 2023 13:58:33 GMT-0400 (Eastern Daylight Time)","488312","","2776","","","","offer","","<div class='trialBorder'><div class='vertical-center'><img style='vertical-align:center; align:center' src=img/fixation3.jpg></div><div class='cl'><div class='vertical-center'>$69<br><br>now</div></div><div class='cr'><div class='vertical-center'>$85<br>in<br>6 weeks</div></div><div class='respDivL'><div class='vertical-center'>(E)</div></div><div class='respDivR'><div class='vertical-center'>(I)</div></div></div>","E","$69<br><br>now","$85<br>in<br>6 weeks","0","69","85","6","NOW"
"html-keyboard-response","66","465815","0.0-5.0-3.20","61282ca83be28773ac7c421f","bdp_td","Mon Mar 27 2023 13:58:33 GMT-0400 (Eastern Daylight Time)","488312","","null","","","","offerFB","","<div class='trialBorder'><div class='vertical-center'><img style='vertical-align:center; align:center' src=img/fixation3.jpg></div><div class='cl'><div class='vertical-center'><font style='color:orange'>$69<br><br>now</font></div></div><div class='cr'><div class='vertical-center'>$85<br>in<br>6 weeks</div></div><div class='respDivL'><div class='vertical-center'><font style='color:orange'>(E)</font></div></div><div class='respDivR'><div class='vertical-center'>(I)</div></div></div>","null","$69<br><br>now","$85<br>in<br>6 weeks","0","69","85","6",""
"html-keyboard-response","67","466319","0.0-5.0-1.21","61282ca83be28773ac7c421f","bdp_td","Mon Mar 27 2023 13:58:33 GMT-0400 (Eastern Daylight Time)","488312","","null","","","","FIX","","<div class='trialBorder'><div class='vertical-center'><img style='vertical-align:center; align:center' src=img/fixation3.jpg></div></div>","null","","","","","","",""
"html-keyboard-response","68","472879","0.0-5.0-2.21","61282ca83be28773ac7c421f","bdp_td","Mon Mar 27 2023 13:58:33 GMT-0400 (Eastern Daylight Time)","488312","","6559","","","","offer","","<div class='trialBorder'><div class='vertical-center'><img style='vertical-align:center; align:center' src=img/fixation3.jpg></div><div class='cl'><div class='vertical-center'>$60<br>in<br>3 weeks</div></div><div class='cr'><div class='vertical-center'>$25<br><br>now</div></div><div class='respDivL'><div class='vertical-center'>(E)</div></div><div class='respDivR'><div class='vertical-center'>(I)</div></div></div>","E","$25<br><br>now","$60<br>in<br>3 weeks","1","25","60","3","THEN"
"html-keyboard-response","69","473134","0.0-5.0-3.21","61282ca83be28773ac7c421f","bdp_td","Mon Mar 27 2023 13:58:33 GMT-0400 (Eastern Daylight Time)","488312","","null","","","","offerFB","","<div class='trialBorder'><div class='vertical-center'><img style='vertical-align:center; align:center' src=img/fixation3.jpg></div><div class='cl'><div class='vertical-center'><font style='color:orange'>$60<br>in<br>3 weeks</font></div></div><div class='cr'><div class='vertical-center'>$25<br><br>now</div></div><div class='respDivL'><div class='vertical-center'><font style='color:orange'>(E)</font></div></div><div class='respDivR'><div class='vertical-center'>(I)</div></div></div>","null","$25<br><br>now","$60<br>in<br>3 weeks","1","25","60","3",""
"html-keyboard-response","70","473639","0.0-5.0-1.22","61282ca83be28773ac7c421f","bdp_td","Mon Mar 27 2023 13:58:33 GMT-0400 (Eastern Daylight Time)","488312","","null","","","","FIX","","<div class='trialBorder'><div class='vertical-center'><img style='vertical-align:center; align:center' src=img/fixation3.jpg></div></div>","null","","","","","","",""
"html-keyboard-response","71","475822","0.0-5.0-2.22","61282ca83be28773ac7c421f","bdp_td","Mon Mar 27 2023 13:58:33 GMT-0400 (Eastern Daylight Time)","488312","","2182","","","","offer","","<div class='trialBorder'><div class='vertical-center'><img style='vertical-align:center; align:center' src=img/fixation3.jpg></div><div class='cl'><div class='vertical-center'>$25<br><br>now</div></div><div class='cr'><div class='vertical-center'>$30<br>in<br>6 weeks</div></div><div class='respDivL'><div class='vertical-center'>(E)</div></div><div class='respDivR'><div class='vertical-center'>(I)</div></div></div>","E","$25<br><br>now","$30<br>in<br>6 weeks","0","25","30","6","NOW"
"html-keyboard-response","72","476080","0.0-5.0-3.22","61282ca83be28773ac7c421f","bdp_td","Mon Mar 27 2023 13:58:33 GMT-0400 (Eastern Daylight Time)","488312","","null","","","","offerFB","","<div class='trialBorder'><div class='vertical-center'><img style='vertical-align:center; align:center' src=img/fixation3.jpg></div><div class='cl'><div class='vertical-center'><font style='color:orange'>$25<br><br>now</font></div></div><div class='cr'><div class='vertical-center'>$30<br>in<br>6 weeks</div></div><div class='respDivL'><div class='vertical-center'><font style='color:orange'>(E)</font></div></div><div class='respDivR'><div class='vertical-center'>(I)</div></div></div>","null","$25<br><br>now","$30<br>in<br>6 weeks","0","25","30","6",""
"html-keyboard-response","73","476584","0.0-5.0-1.23","61282ca83be28773ac7c421f","bdp_td","Mon Mar 27 2023 13:58:33 GMT-0400 (Eastern Daylight Time)","488312","","null","","","","FIX","","<div class='trialBorder'><div class='vertical-center'><img style='vertical-align:center; align:center' src=img/fixation3.jpg></div></div>","null","","","","","","",""
"html-keyboard-response","74","478716","0.0-5.0-2.23","61282ca83be28773ac7c421f","bdp_td","Mon Mar 27 2023 13:58:33 GMT-0400 (Eastern Daylight Time)","488312","","2131","","","","offer","","<div class='trialBorder'><div class='vertical-center'><img style='vertical-align:center; align:center' src=img/fixation3.jpg></div><div class='cl'><div class='vertical-center'>$25<br>in<br>12 weeks</div></div><div class='cr'><div class='vertical-center'>$22<br><br>now</div></div><div class='respDivL'><div class='vertical-center'>(E)</div></div><div class='respDivR'><div class='vertical-center'>(I)</div></div></div>","I","$22<br><br>now","$25<br>in<br>12 weeks","1","22","25","12","NOW"
"html-keyboard-response","75","478968","0.0-5.0-3.23","61282ca83be28773ac7c421f","bdp_td","Mon Mar 27 2023 13:58:33 GMT-0400 (Eastern Daylight Time)","488312","","null","","","","offerFB","","<div class='trialBorder'><div class='vertical-center'><img style='vertical-align:center; align:center' src=img/fixation3.jpg></div><div class='cl'><div class='vertical-center'>$25<br>in<br>12 weeks</div></div><div class='cr'><div class='vertical-center'><font style='color:orange'>$22<br><br>now</font></div></div><div class='respDivL'><div class='vertical-center'>(E)</div></div><div class='respDivR'><div class='vertical-center'><font style='color:orange'>(I)</font></div></div></div>","null","$22<br><br>now","$25<br>in<br>12 weeks","1","22","25","12",""
"html-keyboard-response","76","479471","0.0-5.0-1.24","61282ca83be28773ac7c421f","bdp_td","Mon Mar 27 2023 13:58:33 GMT-0400 (Eastern Daylight Time)","488312","","null","","","","FIX","","<div class='trialBorder'><div class='vertical-center'><img style='vertical-align:center; align:center' src=img/fixation3.jpg></div></div>","null","","","","","","",""
"html-keyboard-response","77","481465","0.0-5.0-2.24","61282ca83be28773ac7c421f","bdp_td","Mon Mar 27 2023 13:58:33 GMT-0400 (Eastern Daylight Time)","488312","","1992","","","","offer","","<div class='trialBorder'><div class='vertical-center'><img style='vertical-align:center; align:center' src=img/fixation3.jpg></div><div class='cl'><div class='vertical-center'>$47<br><br>now</div></div><div class='cr'><div class='vertical-center'>$50<br>in<br>12 weeks</div></div><div class='respDivL'><div class='vertical-center'>(E)</div></div><div class='respDivR'><div class='vertical-center'>(I)</div></div></div>","E","$47<br><br>now","$50<br>in<br>12 weeks","0","47","50","12","NOW"
"html-keyboard-response","78","481720","0.0-5.0-3.24","61282ca83be28773ac7c421f","bdp_td","Mon Mar 27 2023 13:58:33 GMT-0400 (Eastern Daylight Time)","488312","","null","","","","offerFB","","<div class='trialBorder'><div class='vertical-center'><img style='vertical-align:center; align:center' src=img/fixation3.jpg></div><div class='cl'><div class='vertical-center'><font style='color:orange'>$47<br><br>now</font></div></div><div class='cr'><div class='vertical-center'>$50<br>in<br>12 weeks</div></div><div class='respDivL'><div class='vertical-center'><font style='color:orange'>(E)</font></div></div><div class='respDivR'><div class='vertical-center'>(I)</div></div></div>","null","$47<br><br>now","$50<br>in<br>12 weeks","0","47","50","12",""
"html-keyboard-response","79","482223","0.0-5.0-1.25","61282ca83be28773ac7c421f","bdp_td","Mon Mar 27 2023 13:58:33 GMT-0400 (Eastern Daylight Time)","488312","","null","","","","FIX","","<div class='trialBorder'><div class='vertical-center'><img style='vertical-align:center; align:center' src=img/fixation3.jpg></div></div>","null","","","","","","",""
"html-keyboard-response","80","483926","0.0-5.0-2.25","61282ca83be28773ac7c421f","bdp_td","Mon Mar 27 2023 13:58:33 GMT-0400 (Eastern Daylight Time)","488312","","1701","","","","offer","","<div class='trialBorder'><div class='vertical-center'><img style='vertical-align:center; align:center' src=img/fixation3.jpg></div><div class='cl'><div class='vertical-center'>$55<br>in<br>12 weeks</div></div><div class='cr'><div class='vertical-center'>$54<br><br>now</div></div><div class='respDivL'><div class='vertical-center'>(E)</div></div><div class='respDivR'><div class='vertical-center'>(I)</div></div></div>","I","$54<br><br>now","$55<br>in<br>12 weeks","1","54","55","12","NOW"
"html-keyboard-response","81","484183","0.0-5.0-3.25","61282ca83be28773ac7c421f","bdp_td","Mon Mar 27 2023 13:58:33 GMT-0400 (Eastern Daylight Time)","488312","","null","","","","offerFB","","<div class='trialBorder'><div class='vertical-center'><img style='vertical-align:center; align:center' src=img/fixation3.jpg></div><div class='cl'><div class='vertical-center'>$55<br>in<br>12 weeks</div></div><div class='cr'><div class='vertical-center'><font style='color:orange'>$54<br><br>now</font></div></div><div class='respDivL'><div class='vertical-center'>(E)</div></div><div class='respDivR'><div class='vertical-center'><font style='color:orange'>(I)</font></div></div></div>","null","$54<br><br>now","$55<br>in<br>12 weeks","1","54","55","12",""
"html-keyboard-response","82","484688","0.0-5.0-1.26","61282ca83be28773ac7c421f","bdp_td","Mon Mar 27 2023 13:58:33 GMT-0400 (Eastern Daylight Time)","488312","","null","","","","FIX","","<div class='trialBorder'><div class='vertical-center'><img style='vertical-align:center; align:center' src=img/fixation3.jpg></div></div>","null","","","","","","",""
"html-keyboard-response","83","487050","0.0-5.0-2.26","61282ca83be28773ac7c421f","bdp_td","Mon Mar 27 2023 13:58:33 GMT-0400 (Eastern Daylight Time)","488312","","2362","","","","offer","","<div class='trialBorder'><div class='vertical-center'><img style='vertical-align:center; align:center' src=img/fixation3.jpg></div><div class='cl'><div class='vertical-center'>$14<br><br>now</div></div><div class='cr'><div class='vertical-center'>$25<br>in<br>3 weeks</div></div><div class='respDivL'><div class='vertical-center'>(E)</div></div><div class='respDivR'><div class='vertical-center'>(I)</div></div></div>","I","$14<br><br>now","$25<br>in<br>3 weeks","0","14","25","3","THEN"
"html-keyboard-response","84","487303","0.0-5.0-3.26","61282ca83be28773ac7c421f","bdp_td","Mon Mar 27 2023 13:58:33 GMT-0400 (Eastern Daylight Time)","488312","","null","","","","offerFB","","<div class='trialBorder'><div class='vertical-center'><img style='vertical-align:center; align:center' src=img/fixation3.jpg></div><div class='cl'><div class='vertical-center'>$14<br><br>now</div></div><div class='cr'><div class='vertical-center'><font style='color:orange'>$25<br>in<br>3 weeks</font></div></div><div class='respDivL'><div class='vertical-center'>(E)</div></div><div class='respDivR'><div class='vertical-center'><font style='color:orange'>(I)</font></div></div></div>","null","$14<br><br>now","$25<br>in<br>3 weeks","0","14","25","3",""
"","","","","61282ca83be28773ac7c421f","bdp_td","Mon Mar 27 2023 13:58:33 GMT-0400 (Eastern Daylight Time)","488312","","","fullscreenexit","85","487317","fullscreenexit","","","","","","","","","",""
"fullscreen","85","488311","0.0-6.0","61282ca83be28773ac7c421f","bdp_td","Mon Mar 27 2023 13:58:33 GMT-0400 (Eastern Daylight Time)","488312","","","","","","","true","","","","","","","","",""
"html-keyboard-response","86","488815","0.0-7.0","","","","","","null","","","","","","","null","","","","","","",""
