"trial_type","trial_index","time_elapsed","internal_node_id","subject_id","task","startTime","totalTime","view_history","rt","event","trial","time","trialtype","success","stimulus","key_press","nowOffer","thenOffer","thenLeft","nowAmt","thenAmt","thenWeeks","chosen"
"pavlovia","0","6","0.0-0.0","5cd10012174fc60016c10ffd","bdp_td","Fri Apr 14 2023 16:39:51 GMT-0400 (Eastern Daylight Time)","247072","","","","","","","","","","","","","","","",""
"instructions","1","3116","0.0-1.0","5cd10012174fc60016c10ffd","bdp_td","Fri Apr 14 2023 16:39:51 GMT-0400 (Eastern Daylight Time)","247072","[{""page_index"":0,""viewing_time"":3108}]","3109","","","","","","","","","","","","","",""
"","","","","5cd10012174fc60016c10ffd","bdp_td","Fri Apr 14 2023 16:39:51 GMT-0400 (Eastern Daylight Time)","247072","","","fullscreenenter","2","4859","fullscreenenter","","","","","","","","","",""
"fullscreen","2","5826","0.0-2.0","5cd10012174fc60016c10ffd","bdp_td","Fri Apr 14 2023 16:39:51 GMT-0400 (Eastern Daylight Time)","247072","","","","","","","true","","","","","","","","",""
"instructions","3","137217","0.0-4.0","5cd10012174fc60016c10ffd","bdp_td","Fri Apr 14 2023 16:39:51 GMT-0400 (Eastern Daylight Time)","247072","[{""page_index"":0,""viewing_time"":67560},{""page_index"":1,""viewing_time"":14290},{""page_index"":2,""viewing_time"":49538}]","131388","","","","","","","","","","","","","",""
"html-keyboard-response","4","137723","0.0-5.0-1.0","5cd10012174fc60016c10ffd","bdp_td","Fri Apr 14 2023 16:39:51 GMT-0400 (Eastern Daylight Time)","247072","","null","","","","FIX","","<div class='trialBorder'><div class='vertical-center'><img style='vertical-align:center; align:center' src=img/fixation3.jpg></div></div>","null","","","","","","",""
"html-keyboard-response","5","143514","0.0-5.0-2.0","5cd10012174fc60016c10ffd","bdp_td","Fri Apr 14 2023 16:39:51 GMT-0400 (Eastern Daylight Time)","247072","","5787","","","","offer","","<div class='trialBorder'><div class='vertical-center'><img style='vertical-align:center; align:center' src=img/fixation3.jpg></div><div class='cl'><div class='vertical-center'>$75<br>in<br>6 weeks</div></div><div class='cr'><div class='vertical-center'>$55<br><br>now</div></div><div class='respDivL'><div class='vertical-center'>(E)</div></div><div class='respDivR'><div class='vertical-center'>(I)</div></div></div>","I","$55<br><br>now","$75<br>in<br>6 weeks","1","55","75","6","NOW"
"html-keyboard-response","6","143770","0.0-5.0-3.0","5cd10012174fc60016c10ffd","bdp_td","Fri Apr 14 2023 16:39:51 GMT-0400 (Eastern Daylight Time)","247072","","null","","","","offerFB","","<div class='trialBorder'><div class='vertical-center'><img style='vertical-align:center; align:center' src=img/fixation3.jpg></div><div class='cl'><div class='vertical-center'>$75<br>in<br>6 weeks</div></div><div class='cr'><div class='vertical-center'><font style='color:orange'>$55<br><br>now</font></div></div><div class='respDivL'><div class='vertical-center'>(E)</div></div><div class='respDivR'><div class='vertical-center'><font style='color:orange'>(I)</font></div></div></div>","null","$55<br><br>now","$75<br>in<br>6 weeks","1","55","75","6",""
"html-keyboard-response","7","144275","0.0-5.0-1.1","5cd10012174fc60016c10ffd","bdp_td","Fri Apr 14 2023 16:39:51 GMT-0400 (Eastern Daylight Time)","247072","","null","","","","FIX","","<div class='trialBorder'><div class='vertical-center'><img style='vertical-align:center; align:center' src=img/fixation3.jpg></div></div>","null","","","","","","",""
"html-keyboard-response","8","146995","0.0-5.0-2.1","5cd10012174fc60016c10ffd","bdp_td","Fri Apr 14 2023 16:39:51 GMT-0400 (Eastern Daylight Time)","247072","","2718","","","","offer","","<div class='trialBorder'><div class='vertical-center'><img style='vertical-align:center; align:center' src=img/fixation3.jpg></div><div class='cl'><div class='vertical-center'>$41<br><br>now</div></div><div class='cr'><div class='vertical-center'>$75<br>in<br>3 weeks</div></div><div class='respDivL'><div class='vertical-center'>(E)</div></div><div class='respDivR'><div class='vertical-center'>(I)</div></div></div>","I","$41<br><br>now","$75<br>in<br>3 weeks","0","41","75","3","THEN"
"html-keyboard-response","9","147250","0.0-5.0-3.1","5cd10012174fc60016c10ffd","bdp_td","Fri Apr 14 2023 16:39:51 GMT-0400 (Eastern Daylight Time)","247072","","null","","","","offerFB","","<div class='trialBorder'><div class='vertical-center'><img style='vertical-align:center; align:center' src=img/fixation3.jpg></div><div class='cl'><div class='vertical-center'>$41<br><br>now</div></div><div class='cr'><div class='vertical-center'><font style='color:orange'>$75<br>in<br>3 weeks</font></div></div><div class='respDivL'><div class='vertical-center'>(E)</div></div><div class='respDivR'><div class='vertical-center'><font style='color:orange'>(I)</font></div></div></div>","null","$41<br><br>now","$75<br>in<br>3 weeks","0","41","75","3",""
"html-keyboard-response","10","147753","0.0-5.0-1.2","5cd10012174fc60016c10ffd","bdp_td","Fri Apr 14 2023 16:39:51 GMT-0400 (Eastern Daylight Time)","247072","","null","","","","FIX","","<div class='trialBorder'><div class='vertical-center'><img style='vertical-align:center; align:center' src=img/fixation3.jpg></div></div>","null","","","","","","",""
"html-keyboard-response","11","149586","0.0-5.0-2.2","5cd10012174fc60016c10ffd","bdp_td","Fri Apr 14 2023 16:39:51 GMT-0400 (Eastern Daylight Time)","247072","","1830","","","","offer","","<div class='trialBorder'><div class='vertical-center'><img style='vertical-align:center; align:center' src=img/fixation3.jpg></div><div class='cl'><div class='vertical-center'>$28<br><br>now</div></div><div class='cr'><div class='vertical-center'>$30<br>in<br>12 weeks</div></div><div class='respDivL'><div class='vertical-center'>(E)</div></div><div class='respDivR'><div class='vertical-center'>(I)</div></div></div>","E","$28<br><br>now","$30<br>in<br>12 weeks","0","28","30","12","NOW"
"html-keyboard-response","12","149840","0.0-5.0-3.2","5cd10012174fc60016c10ffd","bdp_td","Fri Apr 14 2023 16:39:51 GMT-0400 (Eastern Daylight Time)","247072","","null","","","","offerFB","","<div class='trialBorder'><div class='vertical-center'><img style='vertical-align:center; align:center' src=img/fixation3.jpg></div><div class='cl'><div class='vertical-center'><font style='color:orange'>$28<br><br>now</font></div></div><div class='cr'><div class='vertical-center'>$30<br>in<br>12 weeks</div></div><div class='respDivL'><div class='vertical-center'><font style='color:orange'>(E)</font></div></div><div class='respDivR'><div class='vertical-center'>(I)</div></div></div>","null","$28<br><br>now","$30<br>in<br>12 weeks","0","28","30","12",""
"html-keyboard-response","13","150343","0.0-5.0-1.3","5cd10012174fc60016c10ffd","bdp_td","Fri Apr 14 2023 16:39:51 GMT-0400 (Eastern Daylight Time)","247072","","null","","","","FIX","","<div class='trialBorder'><div class='vertical-center'><img style='vertical-align:center; align:center' src=img/fixation3.jpg></div></div>","null","","","","","","",""
"html-keyboard-response","14","152923","0.0-5.0-2.3","5cd10012174fc60016c10ffd","bdp_td","Fri Apr 14 2023 16:39:51 GMT-0400 (Eastern Daylight Time)","247072","","2577","","","","offer","","<div class='trialBorder'><div class='vertical-center'><img style='vertical-align:center; align:center' src=img/fixation3.jpg></div><div class='cl'><div class='vertical-center'>$25<br>in<br>12 weeks</div></div><div class='cr'><div class='vertical-center'>$22<br><br>now</div></div><div class='respDivL'><div class='vertical-center'>(E)</div></div><div class='respDivR'><div class='vertical-center'>(I)</div></div></div>","I","$22<br><br>now","$25<br>in<br>12 weeks","1","22","25","12","NOW"
"html-keyboard-response","15","153177","0.0-5.0-3.3","5cd10012174fc60016c10ffd","bdp_td","Fri Apr 14 2023 16:39:51 GMT-0400 (Eastern Daylight Time)","247072","","null","","","","offerFB","","<div class='trialBorder'><div class='vertical-center'><img style='vertical-align:center; align:center' src=img/fixation3.jpg></div><div class='cl'><div class='vertical-center'>$25<br>in<br>12 weeks</div></div><div class='cr'><div class='vertical-center'><font style='color:orange'>$22<br><br>now</font></div></div><div class='respDivL'><div class='vertical-center'>(E)</div></div><div class='respDivR'><div class='vertical-center'><font style='color:orange'>(I)</font></div></div></div>","null","$22<br><br>now","$25<br>in<br>12 weeks","1","22","25","12",""
"html-keyboard-response","16","153679","0.0-5.0-1.4","5cd10012174fc60016c10ffd","bdp_td","Fri Apr 14 2023 16:39:51 GMT-0400 (Eastern Daylight Time)","247072","","null","","","","FIX","","<div class='trialBorder'><div class='vertical-center'><img style='vertical-align:center; align:center' src=img/fixation3.jpg></div></div>","null","","","","","","",""
"html-keyboard-response","17","155477","0.0-5.0-2.4","5cd10012174fc60016c10ffd","bdp_td","Fri Apr 14 2023 16:39:51 GMT-0400 (Eastern Daylight Time)","247072","","1794","","","","offer","","<div class='trialBorder'><div class='vertical-center'><img style='vertical-align:center; align:center' src=img/fixation3.jpg></div><div class='cl'><div class='vertical-center'>$25<br><br>now</div></div><div class='cr'><div class='vertical-center'>$30<br>in<br>6 weeks</div></div><div class='respDivL'><div class='vertical-center'>(E)</div></div><div class='respDivR'><div class='vertical-center'>(I)</div></div></div>","E","$25<br><br>now","$30<br>in<br>6 weeks","0","25","30","6","NOW"
"html-keyboard-response","18","155731","0.0-5.0-3.4","5cd10012174fc60016c10ffd","bdp_td","Fri Apr 14 2023 16:39:51 GMT-0400 (Eastern Daylight Time)","247072","","null","","","","offerFB","","<div class='trialBorder'><div class='vertical-center'><img style='vertical-align:center; align:center' src=img/fixation3.jpg></div><div class='cl'><div class='vertical-center'><font style='color:orange'>$25<br><br>now</font></div></div><div class='cr'><div class='vertical-center'>$30<br>in<br>6 weeks</div></div><div class='respDivL'><div class='vertical-center'><font style='color:orange'>(E)</font></div></div><div class='respDivR'><div class='vertical-center'>(I)</div></div></div>","null","$25<br><br>now","$30<br>in<br>6 weeks","0","25","30","6",""
"html-keyboard-response","19","156233","0.0-5.0-1.5","5cd10012174fc60016c10ffd","bdp_td","Fri Apr 14 2023 16:39:51 GMT-0400 (Eastern Daylight Time)","247072","","null","","","","FIX","","<div class='trialBorder'><div class='vertical-center'><img style='vertical-align:center; align:center' src=img/fixation3.jpg></div></div>","null","","","","","","",""
"html-keyboard-response","20","158088","0.0-5.0-2.5","5cd10012174fc60016c10ffd","bdp_td","Fri Apr 14 2023 16:39:51 GMT-0400 (Eastern Daylight Time)","247072","","1851","","","","offer","","<div class='trialBorder'><div class='vertical-center'><img style='vertical-align:center; align:center' src=img/fixation3.jpg></div><div class='cl'><div class='vertical-center'>$75<br>in<br>12 weeks</div></div><div class='cr'><div class='vertical-center'>$67<br><br>now</div></div><div class='respDivL'><div class='vertical-center'>(E)</div></div><div class='respDivR'><div class='vertical-center'>(I)</div></div></div>","I","$67<br><br>now","$75<br>in<br>12 weeks","1","67","75","12","NOW"
"html-keyboard-response","21","158341","0.0-5.0-3.5","5cd10012174fc60016c10ffd","bdp_td","Fri Apr 14 2023 16:39:51 GMT-0400 (Eastern Daylight Time)","247072","","null","","","","offerFB","","<div class='trialBorder'><div class='vertical-center'><img style='vertical-align:center; align:center' src=img/fixation3.jpg></div><div class='cl'><div class='vertical-center'>$75<br>in<br>12 weeks</div></div><div class='cr'><div class='vertical-center'><font style='color:orange'>$67<br><br>now</font></div></div><div class='respDivL'><div class='vertical-center'>(E)</div></div><div class='respDivR'><div class='vertical-center'><font style='color:orange'>(I)</font></div></div></div>","null","$67<br><br>now","$75<br>in<br>12 weeks","1","67","75","12",""
"html-keyboard-response","22","158844","0.0-5.0-1.6","5cd10012174fc60016c10ffd","bdp_td","Fri Apr 14 2023 16:39:51 GMT-0400 (Eastern Daylight Time)","247072","","null","","","","FIX","","<div class='trialBorder'><div class='vertical-center'><img style='vertical-align:center; align:center' src=img/fixation3.jpg></div></div>","null","","","","","","",""
"html-keyboard-response","23","160815","0.0-5.0-2.6","5cd10012174fc60016c10ffd","bdp_td","Fri Apr 14 2023 16:39:51 GMT-0400 (Eastern Daylight Time)","247072","","1968","","","","offer","","<div class='trialBorder'><div class='vertical-center'><img style='vertical-align:center; align:center' src=img/fixation3.jpg></div><div class='cl'><div class='vertical-center'>$35<br>in<br>2 weeks</div></div><div class='cr'><div class='vertical-center'>$15<br><br>now</div></div><div class='respDivL'><div class='vertical-center'>(E)</div></div><div class='respDivR'><div class='vertical-center'>(I)</div></div></div>","E","$15<br><br>now","$35<br>in<br>2 weeks","1","15","35","2","THEN"
"html-keyboard-response","24","161070","0.0-5.0-3.6","5cd10012174fc60016c10ffd","bdp_td","Fri Apr 14 2023 16:39:51 GMT-0400 (Eastern Daylight Time)","247072","","null","","","","offerFB","","<div class='trialBorder'><div class='vertical-center'><img style='vertical-align:center; align:center' src=img/fixation3.jpg></div><div class='cl'><div class='vertical-center'><font style='color:orange'>$35<br>in<br>2 weeks</font></div></div><div class='cr'><div class='vertical-center'>$15<br><br>now</div></div><div class='respDivL'><div class='vertical-center'><font style='color:orange'>(E)</font></div></div><div class='respDivR'><div class='vertical-center'>(I)</div></div></div>","null","$15<br><br>now","$35<br>in<br>2 weeks","1","15","35","2",""
"html-keyboard-response","25","161573","0.0-5.0-1.7","5cd10012174fc60016c10ffd","bdp_td","Fri Apr 14 2023 16:39:51 GMT-0400 (Eastern Daylight Time)","247072","","null","","","","FIX","","<div class='trialBorder'><div class='vertical-center'><img style='vertical-align:center; align:center' src=img/fixation3.jpg></div></div>","null","","","","","","",""
"html-keyboard-response","26","163958","0.0-5.0-2.7","5cd10012174fc60016c10ffd","bdp_td","Fri Apr 14 2023 16:39:51 GMT-0400 (Eastern Daylight Time)","247072","","2380","","","","offer","","<div class='trialBorder'><div class='vertical-center'><img style='vertical-align:center; align:center' src=img/fixation3.jpg></div><div class='cl'><div class='vertical-center'>$69<br><br>now</div></div><div class='cr'><div class='vertical-center'>$85<br>in<br>6 weeks</div></div><div class='respDivL'><div class='vertical-center'>(E)</div></div><div class='respDivR'><div class='vertical-center'>(I)</div></div></div>","E","$69<br><br>now","$85<br>in<br>6 weeks","0","69","85","6","NOW"
"html-keyboard-response","27","164213","0.0-5.0-3.7","5cd10012174fc60016c10ffd","bdp_td","Fri Apr 14 2023 16:39:51 GMT-0400 (Eastern Daylight Time)","247072","","null","","","","offerFB","","<div class='trialBorder'><div class='vertical-center'><img style='vertical-align:center; align:center' src=img/fixation3.jpg></div><div class='cl'><div class='vertical-center'><font style='color:orange'>$69<br><br>now</font></div></div><div class='cr'><div class='vertical-center'>$85<br>in<br>6 weeks</div></div><div class='respDivL'><div class='vertical-center'><font style='color:orange'>(E)</font></div></div><div class='respDivR'><div class='vertical-center'>(I)</div></div></div>","null","$69<br><br>now","$85<br>in<br>6 weeks","0","69","85","6",""
"html-keyboard-response","28","164717","0.0-5.0-1.8","5cd10012174fc60016c10ffd","bdp_td","Fri Apr 14 2023 16:39:51 GMT-0400 (Eastern Daylight Time)","247072","","null","","","","FIX","","<div class='trialBorder'><div class='vertical-center'><img style='vertical-align:center; align:center' src=img/fixation3.jpg></div></div>","null","","","","","","",""
"html-keyboard-response","29","166537","0.0-5.0-2.8","5cd10012174fc60016c10ffd","bdp_td","Fri Apr 14 2023 16:39:51 GMT-0400 (Eastern Daylight Time)","247072","","1817","","","","offer","","<div class='trialBorder'><div class='vertical-center'><img style='vertical-align:center; align:center' src=img/fixation3.jpg></div><div class='cl'><div class='vertical-center'>$54<br><br>now</div></div><div class='cr'><div class='vertical-center'>$80<br>in<br>3 weeks</div></div><div class='respDivL'><div class='vertical-center'>(E)</div></div><div class='respDivR'><div class='vertical-center'>(I)</div></div></div>","I","$54<br><br>now","$80<br>in<br>3 weeks","0","54","80","3","THEN"
"html-keyboard-response","30","166790","0.0-5.0-3.8","5cd10012174fc60016c10ffd","bdp_td","Fri Apr 14 2023 16:39:51 GMT-0400 (Eastern Daylight Time)","247072","","null","","","","offerFB","","<div class='trialBorder'><div class='vertical-center'><img style='vertical-align:center; align:center' src=img/fixation3.jpg></div><div class='cl'><div class='vertical-center'>$54<br><br>now</div></div><div class='cr'><div class='vertical-center'><font style='color:orange'>$80<br>in<br>3 weeks</font></div></div><div class='respDivL'><div class='vertical-center'>(E)</div></div><div class='respDivR'><div class='vertical-center'><font style='color:orange'>(I)</font></div></div></div>","null","$54<br><br>now","$80<br>in<br>3 weeks","0","54","80","3",""
"html-keyboard-response","31","167292","0.0-5.0-1.9","5cd10012174fc60016c10ffd","bdp_td","Fri Apr 14 2023 16:39:51 GMT-0400 (Eastern Daylight Time)","247072","","null","","","","FIX","","<div class='trialBorder'><div class='vertical-center'><img style='vertical-align:center; align:center' src=img/fixation3.jpg></div></div>","null","","","","","","",""
"html-keyboard-response","32","169124","0.0-5.0-2.9","5cd10012174fc60016c10ffd","bdp_td","Fri Apr 14 2023 16:39:51 GMT-0400 (Eastern Daylight Time)","247072","","1829","","","","offer","","<div class='trialBorder'><div class='vertical-center'><img style='vertical-align:center; align:center' src=img/fixation3.jpg></div><div class='cl'><div class='vertical-center'>$85<br>in<br>1 week</div></div><div class='cr'><div class='vertical-center'>$31<br><br>now</div></div><div class='respDivL'><div class='vertical-center'>(E)</div></div><div class='respDivR'><div class='vertical-center'>(I)</div></div></div>","E","$31<br><br>now","$85<br>in<br>1 week","1","31","85","1","THEN"
"html-keyboard-response","33","169377","0.0-5.0-3.9","5cd10012174fc60016c10ffd","bdp_td","Fri Apr 14 2023 16:39:51 GMT-0400 (Eastern Daylight Time)","247072","","null","","","","offerFB","","<div class='trialBorder'><div class='vertical-center'><img style='vertical-align:center; align:center' src=img/fixation3.jpg></div><div class='cl'><div class='vertical-center'><font style='color:orange'>$85<br>in<br>1 week</font></div></div><div class='cr'><div class='vertical-center'>$31<br><br>now</div></div><div class='respDivL'><div class='vertical-center'><font style='color:orange'>(E)</font></div></div><div class='respDivR'><div class='vertical-center'>(I)</div></div></div>","null","$31<br><br>now","$85<br>in<br>1 week","1","31","85","1",""
"html-keyboard-response","34","169880","0.0-5.0-1.10","5cd10012174fc60016c10ffd","bdp_td","Fri Apr 14 2023 16:39:51 GMT-0400 (Eastern Daylight Time)","247072","","null","","","","FIX","","<div class='trialBorder'><div class='vertical-center'><img style='vertical-align:center; align:center' src=img/fixation3.jpg></div></div>","null","","","","","","",""
"html-keyboard-response","35","172408","0.0-5.0-2.10","5cd10012174fc60016c10ffd","bdp_td","Fri Apr 14 2023 16:39:51 GMT-0400 (Eastern Daylight Time)","247072","","2526","","","","offer","","<div class='trialBorder'><div class='vertical-center'><img style='vertical-align:center; align:center' src=img/fixation3.jpg></div><div class='cl'><div class='vertical-center'>$50<br>in<br>6 weeks</div></div><div class='cr'><div class='vertical-center'>$34<br><br>now</div></div><div class='respDivL'><div class='vertical-center'>(E)</div></div><div class='respDivR'><div class='vertical-center'>(I)</div></div></div>","I","$34<br><br>now","$50<br>in<br>6 weeks","1","34","50","6","NOW"
"html-keyboard-response","36","172662","0.0-5.0-3.10","5cd10012174fc60016c10ffd","bdp_td","Fri Apr 14 2023 16:39:51 GMT-0400 (Eastern Daylight Time)","247072","","null","","","","offerFB","","<div class='trialBorder'><div class='vertical-center'><img style='vertical-align:center; align:center' src=img/fixation3.jpg></div><div class='cl'><div class='vertical-center'>$50<br>in<br>6 weeks</div></div><div class='cr'><div class='vertical-center'><font style='color:orange'>$34<br><br>now</font></div></div><div class='respDivL'><div class='vertical-center'>(E)</div></div><div class='respDivR'><div class='vertical-center'><font style='color:orange'>(I)</font></div></div></div>","null","$34<br><br>now","$50<br>in<br>6 weeks","1","34","50","6",""
"html-keyboard-response","37","173165","0.0-5.0-1.11","5cd10012174fc60016c10ffd","bdp_td","Fri Apr 14 2023 16:39:51 GMT-0400 (Eastern Daylight Time)","247072","","null","","","","FIX","","<div class='trialBorder'><div class='vertical-center'><img style='vertical-align:center; align:center' src=img/fixation3.jpg></div></div>","null","","","","","","",""
"html-keyboard-response","38","181496","0.0-5.0-2.11","5cd10012174fc60016c10ffd","bdp_td","Fri Apr 14 2023 16:39:51 GMT-0400 (Eastern Daylight Time)","247072","","8328","","","","offer","","<div class='trialBorder'><div class='vertical-center'><img style='vertical-align:center; align:center' src=img/fixation3.jpg></div><div class='cl'><div class='vertical-center'>$50<br>in<br>12 weeks</div></div><div class='cr'><div class='vertical-center'>$47<br><br>now</div></div><div class='respDivL'><div class='vertical-center'>(E)</div></div><div class='respDivR'><div class='vertical-center'>(I)</div></div></div>","E","$47<br><br>now","$50<br>in<br>12 weeks","1","47","50","12","THEN"
"html-keyboard-response","39","181753","0.0-5.0-3.11","5cd10012174fc60016c10ffd","bdp_td","Fri Apr 14 2023 16:39:51 GMT-0400 (Eastern Daylight Time)","247072","","null","","","","offerFB","","<div class='trialBorder'><div class='vertical-center'><img style='vertical-align:center; align:center' src=img/fixation3.jpg></div><div class='cl'><div class='vertical-center'><font style='color:orange'>$50<br>in<br>12 weeks</font></div></div><div class='cr'><div class='vertical-center'>$47<br><br>now</div></div><div class='respDivL'><div class='vertical-center'><font style='color:orange'>(E)</font></div></div><div class='respDivR'><div class='vertical-center'>(I)</div></div></div>","null","$47<br><br>now","$50<br>in<br>12 weeks","1","47","50","12",""
"html-keyboard-response","40","182256","0.0-5.0-1.12","5cd10012174fc60016c10ffd","bdp_td","Fri Apr 14 2023 16:39:51 GMT-0400 (Eastern Daylight Time)","247072","","null","","","","FIX","","<div class='trialBorder'><div class='vertical-center'><img style='vertical-align:center; align:center' src=img/fixation3.jpg></div></div>","null","","","","","","",""
"html-keyboard-response","41","184081","0.0-5.0-2.12","5cd10012174fc60016c10ffd","bdp_td","Fri Apr 14 2023 16:39:51 GMT-0400 (Eastern Daylight Time)","247072","","1821","","","","offer","","<div class='trialBorder'><div class='vertical-center'><img style='vertical-align:center; align:center' src=img/fixation3.jpg></div><div class='cl'><div class='vertical-center'>$25<br><br>now</div></div><div class='cr'><div class='vertical-center'>$60<br>in<br>3 weeks</div></div><div class='respDivL'><div class='vertical-center'>(E)</div></div><div class='respDivR'><div class='vertical-center'>(I)</div></div></div>","I","$25<br><br>now","$60<br>in<br>3 weeks","0","25","60","3","THEN"
"html-keyboard-response","42","184335","0.0-5.0-3.12","5cd10012174fc60016c10ffd","bdp_td","Fri Apr 14 2023 16:39:51 GMT-0400 (Eastern Daylight Time)","247072","","null","","","","offerFB","","<div class='trialBorder'><div class='vertical-center'><img style='vertical-align:center; align:center' src=img/fixation3.jpg></div><div class='cl'><div class='vertical-center'>$25<br><br>now</div></div><div class='cr'><div class='vertical-center'><font style='color:orange'>$60<br>in<br>3 weeks</font></div></div><div class='respDivL'><div class='vertical-center'>(E)</div></div><div class='respDivR'><div class='vertical-center'><font style='color:orange'>(I)</font></div></div></div>","null","$25<br><br>now","$60<br>in<br>3 weeks","0","25","60","3",""
"html-keyboard-response","43","184838","0.0-5.0-1.13","5cd10012174fc60016c10ffd","bdp_td","Fri Apr 14 2023 16:39:51 GMT-0400 (Eastern Daylight Time)","247072","","null","","","","FIX","","<div class='trialBorder'><div class='vertical-center'><img style='vertical-align:center; align:center' src=img/fixation3.jpg></div></div>","null","","","","","","",""
"html-keyboard-response","44","186470","0.0-5.0-2.13","5cd10012174fc60016c10ffd","bdp_td","Fri Apr 14 2023 16:39:51 GMT-0400 (Eastern Daylight Time)","247072","","1629","","","","offer","","<div class='trialBorder'><div class='vertical-center'><img style='vertical-align:center; align:center' src=img/fixation3.jpg></div><div class='cl'><div class='vertical-center'>$60<br>in<br>12 weeks</div></div><div class='cr'><div class='vertical-center'>$54<br><br>now</div></div><div class='respDivL'><div class='vertical-center'>(E)</div></div><div class='respDivR'><div class='vertical-center'>(I)</div></div></div>","I","$54<br><br>now","$60<br>in<br>12 weeks","1","54","60","12","NOW"
"html-keyboard-response","45","186724","0.0-5.0-3.13","5cd10012174fc60016c10ffd","bdp_td","Fri Apr 14 2023 16:39:51 GMT-0400 (Eastern Daylight Time)","247072","","null","","","","offerFB","","<div class='trialBorder'><div class='vertical-center'><img style='vertical-align:center; align:center' src=img/fixation3.jpg></div><div class='cl'><div class='vertical-center'>$60<br>in<br>12 weeks</div></div><div class='cr'><div class='vertical-center'><font style='color:orange'>$54<br><br>now</font></div></div><div class='respDivL'><div class='vertical-center'>(E)</div></div><div class='respDivR'><div class='vertical-center'><font style='color:orange'>(I)</font></div></div></div>","null","$54<br><br>now","$60<br>in<br>12 weeks","1","54","60","12",""
"html-keyboard-response","46","187226","0.0-5.0-1.14","5cd10012174fc60016c10ffd","bdp_td","Fri Apr 14 2023 16:39:51 GMT-0400 (Eastern Daylight Time)","247072","","null","","","","FIX","","<div class='trialBorder'><div class='vertical-center'><img style='vertical-align:center; align:center' src=img/fixation3.jpg></div></div>","null","","","","","","",""
"html-keyboard-response","47","188518","0.0-5.0-2.14","5cd10012174fc60016c10ffd","bdp_td","Fri Apr 14 2023 16:39:51 GMT-0400 (Eastern Daylight Time)","247072","","1287","","","","offer","","<div class='trialBorder'><div class='vertical-center'><img style='vertical-align:center; align:center' src=img/fixation3.jpg></div><div class='cl'><div class='vertical-center'>$14<br><br>now</div></div><div class='cr'><div class='vertical-center'>$25<br>in<br>3 weeks</div></div><div class='respDivL'><div class='vertical-center'>(E)</div></div><div class='respDivR'><div class='vertical-center'>(I)</div></div></div>","I","$14<br><br>now","$25<br>in<br>3 weeks","0","14","25","3","THEN"
"html-keyboard-response","48","188771","0.0-5.0-3.14","5cd10012174fc60016c10ffd","bdp_td","Fri Apr 14 2023 16:39:51 GMT-0400 (Eastern Daylight Time)","247072","","null","","","","offerFB","","<div class='trialBorder'><div class='vertical-center'><img style='vertical-align:center; align:center' src=img/fixation3.jpg></div><div class='cl'><div class='vertical-center'>$14<br><br>now</div></div><div class='cr'><div class='vertical-center'><font style='color:orange'>$25<br>in<br>3 weeks</font></div></div><div class='respDivL'><div class='vertical-center'>(E)</div></div><div class='respDivR'><div class='vertical-center'><font style='color:orange'>(I)</font></div></div></div>","null","$14<br><br>now","$25<br>in<br>3 weeks","0","14","25","3",""
"html-keyboard-response","49","189274","0.0-5.0-1.15","5cd10012174fc60016c10ffd","bdp_td","Fri Apr 14 2023 16:39:51 GMT-0400 (Eastern Daylight Time)","247072","","null","","","","FIX","","<div class='trialBorder'><div class='vertical-center'><img style='vertical-align:center; align:center' src=img/fixation3.jpg></div></div>","null","","","","","","",""
"html-keyboard-response","50","190695","0.0-5.0-2.15","5cd10012174fc60016c10ffd","bdp_td","Fri Apr 14 2023 16:39:51 GMT-0400 (Eastern Daylight Time)","247072","","1418","","","","offer","","<div class='trialBorder'><div class='vertical-center'><img style='vertical-align:center; align:center' src=img/fixation3.jpg></div><div class='cl'><div class='vertical-center'>$33<br><br>now</div></div><div class='cr'><div class='vertical-center'>$80<br>in<br>2 weeks</div></div><div class='respDivL'><div class='vertical-center'>(E)</div></div><div class='respDivR'><div class='vertical-center'>(I)</div></div></div>","I","$33<br><br>now","$80<br>in<br>2 weeks","0","33","80","2","THEN"
"html-keyboard-response","51","190949","0.0-5.0-3.15","5cd10012174fc60016c10ffd","bdp_td","Fri Apr 14 2023 16:39:51 GMT-0400 (Eastern Daylight Time)","247072","","null","","","","offerFB","","<div class='trialBorder'><div class='vertical-center'><img style='vertical-align:center; align:center' src=img/fixation3.jpg></div><div class='cl'><div class='vertical-center'>$33<br><br>now</div></div><div class='cr'><div class='vertical-center'><font style='color:orange'>$80<br>in<br>2 weeks</font></div></div><div class='respDivL'><div class='vertical-center'>(E)</div></div><div class='respDivR'><div class='vertical-center'><font style='color:orange'>(I)</font></div></div></div>","null","$33<br><br>now","$80<br>in<br>2 weeks","0","33","80","2",""
"html-keyboard-response","52","191450","0.0-5.0-1.16","5cd10012174fc60016c10ffd","bdp_td","Fri Apr 14 2023 16:39:51 GMT-0400 (Eastern Daylight Time)","247072","","null","","","","FIX","","<div class='trialBorder'><div class='vertical-center'><img style='vertical-align:center; align:center' src=img/fixation3.jpg></div></div>","null","","","","","","",""
"html-keyboard-response","53","193030","0.0-5.0-2.16","5cd10012174fc60016c10ffd","bdp_td","Fri Apr 14 2023 16:39:51 GMT-0400 (Eastern Daylight Time)","247072","","1577","","","","offer","","<div class='trialBorder'><div class='vertical-center'><img style='vertical-align:center; align:center' src=img/fixation3.jpg></div><div class='cl'><div class='vertical-center'>$35<br>in<br>3 weeks</div></div><div class='cr'><div class='vertical-center'>$24<br><br>now</div></div><div class='respDivL'><div class='vertical-center'>(E)</div></div><div class='respDivR'><div class='vertical-center'>(I)</div></div></div>","I","$24<br><br>now","$35<br>in<br>3 weeks","1","24","35","3","NOW"
"html-keyboard-response","54","193284","0.0-5.0-3.16","5cd10012174fc60016c10ffd","bdp_td","Fri Apr 14 2023 16:39:51 GMT-0400 (Eastern Daylight Time)","247072","","null","","","","offerFB","","<div class='trialBorder'><div class='vertical-center'><img style='vertical-align:center; align:center' src=img/fixation3.jpg></div><div class='cl'><div class='vertical-center'>$35<br>in<br>3 weeks</div></div><div class='cr'><div class='vertical-center'><font style='color:orange'>$24<br><br>now</font></div></div><div class='respDivL'><div class='vertical-center'>(E)</div></div><div class='respDivR'><div class='vertical-center'><font style='color:orange'>(I)</font></div></div></div>","null","$24<br><br>now","$35<br>in<br>3 weeks","1","24","35","3",""
"html-keyboard-response","55","193786","0.0-5.0-1.17","5cd10012174fc60016c10ffd","bdp_td","Fri Apr 14 2023 16:39:51 GMT-0400 (Eastern Daylight Time)","247072","","null","","","","FIX","","<div class='trialBorder'><div class='vertical-center'><img style='vertical-align:center; align:center' src=img/fixation3.jpg></div></div>","null","","","","","","",""
"html-keyboard-response","56","196059","0.0-5.0-2.17","5cd10012174fc60016c10ffd","bdp_td","Fri Apr 14 2023 16:39:51 GMT-0400 (Eastern Daylight Time)","247072","","2271","","","","offer","","<div class='trialBorder'><div class='vertical-center'><img style='vertical-align:center; align:center' src=img/fixation3.jpg></div><div class='cl'><div class='vertical-center'>$54<br><br>now</div></div><div class='cr'><div class='vertical-center'>$55<br>in<br>12 weeks</div></div><div class='respDivL'><div class='vertical-center'>(E)</div></div><div class='respDivR'><div class='vertical-center'>(I)</div></div></div>","E","$54<br><br>now","$55<br>in<br>12 weeks","0","54","55","12","NOW"
"html-keyboard-response","57","196312","0.0-5.0-3.17","5cd10012174fc60016c10ffd","bdp_td","Fri Apr 14 2023 16:39:51 GMT-0400 (Eastern Daylight Time)","247072","","null","","","","offerFB","","<div class='trialBorder'><div class='vertical-center'><img style='vertical-align:center; align:center' src=img/fixation3.jpg></div><div class='cl'><div class='vertical-center'><font style='color:orange'>$54<br><br>now</font></div></div><div class='cr'><div class='vertical-center'>$55<br>in<br>12 weeks</div></div><div class='respDivL'><div class='vertical-center'><font style='color:orange'>(E)</font></div></div><div class='respDivR'><div class='vertical-center'>(I)</div></div></div>","null","$54<br><br>now","$55<br>in<br>12 weeks","0","54","55","12",""
"html-keyboard-response","58","196814","0.0-5.0-1.18","5cd10012174fc60016c10ffd","bdp_td","Fri Apr 14 2023 16:39:51 GMT-0400 (Eastern Daylight Time)","247072","","null","","","","FIX","","<div class='trialBorder'><div class='vertical-center'><img style='vertical-align:center; align:center' src=img/fixation3.jpg></div></div>","null","","","","","","",""
"html-keyboard-response","59","207363","0.0-5.0-2.18","5cd10012174fc60016c10ffd","bdp_td","Fri Apr 14 2023 16:39:51 GMT-0400 (Eastern Daylight Time)","247072","","10546","","","","offer","","<div class='trialBorder'><div class='vertical-center'><img style='vertical-align:center; align:center' src=img/fixation3.jpg></div><div class='cl'><div class='vertical-center'>$11<br><br>now</div></div><div class='cr'><div class='vertical-center'>$30<br>in<br>2 weeks</div></div><div class='respDivL'><div class='vertical-center'>(E)</div></div><div class='respDivR'><div class='vertical-center'>(I)</div></div></div>","E","$11<br><br>now","$30<br>in<br>2 weeks","0","11","30","2","NOW"
"html-keyboard-response","60","207618","0.0-5.0-3.18","5cd10012174fc60016c10ffd","bdp_td","Fri Apr 14 2023 16:39:51 GMT-0400 (Eastern Daylight Time)","247072","","null","","","","offerFB","","<div class='trialBorder'><div class='vertical-center'><img style='vertical-align:center; align:center' src=img/fixation3.jpg></div><div class='cl'><div class='vertical-center'><font style='color:orange'>$11<br><br>now</font></div></div><div class='cr'><div class='vertical-center'>$30<br>in<br>2 weeks</div></div><div class='respDivL'><div class='vertical-center'><font style='color:orange'>(E)</font></div></div><div class='respDivR'><div class='vertical-center'>(I)</div></div></div>","null","$11<br><br>now","$30<br>in<br>2 weeks","0","11","30","2",""
"html-keyboard-response","61","208120","0.0-5.0-1.19","5cd10012174fc60016c10ffd","bdp_td","Fri Apr 14 2023 16:39:51 GMT-0400 (Eastern Daylight Time)","247072","","null","","","","FIX","","<div class='trialBorder'><div class='vertical-center'><img style='vertical-align:center; align:center' src=img/fixation3.jpg></div></div>","null","","","","","","",""
"html-keyboard-response","62","209193","0.0-5.0-2.19","5cd10012174fc60016c10ffd","bdp_td","Fri Apr 14 2023 16:39:51 GMT-0400 (Eastern Daylight Time)","247072","","1070","","","","offer","","<div class='trialBorder'><div class='vertical-center'><img style='vertical-align:center; align:center' src=img/fixation3.jpg></div><div class='cl'><div class='vertical-center'>$20<br><br>now</div></div><div class='cr'><div class='vertical-center'>$55<br>in<br>1 week</div></div><div class='respDivL'><div class='vertical-center'>(E)</div></div><div class='respDivR'><div class='vertical-center'>(I)</div></div></div>","I","$20<br><br>now","$55<br>in<br>1 week","0","20","55","1","THEN"
"html-keyboard-response","63","209446","0.0-5.0-3.19","5cd10012174fc60016c10ffd","bdp_td","Fri Apr 14 2023 16:39:51 GMT-0400 (Eastern Daylight Time)","247072","","null","","","","offerFB","","<div class='trialBorder'><div class='vertical-center'><img style='vertical-align:center; align:center' src=img/fixation3.jpg></div><div class='cl'><div class='vertical-center'>$20<br><br>now</div></div><div class='cr'><div class='vertical-center'><font style='color:orange'>$55<br>in<br>1 week</font></div></div><div class='respDivL'><div class='vertical-center'>(E)</div></div><div class='respDivR'><div class='vertical-center'><font style='color:orange'>(I)</font></div></div></div>","null","$20<br><br>now","$55<br>in<br>1 week","0","20","55","1",""
"html-keyboard-response","64","209949","0.0-5.0-1.20","5cd10012174fc60016c10ffd","bdp_td","Fri Apr 14 2023 16:39:51 GMT-0400 (Eastern Daylight Time)","247072","","null","","","","FIX","","<div class='trialBorder'><div class='vertical-center'><img style='vertical-align:center; align:center' src=img/fixation3.jpg></div></div>","null","","","","","","",""
"html-keyboard-response","65","211943","0.0-5.0-2.20","5cd10012174fc60016c10ffd","bdp_td","Fri Apr 14 2023 16:39:51 GMT-0400 (Eastern Daylight Time)","247072","","1990","","","","offer","","<div class='trialBorder'><div class='vertical-center'><img style='vertical-align:center; align:center' src=img/fixation3.jpg></div><div class='cl'><div class='vertical-center'>$40<br><br>now</div></div><div class='cr'><div class='vertical-center'>$55<br>in<br>6 weeks</div></div><div class='respDivL'><div class='vertical-center'>(E)</div></div><div class='respDivR'><div class='vertical-center'>(I)</div></div></div>","E","$40<br><br>now","$55<br>in<br>6 weeks","0","40","55","6","NOW"
"html-keyboard-response","66","212196","0.0-5.0-3.20","5cd10012174fc60016c10ffd","bdp_td","Fri Apr 14 2023 16:39:51 GMT-0400 (Eastern Daylight Time)","247072","","null","","","","offerFB","","<div class='trialBorder'><div class='vertical-center'><img style='vertical-align:center; align:center' src=img/fixation3.jpg></div><div class='cl'><div class='vertical-center'><font style='color:orange'>$40<br><br>now</font></div></div><div class='cr'><div class='vertical-center'>$55<br>in<br>6 weeks</div></div><div class='respDivL'><div class='vertical-center'><font style='color:orange'>(E)</font></div></div><div class='respDivR'><div class='vertical-center'>(I)</div></div></div>","null","$40<br><br>now","$55<br>in<br>6 weeks","0","40","55","6",""
"html-keyboard-response","67","212698","0.0-5.0-1.21","5cd10012174fc60016c10ffd","bdp_td","Fri Apr 14 2023 16:39:51 GMT-0400 (Eastern Daylight Time)","247072","","null","","","","FIX","","<div class='trialBorder'><div class='vertical-center'><img style='vertical-align:center; align:center' src=img/fixation3.jpg></div></div>","null","","","","","","",""
"html-keyboard-response","68","214767","0.0-5.0-2.21","5cd10012174fc60016c10ffd","bdp_td","Fri Apr 14 2023 16:39:51 GMT-0400 (Eastern Daylight Time)","247072","","2066","","","","offer","","<div class='trialBorder'><div class='vertical-center'><img style='vertical-align:center; align:center' src=img/fixation3.jpg></div><div class='cl'><div class='vertical-center'>$25<br>in<br>6 weeks</div></div><div class='cr'><div class='vertical-center'>$19<br><br>now</div></div><div class='respDivL'><div class='vertical-center'>(E)</div></div><div class='respDivR'><div class='vertical-center'>(I)</div></div></div>","I","$19<br><br>now","$25<br>in<br>6 weeks","1","19","25","6","NOW"
"html-keyboard-response","69","215020","0.0-5.0-3.21","5cd10012174fc60016c10ffd","bdp_td","Fri Apr 14 2023 16:39:51 GMT-0400 (Eastern Daylight Time)","247072","","null","","","","offerFB","","<div class='trialBorder'><div class='vertical-center'><img style='vertical-align:center; align:center' src=img/fixation3.jpg></div><div class='cl'><div class='vertical-center'>$25<br>in<br>6 weeks</div></div><div class='cr'><div class='vertical-center'><font style='color:orange'>$19<br><br>now</font></div></div><div class='respDivL'><div class='vertical-center'>(E)</div></div><div class='respDivR'><div class='vertical-center'><font style='color:orange'>(I)</font></div></div></div>","null","$19<br><br>now","$25<br>in<br>6 weeks","1","19","25","6",""
"html-keyboard-response","70","215524","0.0-5.0-1.22","5cd10012174fc60016c10ffd","bdp_td","Fri Apr 14 2023 16:39:51 GMT-0400 (Eastern Daylight Time)","247072","","null","","","","FIX","","<div class='trialBorder'><div class='vertical-center'><img style='vertical-align:center; align:center' src=img/fixation3.jpg></div></div>","null","","","","","","",""
"html-keyboard-response","71","217453","0.0-5.0-2.22","5cd10012174fc60016c10ffd","bdp_td","Fri Apr 14 2023 16:39:51 GMT-0400 (Eastern Daylight Time)","247072","","1925","","","","offer","","<div class='trialBorder'><div class='vertical-center'><img style='vertical-align:center; align:center' src=img/fixation3.jpg></div><div class='cl'><div class='vertical-center'>$78<br><br>now</div></div><div class='cr'><div class='vertical-center'>$80<br>in<br>12 weeks</div></div><div class='respDivL'><div class='vertical-center'>(E)</div></div><div class='respDivR'><div class='vertical-center'>(I)</div></div></div>","E","$78<br><br>now","$80<br>in<br>12 weeks","0","78","80","12","NOW"
"html-keyboard-response","72","217706","0.0-5.0-3.22","5cd10012174fc60016c10ffd","bdp_td","Fri Apr 14 2023 16:39:51 GMT-0400 (Eastern Daylight Time)","247072","","null","","","","offerFB","","<div class='trialBorder'><div class='vertical-center'><img style='vertical-align:center; align:center' src=img/fixation3.jpg></div><div class='cl'><div class='vertical-center'><font style='color:orange'>$78<br><br>now</font></div></div><div class='cr'><div class='vertical-center'>$80<br>in<br>12 weeks</div></div><div class='respDivL'><div class='vertical-center'><font style='color:orange'>(E)</font></div></div><div class='respDivR'><div class='vertical-center'>(I)</div></div></div>","null","$78<br><br>now","$80<br>in<br>12 weeks","0","78","80","12",""
"html-keyboard-response","73","218209","0.0-5.0-1.23","5cd10012174fc60016c10ffd","bdp_td","Fri Apr 14 2023 16:39:51 GMT-0400 (Eastern Daylight Time)","247072","","null","","","","FIX","","<div class='trialBorder'><div class='vertical-center'><img style='vertical-align:center; align:center' src=img/fixation3.jpg></div></div>","null","","","","","","",""
"html-keyboard-response","74","220436","0.0-5.0-2.23","5cd10012174fc60016c10ffd","bdp_td","Fri Apr 14 2023 16:39:51 GMT-0400 (Eastern Daylight Time)","247072","","2225","","","","offer","","<div class='trialBorder'><div class='vertical-center'><img style='vertical-align:center; align:center' src=img/fixation3.jpg></div><div class='cl'><div class='vertical-center'>$34<br><br>now</div></div><div class='cr'><div class='vertical-center'>$35<br>in<br>12 weeks</div></div><div class='respDivL'><div class='vertical-center'>(E)</div></div><div class='respDivR'><div class='vertical-center'>(I)</div></div></div>","E","$34<br><br>now","$35<br>in<br>12 weeks","0","34","35","12","NOW"
"html-keyboard-response","75","220691","0.0-5.0-3.23","5cd10012174fc60016c10ffd","bdp_td","Fri Apr 14 2023 16:39:51 GMT-0400 (Eastern Daylight Time)","247072","","null","","","","offerFB","","<div class='trialBorder'><div class='vertical-center'><img style='vertical-align:center; align:center' src=img/fixation3.jpg></div><div class='cl'><div class='vertical-center'><font style='color:orange'>$34<br><br>now</font></div></div><div class='cr'><div class='vertical-center'>$35<br>in<br>12 weeks</div></div><div class='respDivL'><div class='vertical-center'><font style='color:orange'>(E)</font></div></div><div class='respDivR'><div class='vertical-center'>(I)</div></div></div>","null","$34<br><br>now","$35<br>in<br>12 weeks","0","34","35","12",""
"html-keyboard-response","76","221194","0.0-5.0-1.24","5cd10012174fc60016c10ffd","bdp_td","Fri Apr 14 2023 16:39:51 GMT-0400 (Eastern Daylight Time)","247072","","null","","","","FIX","","<div class='trialBorder'><div class='vertical-center'><img style='vertical-align:center; align:center' src=img/fixation3.jpg></div></div>","null","","","","","","",""
"html-keyboard-response","77","223952","0.0-5.0-2.24","5cd10012174fc60016c10ffd","bdp_td","Fri Apr 14 2023 16:39:51 GMT-0400 (Eastern Daylight Time)","247072","","2755","","","","offer","","<div class='trialBorder'><div class='vertical-center'><img style='vertical-align:center; align:center' src=img/fixation3.jpg></div><div class='cl'><div class='vertical-center'>$60<br>in<br>6 weeks</div></div><div class='cr'><div class='vertical-center'>$49<br><br>now</div></div><div class='respDivL'><div class='vertical-center'>(E)</div></div><div class='respDivR'><div class='vertical-center'>(I)</div></div></div>","I","$49<br><br>now","$60<br>in<br>6 weeks","1","49","60","6","NOW"
"html-keyboard-response","78","224207","0.0-5.0-3.24","5cd10012174fc60016c10ffd","bdp_td","Fri Apr 14 2023 16:39:51 GMT-0400 (Eastern Daylight Time)","247072","","null","","","","offerFB","","<div class='trialBorder'><div class='vertical-center'><img style='vertical-align:center; align:center' src=img/fixation3.jpg></div><div class='cl'><div class='vertical-center'>$60<br>in<br>6 weeks</div></div><div class='cr'><div class='vertical-center'><font style='color:orange'>$49<br><br>now</font></div></div><div class='respDivL'><div class='vertical-center'>(E)</div></div><div class='respDivR'><div class='vertical-center'><font style='color:orange'>(I)</font></div></div></div>","null","$49<br><br>now","$60<br>in<br>6 weeks","1","49","60","6",""
"html-keyboard-response","79","224709","0.0-5.0-1.25","5cd10012174fc60016c10ffd","bdp_td","Fri Apr 14 2023 16:39:51 GMT-0400 (Eastern Daylight Time)","247072","","null","","","","FIX","","<div class='trialBorder'><div class='vertical-center'><img style='vertical-align:center; align:center' src=img/fixation3.jpg></div></div>","null","","","","","","",""
"html-keyboard-response","80","243637","0.0-5.0-2.25","5cd10012174fc60016c10ffd","bdp_td","Fri Apr 14 2023 16:39:51 GMT-0400 (Eastern Daylight Time)","247072","","18926","","","","offer","","<div class='trialBorder'><div class='vertical-center'><img style='vertical-align:center; align:center' src=img/fixation3.jpg></div><div class='cl'><div class='vertical-center'>$50<br>in<br>3 weeks</div></div><div class='cr'><div class='vertical-center'>$27<br><br>now</div></div><div class='respDivL'><div class='vertical-center'>(E)</div></div><div class='respDivR'><div class='vertical-center'>(I)</div></div></div>","E","$27<br><br>now","$50<br>in<br>3 weeks","1","27","50","3","THEN"
"html-keyboard-response","81","243892","0.0-5.0-3.25","5cd10012174fc60016c10ffd","bdp_td","Fri Apr 14 2023 16:39:51 GMT-0400 (Eastern Daylight Time)","247072","","null","","","","offerFB","","<div class='trialBorder'><div class='vertical-center'><img style='vertical-align:center; align:center' src=img/fixation3.jpg></div><div class='cl'><div class='vertical-center'><font style='color:orange'>$50<br>in<br>3 weeks</font></div></div><div class='cr'><div class='vertical-center'>$27<br><br>now</div></div><div class='respDivL'><div class='vertical-center'><font style='color:orange'>(E)</font></div></div><div class='respDivR'><div class='vertical-center'>(I)</div></div></div>","null","$27<br><br>now","$50<br>in<br>3 weeks","1","27","50","3",""
"html-keyboard-response","82","244395","0.0-5.0-1.26","5cd10012174fc60016c10ffd","bdp_td","Fri Apr 14 2023 16:39:51 GMT-0400 (Eastern Daylight Time)","247072","","null","","","","FIX","","<div class='trialBorder'><div class='vertical-center'><img style='vertical-align:center; align:center' src=img/fixation3.jpg></div></div>","null","","","","","","",""
"html-keyboard-response","83","245815","0.0-5.0-2.26","5cd10012174fc60016c10ffd","bdp_td","Fri Apr 14 2023 16:39:51 GMT-0400 (Eastern Daylight Time)","247072","","1417","","","","offer","","<div class='trialBorder'><div class='vertical-center'><img style='vertical-align:center; align:center' src=img/fixation3.jpg></div><div class='cl'><div class='vertical-center'>$85<br>in<br>12 weeks</div></div><div class='cr'><div class='vertical-center'>$80<br><br>now</div></div><div class='respDivL'><div class='vertical-center'>(E)</div></div><div class='respDivR'><div class='vertical-center'>(I)</div></div></div>","I","$80<br><br>now","$85<br>in<br>12 weeks","1","80","85","12","NOW"
"html-keyboard-response","84","246069","0.0-5.0-3.26","5cd10012174fc60016c10ffd","bdp_td","Fri Apr 14 2023 16:39:51 GMT-0400 (Eastern Daylight Time)","247072","","null","","","","offerFB","","<div class='trialBorder'><div class='vertical-center'><img style='vertical-align:center; align:center' src=img/fixation3.jpg></div><div class='cl'><div class='vertical-center'>$85<br>in<br>12 weeks</div></div><div class='cr'><div class='vertical-center'><font style='color:orange'>$80<br><br>now</font></div></div><div class='respDivL'><div class='vertical-center'>(E)</div></div><div class='respDivR'><div class='vertical-center'><font style='color:orange'>(I)</font></div></div></div>","null","$80<br><br>now","$85<br>in<br>12 weeks","1","80","85","12",""
"","","","","5cd10012174fc60016c10ffd","bdp_td","Fri Apr 14 2023 16:39:51 GMT-0400 (Eastern Daylight Time)","247072","","","fullscreenexit","85","246125","fullscreenexit","","","","","","","","","",""
"fullscreen","85","247071","0.0-6.0","5cd10012174fc60016c10ffd","bdp_td","Fri Apr 14 2023 16:39:51 GMT-0400 (Eastern Daylight Time)","247072","","","","","","","true","","","","","","","","",""
"html-keyboard-response","86","247574","0.0-7.0","","","","","","null","","","","","","","null","","","","","","",""
