"trial_type","trial_index","time_elapsed","internal_node_id","subject_id","task","startTime","totalTime","view_history","rt","event","trial","time","trialtype","success","stimulus","key_press","nowOffer","thenOffer","thenLeft","nowAmt","thenAmt","thenWeeks","chosen"
"pavlovia","0","4","0.0-0.0","5ec0aeb3d216ee36d856ead2","bdp_td","Sat Mar 25 2023 23:51:12 GMT-0400 (Eastern Daylight Time)","73130","","","","","","","","","","","","","","","",""
"instructions","1","1701","0.0-1.0","5ec0aeb3d216ee36d856ead2","bdp_td","Sat Mar 25 2023 23:51:12 GMT-0400 (Eastern Daylight Time)","73130","[{""page_index"":0,""viewing_time"":1697}]","1697","","","","","","","","","","","","","",""
"","","","","5ec0aeb3d216ee36d856ead2","bdp_td","Sat Mar 25 2023 23:51:12 GMT-0400 (Eastern Daylight Time)","73130","","","fullscreenenter","2","2711","fullscreenenter","","","","","","","","","",""
"fullscreen","2","3704","0.0-2.0","5ec0aeb3d216ee36d856ead2","bdp_td","Sat Mar 25 2023 23:51:12 GMT-0400 (Eastern Daylight Time)","73130","","","","","","","true","","","","","","","","",""
"instructions","3","16908","0.0-4.0","5ec0aeb3d216ee36d856ead2","bdp_td","Sat Mar 25 2023 23:51:12 GMT-0400 (Eastern Daylight Time)","73130","[{""page_index"":0,""viewing_time"":2909},{""page_index"":1,""viewing_time"":7187},{""page_index"":2,""viewing_time"":3107}]","13203","","","","","","","","","","","","","",""
"html-keyboard-response","4","17412","0.0-5.0-1.0","5ec0aeb3d216ee36d856ead2","bdp_td","Sat Mar 25 2023 23:51:12 GMT-0400 (Eastern Daylight Time)","73130","","null","","","","FIX","","<div class='trialBorder'><div class='vertical-center'><img style='vertical-align:center; align:center' src=img/fixation3.jpg></div></div>","null","","","","","","",""
"html-keyboard-response","5","20555","0.0-5.0-2.0","5ec0aeb3d216ee36d856ead2","bdp_td","Sat Mar 25 2023 23:51:12 GMT-0400 (Eastern Daylight Time)","73130","","3142","","","","offer","","<div class='trialBorder'><div class='vertical-center'><img style='vertical-align:center; align:center' src=img/fixation3.jpg></div><div class='cl'><div class='vertical-center'>$25<br><br>now</div></div><div class='cr'><div class='vertical-center'>$30<br>in<br>6 weeks</div></div><div class='respDivL'><div class='vertical-center'>(E)</div></div><div class='respDivR'><div class='vertical-center'>(I)</div></div></div>","E","$25<br><br>now","$30<br>in<br>6 weeks","0","25","30","6","NOW"
"html-keyboard-response","6","20807","0.0-5.0-3.0","5ec0aeb3d216ee36d856ead2","bdp_td","Sat Mar 25 2023 23:51:12 GMT-0400 (Eastern Daylight Time)","73130","","null","","","","offerFB","","<div class='trialBorder'><div class='vertical-center'><img style='vertical-align:center; align:center' src=img/fixation3.jpg></div><div class='cl'><div class='vertical-center'><font style='color:orange'>$25<br><br>now</font></div></div><div class='cr'><div class='vertical-center'>$30<br>in<br>6 weeks</div></div><div class='respDivL'><div class='vertical-center'><font style='color:orange'>(E)</font></div></div><div class='respDivR'><div class='vertical-center'>(I)</div></div></div>","null","$25<br><br>now","$30<br>in<br>6 weeks","0","25","30","6",""
"html-keyboard-response","7","21309","0.0-5.0-1.1","5ec0aeb3d216ee36d856ead2","bdp_td","Sat Mar 25 2023 23:51:12 GMT-0400 (Eastern Daylight Time)","73130","","null","","","","FIX","","<div class='trialBorder'><div class='vertical-center'><img style='vertical-align:center; align:center' src=img/fixation3.jpg></div></div>","null","","","","","","",""
"html-keyboard-response","8","23052","0.0-5.0-2.1","5ec0aeb3d216ee36d856ead2","bdp_td","Sat Mar 25 2023 23:51:12 GMT-0400 (Eastern Daylight Time)","73130","","1742","","","","offer","","<div class='trialBorder'><div class='vertical-center'><img style='vertical-align:center; align:center' src=img/fixation3.jpg></div><div class='cl'><div class='vertical-center'>$85<br>in<br>1 week</div></div><div class='cr'><div class='vertical-center'>$31<br><br>now</div></div><div class='respDivL'><div class='vertical-center'>(E)</div></div><div class='respDivR'><div class='vertical-center'>(I)</div></div></div>","E","$31<br><br>now","$85<br>in<br>1 week","1","31","85","1","THEN"
"html-keyboard-response","9","23304","0.0-5.0-3.1","5ec0aeb3d216ee36d856ead2","bdp_td","Sat Mar 25 2023 23:51:12 GMT-0400 (Eastern Daylight Time)","73130","","null","","","","offerFB","","<div class='trialBorder'><div class='vertical-center'><img style='vertical-align:center; align:center' src=img/fixation3.jpg></div><div class='cl'><div class='vertical-center'><font style='color:orange'>$85<br>in<br>1 week</font></div></div><div class='cr'><div class='vertical-center'>$31<br><br>now</div></div><div class='respDivL'><div class='vertical-center'><font style='color:orange'>(E)</font></div></div><div class='respDivR'><div class='vertical-center'>(I)</div></div></div>","null","$31<br><br>now","$85<br>in<br>1 week","1","31","85","1",""
"html-keyboard-response","10","23806","0.0-5.0-1.2","5ec0aeb3d216ee36d856ead2","bdp_td","Sat Mar 25 2023 23:51:12 GMT-0400 (Eastern Daylight Time)","73130","","null","","","","FIX","","<div class='trialBorder'><div class='vertical-center'><img style='vertical-align:center; align:center' src=img/fixation3.jpg></div></div>","null","","","","","","",""
"html-keyboard-response","11","24807","0.0-5.0-2.2","5ec0aeb3d216ee36d856ead2","bdp_td","Sat Mar 25 2023 23:51:12 GMT-0400 (Eastern Daylight Time)","73130","","1000","","","","offer","","<div class='trialBorder'><div class='vertical-center'><img style='vertical-align:center; align:center' src=img/fixation3.jpg></div><div class='cl'><div class='vertical-center'>$33<br><br>now</div></div><div class='cr'><div class='vertical-center'>$80<br>in<br>2 weeks</div></div><div class='respDivL'><div class='vertical-center'>(E)</div></div><div class='respDivR'><div class='vertical-center'>(I)</div></div></div>","I","$33<br><br>now","$80<br>in<br>2 weeks","0","33","80","2","THEN"
"html-keyboard-response","12","25059","0.0-5.0-3.2","5ec0aeb3d216ee36d856ead2","bdp_td","Sat Mar 25 2023 23:51:12 GMT-0400 (Eastern Daylight Time)","73130","","null","","","","offerFB","","<div class='trialBorder'><div class='vertical-center'><img style='vertical-align:center; align:center' src=img/fixation3.jpg></div><div class='cl'><div class='vertical-center'>$33<br><br>now</div></div><div class='cr'><div class='vertical-center'><font style='color:orange'>$80<br>in<br>2 weeks</font></div></div><div class='respDivL'><div class='vertical-center'>(E)</div></div><div class='respDivR'><div class='vertical-center'><font style='color:orange'>(I)</font></div></div></div>","null","$33<br><br>now","$80<br>in<br>2 weeks","0","33","80","2",""
"html-keyboard-response","13","25560","0.0-5.0-1.3","5ec0aeb3d216ee36d856ead2","bdp_td","Sat Mar 25 2023 23:51:12 GMT-0400 (Eastern Daylight Time)","73130","","null","","","","FIX","","<div class='trialBorder'><div class='vertical-center'><img style='vertical-align:center; align:center' src=img/fixation3.jpg></div></div>","null","","","","","","",""
"html-keyboard-response","14","27108","0.0-5.0-2.3","5ec0aeb3d216ee36d856ead2","bdp_td","Sat Mar 25 2023 23:51:12 GMT-0400 (Eastern Daylight Time)","73130","","1548","","","","offer","","<div class='trialBorder'><div class='vertical-center'><img style='vertical-align:center; align:center' src=img/fixation3.jpg></div><div class='cl'><div class='vertical-center'>$75<br>in<br>3 weeks</div></div><div class='cr'><div class='vertical-center'>$41<br><br>now</div></div><div class='respDivL'><div class='vertical-center'>(E)</div></div><div class='respDivR'><div class='vertical-center'>(I)</div></div></div>","E","$41<br><br>now","$75<br>in<br>3 weeks","1","41","75","3","THEN"
"html-keyboard-response","15","27360","0.0-5.0-3.3","5ec0aeb3d216ee36d856ead2","bdp_td","Sat Mar 25 2023 23:51:12 GMT-0400 (Eastern Daylight Time)","73130","","null","","","","offerFB","","<div class='trialBorder'><div class='vertical-center'><img style='vertical-align:center; align:center' src=img/fixation3.jpg></div><div class='cl'><div class='vertical-center'><font style='color:orange'>$75<br>in<br>3 weeks</font></div></div><div class='cr'><div class='vertical-center'>$41<br><br>now</div></div><div class='respDivL'><div class='vertical-center'><font style='color:orange'>(E)</font></div></div><div class='respDivR'><div class='vertical-center'>(I)</div></div></div>","null","$41<br><br>now","$75<br>in<br>3 weeks","1","41","75","3",""
"html-keyboard-response","16","27863","0.0-5.0-1.4","5ec0aeb3d216ee36d856ead2","bdp_td","Sat Mar 25 2023 23:51:12 GMT-0400 (Eastern Daylight Time)","73130","","null","","","","FIX","","<div class='trialBorder'><div class='vertical-center'><img style='vertical-align:center; align:center' src=img/fixation3.jpg></div></div>","null","","","","","","",""
"html-keyboard-response","17","28676","0.0-5.0-2.4","5ec0aeb3d216ee36d856ead2","bdp_td","Sat Mar 25 2023 23:51:12 GMT-0400 (Eastern Daylight Time)","73130","","812","","","","offer","","<div class='trialBorder'><div class='vertical-center'><img style='vertical-align:center; align:center' src=img/fixation3.jpg></div><div class='cl'><div class='vertical-center'>$20<br><br>now</div></div><div class='cr'><div class='vertical-center'>$55<br>in<br>1 week</div></div><div class='respDivL'><div class='vertical-center'>(E)</div></div><div class='respDivR'><div class='vertical-center'>(I)</div></div></div>","I","$20<br><br>now","$55<br>in<br>1 week","0","20","55","1","THEN"
"html-keyboard-response","18","28928","0.0-5.0-3.4","5ec0aeb3d216ee36d856ead2","bdp_td","Sat Mar 25 2023 23:51:12 GMT-0400 (Eastern Daylight Time)","73130","","null","","","","offerFB","","<div class='trialBorder'><div class='vertical-center'><img style='vertical-align:center; align:center' src=img/fixation3.jpg></div><div class='cl'><div class='vertical-center'>$20<br><br>now</div></div><div class='cr'><div class='vertical-center'><font style='color:orange'>$55<br>in<br>1 week</font></div></div><div class='respDivL'><div class='vertical-center'>(E)</div></div><div class='respDivR'><div class='vertical-center'><font style='color:orange'>(I)</font></div></div></div>","null","$20<br><br>now","$55<br>in<br>1 week","0","20","55","1",""
"html-keyboard-response","19","29431","0.0-5.0-1.5","5ec0aeb3d216ee36d856ead2","bdp_td","Sat Mar 25 2023 23:51:12 GMT-0400 (Eastern Daylight Time)","73130","","null","","","","FIX","","<div class='trialBorder'><div class='vertical-center'><img style='vertical-align:center; align:center' src=img/fixation3.jpg></div></div>","null","","","","","","",""
"html-keyboard-response","20","30756","0.0-5.0-2.5","5ec0aeb3d216ee36d856ead2","bdp_td","Sat Mar 25 2023 23:51:12 GMT-0400 (Eastern Daylight Time)","73130","","1325","","","","offer","","<div class='trialBorder'><div class='vertical-center'><img style='vertical-align:center; align:center' src=img/fixation3.jpg></div><div class='cl'><div class='vertical-center'>$15<br><br>now</div></div><div class='cr'><div class='vertical-center'>$35<br>in<br>2 weeks</div></div><div class='respDivL'><div class='vertical-center'>(E)</div></div><div class='respDivR'><div class='vertical-center'>(I)</div></div></div>","I","$15<br><br>now","$35<br>in<br>2 weeks","0","15","35","2","THEN"
"html-keyboard-response","21","31008","0.0-5.0-3.5","5ec0aeb3d216ee36d856ead2","bdp_td","Sat Mar 25 2023 23:51:12 GMT-0400 (Eastern Daylight Time)","73130","","null","","","","offerFB","","<div class='trialBorder'><div class='vertical-center'><img style='vertical-align:center; align:center' src=img/fixation3.jpg></div><div class='cl'><div class='vertical-center'>$15<br><br>now</div></div><div class='cr'><div class='vertical-center'><font style='color:orange'>$35<br>in<br>2 weeks</font></div></div><div class='respDivL'><div class='vertical-center'>(E)</div></div><div class='respDivR'><div class='vertical-center'><font style='color:orange'>(I)</font></div></div></div>","null","$15<br><br>now","$35<br>in<br>2 weeks","0","15","35","2",""
"html-keyboard-response","22","31510","0.0-5.0-1.6","5ec0aeb3d216ee36d856ead2","bdp_td","Sat Mar 25 2023 23:51:12 GMT-0400 (Eastern Daylight Time)","73130","","null","","","","FIX","","<div class='trialBorder'><div class='vertical-center'><img style='vertical-align:center; align:center' src=img/fixation3.jpg></div></div>","null","","","","","","",""
"html-keyboard-response","23","32716","0.0-5.0-2.6","5ec0aeb3d216ee36d856ead2","bdp_td","Sat Mar 25 2023 23:51:12 GMT-0400 (Eastern Daylight Time)","73130","","1205","","","","offer","","<div class='trialBorder'><div class='vertical-center'><img style='vertical-align:center; align:center' src=img/fixation3.jpg></div><div class='cl'><div class='vertical-center'>$40<br><br>now</div></div><div class='cr'><div class='vertical-center'>$55<br>in<br>6 weeks</div></div><div class='respDivL'><div class='vertical-center'>(E)</div></div><div class='respDivR'><div class='vertical-center'>(I)</div></div></div>","E","$40<br><br>now","$55<br>in<br>6 weeks","0","40","55","6","NOW"
"html-keyboard-response","24","32968","0.0-5.0-3.6","5ec0aeb3d216ee36d856ead2","bdp_td","Sat Mar 25 2023 23:51:12 GMT-0400 (Eastern Daylight Time)","73130","","null","","","","offerFB","","<div class='trialBorder'><div class='vertical-center'><img style='vertical-align:center; align:center' src=img/fixation3.jpg></div><div class='cl'><div class='vertical-center'><font style='color:orange'>$40<br><br>now</font></div></div><div class='cr'><div class='vertical-center'>$55<br>in<br>6 weeks</div></div><div class='respDivL'><div class='vertical-center'><font style='color:orange'>(E)</font></div></div><div class='respDivR'><div class='vertical-center'>(I)</div></div></div>","null","$40<br><br>now","$55<br>in<br>6 weeks","0","40","55","6",""
"html-keyboard-response","25","33470","0.0-5.0-1.7","5ec0aeb3d216ee36d856ead2","bdp_td","Sat Mar 25 2023 23:51:12 GMT-0400 (Eastern Daylight Time)","73130","","null","","","","FIX","","<div class='trialBorder'><div class='vertical-center'><img style='vertical-align:center; align:center' src=img/fixation3.jpg></div></div>","null","","","","","","",""
"html-keyboard-response","26","34548","0.0-5.0-2.7","5ec0aeb3d216ee36d856ead2","bdp_td","Sat Mar 25 2023 23:51:12 GMT-0400 (Eastern Daylight Time)","73130","","1077","","","","offer","","<div class='trialBorder'><div class='vertical-center'><img style='vertical-align:center; align:center' src=img/fixation3.jpg></div><div class='cl'><div class='vertical-center'>$47<br><br>now</div></div><div class='cr'><div class='vertical-center'>$50<br>in<br>12 weeks</div></div><div class='respDivL'><div class='vertical-center'>(E)</div></div><div class='respDivR'><div class='vertical-center'>(I)</div></div></div>","E","$47<br><br>now","$50<br>in<br>12 weeks","0","47","50","12","NOW"
"html-keyboard-response","27","34800","0.0-5.0-3.7","5ec0aeb3d216ee36d856ead2","bdp_td","Sat Mar 25 2023 23:51:12 GMT-0400 (Eastern Daylight Time)","73130","","null","","","","offerFB","","<div class='trialBorder'><div class='vertical-center'><img style='vertical-align:center; align:center' src=img/fixation3.jpg></div><div class='cl'><div class='vertical-center'><font style='color:orange'>$47<br><br>now</font></div></div><div class='cr'><div class='vertical-center'>$50<br>in<br>12 weeks</div></div><div class='respDivL'><div class='vertical-center'><font style='color:orange'>(E)</font></div></div><div class='respDivR'><div class='vertical-center'>(I)</div></div></div>","null","$47<br><br>now","$50<br>in<br>12 weeks","0","47","50","12",""
"html-keyboard-response","28","35302","0.0-5.0-1.8","5ec0aeb3d216ee36d856ead2","bdp_td","Sat Mar 25 2023 23:51:12 GMT-0400 (Eastern Daylight Time)","73130","","null","","","","FIX","","<div class='trialBorder'><div class='vertical-center'><img style='vertical-align:center; align:center' src=img/fixation3.jpg></div></div>","null","","","","","","",""
"html-keyboard-response","29","36303","0.0-5.0-2.8","5ec0aeb3d216ee36d856ead2","bdp_td","Sat Mar 25 2023 23:51:12 GMT-0400 (Eastern Daylight Time)","73130","","999","","","","offer","","<div class='trialBorder'><div class='vertical-center'><img style='vertical-align:center; align:center' src=img/fixation3.jpg></div><div class='cl'><div class='vertical-center'>$19<br><br>now</div></div><div class='cr'><div class='vertical-center'>$25<br>in<br>6 weeks</div></div><div class='respDivL'><div class='vertical-center'>(E)</div></div><div class='respDivR'><div class='vertical-center'>(I)</div></div></div>","E","$19<br><br>now","$25<br>in<br>6 weeks","0","19","25","6","NOW"
"html-keyboard-response","30","36554","0.0-5.0-3.8","5ec0aeb3d216ee36d856ead2","bdp_td","Sat Mar 25 2023 23:51:12 GMT-0400 (Eastern Daylight Time)","73130","","null","","","","offerFB","","<div class='trialBorder'><div class='vertical-center'><img style='vertical-align:center; align:center' src=img/fixation3.jpg></div><div class='cl'><div class='vertical-center'><font style='color:orange'>$19<br><br>now</font></div></div><div class='cr'><div class='vertical-center'>$25<br>in<br>6 weeks</div></div><div class='respDivL'><div class='vertical-center'><font style='color:orange'>(E)</font></div></div><div class='respDivR'><div class='vertical-center'>(I)</div></div></div>","null","$19<br><br>now","$25<br>in<br>6 weeks","0","19","25","6",""
"html-keyboard-response","31","37056","0.0-5.0-1.9","5ec0aeb3d216ee36d856ead2","bdp_td","Sat Mar 25 2023 23:51:12 GMT-0400 (Eastern Daylight Time)","73130","","null","","","","FIX","","<div class='trialBorder'><div class='vertical-center'><img style='vertical-align:center; align:center' src=img/fixation3.jpg></div></div>","null","","","","","","",""
"html-keyboard-response","32","38204","0.0-5.0-2.9","5ec0aeb3d216ee36d856ead2","bdp_td","Sat Mar 25 2023 23:51:12 GMT-0400 (Eastern Daylight Time)","73130","","1147","","","","offer","","<div class='trialBorder'><div class='vertical-center'><img style='vertical-align:center; align:center' src=img/fixation3.jpg></div><div class='cl'><div class='vertical-center'>$80<br>in<br>12 weeks</div></div><div class='cr'><div class='vertical-center'>$78<br><br>now</div></div><div class='respDivL'><div class='vertical-center'>(E)</div></div><div class='respDivR'><div class='vertical-center'>(I)</div></div></div>","I","$78<br><br>now","$80<br>in<br>12 weeks","1","78","80","12","NOW"
"html-keyboard-response","33","38455","0.0-5.0-3.9","5ec0aeb3d216ee36d856ead2","bdp_td","Sat Mar 25 2023 23:51:12 GMT-0400 (Eastern Daylight Time)","73130","","null","","","","offerFB","","<div class='trialBorder'><div class='vertical-center'><img style='vertical-align:center; align:center' src=img/fixation3.jpg></div><div class='cl'><div class='vertical-center'>$80<br>in<br>12 weeks</div></div><div class='cr'><div class='vertical-center'><font style='color:orange'>$78<br><br>now</font></div></div><div class='respDivL'><div class='vertical-center'>(E)</div></div><div class='respDivR'><div class='vertical-center'><font style='color:orange'>(I)</font></div></div></div>","null","$78<br><br>now","$80<br>in<br>12 weeks","1","78","80","12",""
"html-keyboard-response","34","38957","0.0-5.0-1.10","5ec0aeb3d216ee36d856ead2","bdp_td","Sat Mar 25 2023 23:51:12 GMT-0400 (Eastern Daylight Time)","73130","","null","","","","FIX","","<div class='trialBorder'><div class='vertical-center'><img style='vertical-align:center; align:center' src=img/fixation3.jpg></div></div>","null","","","","","","",""
"html-keyboard-response","35","39884","0.0-5.0-2.10","5ec0aeb3d216ee36d856ead2","bdp_td","Sat Mar 25 2023 23:51:12 GMT-0400 (Eastern Daylight Time)","73130","","926","","","","offer","","<div class='trialBorder'><div class='vertical-center'><img style='vertical-align:center; align:center' src=img/fixation3.jpg></div><div class='cl'><div class='vertical-center'>$85<br>in<br>12 weeks</div></div><div class='cr'><div class='vertical-center'>$80<br><br>now</div></div><div class='respDivL'><div class='vertical-center'>(E)</div></div><div class='respDivR'><div class='vertical-center'>(I)</div></div></div>","I","$80<br><br>now","$85<br>in<br>12 weeks","1","80","85","12","NOW"
"html-keyboard-response","36","40136","0.0-5.0-3.10","5ec0aeb3d216ee36d856ead2","bdp_td","Sat Mar 25 2023 23:51:12 GMT-0400 (Eastern Daylight Time)","73130","","null","","","","offerFB","","<div class='trialBorder'><div class='vertical-center'><img style='vertical-align:center; align:center' src=img/fixation3.jpg></div><div class='cl'><div class='vertical-center'>$85<br>in<br>12 weeks</div></div><div class='cr'><div class='vertical-center'><font style='color:orange'>$80<br><br>now</font></div></div><div class='respDivL'><div class='vertical-center'>(E)</div></div><div class='respDivR'><div class='vertical-center'><font style='color:orange'>(I)</font></div></div></div>","null","$80<br><br>now","$85<br>in<br>12 weeks","1","80","85","12",""
"html-keyboard-response","37","40638","0.0-5.0-1.11","5ec0aeb3d216ee36d856ead2","bdp_td","Sat Mar 25 2023 23:51:12 GMT-0400 (Eastern Daylight Time)","73130","","null","","","","FIX","","<div class='trialBorder'><div class='vertical-center'><img style='vertical-align:center; align:center' src=img/fixation3.jpg></div></div>","null","","","","","","",""
"html-keyboard-response","38","41848","0.0-5.0-2.11","5ec0aeb3d216ee36d856ead2","bdp_td","Sat Mar 25 2023 23:51:12 GMT-0400 (Eastern Daylight Time)","73130","","1209","","","","offer","","<div class='trialBorder'><div class='vertical-center'><img style='vertical-align:center; align:center' src=img/fixation3.jpg></div><div class='cl'><div class='vertical-center'>$67<br><br>now</div></div><div class='cr'><div class='vertical-center'>$75<br>in<br>12 weeks</div></div><div class='respDivL'><div class='vertical-center'>(E)</div></div><div class='respDivR'><div class='vertical-center'>(I)</div></div></div>","E","$67<br><br>now","$75<br>in<br>12 weeks","0","67","75","12","NOW"
"html-keyboard-response","39","42101","0.0-5.0-3.11","5ec0aeb3d216ee36d856ead2","bdp_td","Sat Mar 25 2023 23:51:12 GMT-0400 (Eastern Daylight Time)","73130","","null","","","","offerFB","","<div class='trialBorder'><div class='vertical-center'><img style='vertical-align:center; align:center' src=img/fixation3.jpg></div><div class='cl'><div class='vertical-center'><font style='color:orange'>$67<br><br>now</font></div></div><div class='cr'><div class='vertical-center'>$75<br>in<br>12 weeks</div></div><div class='respDivL'><div class='vertical-center'><font style='color:orange'>(E)</font></div></div><div class='respDivR'><div class='vertical-center'>(I)</div></div></div>","null","$67<br><br>now","$75<br>in<br>12 weeks","0","67","75","12",""
"html-keyboard-response","40","42603","0.0-5.0-1.12","5ec0aeb3d216ee36d856ead2","bdp_td","Sat Mar 25 2023 23:51:12 GMT-0400 (Eastern Daylight Time)","73130","","null","","","","FIX","","<div class='trialBorder'><div class='vertical-center'><img style='vertical-align:center; align:center' src=img/fixation3.jpg></div></div>","null","","","","","","",""
"html-keyboard-response","41","43468","0.0-5.0-2.12","5ec0aeb3d216ee36d856ead2","bdp_td","Sat Mar 25 2023 23:51:12 GMT-0400 (Eastern Daylight Time)","73130","","864","","","","offer","","<div class='trialBorder'><div class='vertical-center'><img style='vertical-align:center; align:center' src=img/fixation3.jpg></div><div class='cl'><div class='vertical-center'>$54<br><br>now</div></div><div class='cr'><div class='vertical-center'>$55<br>in<br>12 weeks</div></div><div class='respDivL'><div class='vertical-center'>(E)</div></div><div class='respDivR'><div class='vertical-center'>(I)</div></div></div>","E","$54<br><br>now","$55<br>in<br>12 weeks","0","54","55","12","NOW"
"html-keyboard-response","42","43720","0.0-5.0-3.12","5ec0aeb3d216ee36d856ead2","bdp_td","Sat Mar 25 2023 23:51:12 GMT-0400 (Eastern Daylight Time)","73130","","null","","","","offerFB","","<div class='trialBorder'><div class='vertical-center'><img style='vertical-align:center; align:center' src=img/fixation3.jpg></div><div class='cl'><div class='vertical-center'><font style='color:orange'>$54<br><br>now</font></div></div><div class='cr'><div class='vertical-center'>$55<br>in<br>12 weeks</div></div><div class='respDivL'><div class='vertical-center'><font style='color:orange'>(E)</font></div></div><div class='respDivR'><div class='vertical-center'>(I)</div></div></div>","null","$54<br><br>now","$55<br>in<br>12 weeks","0","54","55","12",""
"html-keyboard-response","43","44222","0.0-5.0-1.13","5ec0aeb3d216ee36d856ead2","bdp_td","Sat Mar 25 2023 23:51:12 GMT-0400 (Eastern Daylight Time)","73130","","null","","","","FIX","","<div class='trialBorder'><div class='vertical-center'><img style='vertical-align:center; align:center' src=img/fixation3.jpg></div></div>","null","","","","","","",""
"html-keyboard-response","44","45244","0.0-5.0-2.13","5ec0aeb3d216ee36d856ead2","bdp_td","Sat Mar 25 2023 23:51:12 GMT-0400 (Eastern Daylight Time)","73130","","1021","","","","offer","","<div class='trialBorder'><div class='vertical-center'><img style='vertical-align:center; align:center' src=img/fixation3.jpg></div><div class='cl'><div class='vertical-center'>$35<br>in<br>3 weeks</div></div><div class='cr'><div class='vertical-center'>$24<br><br>now</div></div><div class='respDivL'><div class='vertical-center'>(E)</div></div><div class='respDivR'><div class='vertical-center'>(I)</div></div></div>","I","$24<br><br>now","$35<br>in<br>3 weeks","1","24","35","3","NOW"
"html-keyboard-response","45","45496","0.0-5.0-3.13","5ec0aeb3d216ee36d856ead2","bdp_td","Sat Mar 25 2023 23:51:12 GMT-0400 (Eastern Daylight Time)","73130","","null","","","","offerFB","","<div class='trialBorder'><div class='vertical-center'><img style='vertical-align:center; align:center' src=img/fixation3.jpg></div><div class='cl'><div class='vertical-center'>$35<br>in<br>3 weeks</div></div><div class='cr'><div class='vertical-center'><font style='color:orange'>$24<br><br>now</font></div></div><div class='respDivL'><div class='vertical-center'>(E)</div></div><div class='respDivR'><div class='vertical-center'><font style='color:orange'>(I)</font></div></div></div>","null","$24<br><br>now","$35<br>in<br>3 weeks","1","24","35","3",""
"html-keyboard-response","46","45997","0.0-5.0-1.14","5ec0aeb3d216ee36d856ead2","bdp_td","Sat Mar 25 2023 23:51:12 GMT-0400 (Eastern Daylight Time)","73130","","null","","","","FIX","","<div class='trialBorder'><div class='vertical-center'><img style='vertical-align:center; align:center' src=img/fixation3.jpg></div></div>","null","","","","","","",""
"html-keyboard-response","47","46950","0.0-5.0-2.14","5ec0aeb3d216ee36d856ead2","bdp_td","Sat Mar 25 2023 23:51:12 GMT-0400 (Eastern Daylight Time)","73130","","952","","","","offer","","<div class='trialBorder'><div class='vertical-center'><img style='vertical-align:center; align:center' src=img/fixation3.jpg></div><div class='cl'><div class='vertical-center'>$34<br><br>now</div></div><div class='cr'><div class='vertical-center'>$50<br>in<br>6 weeks</div></div><div class='respDivL'><div class='vertical-center'>(E)</div></div><div class='respDivR'><div class='vertical-center'>(I)</div></div></div>","E","$34<br><br>now","$50<br>in<br>6 weeks","0","34","50","6","NOW"
"html-keyboard-response","48","47202","0.0-5.0-3.14","5ec0aeb3d216ee36d856ead2","bdp_td","Sat Mar 25 2023 23:51:12 GMT-0400 (Eastern Daylight Time)","73130","","null","","","","offerFB","","<div class='trialBorder'><div class='vertical-center'><img style='vertical-align:center; align:center' src=img/fixation3.jpg></div><div class='cl'><div class='vertical-center'><font style='color:orange'>$34<br><br>now</font></div></div><div class='cr'><div class='vertical-center'>$50<br>in<br>6 weeks</div></div><div class='respDivL'><div class='vertical-center'><font style='color:orange'>(E)</font></div></div><div class='respDivR'><div class='vertical-center'>(I)</div></div></div>","null","$34<br><br>now","$50<br>in<br>6 weeks","0","34","50","6",""
"html-keyboard-response","49","47704","0.0-5.0-1.15","5ec0aeb3d216ee36d856ead2","bdp_td","Sat Mar 25 2023 23:51:12 GMT-0400 (Eastern Daylight Time)","73130","","null","","","","FIX","","<div class='trialBorder'><div class='vertical-center'><img style='vertical-align:center; align:center' src=img/fixation3.jpg></div></div>","null","","","","","","",""
"html-keyboard-response","50","49780","0.0-5.0-2.15","5ec0aeb3d216ee36d856ead2","bdp_td","Sat Mar 25 2023 23:51:12 GMT-0400 (Eastern Daylight Time)","73130","","2075","","","","offer","","<div class='trialBorder'><div class='vertical-center'><img style='vertical-align:center; align:center' src=img/fixation3.jpg></div><div class='cl'><div class='vertical-center'>$69<br><br>now</div></div><div class='cr'><div class='vertical-center'>$85<br>in<br>6 weeks</div></div><div class='respDivL'><div class='vertical-center'>(E)</div></div><div class='respDivR'><div class='vertical-center'>(I)</div></div></div>","I","$69<br><br>now","$85<br>in<br>6 weeks","0","69","85","6","THEN"
"html-keyboard-response","51","50032","0.0-5.0-3.15","5ec0aeb3d216ee36d856ead2","bdp_td","Sat Mar 25 2023 23:51:12 GMT-0400 (Eastern Daylight Time)","73130","","null","","","","offerFB","","<div class='trialBorder'><div class='vertical-center'><img style='vertical-align:center; align:center' src=img/fixation3.jpg></div><div class='cl'><div class='vertical-center'>$69<br><br>now</div></div><div class='cr'><div class='vertical-center'><font style='color:orange'>$85<br>in<br>6 weeks</font></div></div><div class='respDivL'><div class='vertical-center'>(E)</div></div><div class='respDivR'><div class='vertical-center'><font style='color:orange'>(I)</font></div></div></div>","null","$69<br><br>now","$85<br>in<br>6 weeks","0","69","85","6",""
"html-keyboard-response","52","50534","0.0-5.0-1.16","5ec0aeb3d216ee36d856ead2","bdp_td","Sat Mar 25 2023 23:51:12 GMT-0400 (Eastern Daylight Time)","73130","","null","","","","FIX","","<div class='trialBorder'><div class='vertical-center'><img style='vertical-align:center; align:center' src=img/fixation3.jpg></div></div>","null","","","","","","",""
"html-keyboard-response","53","52390","0.0-5.0-2.16","5ec0aeb3d216ee36d856ead2","bdp_td","Sat Mar 25 2023 23:51:12 GMT-0400 (Eastern Daylight Time)","73130","","1855","","","","offer","","<div class='trialBorder'><div class='vertical-center'><img style='vertical-align:center; align:center' src=img/fixation3.jpg></div><div class='cl'><div class='vertical-center'>$50<br>in<br>3 weeks</div></div><div class='cr'><div class='vertical-center'>$27<br><br>now</div></div><div class='respDivL'><div class='vertical-center'>(E)</div></div><div class='respDivR'><div class='vertical-center'>(I)</div></div></div>","E","$27<br><br>now","$50<br>in<br>3 weeks","1","27","50","3","THEN"
"html-keyboard-response","54","52642","0.0-5.0-3.16","5ec0aeb3d216ee36d856ead2","bdp_td","Sat Mar 25 2023 23:51:12 GMT-0400 (Eastern Daylight Time)","73130","","null","","","","offerFB","","<div class='trialBorder'><div class='vertical-center'><img style='vertical-align:center; align:center' src=img/fixation3.jpg></div><div class='cl'><div class='vertical-center'><font style='color:orange'>$50<br>in<br>3 weeks</font></div></div><div class='cr'><div class='vertical-center'>$27<br><br>now</div></div><div class='respDivL'><div class='vertical-center'><font style='color:orange'>(E)</font></div></div><div class='respDivR'><div class='vertical-center'>(I)</div></div></div>","null","$27<br><br>now","$50<br>in<br>3 weeks","1","27","50","3",""
"html-keyboard-response","55","53144","0.0-5.0-1.17","5ec0aeb3d216ee36d856ead2","bdp_td","Sat Mar 25 2023 23:51:12 GMT-0400 (Eastern Daylight Time)","73130","","null","","","","FIX","","<div class='trialBorder'><div class='vertical-center'><img style='vertical-align:center; align:center' src=img/fixation3.jpg></div></div>","null","","","","","","",""
"html-keyboard-response","56","54239","0.0-5.0-2.17","5ec0aeb3d216ee36d856ead2","bdp_td","Sat Mar 25 2023 23:51:12 GMT-0400 (Eastern Daylight Time)","73130","","1094","","","","offer","","<div class='trialBorder'><div class='vertical-center'><img style='vertical-align:center; align:center' src=img/fixation3.jpg></div><div class='cl'><div class='vertical-center'>$60<br>in<br>6 weeks</div></div><div class='cr'><div class='vertical-center'>$49<br><br>now</div></div><div class='respDivL'><div class='vertical-center'>(E)</div></div><div class='respDivR'><div class='vertical-center'>(I)</div></div></div>","I","$49<br><br>now","$60<br>in<br>6 weeks","1","49","60","6","NOW"
"html-keyboard-response","57","54491","0.0-5.0-3.17","5ec0aeb3d216ee36d856ead2","bdp_td","Sat Mar 25 2023 23:51:12 GMT-0400 (Eastern Daylight Time)","73130","","null","","","","offerFB","","<div class='trialBorder'><div class='vertical-center'><img style='vertical-align:center; align:center' src=img/fixation3.jpg></div><div class='cl'><div class='vertical-center'>$60<br>in<br>6 weeks</div></div><div class='cr'><div class='vertical-center'><font style='color:orange'>$49<br><br>now</font></div></div><div class='respDivL'><div class='vertical-center'>(E)</div></div><div class='respDivR'><div class='vertical-center'><font style='color:orange'>(I)</font></div></div></div>","null","$49<br><br>now","$60<br>in<br>6 weeks","1","49","60","6",""
"html-keyboard-response","58","54992","0.0-5.0-1.18","5ec0aeb3d216ee36d856ead2","bdp_td","Sat Mar 25 2023 23:51:12 GMT-0400 (Eastern Daylight Time)","73130","","null","","","","FIX","","<div class='trialBorder'><div class='vertical-center'><img style='vertical-align:center; align:center' src=img/fixation3.jpg></div></div>","null","","","","","","",""
"html-keyboard-response","59","55940","0.0-5.0-2.18","5ec0aeb3d216ee36d856ead2","bdp_td","Sat Mar 25 2023 23:51:12 GMT-0400 (Eastern Daylight Time)","73130","","947","","","","offer","","<div class='trialBorder'><div class='vertical-center'><img style='vertical-align:center; align:center' src=img/fixation3.jpg></div><div class='cl'><div class='vertical-center'>$25<br>in<br>12 weeks</div></div><div class='cr'><div class='vertical-center'>$22<br><br>now</div></div><div class='respDivL'><div class='vertical-center'>(E)</div></div><div class='respDivR'><div class='vertical-center'>(I)</div></div></div>","I","$22<br><br>now","$25<br>in<br>12 weeks","1","22","25","12","NOW"
"html-keyboard-response","60","56192","0.0-5.0-3.18","5ec0aeb3d216ee36d856ead2","bdp_td","Sat Mar 25 2023 23:51:12 GMT-0400 (Eastern Daylight Time)","73130","","null","","","","offerFB","","<div class='trialBorder'><div class='vertical-center'><img style='vertical-align:center; align:center' src=img/fixation3.jpg></div><div class='cl'><div class='vertical-center'>$25<br>in<br>12 weeks</div></div><div class='cr'><div class='vertical-center'><font style='color:orange'>$22<br><br>now</font></div></div><div class='respDivL'><div class='vertical-center'>(E)</div></div><div class='respDivR'><div class='vertical-center'><font style='color:orange'>(I)</font></div></div></div>","null","$22<br><br>now","$25<br>in<br>12 weeks","1","22","25","12",""
"html-keyboard-response","61","56694","0.0-5.0-1.19","5ec0aeb3d216ee36d856ead2","bdp_td","Sat Mar 25 2023 23:51:12 GMT-0400 (Eastern Daylight Time)","73130","","null","","","","FIX","","<div class='trialBorder'><div class='vertical-center'><img style='vertical-align:center; align:center' src=img/fixation3.jpg></div></div>","null","","","","","","",""
"html-keyboard-response","62","57774","0.0-5.0-2.19","5ec0aeb3d216ee36d856ead2","bdp_td","Sat Mar 25 2023 23:51:12 GMT-0400 (Eastern Daylight Time)","73130","","1078","","","","offer","","<div class='trialBorder'><div class='vertical-center'><img style='vertical-align:center; align:center' src=img/fixation3.jpg></div><div class='cl'><div class='vertical-center'>$25<br><br>now</div></div><div class='cr'><div class='vertical-center'>$60<br>in<br>3 weeks</div></div><div class='respDivL'><div class='vertical-center'>(E)</div></div><div class='respDivR'><div class='vertical-center'>(I)</div></div></div>","E","$25<br><br>now","$60<br>in<br>3 weeks","0","25","60","3","NOW"
"html-keyboard-response","63","58026","0.0-5.0-3.19","5ec0aeb3d216ee36d856ead2","bdp_td","Sat Mar 25 2023 23:51:12 GMT-0400 (Eastern Daylight Time)","73130","","null","","","","offerFB","","<div class='trialBorder'><div class='vertical-center'><img style='vertical-align:center; align:center' src=img/fixation3.jpg></div><div class='cl'><div class='vertical-center'><font style='color:orange'>$25<br><br>now</font></div></div><div class='cr'><div class='vertical-center'>$60<br>in<br>3 weeks</div></div><div class='respDivL'><div class='vertical-center'><font style='color:orange'>(E)</font></div></div><div class='respDivR'><div class='vertical-center'>(I)</div></div></div>","null","$25<br><br>now","$60<br>in<br>3 weeks","0","25","60","3",""
"html-keyboard-response","64","58527","0.0-5.0-1.20","5ec0aeb3d216ee36d856ead2","bdp_td","Sat Mar 25 2023 23:51:12 GMT-0400 (Eastern Daylight Time)","73130","","null","","","","FIX","","<div class='trialBorder'><div class='vertical-center'><img style='vertical-align:center; align:center' src=img/fixation3.jpg></div></div>","null","","","","","","",""
"html-keyboard-response","65","59644","0.0-5.0-2.20","5ec0aeb3d216ee36d856ead2","bdp_td","Sat Mar 25 2023 23:51:12 GMT-0400 (Eastern Daylight Time)","73130","","1116","","","","offer","","<div class='trialBorder'><div class='vertical-center'><img style='vertical-align:center; align:center' src=img/fixation3.jpg></div><div class='cl'><div class='vertical-center'>$75<br>in<br>6 weeks</div></div><div class='cr'><div class='vertical-center'>$55<br><br>now</div></div><div class='respDivL'><div class='vertical-center'>(E)</div></div><div class='respDivR'><div class='vertical-center'>(I)</div></div></div>","E","$55<br><br>now","$75<br>in<br>6 weeks","1","55","75","6","THEN"
"html-keyboard-response","66","59896","0.0-5.0-3.20","5ec0aeb3d216ee36d856ead2","bdp_td","Sat Mar 25 2023 23:51:12 GMT-0400 (Eastern Daylight Time)","73130","","null","","","","offerFB","","<div class='trialBorder'><div class='vertical-center'><img style='vertical-align:center; align:center' src=img/fixation3.jpg></div><div class='cl'><div class='vertical-center'><font style='color:orange'>$75<br>in<br>6 weeks</font></div></div><div class='cr'><div class='vertical-center'>$55<br><br>now</div></div><div class='respDivL'><div class='vertical-center'><font style='color:orange'>(E)</font></div></div><div class='respDivR'><div class='vertical-center'>(I)</div></div></div>","null","$55<br><br>now","$75<br>in<br>6 weeks","1","55","75","6",""
"html-keyboard-response","67","60398","0.0-5.0-1.21","5ec0aeb3d216ee36d856ead2","bdp_td","Sat Mar 25 2023 23:51:12 GMT-0400 (Eastern Daylight Time)","73130","","null","","","","FIX","","<div class='trialBorder'><div class='vertical-center'><img style='vertical-align:center; align:center' src=img/fixation3.jpg></div></div>","null","","","","","","",""
"html-keyboard-response","68","61660","0.0-5.0-2.21","5ec0aeb3d216ee36d856ead2","bdp_td","Sat Mar 25 2023 23:51:12 GMT-0400 (Eastern Daylight Time)","73130","","1261","","","","offer","","<div class='trialBorder'><div class='vertical-center'><img style='vertical-align:center; align:center' src=img/fixation3.jpg></div><div class='cl'><div class='vertical-center'>$11<br><br>now</div></div><div class='cr'><div class='vertical-center'>$30<br>in<br>2 weeks</div></div><div class='respDivL'><div class='vertical-center'>(E)</div></div><div class='respDivR'><div class='vertical-center'>(I)</div></div></div>","I","$11<br><br>now","$30<br>in<br>2 weeks","0","11","30","2","THEN"
"html-keyboard-response","69","61912","0.0-5.0-3.21","5ec0aeb3d216ee36d856ead2","bdp_td","Sat Mar 25 2023 23:51:12 GMT-0400 (Eastern Daylight Time)","73130","","null","","","","offerFB","","<div class='trialBorder'><div class='vertical-center'><img style='vertical-align:center; align:center' src=img/fixation3.jpg></div><div class='cl'><div class='vertical-center'>$11<br><br>now</div></div><div class='cr'><div class='vertical-center'><font style='color:orange'>$30<br>in<br>2 weeks</font></div></div><div class='respDivL'><div class='vertical-center'>(E)</div></div><div class='respDivR'><div class='vertical-center'><font style='color:orange'>(I)</font></div></div></div>","null","$11<br><br>now","$30<br>in<br>2 weeks","0","11","30","2",""
"html-keyboard-response","70","62414","0.0-5.0-1.22","5ec0aeb3d216ee36d856ead2","bdp_td","Sat Mar 25 2023 23:51:12 GMT-0400 (Eastern Daylight Time)","73130","","null","","","","FIX","","<div class='trialBorder'><div class='vertical-center'><img style='vertical-align:center; align:center' src=img/fixation3.jpg></div></div>","null","","","","","","",""
"html-keyboard-response","71","63436","0.0-5.0-2.22","5ec0aeb3d216ee36d856ead2","bdp_td","Sat Mar 25 2023 23:51:12 GMT-0400 (Eastern Daylight Time)","73130","","1021","","","","offer","","<div class='trialBorder'><div class='vertical-center'><img style='vertical-align:center; align:center' src=img/fixation3.jpg></div><div class='cl'><div class='vertical-center'>$60<br>in<br>12 weeks</div></div><div class='cr'><div class='vertical-center'>$54<br><br>now</div></div><div class='respDivL'><div class='vertical-center'>(E)</div></div><div class='respDivR'><div class='vertical-center'>(I)</div></div></div>","I","$54<br><br>now","$60<br>in<br>12 weeks","1","54","60","12","NOW"
"html-keyboard-response","72","63688","0.0-5.0-3.22","5ec0aeb3d216ee36d856ead2","bdp_td","Sat Mar 25 2023 23:51:12 GMT-0400 (Eastern Daylight Time)","73130","","null","","","","offerFB","","<div class='trialBorder'><div class='vertical-center'><img style='vertical-align:center; align:center' src=img/fixation3.jpg></div><div class='cl'><div class='vertical-center'>$60<br>in<br>12 weeks</div></div><div class='cr'><div class='vertical-center'><font style='color:orange'>$54<br><br>now</font></div></div><div class='respDivL'><div class='vertical-center'>(E)</div></div><div class='respDivR'><div class='vertical-center'><font style='color:orange'>(I)</font></div></div></div>","null","$54<br><br>now","$60<br>in<br>12 weeks","1","54","60","12",""
"html-keyboard-response","73","64189","0.0-5.0-1.23","5ec0aeb3d216ee36d856ead2","bdp_td","Sat Mar 25 2023 23:51:12 GMT-0400 (Eastern Daylight Time)","73130","","null","","","","FIX","","<div class='trialBorder'><div class='vertical-center'><img style='vertical-align:center; align:center' src=img/fixation3.jpg></div></div>","null","","","","","","",""
"html-keyboard-response","74","65452","0.0-5.0-2.23","5ec0aeb3d216ee36d856ead2","bdp_td","Sat Mar 25 2023 23:51:12 GMT-0400 (Eastern Daylight Time)","73130","","1262","","","","offer","","<div class='trialBorder'><div class='vertical-center'><img style='vertical-align:center; align:center' src=img/fixation3.jpg></div><div class='cl'><div class='vertical-center'>$35<br>in<br>12 weeks</div></div><div class='cr'><div class='vertical-center'>$34<br><br>now</div></div><div class='respDivL'><div class='vertical-center'>(E)</div></div><div class='respDivR'><div class='vertical-center'>(I)</div></div></div>","I","$34<br><br>now","$35<br>in<br>12 weeks","1","34","35","12","NOW"
"html-keyboard-response","75","65704","0.0-5.0-3.23","5ec0aeb3d216ee36d856ead2","bdp_td","Sat Mar 25 2023 23:51:12 GMT-0400 (Eastern Daylight Time)","73130","","null","","","","offerFB","","<div class='trialBorder'><div class='vertical-center'><img style='vertical-align:center; align:center' src=img/fixation3.jpg></div><div class='cl'><div class='vertical-center'>$35<br>in<br>12 weeks</div></div><div class='cr'><div class='vertical-center'><font style='color:orange'>$34<br><br>now</font></div></div><div class='respDivL'><div class='vertical-center'>(E)</div></div><div class='respDivR'><div class='vertical-center'><font style='color:orange'>(I)</font></div></div></div>","null","$34<br><br>now","$35<br>in<br>12 weeks","1","34","35","12",""
"html-keyboard-response","76","66205","0.0-5.0-1.24","5ec0aeb3d216ee36d856ead2","bdp_td","Sat Mar 25 2023 23:51:12 GMT-0400 (Eastern Daylight Time)","73130","","null","","","","FIX","","<div class='trialBorder'><div class='vertical-center'><img style='vertical-align:center; align:center' src=img/fixation3.jpg></div></div>","null","","","","","","",""
"html-keyboard-response","77","67911","0.0-5.0-2.24","5ec0aeb3d216ee36d856ead2","bdp_td","Sat Mar 25 2023 23:51:12 GMT-0400 (Eastern Daylight Time)","73130","","1705","","","","offer","","<div class='trialBorder'><div class='vertical-center'><img style='vertical-align:center; align:center' src=img/fixation3.jpg></div><div class='cl'><div class='vertical-center'>$80<br>in<br>3 weeks</div></div><div class='cr'><div class='vertical-center'>$54<br><br>now</div></div><div class='respDivL'><div class='vertical-center'>(E)</div></div><div class='respDivR'><div class='vertical-center'>(I)</div></div></div>","E","$54<br><br>now","$80<br>in<br>3 weeks","1","54","80","3","THEN"
"html-keyboard-response","78","68164","0.0-5.0-3.24","5ec0aeb3d216ee36d856ead2","bdp_td","Sat Mar 25 2023 23:51:12 GMT-0400 (Eastern Daylight Time)","73130","","null","","","","offerFB","","<div class='trialBorder'><div class='vertical-center'><img style='vertical-align:center; align:center' src=img/fixation3.jpg></div><div class='cl'><div class='vertical-center'><font style='color:orange'>$80<br>in<br>3 weeks</font></div></div><div class='cr'><div class='vertical-center'>$54<br><br>now</div></div><div class='respDivL'><div class='vertical-center'><font style='color:orange'>(E)</font></div></div><div class='respDivR'><div class='vertical-center'>(I)</div></div></div>","null","$54<br><br>now","$80<br>in<br>3 weeks","1","54","80","3",""
"html-keyboard-response","79","68665","0.0-5.0-1.25","5ec0aeb3d216ee36d856ead2","bdp_td","Sat Mar 25 2023 23:51:12 GMT-0400 (Eastern Daylight Time)","73130","","null","","","","FIX","","<div class='trialBorder'><div class='vertical-center'><img style='vertical-align:center; align:center' src=img/fixation3.jpg></div></div>","null","","","","","","",""
"html-keyboard-response","80","69628","0.0-5.0-2.25","5ec0aeb3d216ee36d856ead2","bdp_td","Sat Mar 25 2023 23:51:12 GMT-0400 (Eastern Daylight Time)","73130","","962","","","","offer","","<div class='trialBorder'><div class='vertical-center'><img style='vertical-align:center; align:center' src=img/fixation3.jpg></div><div class='cl'><div class='vertical-center'>$30<br>in<br>12 weeks</div></div><div class='cr'><div class='vertical-center'>$28<br><br>now</div></div><div class='respDivL'><div class='vertical-center'>(E)</div></div><div class='respDivR'><div class='vertical-center'>(I)</div></div></div>","I","$28<br><br>now","$30<br>in<br>12 weeks","1","28","30","12","NOW"
"html-keyboard-response","81","69879","0.0-5.0-3.25","5ec0aeb3d216ee36d856ead2","bdp_td","Sat Mar 25 2023 23:51:12 GMT-0400 (Eastern Daylight Time)","73130","","null","","","","offerFB","","<div class='trialBorder'><div class='vertical-center'><img style='vertical-align:center; align:center' src=img/fixation3.jpg></div><div class='cl'><div class='vertical-center'>$30<br>in<br>12 weeks</div></div><div class='cr'><div class='vertical-center'><font style='color:orange'>$28<br><br>now</font></div></div><div class='respDivL'><div class='vertical-center'>(E)</div></div><div class='respDivR'><div class='vertical-center'><font style='color:orange'>(I)</font></div></div></div>","null","$28<br><br>now","$30<br>in<br>12 weeks","1","28","30","12",""
"html-keyboard-response","82","70381","0.0-5.0-1.26","5ec0aeb3d216ee36d856ead2","bdp_td","Sat Mar 25 2023 23:51:12 GMT-0400 (Eastern Daylight Time)","73130","","null","","","","FIX","","<div class='trialBorder'><div class='vertical-center'><img style='vertical-align:center; align:center' src=img/fixation3.jpg></div></div>","null","","","","","","",""
"html-keyboard-response","83","71876","0.0-5.0-2.26","5ec0aeb3d216ee36d856ead2","bdp_td","Sat Mar 25 2023 23:51:12 GMT-0400 (Eastern Daylight Time)","73130","","1494","","","","offer","","<div class='trialBorder'><div class='vertical-center'><img style='vertical-align:center; align:center' src=img/fixation3.jpg></div><div class='cl'><div class='vertical-center'>$25<br>in<br>3 weeks</div></div><div class='cr'><div class='vertical-center'>$14<br><br>now</div></div><div class='respDivL'><div class='vertical-center'>(E)</div></div><div class='respDivR'><div class='vertical-center'>(I)</div></div></div>","I","$14<br><br>now","$25<br>in<br>3 weeks","1","14","25","3","NOW"
"html-keyboard-response","84","72129","0.0-5.0-3.26","5ec0aeb3d216ee36d856ead2","bdp_td","Sat Mar 25 2023 23:51:12 GMT-0400 (Eastern Daylight Time)","73130","","null","","","","offerFB","","<div class='trialBorder'><div class='vertical-center'><img style='vertical-align:center; align:center' src=img/fixation3.jpg></div><div class='cl'><div class='vertical-center'>$25<br>in<br>3 weeks</div></div><div class='cr'><div class='vertical-center'><font style='color:orange'>$14<br><br>now</font></div></div><div class='respDivL'><div class='vertical-center'>(E)</div></div><div class='respDivR'><div class='vertical-center'><font style='color:orange'>(I)</font></div></div></div>","null","$14<br><br>now","$25<br>in<br>3 weeks","1","14","25","3",""
"","","","","5ec0aeb3d216ee36d856ead2","bdp_td","Sat Mar 25 2023 23:51:12 GMT-0400 (Eastern Daylight Time)","73130","","","fullscreenexit","85","72157","fullscreenexit","","","","","","","","","",""
"fullscreen","85","73130","0.0-6.0","5ec0aeb3d216ee36d856ead2","bdp_td","Sat Mar 25 2023 23:51:12 GMT-0400 (Eastern Daylight Time)","73130","","","","","","","true","","","","","","","","",""
"html-keyboard-response","86","73631","0.0-7.0","","","","","","null","","","","","","","null","","","","","","",""
