"trial_type","trial_index","time_elapsed","internal_node_id","subject_id","task","startTime","totalTime","view_history","rt","event","trial","time","trialtype","success","stimulus","key_press","nowOffer","thenOffer","thenLeft","nowAmt","thenAmt","thenWeeks","chosen"
"pavlovia","0","10","0.0-0.0","63e554b7631c8ec3ce069e32","bdp_td","Sat Mar 25 2023 16:44:06 GMT-0700 (Pacific Daylight Time)","106198","","","","","","","","","","","","","","","",""
"instructions","1","2966","0.0-1.0","63e554b7631c8ec3ce069e32","bdp_td","Sat Mar 25 2023 16:44:06 GMT-0700 (Pacific Daylight Time)","106198","[{""page_index"":0,""viewing_time"":2955}]","2955","","","","","","","","","","","","","",""
"","","","","63e554b7631c8ec3ce069e32","bdp_td","Sat Mar 25 2023 16:44:06 GMT-0700 (Pacific Daylight Time)","106198","","","fullscreenenter","2","6663","fullscreenenter","","","","","","","","","",""
"fullscreen","2","7648","0.0-2.0","63e554b7631c8ec3ce069e32","bdp_td","Sat Mar 25 2023 16:44:06 GMT-0700 (Pacific Daylight Time)","106198","","","","","","","true","","","","","","","","",""
"instructions","3","28518","0.0-4.0","63e554b7631c8ec3ce069e32","bdp_td","Sat Mar 25 2023 16:44:06 GMT-0700 (Pacific Daylight Time)","106198","[{""page_index"":0,""viewing_time"":9990},{""page_index"":1,""viewing_time"":8270},{""page_index"":2,""viewing_time"":2609}]","20869","","","","","","","","","","","","","",""
"html-keyboard-response","4","29023","0.0-5.0-1.0","63e554b7631c8ec3ce069e32","bdp_td","Sat Mar 25 2023 16:44:06 GMT-0700 (Pacific Daylight Time)","106198","","null","","","","FIX","","<div class='trialBorder'><div class='vertical-center'><img style='vertical-align:center; align:center' src=img/fixation3.jpg></div></div>","null","","","","","","",""
"html-keyboard-response","5","31270","0.0-5.0-2.0","63e554b7631c8ec3ce069e32","bdp_td","Sat Mar 25 2023 16:44:06 GMT-0700 (Pacific Daylight Time)","106198","","2244","","","","offer","","<div class='trialBorder'><div class='vertical-center'><img style='vertical-align:center; align:center' src=img/fixation3.jpg></div><div class='cl'><div class='vertical-center'>$85<br>in<br>12 weeks</div></div><div class='cr'><div class='vertical-center'>$80<br><br>now</div></div><div class='respDivL'><div class='vertical-center'>(E)</div></div><div class='respDivR'><div class='vertical-center'>(I)</div></div></div>","I","$80<br><br>now","$85<br>in<br>12 weeks","1","80","85","12","NOW"
"html-keyboard-response","6","31523","0.0-5.0-3.0","63e554b7631c8ec3ce069e32","bdp_td","Sat Mar 25 2023 16:44:06 GMT-0700 (Pacific Daylight Time)","106198","","null","","","","offerFB","","<div class='trialBorder'><div class='vertical-center'><img style='vertical-align:center; align:center' src=img/fixation3.jpg></div><div class='cl'><div class='vertical-center'>$85<br>in<br>12 weeks</div></div><div class='cr'><div class='vertical-center'><font style='color:orange'>$80<br><br>now</font></div></div><div class='respDivL'><div class='vertical-center'>(E)</div></div><div class='respDivR'><div class='vertical-center'><font style='color:orange'>(I)</font></div></div></div>","null","$80<br><br>now","$85<br>in<br>12 weeks","1","80","85","12",""
"html-keyboard-response","7","32026","0.0-5.0-1.1","63e554b7631c8ec3ce069e32","bdp_td","Sat Mar 25 2023 16:44:06 GMT-0700 (Pacific Daylight Time)","106198","","null","","","","FIX","","<div class='trialBorder'><div class='vertical-center'><img style='vertical-align:center; align:center' src=img/fixation3.jpg></div></div>","null","","","","","","",""
"html-keyboard-response","8","34365","0.0-5.0-2.1","63e554b7631c8ec3ce069e32","bdp_td","Sat Mar 25 2023 16:44:06 GMT-0700 (Pacific Daylight Time)","106198","","2338","","","","offer","","<div class='trialBorder'><div class='vertical-center'><img style='vertical-align:center; align:center' src=img/fixation3.jpg></div><div class='cl'><div class='vertical-center'>$55<br>in<br>6 weeks</div></div><div class='cr'><div class='vertical-center'>$40<br><br>now</div></div><div class='respDivL'><div class='vertical-center'>(E)</div></div><div class='respDivR'><div class='vertical-center'>(I)</div></div></div>","I","$40<br><br>now","$55<br>in<br>6 weeks","1","40","55","6","NOW"
"html-keyboard-response","9","34619","0.0-5.0-3.1","63e554b7631c8ec3ce069e32","bdp_td","Sat Mar 25 2023 16:44:06 GMT-0700 (Pacific Daylight Time)","106198","","null","","","","offerFB","","<div class='trialBorder'><div class='vertical-center'><img style='vertical-align:center; align:center' src=img/fixation3.jpg></div><div class='cl'><div class='vertical-center'>$55<br>in<br>6 weeks</div></div><div class='cr'><div class='vertical-center'><font style='color:orange'>$40<br><br>now</font></div></div><div class='respDivL'><div class='vertical-center'>(E)</div></div><div class='respDivR'><div class='vertical-center'><font style='color:orange'>(I)</font></div></div></div>","null","$40<br><br>now","$55<br>in<br>6 weeks","1","40","55","6",""
"html-keyboard-response","10","35121","0.0-5.0-1.2","63e554b7631c8ec3ce069e32","bdp_td","Sat Mar 25 2023 16:44:06 GMT-0700 (Pacific Daylight Time)","106198","","null","","","","FIX","","<div class='trialBorder'><div class='vertical-center'><img style='vertical-align:center; align:center' src=img/fixation3.jpg></div></div>","null","","","","","","",""
"html-keyboard-response","11","36637","0.0-5.0-2.2","63e554b7631c8ec3ce069e32","bdp_td","Sat Mar 25 2023 16:44:06 GMT-0700 (Pacific Daylight Time)","106198","","1515","","","","offer","","<div class='trialBorder'><div class='vertical-center'><img style='vertical-align:center; align:center' src=img/fixation3.jpg></div><div class='cl'><div class='vertical-center'>$60<br>in<br>6 weeks</div></div><div class='cr'><div class='vertical-center'>$49<br><br>now</div></div><div class='respDivL'><div class='vertical-center'>(E)</div></div><div class='respDivR'><div class='vertical-center'>(I)</div></div></div>","I","$49<br><br>now","$60<br>in<br>6 weeks","1","49","60","6","NOW"
"html-keyboard-response","12","36891","0.0-5.0-3.2","63e554b7631c8ec3ce069e32","bdp_td","Sat Mar 25 2023 16:44:06 GMT-0700 (Pacific Daylight Time)","106198","","null","","","","offerFB","","<div class='trialBorder'><div class='vertical-center'><img style='vertical-align:center; align:center' src=img/fixation3.jpg></div><div class='cl'><div class='vertical-center'>$60<br>in<br>6 weeks</div></div><div class='cr'><div class='vertical-center'><font style='color:orange'>$49<br><br>now</font></div></div><div class='respDivL'><div class='vertical-center'>(E)</div></div><div class='respDivR'><div class='vertical-center'><font style='color:orange'>(I)</font></div></div></div>","null","$49<br><br>now","$60<br>in<br>6 weeks","1","49","60","6",""
"html-keyboard-response","13","37394","0.0-5.0-1.3","63e554b7631c8ec3ce069e32","bdp_td","Sat Mar 25 2023 16:44:06 GMT-0700 (Pacific Daylight Time)","106198","","null","","","","FIX","","<div class='trialBorder'><div class='vertical-center'><img style='vertical-align:center; align:center' src=img/fixation3.jpg></div></div>","null","","","","","","",""
"html-keyboard-response","14","39351","0.0-5.0-2.3","63e554b7631c8ec3ce069e32","bdp_td","Sat Mar 25 2023 16:44:06 GMT-0700 (Pacific Daylight Time)","106198","","1955","","","","offer","","<div class='trialBorder'><div class='vertical-center'><img style='vertical-align:center; align:center' src=img/fixation3.jpg></div><div class='cl'><div class='vertical-center'>$35<br>in<br>12 weeks</div></div><div class='cr'><div class='vertical-center'>$34<br><br>now</div></div><div class='respDivL'><div class='vertical-center'>(E)</div></div><div class='respDivR'><div class='vertical-center'>(I)</div></div></div>","I","$34<br><br>now","$35<br>in<br>12 weeks","1","34","35","12","NOW"
"html-keyboard-response","15","39604","0.0-5.0-3.3","63e554b7631c8ec3ce069e32","bdp_td","Sat Mar 25 2023 16:44:06 GMT-0700 (Pacific Daylight Time)","106198","","null","","","","offerFB","","<div class='trialBorder'><div class='vertical-center'><img style='vertical-align:center; align:center' src=img/fixation3.jpg></div><div class='cl'><div class='vertical-center'>$35<br>in<br>12 weeks</div></div><div class='cr'><div class='vertical-center'><font style='color:orange'>$34<br><br>now</font></div></div><div class='respDivL'><div class='vertical-center'>(E)</div></div><div class='respDivR'><div class='vertical-center'><font style='color:orange'>(I)</font></div></div></div>","null","$34<br><br>now","$35<br>in<br>12 weeks","1","34","35","12",""
"html-keyboard-response","16","40107","0.0-5.0-1.4","63e554b7631c8ec3ce069e32","bdp_td","Sat Mar 25 2023 16:44:06 GMT-0700 (Pacific Daylight Time)","106198","","null","","","","FIX","","<div class='trialBorder'><div class='vertical-center'><img style='vertical-align:center; align:center' src=img/fixation3.jpg></div></div>","null","","","","","","",""
"html-keyboard-response","17","43804","0.0-5.0-2.4","63e554b7631c8ec3ce069e32","bdp_td","Sat Mar 25 2023 16:44:06 GMT-0700 (Pacific Daylight Time)","106198","","3696","","","","offer","","<div class='trialBorder'><div class='vertical-center'><img style='vertical-align:center; align:center' src=img/fixation3.jpg></div><div class='cl'><div class='vertical-center'>$20<br><br>now</div></div><div class='cr'><div class='vertical-center'>$55<br>in<br>1 week</div></div><div class='respDivL'><div class='vertical-center'>(E)</div></div><div class='respDivR'><div class='vertical-center'>(I)</div></div></div>","I","$20<br><br>now","$55<br>in<br>1 week","0","20","55","1","THEN"
"html-keyboard-response","18","44058","0.0-5.0-3.4","63e554b7631c8ec3ce069e32","bdp_td","Sat Mar 25 2023 16:44:06 GMT-0700 (Pacific Daylight Time)","106198","","null","","","","offerFB","","<div class='trialBorder'><div class='vertical-center'><img style='vertical-align:center; align:center' src=img/fixation3.jpg></div><div class='cl'><div class='vertical-center'>$20<br><br>now</div></div><div class='cr'><div class='vertical-center'><font style='color:orange'>$55<br>in<br>1 week</font></div></div><div class='respDivL'><div class='vertical-center'>(E)</div></div><div class='respDivR'><div class='vertical-center'><font style='color:orange'>(I)</font></div></div></div>","null","$20<br><br>now","$55<br>in<br>1 week","0","20","55","1",""
"html-keyboard-response","19","44560","0.0-5.0-1.5","63e554b7631c8ec3ce069e32","bdp_td","Sat Mar 25 2023 16:44:06 GMT-0700 (Pacific Daylight Time)","106198","","null","","","","FIX","","<div class='trialBorder'><div class='vertical-center'><img style='vertical-align:center; align:center' src=img/fixation3.jpg></div></div>","null","","","","","","",""
"html-keyboard-response","20","48550","0.0-5.0-2.5","63e554b7631c8ec3ce069e32","bdp_td","Sat Mar 25 2023 16:44:06 GMT-0700 (Pacific Daylight Time)","106198","","3988","","","","offer","","<div class='trialBorder'><div class='vertical-center'><img style='vertical-align:center; align:center' src=img/fixation3.jpg></div><div class='cl'><div class='vertical-center'>$54<br><br>now</div></div><div class='cr'><div class='vertical-center'>$80<br>in<br>3 weeks</div></div><div class='respDivL'><div class='vertical-center'>(E)</div></div><div class='respDivR'><div class='vertical-center'>(I)</div></div></div>","E","$54<br><br>now","$80<br>in<br>3 weeks","0","54","80","3","NOW"
"html-keyboard-response","21","48803","0.0-5.0-3.5","63e554b7631c8ec3ce069e32","bdp_td","Sat Mar 25 2023 16:44:06 GMT-0700 (Pacific Daylight Time)","106198","","null","","","","offerFB","","<div class='trialBorder'><div class='vertical-center'><img style='vertical-align:center; align:center' src=img/fixation3.jpg></div><div class='cl'><div class='vertical-center'><font style='color:orange'>$54<br><br>now</font></div></div><div class='cr'><div class='vertical-center'>$80<br>in<br>3 weeks</div></div><div class='respDivL'><div class='vertical-center'><font style='color:orange'>(E)</font></div></div><div class='respDivR'><div class='vertical-center'>(I)</div></div></div>","null","$54<br><br>now","$80<br>in<br>3 weeks","0","54","80","3",""
"html-keyboard-response","22","49306","0.0-5.0-1.6","63e554b7631c8ec3ce069e32","bdp_td","Sat Mar 25 2023 16:44:06 GMT-0700 (Pacific Daylight Time)","106198","","null","","","","FIX","","<div class='trialBorder'><div class='vertical-center'><img style='vertical-align:center; align:center' src=img/fixation3.jpg></div></div>","null","","","","","","",""
"html-keyboard-response","23","50886","0.0-5.0-2.6","63e554b7631c8ec3ce069e32","bdp_td","Sat Mar 25 2023 16:44:06 GMT-0700 (Pacific Daylight Time)","106198","","1579","","","","offer","","<div class='trialBorder'><div class='vertical-center'><img style='vertical-align:center; align:center' src=img/fixation3.jpg></div><div class='cl'><div class='vertical-center'>$80<br>in<br>12 weeks</div></div><div class='cr'><div class='vertical-center'>$78<br><br>now</div></div><div class='respDivL'><div class='vertical-center'>(E)</div></div><div class='respDivR'><div class='vertical-center'>(I)</div></div></div>","I","$78<br><br>now","$80<br>in<br>12 weeks","1","78","80","12","NOW"
"html-keyboard-response","24","51139","0.0-5.0-3.6","63e554b7631c8ec3ce069e32","bdp_td","Sat Mar 25 2023 16:44:06 GMT-0700 (Pacific Daylight Time)","106198","","null","","","","offerFB","","<div class='trialBorder'><div class='vertical-center'><img style='vertical-align:center; align:center' src=img/fixation3.jpg></div><div class='cl'><div class='vertical-center'>$80<br>in<br>12 weeks</div></div><div class='cr'><div class='vertical-center'><font style='color:orange'>$78<br><br>now</font></div></div><div class='respDivL'><div class='vertical-center'>(E)</div></div><div class='respDivR'><div class='vertical-center'><font style='color:orange'>(I)</font></div></div></div>","null","$78<br><br>now","$80<br>in<br>12 weeks","1","78","80","12",""
"html-keyboard-response","25","51641","0.0-5.0-1.7","63e554b7631c8ec3ce069e32","bdp_td","Sat Mar 25 2023 16:44:06 GMT-0700 (Pacific Daylight Time)","106198","","null","","","","FIX","","<div class='trialBorder'><div class='vertical-center'><img style='vertical-align:center; align:center' src=img/fixation3.jpg></div></div>","null","","","","","","",""
"html-keyboard-response","26","54630","0.0-5.0-2.7","63e554b7631c8ec3ce069e32","bdp_td","Sat Mar 25 2023 16:44:06 GMT-0700 (Pacific Daylight Time)","106198","","2987","","","","offer","","<div class='trialBorder'><div class='vertical-center'><img style='vertical-align:center; align:center' src=img/fixation3.jpg></div><div class='cl'><div class='vertical-center'>$60<br>in<br>3 weeks</div></div><div class='cr'><div class='vertical-center'>$25<br><br>now</div></div><div class='respDivL'><div class='vertical-center'>(E)</div></div><div class='respDivR'><div class='vertical-center'>(I)</div></div></div>","E","$25<br><br>now","$60<br>in<br>3 weeks","1","25","60","3","THEN"
"html-keyboard-response","27","54884","0.0-5.0-3.7","63e554b7631c8ec3ce069e32","bdp_td","Sat Mar 25 2023 16:44:06 GMT-0700 (Pacific Daylight Time)","106198","","null","","","","offerFB","","<div class='trialBorder'><div class='vertical-center'><img style='vertical-align:center; align:center' src=img/fixation3.jpg></div><div class='cl'><div class='vertical-center'><font style='color:orange'>$60<br>in<br>3 weeks</font></div></div><div class='cr'><div class='vertical-center'>$25<br><br>now</div></div><div class='respDivL'><div class='vertical-center'><font style='color:orange'>(E)</font></div></div><div class='respDivR'><div class='vertical-center'>(I)</div></div></div>","null","$25<br><br>now","$60<br>in<br>3 weeks","1","25","60","3",""
"html-keyboard-response","28","55386","0.0-5.0-1.8","63e554b7631c8ec3ce069e32","bdp_td","Sat Mar 25 2023 16:44:06 GMT-0700 (Pacific Daylight Time)","106198","","null","","","","FIX","","<div class='trialBorder'><div class='vertical-center'><img style='vertical-align:center; align:center' src=img/fixation3.jpg></div></div>","null","","","","","","",""
"html-keyboard-response","29","57502","0.0-5.0-2.8","63e554b7631c8ec3ce069e32","bdp_td","Sat Mar 25 2023 16:44:06 GMT-0700 (Pacific Daylight Time)","106198","","2114","","","","offer","","<div class='trialBorder'><div class='vertical-center'><img style='vertical-align:center; align:center' src=img/fixation3.jpg></div><div class='cl'><div class='vertical-center'>$47<br><br>now</div></div><div class='cr'><div class='vertical-center'>$50<br>in<br>12 weeks</div></div><div class='respDivL'><div class='vertical-center'>(E)</div></div><div class='respDivR'><div class='vertical-center'>(I)</div></div></div>","E","$47<br><br>now","$50<br>in<br>12 weeks","0","47","50","12","NOW"
"html-keyboard-response","30","57755","0.0-5.0-3.8","63e554b7631c8ec3ce069e32","bdp_td","Sat Mar 25 2023 16:44:06 GMT-0700 (Pacific Daylight Time)","106198","","null","","","","offerFB","","<div class='trialBorder'><div class='vertical-center'><img style='vertical-align:center; align:center' src=img/fixation3.jpg></div><div class='cl'><div class='vertical-center'><font style='color:orange'>$47<br><br>now</font></div></div><div class='cr'><div class='vertical-center'>$50<br>in<br>12 weeks</div></div><div class='respDivL'><div class='vertical-center'><font style='color:orange'>(E)</font></div></div><div class='respDivR'><div class='vertical-center'>(I)</div></div></div>","null","$47<br><br>now","$50<br>in<br>12 weeks","0","47","50","12",""
"html-keyboard-response","31","58258","0.0-5.0-1.9","63e554b7631c8ec3ce069e32","bdp_td","Sat Mar 25 2023 16:44:06 GMT-0700 (Pacific Daylight Time)","106198","","null","","","","FIX","","<div class='trialBorder'><div class='vertical-center'><img style='vertical-align:center; align:center' src=img/fixation3.jpg></div></div>","null","","","","","","",""
"html-keyboard-response","32","60854","0.0-5.0-2.9","63e554b7631c8ec3ce069e32","bdp_td","Sat Mar 25 2023 16:44:06 GMT-0700 (Pacific Daylight Time)","106198","","2594","","","","offer","","<div class='trialBorder'><div class='vertical-center'><img style='vertical-align:center; align:center' src=img/fixation3.jpg></div><div class='cl'><div class='vertical-center'>$35<br>in<br>2 weeks</div></div><div class='cr'><div class='vertical-center'>$15<br><br>now</div></div><div class='respDivL'><div class='vertical-center'>(E)</div></div><div class='respDivR'><div class='vertical-center'>(I)</div></div></div>","E","$15<br><br>now","$35<br>in<br>2 weeks","1","15","35","2","THEN"
"html-keyboard-response","33","61107","0.0-5.0-3.9","63e554b7631c8ec3ce069e32","bdp_td","Sat Mar 25 2023 16:44:06 GMT-0700 (Pacific Daylight Time)","106198","","null","","","","offerFB","","<div class='trialBorder'><div class='vertical-center'><img style='vertical-align:center; align:center' src=img/fixation3.jpg></div><div class='cl'><div class='vertical-center'><font style='color:orange'>$35<br>in<br>2 weeks</font></div></div><div class='cr'><div class='vertical-center'>$15<br><br>now</div></div><div class='respDivL'><div class='vertical-center'><font style='color:orange'>(E)</font></div></div><div class='respDivR'><div class='vertical-center'>(I)</div></div></div>","null","$15<br><br>now","$35<br>in<br>2 weeks","1","15","35","2",""
"html-keyboard-response","34","61609","0.0-5.0-1.10","63e554b7631c8ec3ce069e32","bdp_td","Sat Mar 25 2023 16:44:06 GMT-0700 (Pacific Daylight Time)","106198","","null","","","","FIX","","<div class='trialBorder'><div class='vertical-center'><img style='vertical-align:center; align:center' src=img/fixation3.jpg></div></div>","null","","","","","","",""
"html-keyboard-response","35","62911","0.0-5.0-2.10","63e554b7631c8ec3ce069e32","bdp_td","Sat Mar 25 2023 16:44:06 GMT-0700 (Pacific Daylight Time)","106198","","1300","","","","offer","","<div class='trialBorder'><div class='vertical-center'><img style='vertical-align:center; align:center' src=img/fixation3.jpg></div><div class='cl'><div class='vertical-center'>$22<br><br>now</div></div><div class='cr'><div class='vertical-center'>$25<br>in<br>12 weeks</div></div><div class='respDivL'><div class='vertical-center'>(E)</div></div><div class='respDivR'><div class='vertical-center'>(I)</div></div></div>","E","$22<br><br>now","$25<br>in<br>12 weeks","0","22","25","12","NOW"
"html-keyboard-response","36","63164","0.0-5.0-3.10","63e554b7631c8ec3ce069e32","bdp_td","Sat Mar 25 2023 16:44:06 GMT-0700 (Pacific Daylight Time)","106198","","null","","","","offerFB","","<div class='trialBorder'><div class='vertical-center'><img style='vertical-align:center; align:center' src=img/fixation3.jpg></div><div class='cl'><div class='vertical-center'><font style='color:orange'>$22<br><br>now</font></div></div><div class='cr'><div class='vertical-center'>$25<br>in<br>12 weeks</div></div><div class='respDivL'><div class='vertical-center'><font style='color:orange'>(E)</font></div></div><div class='respDivR'><div class='vertical-center'>(I)</div></div></div>","null","$22<br><br>now","$25<br>in<br>12 weeks","0","22","25","12",""
"html-keyboard-response","37","63666","0.0-5.0-1.11","63e554b7631c8ec3ce069e32","bdp_td","Sat Mar 25 2023 16:44:06 GMT-0700 (Pacific Daylight Time)","106198","","null","","","","FIX","","<div class='trialBorder'><div class='vertical-center'><img style='vertical-align:center; align:center' src=img/fixation3.jpg></div></div>","null","","","","","","",""
"html-keyboard-response","38","65878","0.0-5.0-2.11","63e554b7631c8ec3ce069e32","bdp_td","Sat Mar 25 2023 16:44:06 GMT-0700 (Pacific Daylight Time)","106198","","2209","","","","offer","","<div class='trialBorder'><div class='vertical-center'><img style='vertical-align:center; align:center' src=img/fixation3.jpg></div><div class='cl'><div class='vertical-center'>$54<br><br>now</div></div><div class='cr'><div class='vertical-center'>$60<br>in<br>12 weeks</div></div><div class='respDivL'><div class='vertical-center'>(E)</div></div><div class='respDivR'><div class='vertical-center'>(I)</div></div></div>","E","$54<br><br>now","$60<br>in<br>12 weeks","0","54","60","12","NOW"
"html-keyboard-response","39","66130","0.0-5.0-3.11","63e554b7631c8ec3ce069e32","bdp_td","Sat Mar 25 2023 16:44:06 GMT-0700 (Pacific Daylight Time)","106198","","null","","","","offerFB","","<div class='trialBorder'><div class='vertical-center'><img style='vertical-align:center; align:center' src=img/fixation3.jpg></div><div class='cl'><div class='vertical-center'><font style='color:orange'>$54<br><br>now</font></div></div><div class='cr'><div class='vertical-center'>$60<br>in<br>12 weeks</div></div><div class='respDivL'><div class='vertical-center'><font style='color:orange'>(E)</font></div></div><div class='respDivR'><div class='vertical-center'>(I)</div></div></div>","null","$54<br><br>now","$60<br>in<br>12 weeks","0","54","60","12",""
"html-keyboard-response","40","66633","0.0-5.0-1.12","63e554b7631c8ec3ce069e32","bdp_td","Sat Mar 25 2023 16:44:06 GMT-0700 (Pacific Daylight Time)","106198","","null","","","","FIX","","<div class='trialBorder'><div class='vertical-center'><img style='vertical-align:center; align:center' src=img/fixation3.jpg></div></div>","null","","","","","","",""
"html-keyboard-response","41","68012","0.0-5.0-2.12","63e554b7631c8ec3ce069e32","bdp_td","Sat Mar 25 2023 16:44:06 GMT-0700 (Pacific Daylight Time)","106198","","1378","","","","offer","","<div class='trialBorder'><div class='vertical-center'><img style='vertical-align:center; align:center' src=img/fixation3.jpg></div><div class='cl'><div class='vertical-center'>$33<br><br>now</div></div><div class='cr'><div class='vertical-center'>$80<br>in<br>2 weeks</div></div><div class='respDivL'><div class='vertical-center'>(E)</div></div><div class='respDivR'><div class='vertical-center'>(I)</div></div></div>","I","$33<br><br>now","$80<br>in<br>2 weeks","0","33","80","2","THEN"
"html-keyboard-response","42","68264","0.0-5.0-3.12","63e554b7631c8ec3ce069e32","bdp_td","Sat Mar 25 2023 16:44:06 GMT-0700 (Pacific Daylight Time)","106198","","null","","","","offerFB","","<div class='trialBorder'><div class='vertical-center'><img style='vertical-align:center; align:center' src=img/fixation3.jpg></div><div class='cl'><div class='vertical-center'>$33<br><br>now</div></div><div class='cr'><div class='vertical-center'><font style='color:orange'>$80<br>in<br>2 weeks</font></div></div><div class='respDivL'><div class='vertical-center'>(E)</div></div><div class='respDivR'><div class='vertical-center'><font style='color:orange'>(I)</font></div></div></div>","null","$33<br><br>now","$80<br>in<br>2 weeks","0","33","80","2",""
"html-keyboard-response","43","68765","0.0-5.0-1.13","63e554b7631c8ec3ce069e32","bdp_td","Sat Mar 25 2023 16:44:06 GMT-0700 (Pacific Daylight Time)","106198","","null","","","","FIX","","<div class='trialBorder'><div class='vertical-center'><img style='vertical-align:center; align:center' src=img/fixation3.jpg></div></div>","null","","","","","","",""
"html-keyboard-response","44","71054","0.0-5.0-2.13","63e554b7631c8ec3ce069e32","bdp_td","Sat Mar 25 2023 16:44:06 GMT-0700 (Pacific Daylight Time)","106198","","2287","","","","offer","","<div class='trialBorder'><div class='vertical-center'><img style='vertical-align:center; align:center' src=img/fixation3.jpg></div><div class='cl'><div class='vertical-center'>$41<br><br>now</div></div><div class='cr'><div class='vertical-center'>$75<br>in<br>3 weeks</div></div><div class='respDivL'><div class='vertical-center'>(E)</div></div><div class='respDivR'><div class='vertical-center'>(I)</div></div></div>","I","$41<br><br>now","$75<br>in<br>3 weeks","0","41","75","3","THEN"
"html-keyboard-response","45","71306","0.0-5.0-3.13","63e554b7631c8ec3ce069e32","bdp_td","Sat Mar 25 2023 16:44:06 GMT-0700 (Pacific Daylight Time)","106198","","null","","","","offerFB","","<div class='trialBorder'><div class='vertical-center'><img style='vertical-align:center; align:center' src=img/fixation3.jpg></div><div class='cl'><div class='vertical-center'>$41<br><br>now</div></div><div class='cr'><div class='vertical-center'><font style='color:orange'>$75<br>in<br>3 weeks</font></div></div><div class='respDivL'><div class='vertical-center'>(E)</div></div><div class='respDivR'><div class='vertical-center'><font style='color:orange'>(I)</font></div></div></div>","null","$41<br><br>now","$75<br>in<br>3 weeks","0","41","75","3",""
"html-keyboard-response","46","71809","0.0-5.0-1.14","63e554b7631c8ec3ce069e32","bdp_td","Sat Mar 25 2023 16:44:06 GMT-0700 (Pacific Daylight Time)","106198","","null","","","","FIX","","<div class='trialBorder'><div class='vertical-center'><img style='vertical-align:center; align:center' src=img/fixation3.jpg></div></div>","null","","","","","","",""
"html-keyboard-response","47","73671","0.0-5.0-2.14","63e554b7631c8ec3ce069e32","bdp_td","Sat Mar 25 2023 16:44:06 GMT-0700 (Pacific Daylight Time)","106198","","1860","","","","offer","","<div class='trialBorder'><div class='vertical-center'><img style='vertical-align:center; align:center' src=img/fixation3.jpg></div><div class='cl'><div class='vertical-center'>$69<br><br>now</div></div><div class='cr'><div class='vertical-center'>$85<br>in<br>6 weeks</div></div><div class='respDivL'><div class='vertical-center'>(E)</div></div><div class='respDivR'><div class='vertical-center'>(I)</div></div></div>","E","$69<br><br>now","$85<br>in<br>6 weeks","0","69","85","6","NOW"
"html-keyboard-response","48","73923","0.0-5.0-3.14","63e554b7631c8ec3ce069e32","bdp_td","Sat Mar 25 2023 16:44:06 GMT-0700 (Pacific Daylight Time)","106198","","null","","","","offerFB","","<div class='trialBorder'><div class='vertical-center'><img style='vertical-align:center; align:center' src=img/fixation3.jpg></div><div class='cl'><div class='vertical-center'><font style='color:orange'>$69<br><br>now</font></div></div><div class='cr'><div class='vertical-center'>$85<br>in<br>6 weeks</div></div><div class='respDivL'><div class='vertical-center'><font style='color:orange'>(E)</font></div></div><div class='respDivR'><div class='vertical-center'>(I)</div></div></div>","null","$69<br><br>now","$85<br>in<br>6 weeks","0","69","85","6",""
"html-keyboard-response","49","74426","0.0-5.0-1.15","63e554b7631c8ec3ce069e32","bdp_td","Sat Mar 25 2023 16:44:06 GMT-0700 (Pacific Daylight Time)","106198","","null","","","","FIX","","<div class='trialBorder'><div class='vertical-center'><img style='vertical-align:center; align:center' src=img/fixation3.jpg></div></div>","null","","","","","","",""
"html-keyboard-response","50","75774","0.0-5.0-2.15","63e554b7631c8ec3ce069e32","bdp_td","Sat Mar 25 2023 16:44:06 GMT-0700 (Pacific Daylight Time)","106198","","1346","","","","offer","","<div class='trialBorder'><div class='vertical-center'><img style='vertical-align:center; align:center' src=img/fixation3.jpg></div><div class='cl'><div class='vertical-center'>$27<br><br>now</div></div><div class='cr'><div class='vertical-center'>$50<br>in<br>3 weeks</div></div><div class='respDivL'><div class='vertical-center'>(E)</div></div><div class='respDivR'><div class='vertical-center'>(I)</div></div></div>","E","$27<br><br>now","$50<br>in<br>3 weeks","0","27","50","3","NOW"
"html-keyboard-response","51","76026","0.0-5.0-3.15","63e554b7631c8ec3ce069e32","bdp_td","Sat Mar 25 2023 16:44:06 GMT-0700 (Pacific Daylight Time)","106198","","null","","","","offerFB","","<div class='trialBorder'><div class='vertical-center'><img style='vertical-align:center; align:center' src=img/fixation3.jpg></div><div class='cl'><div class='vertical-center'><font style='color:orange'>$27<br><br>now</font></div></div><div class='cr'><div class='vertical-center'>$50<br>in<br>3 weeks</div></div><div class='respDivL'><div class='vertical-center'><font style='color:orange'>(E)</font></div></div><div class='respDivR'><div class='vertical-center'>(I)</div></div></div>","null","$27<br><br>now","$50<br>in<br>3 weeks","0","27","50","3",""
"html-keyboard-response","52","76527","0.0-5.0-1.16","63e554b7631c8ec3ce069e32","bdp_td","Sat Mar 25 2023 16:44:06 GMT-0700 (Pacific Daylight Time)","106198","","null","","","","FIX","","<div class='trialBorder'><div class='vertical-center'><img style='vertical-align:center; align:center' src=img/fixation3.jpg></div></div>","null","","","","","","",""
"html-keyboard-response","53","78293","0.0-5.0-2.16","63e554b7631c8ec3ce069e32","bdp_td","Sat Mar 25 2023 16:44:06 GMT-0700 (Pacific Daylight Time)","106198","","1765","","","","offer","","<div class='trialBorder'><div class='vertical-center'><img style='vertical-align:center; align:center' src=img/fixation3.jpg></div><div class='cl'><div class='vertical-center'>$55<br><br>now</div></div><div class='cr'><div class='vertical-center'>$75<br>in<br>6 weeks</div></div><div class='respDivL'><div class='vertical-center'>(E)</div></div><div class='respDivR'><div class='vertical-center'>(I)</div></div></div>","E","$55<br><br>now","$75<br>in<br>6 weeks","0","55","75","6","NOW"
"html-keyboard-response","54","78546","0.0-5.0-3.16","63e554b7631c8ec3ce069e32","bdp_td","Sat Mar 25 2023 16:44:06 GMT-0700 (Pacific Daylight Time)","106198","","null","","","","offerFB","","<div class='trialBorder'><div class='vertical-center'><img style='vertical-align:center; align:center' src=img/fixation3.jpg></div><div class='cl'><div class='vertical-center'><font style='color:orange'>$55<br><br>now</font></div></div><div class='cr'><div class='vertical-center'>$75<br>in<br>6 weeks</div></div><div class='respDivL'><div class='vertical-center'><font style='color:orange'>(E)</font></div></div><div class='respDivR'><div class='vertical-center'>(I)</div></div></div>","null","$55<br><br>now","$75<br>in<br>6 weeks","0","55","75","6",""
"html-keyboard-response","55","79048","0.0-5.0-1.17","63e554b7631c8ec3ce069e32","bdp_td","Sat Mar 25 2023 16:44:06 GMT-0700 (Pacific Daylight Time)","106198","","null","","","","FIX","","<div class='trialBorder'><div class='vertical-center'><img style='vertical-align:center; align:center' src=img/fixation3.jpg></div></div>","null","","","","","","",""
"html-keyboard-response","56","80854","0.0-5.0-2.17","63e554b7631c8ec3ce069e32","bdp_td","Sat Mar 25 2023 16:44:06 GMT-0700 (Pacific Daylight Time)","106198","","1803","","","","offer","","<div class='trialBorder'><div class='vertical-center'><img style='vertical-align:center; align:center' src=img/fixation3.jpg></div><div class='cl'><div class='vertical-center'>$30<br>in<br>6 weeks</div></div><div class='cr'><div class='vertical-center'>$25<br><br>now</div></div><div class='respDivL'><div class='vertical-center'>(E)</div></div><div class='respDivR'><div class='vertical-center'>(I)</div></div></div>","I","$25<br><br>now","$30<br>in<br>6 weeks","1","25","30","6","NOW"
"html-keyboard-response","57","81106","0.0-5.0-3.17","63e554b7631c8ec3ce069e32","bdp_td","Sat Mar 25 2023 16:44:06 GMT-0700 (Pacific Daylight Time)","106198","","null","","","","offerFB","","<div class='trialBorder'><div class='vertical-center'><img style='vertical-align:center; align:center' src=img/fixation3.jpg></div><div class='cl'><div class='vertical-center'>$30<br>in<br>6 weeks</div></div><div class='cr'><div class='vertical-center'><font style='color:orange'>$25<br><br>now</font></div></div><div class='respDivL'><div class='vertical-center'>(E)</div></div><div class='respDivR'><div class='vertical-center'><font style='color:orange'>(I)</font></div></div></div>","null","$25<br><br>now","$30<br>in<br>6 weeks","1","25","30","6",""
"html-keyboard-response","58","81609","0.0-5.0-1.18","63e554b7631c8ec3ce069e32","bdp_td","Sat Mar 25 2023 16:44:06 GMT-0700 (Pacific Daylight Time)","106198","","null","","","","FIX","","<div class='trialBorder'><div class='vertical-center'><img style='vertical-align:center; align:center' src=img/fixation3.jpg></div></div>","null","","","","","","",""
"html-keyboard-response","59","83621","0.0-5.0-2.18","63e554b7631c8ec3ce069e32","bdp_td","Sat Mar 25 2023 16:44:06 GMT-0700 (Pacific Daylight Time)","106198","","2011","","","","offer","","<div class='trialBorder'><div class='vertical-center'><img style='vertical-align:center; align:center' src=img/fixation3.jpg></div><div class='cl'><div class='vertical-center'>$31<br><br>now</div></div><div class='cr'><div class='vertical-center'>$85<br>in<br>1 week</div></div><div class='respDivL'><div class='vertical-center'>(E)</div></div><div class='respDivR'><div class='vertical-center'>(I)</div></div></div>","I","$31<br><br>now","$85<br>in<br>1 week","0","31","85","1","THEN"
"html-keyboard-response","60","83874","0.0-5.0-3.18","63e554b7631c8ec3ce069e32","bdp_td","Sat Mar 25 2023 16:44:06 GMT-0700 (Pacific Daylight Time)","106198","","null","","","","offerFB","","<div class='trialBorder'><div class='vertical-center'><img style='vertical-align:center; align:center' src=img/fixation3.jpg></div><div class='cl'><div class='vertical-center'>$31<br><br>now</div></div><div class='cr'><div class='vertical-center'><font style='color:orange'>$85<br>in<br>1 week</font></div></div><div class='respDivL'><div class='vertical-center'>(E)</div></div><div class='respDivR'><div class='vertical-center'><font style='color:orange'>(I)</font></div></div></div>","null","$31<br><br>now","$85<br>in<br>1 week","0","31","85","1",""
"html-keyboard-response","61","84376","0.0-5.0-1.19","63e554b7631c8ec3ce069e32","bdp_td","Sat Mar 25 2023 16:44:06 GMT-0700 (Pacific Daylight Time)","106198","","null","","","","FIX","","<div class='trialBorder'><div class='vertical-center'><img style='vertical-align:center; align:center' src=img/fixation3.jpg></div></div>","null","","","","","","",""
"html-keyboard-response","62","87535","0.0-5.0-2.19","63e554b7631c8ec3ce069e32","bdp_td","Sat Mar 25 2023 16:44:06 GMT-0700 (Pacific Daylight Time)","106198","","3157","","","","offer","","<div class='trialBorder'><div class='vertical-center'><img style='vertical-align:center; align:center' src=img/fixation3.jpg></div><div class='cl'><div class='vertical-center'>$30<br>in<br>2 weeks</div></div><div class='cr'><div class='vertical-center'>$11<br><br>now</div></div><div class='respDivL'><div class='vertical-center'>(E)</div></div><div class='respDivR'><div class='vertical-center'>(I)</div></div></div>","E","$11<br><br>now","$30<br>in<br>2 weeks","1","11","30","2","THEN"
"html-keyboard-response","63","87789","0.0-5.0-3.19","63e554b7631c8ec3ce069e32","bdp_td","Sat Mar 25 2023 16:44:06 GMT-0700 (Pacific Daylight Time)","106198","","null","","","","offerFB","","<div class='trialBorder'><div class='vertical-center'><img style='vertical-align:center; align:center' src=img/fixation3.jpg></div><div class='cl'><div class='vertical-center'><font style='color:orange'>$30<br>in<br>2 weeks</font></div></div><div class='cr'><div class='vertical-center'>$11<br><br>now</div></div><div class='respDivL'><div class='vertical-center'><font style='color:orange'>(E)</font></div></div><div class='respDivR'><div class='vertical-center'>(I)</div></div></div>","null","$11<br><br>now","$30<br>in<br>2 weeks","1","11","30","2",""
"html-keyboard-response","64","88291","0.0-5.0-1.20","63e554b7631c8ec3ce069e32","bdp_td","Sat Mar 25 2023 16:44:06 GMT-0700 (Pacific Daylight Time)","106198","","null","","","","FIX","","<div class='trialBorder'><div class='vertical-center'><img style='vertical-align:center; align:center' src=img/fixation3.jpg></div></div>","null","","","","","","",""
"html-keyboard-response","65","91254","0.0-5.0-2.20","63e554b7631c8ec3ce069e32","bdp_td","Sat Mar 25 2023 16:44:06 GMT-0700 (Pacific Daylight Time)","106198","","2961","","","","offer","","<div class='trialBorder'><div class='vertical-center'><img style='vertical-align:center; align:center' src=img/fixation3.jpg></div><div class='cl'><div class='vertical-center'>$24<br><br>now</div></div><div class='cr'><div class='vertical-center'>$35<br>in<br>3 weeks</div></div><div class='respDivL'><div class='vertical-center'>(E)</div></div><div class='respDivR'><div class='vertical-center'>(I)</div></div></div>","E","$24<br><br>now","$35<br>in<br>3 weeks","0","24","35","3","NOW"
"html-keyboard-response","66","91508","0.0-5.0-3.20","63e554b7631c8ec3ce069e32","bdp_td","Sat Mar 25 2023 16:44:06 GMT-0700 (Pacific Daylight Time)","106198","","null","","","","offerFB","","<div class='trialBorder'><div class='vertical-center'><img style='vertical-align:center; align:center' src=img/fixation3.jpg></div><div class='cl'><div class='vertical-center'><font style='color:orange'>$24<br><br>now</font></div></div><div class='cr'><div class='vertical-center'>$35<br>in<br>3 weeks</div></div><div class='respDivL'><div class='vertical-center'><font style='color:orange'>(E)</font></div></div><div class='respDivR'><div class='vertical-center'>(I)</div></div></div>","null","$24<br><br>now","$35<br>in<br>3 weeks","0","24","35","3",""
"html-keyboard-response","67","92011","0.0-5.0-1.21","63e554b7631c8ec3ce069e32","bdp_td","Sat Mar 25 2023 16:44:06 GMT-0700 (Pacific Daylight Time)","106198","","null","","","","FIX","","<div class='trialBorder'><div class='vertical-center'><img style='vertical-align:center; align:center' src=img/fixation3.jpg></div></div>","null","","","","","","",""
"html-keyboard-response","68","93948","0.0-5.0-2.21","63e554b7631c8ec3ce069e32","bdp_td","Sat Mar 25 2023 16:44:06 GMT-0700 (Pacific Daylight Time)","106198","","1936","","","","offer","","<div class='trialBorder'><div class='vertical-center'><img style='vertical-align:center; align:center' src=img/fixation3.jpg></div><div class='cl'><div class='vertical-center'>$25<br>in<br>3 weeks</div></div><div class='cr'><div class='vertical-center'>$14<br><br>now</div></div><div class='respDivL'><div class='vertical-center'>(E)</div></div><div class='respDivR'><div class='vertical-center'>(I)</div></div></div>","I","$14<br><br>now","$25<br>in<br>3 weeks","1","14","25","3","NOW"
"html-keyboard-response","69","94202","0.0-5.0-3.21","63e554b7631c8ec3ce069e32","bdp_td","Sat Mar 25 2023 16:44:06 GMT-0700 (Pacific Daylight Time)","106198","","null","","","","offerFB","","<div class='trialBorder'><div class='vertical-center'><img style='vertical-align:center; align:center' src=img/fixation3.jpg></div><div class='cl'><div class='vertical-center'>$25<br>in<br>3 weeks</div></div><div class='cr'><div class='vertical-center'><font style='color:orange'>$14<br><br>now</font></div></div><div class='respDivL'><div class='vertical-center'>(E)</div></div><div class='respDivR'><div class='vertical-center'><font style='color:orange'>(I)</font></div></div></div>","null","$14<br><br>now","$25<br>in<br>3 weeks","1","14","25","3",""
"html-keyboard-response","70","94704","0.0-5.0-1.22","63e554b7631c8ec3ce069e32","bdp_td","Sat Mar 25 2023 16:44:06 GMT-0700 (Pacific Daylight Time)","106198","","null","","","","FIX","","<div class='trialBorder'><div class='vertical-center'><img style='vertical-align:center; align:center' src=img/fixation3.jpg></div></div>","null","","","","","","",""
"html-keyboard-response","71","96214","0.0-5.0-2.22","63e554b7631c8ec3ce069e32","bdp_td","Sat Mar 25 2023 16:44:06 GMT-0700 (Pacific Daylight Time)","106198","","1508","","","","offer","","<div class='trialBorder'><div class='vertical-center'><img style='vertical-align:center; align:center' src=img/fixation3.jpg></div><div class='cl'><div class='vertical-center'>$19<br><br>now</div></div><div class='cr'><div class='vertical-center'>$25<br>in<br>6 weeks</div></div><div class='respDivL'><div class='vertical-center'>(E)</div></div><div class='respDivR'><div class='vertical-center'>(I)</div></div></div>","E","$19<br><br>now","$25<br>in<br>6 weeks","0","19","25","6","NOW"
"html-keyboard-response","72","96466","0.0-5.0-3.22","63e554b7631c8ec3ce069e32","bdp_td","Sat Mar 25 2023 16:44:06 GMT-0700 (Pacific Daylight Time)","106198","","null","","","","offerFB","","<div class='trialBorder'><div class='vertical-center'><img style='vertical-align:center; align:center' src=img/fixation3.jpg></div><div class='cl'><div class='vertical-center'><font style='color:orange'>$19<br><br>now</font></div></div><div class='cr'><div class='vertical-center'>$25<br>in<br>6 weeks</div></div><div class='respDivL'><div class='vertical-center'><font style='color:orange'>(E)</font></div></div><div class='respDivR'><div class='vertical-center'>(I)</div></div></div>","null","$19<br><br>now","$25<br>in<br>6 weeks","0","19","25","6",""
"html-keyboard-response","73","96969","0.0-5.0-1.23","63e554b7631c8ec3ce069e32","bdp_td","Sat Mar 25 2023 16:44:06 GMT-0700 (Pacific Daylight Time)","106198","","null","","","","FIX","","<div class='trialBorder'><div class='vertical-center'><img style='vertical-align:center; align:center' src=img/fixation3.jpg></div></div>","null","","","","","","",""
"html-keyboard-response","74","98039","0.0-5.0-2.23","63e554b7631c8ec3ce069e32","bdp_td","Sat Mar 25 2023 16:44:06 GMT-0700 (Pacific Daylight Time)","106198","","1068","","","","offer","","<div class='trialBorder'><div class='vertical-center'><img style='vertical-align:center; align:center' src=img/fixation3.jpg></div><div class='cl'><div class='vertical-center'>$50<br>in<br>6 weeks</div></div><div class='cr'><div class='vertical-center'>$34<br><br>now</div></div><div class='respDivL'><div class='vertical-center'>(E)</div></div><div class='respDivR'><div class='vertical-center'>(I)</div></div></div>","I","$34<br><br>now","$50<br>in<br>6 weeks","1","34","50","6","NOW"
"html-keyboard-response","75","98292","0.0-5.0-3.23","63e554b7631c8ec3ce069e32","bdp_td","Sat Mar 25 2023 16:44:06 GMT-0700 (Pacific Daylight Time)","106198","","null","","","","offerFB","","<div class='trialBorder'><div class='vertical-center'><img style='vertical-align:center; align:center' src=img/fixation3.jpg></div><div class='cl'><div class='vertical-center'>$50<br>in<br>6 weeks</div></div><div class='cr'><div class='vertical-center'><font style='color:orange'>$34<br><br>now</font></div></div><div class='respDivL'><div class='vertical-center'>(E)</div></div><div class='respDivR'><div class='vertical-center'><font style='color:orange'>(I)</font></div></div></div>","null","$34<br><br>now","$50<br>in<br>6 weeks","1","34","50","6",""
"html-keyboard-response","76","98794","0.0-5.0-1.24","63e554b7631c8ec3ce069e32","bdp_td","Sat Mar 25 2023 16:44:06 GMT-0700 (Pacific Daylight Time)","106198","","null","","","","FIX","","<div class='trialBorder'><div class='vertical-center'><img style='vertical-align:center; align:center' src=img/fixation3.jpg></div></div>","null","","","","","","",""
"html-keyboard-response","77","100726","0.0-5.0-2.24","63e554b7631c8ec3ce069e32","bdp_td","Sat Mar 25 2023 16:44:06 GMT-0700 (Pacific Daylight Time)","106198","","1930","","","","offer","","<div class='trialBorder'><div class='vertical-center'><img style='vertical-align:center; align:center' src=img/fixation3.jpg></div><div class='cl'><div class='vertical-center'>$54<br><br>now</div></div><div class='cr'><div class='vertical-center'>$55<br>in<br>12 weeks</div></div><div class='respDivL'><div class='vertical-center'>(E)</div></div><div class='respDivR'><div class='vertical-center'>(I)</div></div></div>","E","$54<br><br>now","$55<br>in<br>12 weeks","0","54","55","12","NOW"
"html-keyboard-response","78","100978","0.0-5.0-3.24","63e554b7631c8ec3ce069e32","bdp_td","Sat Mar 25 2023 16:44:06 GMT-0700 (Pacific Daylight Time)","106198","","null","","","","offerFB","","<div class='trialBorder'><div class='vertical-center'><img style='vertical-align:center; align:center' src=img/fixation3.jpg></div><div class='cl'><div class='vertical-center'><font style='color:orange'>$54<br><br>now</font></div></div><div class='cr'><div class='vertical-center'>$55<br>in<br>12 weeks</div></div><div class='respDivL'><div class='vertical-center'><font style='color:orange'>(E)</font></div></div><div class='respDivR'><div class='vertical-center'>(I)</div></div></div>","null","$54<br><br>now","$55<br>in<br>12 weeks","0","54","55","12",""
"html-keyboard-response","79","101480","0.0-5.0-1.25","63e554b7631c8ec3ce069e32","bdp_td","Sat Mar 25 2023 16:44:06 GMT-0700 (Pacific Daylight Time)","106198","","null","","","","FIX","","<div class='trialBorder'><div class='vertical-center'><img style='vertical-align:center; align:center' src=img/fixation3.jpg></div></div>","null","","","","","","",""
"html-keyboard-response","80","102629","0.0-5.0-2.25","63e554b7631c8ec3ce069e32","bdp_td","Sat Mar 25 2023 16:44:06 GMT-0700 (Pacific Daylight Time)","106198","","1148","","","","offer","","<div class='trialBorder'><div class='vertical-center'><img style='vertical-align:center; align:center' src=img/fixation3.jpg></div><div class='cl'><div class='vertical-center'>$75<br>in<br>12 weeks</div></div><div class='cr'><div class='vertical-center'>$67<br><br>now</div></div><div class='respDivL'><div class='vertical-center'>(E)</div></div><div class='respDivR'><div class='vertical-center'>(I)</div></div></div>","I","$67<br><br>now","$75<br>in<br>12 weeks","1","67","75","12","NOW"
"html-keyboard-response","81","102882","0.0-5.0-3.25","63e554b7631c8ec3ce069e32","bdp_td","Sat Mar 25 2023 16:44:06 GMT-0700 (Pacific Daylight Time)","106198","","null","","","","offerFB","","<div class='trialBorder'><div class='vertical-center'><img style='vertical-align:center; align:center' src=img/fixation3.jpg></div><div class='cl'><div class='vertical-center'>$75<br>in<br>12 weeks</div></div><div class='cr'><div class='vertical-center'><font style='color:orange'>$67<br><br>now</font></div></div><div class='respDivL'><div class='vertical-center'>(E)</div></div><div class='respDivR'><div class='vertical-center'><font style='color:orange'>(I)</font></div></div></div>","null","$67<br><br>now","$75<br>in<br>12 weeks","1","67","75","12",""
"html-keyboard-response","82","103384","0.0-5.0-1.26","63e554b7631c8ec3ce069e32","bdp_td","Sat Mar 25 2023 16:44:06 GMT-0700 (Pacific Daylight Time)","106198","","null","","","","FIX","","<div class='trialBorder'><div class='vertical-center'><img style='vertical-align:center; align:center' src=img/fixation3.jpg></div></div>","null","","","","","","",""
"html-keyboard-response","83","104941","0.0-5.0-2.26","63e554b7631c8ec3ce069e32","bdp_td","Sat Mar 25 2023 16:44:06 GMT-0700 (Pacific Daylight Time)","106198","","1556","","","","offer","","<div class='trialBorder'><div class='vertical-center'><img style='vertical-align:center; align:center' src=img/fixation3.jpg></div><div class='cl'><div class='vertical-center'>$30<br>in<br>12 weeks</div></div><div class='cr'><div class='vertical-center'>$28<br><br>now</div></div><div class='respDivL'><div class='vertical-center'>(E)</div></div><div class='respDivR'><div class='vertical-center'>(I)</div></div></div>","I","$28<br><br>now","$30<br>in<br>12 weeks","1","28","30","12","NOW"
"html-keyboard-response","84","105195","0.0-5.0-3.26","63e554b7631c8ec3ce069e32","bdp_td","Sat Mar 25 2023 16:44:06 GMT-0700 (Pacific Daylight Time)","106198","","null","","","","offerFB","","<div class='trialBorder'><div class='vertical-center'><img style='vertical-align:center; align:center' src=img/fixation3.jpg></div><div class='cl'><div class='vertical-center'>$30<br>in<br>12 weeks</div></div><div class='cr'><div class='vertical-center'><font style='color:orange'>$28<br><br>now</font></div></div><div class='respDivL'><div class='vertical-center'>(E)</div></div><div class='respDivR'><div class='vertical-center'><font style='color:orange'>(I)</font></div></div></div>","null","$28<br><br>now","$30<br>in<br>12 weeks","1","28","30","12",""
"","","","","63e554b7631c8ec3ce069e32","bdp_td","Sat Mar 25 2023 16:44:06 GMT-0700 (Pacific Daylight Time)","106198","","","fullscreenexit","85","105233","fullscreenexit","","","","","","","","","",""
"fullscreen","85","106198","0.0-6.0","63e554b7631c8ec3ce069e32","bdp_td","Sat Mar 25 2023 16:44:06 GMT-0700 (Pacific Daylight Time)","106198","","","","","","","true","","","","","","","","",""
"html-keyboard-response","86","106702","0.0-7.0","","","","","","null","","","","","","","null","","","","","","",""
