"trial_type","trial_index","time_elapsed","internal_node_id","subject_id","task","startTime","totalTime","view_history","rt","event","trial","time","trialtype","success","stimulus","key_press","nowOffer","thenOffer","thenLeft","nowAmt","thenAmt","thenWeeks","chosen"
"pavlovia","0","13","0.0-0.0","63153455849b153d56dd81db","bdp_td","Thu Mar 30 2023 15:38:35 GMT-0700 (Pacific Daylight Time)","132456","","","","","","","","","","","","","","","",""
"instructions","1","17191","0.0-1.0","63153455849b153d56dd81db","bdp_td","Thu Mar 30 2023 15:38:35 GMT-0700 (Pacific Daylight Time)","132456","[{""page_index"":0,""viewing_time"":17175}]","17176","","","","","","","","","","","","","",""
"","","","","63153455849b153d56dd81db","bdp_td","Thu Mar 30 2023 15:38:35 GMT-0700 (Pacific Daylight Time)","132456","","","fullscreenenter","2","40648","fullscreenenter","","","","","","","","","",""
"fullscreen","2","41612","0.0-2.0","63153455849b153d56dd81db","bdp_td","Thu Mar 30 2023 15:38:35 GMT-0700 (Pacific Daylight Time)","132456","","","","","","","true","","","","","","","","",""
"instructions","3","56740","0.0-4.0","63153455849b153d56dd81db","bdp_td","Thu Mar 30 2023 15:38:35 GMT-0700 (Pacific Daylight Time)","132456","[{""page_index"":0,""viewing_time"":7877},{""page_index"":1,""viewing_time"":6023},{""page_index"":2,""viewing_time"":1224}]","15124","","","","","","","","","","","","","",""
"html-keyboard-response","4","57253","0.0-5.0-1.0","63153455849b153d56dd81db","bdp_td","Thu Mar 30 2023 15:38:35 GMT-0700 (Pacific Daylight Time)","132456","","null","","","","FIX","","<div class='trialBorder'><div class='vertical-center'><img style='vertical-align:center; align:center' src=img/fixation3.jpg></div></div>","null","","","","","","",""
"html-keyboard-response","5","58404","0.0-5.0-2.0","63153455849b153d56dd81db","bdp_td","Thu Mar 30 2023 15:38:35 GMT-0700 (Pacific Daylight Time)","132456","","1147","","","","offer","","<div class='trialBorder'><div class='vertical-center'><img style='vertical-align:center; align:center' src=img/fixation3.jpg></div><div class='cl'><div class='vertical-center'>$35<br>in<br>3 weeks</div></div><div class='cr'><div class='vertical-center'>$24<br><br>now</div></div><div class='respDivL'><div class='vertical-center'>(E)</div></div><div class='respDivR'><div class='vertical-center'>(I)</div></div></div>","E","$24<br><br>now","$35<br>in<br>3 weeks","1","24","35","3","THEN"
"html-keyboard-response","6","58659","0.0-5.0-3.0","63153455849b153d56dd81db","bdp_td","Thu Mar 30 2023 15:38:35 GMT-0700 (Pacific Daylight Time)","132456","","null","","","","offerFB","","<div class='trialBorder'><div class='vertical-center'><img style='vertical-align:center; align:center' src=img/fixation3.jpg></div><div class='cl'><div class='vertical-center'><font style='color:orange'>$35<br>in<br>3 weeks</font></div></div><div class='cr'><div class='vertical-center'>$24<br><br>now</div></div><div class='respDivL'><div class='vertical-center'><font style='color:orange'>(E)</font></div></div><div class='respDivR'><div class='vertical-center'>(I)</div></div></div>","null","$24<br><br>now","$35<br>in<br>3 weeks","1","24","35","3",""
"html-keyboard-response","7","59174","0.0-5.0-1.1","63153455849b153d56dd81db","bdp_td","Thu Mar 30 2023 15:38:35 GMT-0700 (Pacific Daylight Time)","132456","","null","","","","FIX","","<div class='trialBorder'><div class='vertical-center'><img style='vertical-align:center; align:center' src=img/fixation3.jpg></div></div>","null","","","","","","",""
"html-keyboard-response","8","61460","0.0-5.0-2.1","63153455849b153d56dd81db","bdp_td","Thu Mar 30 2023 15:38:35 GMT-0700 (Pacific Daylight Time)","132456","","2283","","","","offer","","<div class='trialBorder'><div class='vertical-center'><img style='vertical-align:center; align:center' src=img/fixation3.jpg></div><div class='cl'><div class='vertical-center'>$25<br>in<br>6 weeks</div></div><div class='cr'><div class='vertical-center'>$19<br><br>now</div></div><div class='respDivL'><div class='vertical-center'>(E)</div></div><div class='respDivR'><div class='vertical-center'>(I)</div></div></div>","I","$19<br><br>now","$25<br>in<br>6 weeks","1","19","25","6","NOW"
"html-keyboard-response","9","61720","0.0-5.0-3.1","63153455849b153d56dd81db","bdp_td","Thu Mar 30 2023 15:38:35 GMT-0700 (Pacific Daylight Time)","132456","","null","","","","offerFB","","<div class='trialBorder'><div class='vertical-center'><img style='vertical-align:center; align:center' src=img/fixation3.jpg></div><div class='cl'><div class='vertical-center'>$25<br>in<br>6 weeks</div></div><div class='cr'><div class='vertical-center'><font style='color:orange'>$19<br><br>now</font></div></div><div class='respDivL'><div class='vertical-center'>(E)</div></div><div class='respDivR'><div class='vertical-center'><font style='color:orange'>(I)</font></div></div></div>","null","$19<br><br>now","$25<br>in<br>6 weeks","1","19","25","6",""
"html-keyboard-response","10","62233","0.0-5.0-1.2","63153455849b153d56dd81db","bdp_td","Thu Mar 30 2023 15:38:35 GMT-0700 (Pacific Daylight Time)","132456","","null","","","","FIX","","<div class='trialBorder'><div class='vertical-center'><img style='vertical-align:center; align:center' src=img/fixation3.jpg></div></div>","null","","","","","","",""
"html-keyboard-response","11","63884","0.0-5.0-2.2","63153455849b153d56dd81db","bdp_td","Thu Mar 30 2023 15:38:35 GMT-0700 (Pacific Daylight Time)","132456","","1648","","","","offer","","<div class='trialBorder'><div class='vertical-center'><img style='vertical-align:center; align:center' src=img/fixation3.jpg></div><div class='cl'><div class='vertical-center'>$50<br>in<br>12 weeks</div></div><div class='cr'><div class='vertical-center'>$47<br><br>now</div></div><div class='respDivL'><div class='vertical-center'>(E)</div></div><div class='respDivR'><div class='vertical-center'>(I)</div></div></div>","I","$47<br><br>now","$50<br>in<br>12 weeks","1","47","50","12","NOW"
"html-keyboard-response","12","64146","0.0-5.0-3.2","63153455849b153d56dd81db","bdp_td","Thu Mar 30 2023 15:38:35 GMT-0700 (Pacific Daylight Time)","132456","","null","","","","offerFB","","<div class='trialBorder'><div class='vertical-center'><img style='vertical-align:center; align:center' src=img/fixation3.jpg></div><div class='cl'><div class='vertical-center'>$50<br>in<br>12 weeks</div></div><div class='cr'><div class='vertical-center'><font style='color:orange'>$47<br><br>now</font></div></div><div class='respDivL'><div class='vertical-center'>(E)</div></div><div class='respDivR'><div class='vertical-center'><font style='color:orange'>(I)</font></div></div></div>","null","$47<br><br>now","$50<br>in<br>12 weeks","1","47","50","12",""
"html-keyboard-response","13","64664","0.0-5.0-1.3","63153455849b153d56dd81db","bdp_td","Thu Mar 30 2023 15:38:35 GMT-0700 (Pacific Daylight Time)","132456","","null","","","","FIX","","<div class='trialBorder'><div class='vertical-center'><img style='vertical-align:center; align:center' src=img/fixation3.jpg></div></div>","null","","","","","","",""
"html-keyboard-response","14","66388","0.0-5.0-2.3","63153455849b153d56dd81db","bdp_td","Thu Mar 30 2023 15:38:35 GMT-0700 (Pacific Daylight Time)","132456","","1721","","","","offer","","<div class='trialBorder'><div class='vertical-center'><img style='vertical-align:center; align:center' src=img/fixation3.jpg></div><div class='cl'><div class='vertical-center'>$25<br>in<br>12 weeks</div></div><div class='cr'><div class='vertical-center'>$22<br><br>now</div></div><div class='respDivL'><div class='vertical-center'>(E)</div></div><div class='respDivR'><div class='vertical-center'>(I)</div></div></div>","I","$22<br><br>now","$25<br>in<br>12 weeks","1","22","25","12","NOW"
"html-keyboard-response","15","66650","0.0-5.0-3.3","63153455849b153d56dd81db","bdp_td","Thu Mar 30 2023 15:38:35 GMT-0700 (Pacific Daylight Time)","132456","","null","","","","offerFB","","<div class='trialBorder'><div class='vertical-center'><img style='vertical-align:center; align:center' src=img/fixation3.jpg></div><div class='cl'><div class='vertical-center'>$25<br>in<br>12 weeks</div></div><div class='cr'><div class='vertical-center'><font style='color:orange'>$22<br><br>now</font></div></div><div class='respDivL'><div class='vertical-center'>(E)</div></div><div class='respDivR'><div class='vertical-center'><font style='color:orange'>(I)</font></div></div></div>","null","$22<br><br>now","$25<br>in<br>12 weeks","1","22","25","12",""
"html-keyboard-response","16","67166","0.0-5.0-1.4","63153455849b153d56dd81db","bdp_td","Thu Mar 30 2023 15:38:35 GMT-0700 (Pacific Daylight Time)","132456","","null","","","","FIX","","<div class='trialBorder'><div class='vertical-center'><img style='vertical-align:center; align:center' src=img/fixation3.jpg></div></div>","null","","","","","","",""
"html-keyboard-response","17","71795","0.0-5.0-2.4","63153455849b153d56dd81db","bdp_td","Thu Mar 30 2023 15:38:35 GMT-0700 (Pacific Daylight Time)","132456","","4626","","","","offer","","<div class='trialBorder'><div class='vertical-center'><img style='vertical-align:center; align:center' src=img/fixation3.jpg></div><div class='cl'><div class='vertical-center'>$33<br><br>now</div></div><div class='cr'><div class='vertical-center'>$80<br>in<br>2 weeks</div></div><div class='respDivL'><div class='vertical-center'>(E)</div></div><div class='respDivR'><div class='vertical-center'>(I)</div></div></div>","I","$33<br><br>now","$80<br>in<br>2 weeks","0","33","80","2","THEN"
"html-keyboard-response","18","72064","0.0-5.0-3.4","63153455849b153d56dd81db","bdp_td","Thu Mar 30 2023 15:38:35 GMT-0700 (Pacific Daylight Time)","132456","","null","","","","offerFB","","<div class='trialBorder'><div class='vertical-center'><img style='vertical-align:center; align:center' src=img/fixation3.jpg></div><div class='cl'><div class='vertical-center'>$33<br><br>now</div></div><div class='cr'><div class='vertical-center'><font style='color:orange'>$80<br>in<br>2 weeks</font></div></div><div class='respDivL'><div class='vertical-center'>(E)</div></div><div class='respDivR'><div class='vertical-center'><font style='color:orange'>(I)</font></div></div></div>","null","$33<br><br>now","$80<br>in<br>2 weeks","0","33","80","2",""
"html-keyboard-response","19","72572","0.0-5.0-1.5","63153455849b153d56dd81db","bdp_td","Thu Mar 30 2023 15:38:35 GMT-0700 (Pacific Daylight Time)","132456","","null","","","","FIX","","<div class='trialBorder'><div class='vertical-center'><img style='vertical-align:center; align:center' src=img/fixation3.jpg></div></div>","null","","","","","","",""
"html-keyboard-response","20","74468","0.0-5.0-2.5","63153455849b153d56dd81db","bdp_td","Thu Mar 30 2023 15:38:35 GMT-0700 (Pacific Daylight Time)","132456","","1893","","","","offer","","<div class='trialBorder'><div class='vertical-center'><img style='vertical-align:center; align:center' src=img/fixation3.jpg></div><div class='cl'><div class='vertical-center'>$55<br>in<br>6 weeks</div></div><div class='cr'><div class='vertical-center'>$40<br><br>now</div></div><div class='respDivL'><div class='vertical-center'>(E)</div></div><div class='respDivR'><div class='vertical-center'>(I)</div></div></div>","I","$40<br><br>now","$55<br>in<br>6 weeks","1","40","55","6","NOW"
"html-keyboard-response","21","74732","0.0-5.0-3.5","63153455849b153d56dd81db","bdp_td","Thu Mar 30 2023 15:38:35 GMT-0700 (Pacific Daylight Time)","132456","","null","","","","offerFB","","<div class='trialBorder'><div class='vertical-center'><img style='vertical-align:center; align:center' src=img/fixation3.jpg></div><div class='cl'><div class='vertical-center'>$55<br>in<br>6 weeks</div></div><div class='cr'><div class='vertical-center'><font style='color:orange'>$40<br><br>now</font></div></div><div class='respDivL'><div class='vertical-center'>(E)</div></div><div class='respDivR'><div class='vertical-center'><font style='color:orange'>(I)</font></div></div></div>","null","$40<br><br>now","$55<br>in<br>6 weeks","1","40","55","6",""
"html-keyboard-response","22","75251","0.0-5.0-1.6","63153455849b153d56dd81db","bdp_td","Thu Mar 30 2023 15:38:35 GMT-0700 (Pacific Daylight Time)","132456","","null","","","","FIX","","<div class='trialBorder'><div class='vertical-center'><img style='vertical-align:center; align:center' src=img/fixation3.jpg></div></div>","null","","","","","","",""
"html-keyboard-response","23","77883","0.0-5.0-2.6","63153455849b153d56dd81db","bdp_td","Thu Mar 30 2023 15:38:35 GMT-0700 (Pacific Daylight Time)","132456","","2630","","","","offer","","<div class='trialBorder'><div class='vertical-center'><img style='vertical-align:center; align:center' src=img/fixation3.jpg></div><div class='cl'><div class='vertical-center'>$27<br><br>now</div></div><div class='cr'><div class='vertical-center'>$50<br>in<br>3 weeks</div></div><div class='respDivL'><div class='vertical-center'>(E)</div></div><div class='respDivR'><div class='vertical-center'>(I)</div></div></div>","E","$27<br><br>now","$50<br>in<br>3 weeks","0","27","50","3","NOW"
"html-keyboard-response","24","78146","0.0-5.0-3.6","63153455849b153d56dd81db","bdp_td","Thu Mar 30 2023 15:38:35 GMT-0700 (Pacific Daylight Time)","132456","","null","","","","offerFB","","<div class='trialBorder'><div class='vertical-center'><img style='vertical-align:center; align:center' src=img/fixation3.jpg></div><div class='cl'><div class='vertical-center'><font style='color:orange'>$27<br><br>now</font></div></div><div class='cr'><div class='vertical-center'>$50<br>in<br>3 weeks</div></div><div class='respDivL'><div class='vertical-center'><font style='color:orange'>(E)</font></div></div><div class='respDivR'><div class='vertical-center'>(I)</div></div></div>","null","$27<br><br>now","$50<br>in<br>3 weeks","0","27","50","3",""
"html-keyboard-response","25","78659","0.0-5.0-1.7","63153455849b153d56dd81db","bdp_td","Thu Mar 30 2023 15:38:35 GMT-0700 (Pacific Daylight Time)","132456","","null","","","","FIX","","<div class='trialBorder'><div class='vertical-center'><img style='vertical-align:center; align:center' src=img/fixation3.jpg></div></div>","null","","","","","","",""
"html-keyboard-response","26","81100","0.0-5.0-2.7","63153455849b153d56dd81db","bdp_td","Thu Mar 30 2023 15:38:35 GMT-0700 (Pacific Daylight Time)","132456","","2438","","","","offer","","<div class='trialBorder'><div class='vertical-center'><img style='vertical-align:center; align:center' src=img/fixation3.jpg></div><div class='cl'><div class='vertical-center'>$60<br>in<br>3 weeks</div></div><div class='cr'><div class='vertical-center'>$25<br><br>now</div></div><div class='respDivL'><div class='vertical-center'>(E)</div></div><div class='respDivR'><div class='vertical-center'>(I)</div></div></div>","I","$25<br><br>now","$60<br>in<br>3 weeks","1","25","60","3","NOW"
"html-keyboard-response","27","81363","0.0-5.0-3.7","63153455849b153d56dd81db","bdp_td","Thu Mar 30 2023 15:38:35 GMT-0700 (Pacific Daylight Time)","132456","","null","","","","offerFB","","<div class='trialBorder'><div class='vertical-center'><img style='vertical-align:center; align:center' src=img/fixation3.jpg></div><div class='cl'><div class='vertical-center'>$60<br>in<br>3 weeks</div></div><div class='cr'><div class='vertical-center'><font style='color:orange'>$25<br><br>now</font></div></div><div class='respDivL'><div class='vertical-center'>(E)</div></div><div class='respDivR'><div class='vertical-center'><font style='color:orange'>(I)</font></div></div></div>","null","$25<br><br>now","$60<br>in<br>3 weeks","1","25","60","3",""
"html-keyboard-response","28","81884","0.0-5.0-1.8","63153455849b153d56dd81db","bdp_td","Thu Mar 30 2023 15:38:35 GMT-0700 (Pacific Daylight Time)","132456","","null","","","","FIX","","<div class='trialBorder'><div class='vertical-center'><img style='vertical-align:center; align:center' src=img/fixation3.jpg></div></div>","null","","","","","","",""
"html-keyboard-response","29","84020","0.0-5.0-2.8","63153455849b153d56dd81db","bdp_td","Thu Mar 30 2023 15:38:35 GMT-0700 (Pacific Daylight Time)","132456","","2133","","","","offer","","<div class='trialBorder'><div class='vertical-center'><img style='vertical-align:center; align:center' src=img/fixation3.jpg></div><div class='cl'><div class='vertical-center'>$85<br>in<br>12 weeks</div></div><div class='cr'><div class='vertical-center'>$80<br><br>now</div></div><div class='respDivL'><div class='vertical-center'>(E)</div></div><div class='respDivR'><div class='vertical-center'>(I)</div></div></div>","I","$80<br><br>now","$85<br>in<br>12 weeks","1","80","85","12","NOW"
"html-keyboard-response","30","84292","0.0-5.0-3.8","63153455849b153d56dd81db","bdp_td","Thu Mar 30 2023 15:38:35 GMT-0700 (Pacific Daylight Time)","132456","","null","","","","offerFB","","<div class='trialBorder'><div class='vertical-center'><img style='vertical-align:center; align:center' src=img/fixation3.jpg></div><div class='cl'><div class='vertical-center'>$85<br>in<br>12 weeks</div></div><div class='cr'><div class='vertical-center'><font style='color:orange'>$80<br><br>now</font></div></div><div class='respDivL'><div class='vertical-center'>(E)</div></div><div class='respDivR'><div class='vertical-center'><font style='color:orange'>(I)</font></div></div></div>","null","$80<br><br>now","$85<br>in<br>12 weeks","1","80","85","12",""
"html-keyboard-response","31","84809","0.0-5.0-1.9","63153455849b153d56dd81db","bdp_td","Thu Mar 30 2023 15:38:35 GMT-0700 (Pacific Daylight Time)","132456","","null","","","","FIX","","<div class='trialBorder'><div class='vertical-center'><img style='vertical-align:center; align:center' src=img/fixation3.jpg></div></div>","null","","","","","","",""
"html-keyboard-response","32","87757","0.0-5.0-2.9","63153455849b153d56dd81db","bdp_td","Thu Mar 30 2023 15:38:35 GMT-0700 (Pacific Daylight Time)","132456","","2944","","","","offer","","<div class='trialBorder'><div class='vertical-center'><img style='vertical-align:center; align:center' src=img/fixation3.jpg></div><div class='cl'><div class='vertical-center'>$15<br><br>now</div></div><div class='cr'><div class='vertical-center'>$35<br>in<br>2 weeks</div></div><div class='respDivL'><div class='vertical-center'>(E)</div></div><div class='respDivR'><div class='vertical-center'>(I)</div></div></div>","E","$15<br><br>now","$35<br>in<br>2 weeks","0","15","35","2","NOW"
"html-keyboard-response","33","88021","0.0-5.0-3.9","63153455849b153d56dd81db","bdp_td","Thu Mar 30 2023 15:38:35 GMT-0700 (Pacific Daylight Time)","132456","","null","","","","offerFB","","<div class='trialBorder'><div class='vertical-center'><img style='vertical-align:center; align:center' src=img/fixation3.jpg></div><div class='cl'><div class='vertical-center'><font style='color:orange'>$15<br><br>now</font></div></div><div class='cr'><div class='vertical-center'>$35<br>in<br>2 weeks</div></div><div class='respDivL'><div class='vertical-center'><font style='color:orange'>(E)</font></div></div><div class='respDivR'><div class='vertical-center'>(I)</div></div></div>","null","$15<br><br>now","$35<br>in<br>2 weeks","0","15","35","2",""
"html-keyboard-response","34","88542","0.0-5.0-1.10","63153455849b153d56dd81db","bdp_td","Thu Mar 30 2023 15:38:35 GMT-0700 (Pacific Daylight Time)","132456","","null","","","","FIX","","<div class='trialBorder'><div class='vertical-center'><img style='vertical-align:center; align:center' src=img/fixation3.jpg></div></div>","null","","","","","","",""
"html-keyboard-response","35","91452","0.0-5.0-2.10","63153455849b153d56dd81db","bdp_td","Thu Mar 30 2023 15:38:35 GMT-0700 (Pacific Daylight Time)","132456","","2908","","","","offer","","<div class='trialBorder'><div class='vertical-center'><img style='vertical-align:center; align:center' src=img/fixation3.jpg></div><div class='cl'><div class='vertical-center'>$55<br>in<br>12 weeks</div></div><div class='cr'><div class='vertical-center'>$54<br><br>now</div></div><div class='respDivL'><div class='vertical-center'>(E)</div></div><div class='respDivR'><div class='vertical-center'>(I)</div></div></div>","I","$54<br><br>now","$55<br>in<br>12 weeks","1","54","55","12","NOW"
"html-keyboard-response","36","91714","0.0-5.0-3.10","63153455849b153d56dd81db","bdp_td","Thu Mar 30 2023 15:38:35 GMT-0700 (Pacific Daylight Time)","132456","","null","","","","offerFB","","<div class='trialBorder'><div class='vertical-center'><img style='vertical-align:center; align:center' src=img/fixation3.jpg></div><div class='cl'><div class='vertical-center'>$55<br>in<br>12 weeks</div></div><div class='cr'><div class='vertical-center'><font style='color:orange'>$54<br><br>now</font></div></div><div class='respDivL'><div class='vertical-center'>(E)</div></div><div class='respDivR'><div class='vertical-center'><font style='color:orange'>(I)</font></div></div></div>","null","$54<br><br>now","$55<br>in<br>12 weeks","1","54","55","12",""
"html-keyboard-response","37","92234","0.0-5.0-1.11","63153455849b153d56dd81db","bdp_td","Thu Mar 30 2023 15:38:35 GMT-0700 (Pacific Daylight Time)","132456","","null","","","","FIX","","<div class='trialBorder'><div class='vertical-center'><img style='vertical-align:center; align:center' src=img/fixation3.jpg></div></div>","null","","","","","","",""
"html-keyboard-response","38","93788","0.0-5.0-2.11","63153455849b153d56dd81db","bdp_td","Thu Mar 30 2023 15:38:35 GMT-0700 (Pacific Daylight Time)","132456","","1551","","","","offer","","<div class='trialBorder'><div class='vertical-center'><img style='vertical-align:center; align:center' src=img/fixation3.jpg></div><div class='cl'><div class='vertical-center'>$20<br><br>now</div></div><div class='cr'><div class='vertical-center'>$55<br>in<br>1 week</div></div><div class='respDivL'><div class='vertical-center'>(E)</div></div><div class='respDivR'><div class='vertical-center'>(I)</div></div></div>","I","$20<br><br>now","$55<br>in<br>1 week","0","20","55","1","THEN"
"html-keyboard-response","39","94053","0.0-5.0-3.11","63153455849b153d56dd81db","bdp_td","Thu Mar 30 2023 15:38:35 GMT-0700 (Pacific Daylight Time)","132456","","null","","","","offerFB","","<div class='trialBorder'><div class='vertical-center'><img style='vertical-align:center; align:center' src=img/fixation3.jpg></div><div class='cl'><div class='vertical-center'>$20<br><br>now</div></div><div class='cr'><div class='vertical-center'><font style='color:orange'>$55<br>in<br>1 week</font></div></div><div class='respDivL'><div class='vertical-center'>(E)</div></div><div class='respDivR'><div class='vertical-center'><font style='color:orange'>(I)</font></div></div></div>","null","$20<br><br>now","$55<br>in<br>1 week","0","20","55","1",""
"html-keyboard-response","40","94572","0.0-5.0-1.12","63153455849b153d56dd81db","bdp_td","Thu Mar 30 2023 15:38:35 GMT-0700 (Pacific Daylight Time)","132456","","null","","","","FIX","","<div class='trialBorder'><div class='vertical-center'><img style='vertical-align:center; align:center' src=img/fixation3.jpg></div></div>","null","","","","","","",""
"html-keyboard-response","41","96332","0.0-5.0-2.12","63153455849b153d56dd81db","bdp_td","Thu Mar 30 2023 15:38:35 GMT-0700 (Pacific Daylight Time)","132456","","1756","","","","offer","","<div class='trialBorder'><div class='vertical-center'><img style='vertical-align:center; align:center' src=img/fixation3.jpg></div><div class='cl'><div class='vertical-center'>$55<br><br>now</div></div><div class='cr'><div class='vertical-center'>$75<br>in<br>6 weeks</div></div><div class='respDivL'><div class='vertical-center'>(E)</div></div><div class='respDivR'><div class='vertical-center'>(I)</div></div></div>","E","$55<br><br>now","$75<br>in<br>6 weeks","0","55","75","6","NOW"
"html-keyboard-response","42","96597","0.0-5.0-3.12","63153455849b153d56dd81db","bdp_td","Thu Mar 30 2023 15:38:35 GMT-0700 (Pacific Daylight Time)","132456","","null","","","","offerFB","","<div class='trialBorder'><div class='vertical-center'><img style='vertical-align:center; align:center' src=img/fixation3.jpg></div><div class='cl'><div class='vertical-center'><font style='color:orange'>$55<br><br>now</font></div></div><div class='cr'><div class='vertical-center'>$75<br>in<br>6 weeks</div></div><div class='respDivL'><div class='vertical-center'><font style='color:orange'>(E)</font></div></div><div class='respDivR'><div class='vertical-center'>(I)</div></div></div>","null","$55<br><br>now","$75<br>in<br>6 weeks","0","55","75","6",""
"html-keyboard-response","43","97110","0.0-5.0-1.13","63153455849b153d56dd81db","bdp_td","Thu Mar 30 2023 15:38:35 GMT-0700 (Pacific Daylight Time)","132456","","null","","","","FIX","","<div class='trialBorder'><div class='vertical-center'><img style='vertical-align:center; align:center' src=img/fixation3.jpg></div></div>","null","","","","","","",""
"html-keyboard-response","44","98692","0.0-5.0-2.13","63153455849b153d56dd81db","bdp_td","Thu Mar 30 2023 15:38:35 GMT-0700 (Pacific Daylight Time)","132456","","1579","","","","offer","","<div class='trialBorder'><div class='vertical-center'><img style='vertical-align:center; align:center' src=img/fixation3.jpg></div><div class='cl'><div class='vertical-center'>$60<br>in<br>6 weeks</div></div><div class='cr'><div class='vertical-center'>$49<br><br>now</div></div><div class='respDivL'><div class='vertical-center'>(E)</div></div><div class='respDivR'><div class='vertical-center'>(I)</div></div></div>","I","$49<br><br>now","$60<br>in<br>6 weeks","1","49","60","6","NOW"
"html-keyboard-response","45","98958","0.0-5.0-3.13","63153455849b153d56dd81db","bdp_td","Thu Mar 30 2023 15:38:35 GMT-0700 (Pacific Daylight Time)","132456","","null","","","","offerFB","","<div class='trialBorder'><div class='vertical-center'><img style='vertical-align:center; align:center' src=img/fixation3.jpg></div><div class='cl'><div class='vertical-center'>$60<br>in<br>6 weeks</div></div><div class='cr'><div class='vertical-center'><font style='color:orange'>$49<br><br>now</font></div></div><div class='respDivL'><div class='vertical-center'>(E)</div></div><div class='respDivR'><div class='vertical-center'><font style='color:orange'>(I)</font></div></div></div>","null","$49<br><br>now","$60<br>in<br>6 weeks","1","49","60","6",""
"html-keyboard-response","46","99473","0.0-5.0-1.14","63153455849b153d56dd81db","bdp_td","Thu Mar 30 2023 15:38:35 GMT-0700 (Pacific Daylight Time)","132456","","null","","","","FIX","","<div class='trialBorder'><div class='vertical-center'><img style='vertical-align:center; align:center' src=img/fixation3.jpg></div></div>","null","","","","","","",""
"html-keyboard-response","47","101156","0.0-5.0-2.14","63153455849b153d56dd81db","bdp_td","Thu Mar 30 2023 15:38:35 GMT-0700 (Pacific Daylight Time)","132456","","1680","","","","offer","","<div class='trialBorder'><div class='vertical-center'><img style='vertical-align:center; align:center' src=img/fixation3.jpg></div><div class='cl'><div class='vertical-center'>$78<br><br>now</div></div><div class='cr'><div class='vertical-center'>$80<br>in<br>12 weeks</div></div><div class='respDivL'><div class='vertical-center'>(E)</div></div><div class='respDivR'><div class='vertical-center'>(I)</div></div></div>","E","$78<br><br>now","$80<br>in<br>12 weeks","0","78","80","12","NOW"
"html-keyboard-response","48","101423","0.0-5.0-3.14","63153455849b153d56dd81db","bdp_td","Thu Mar 30 2023 15:38:35 GMT-0700 (Pacific Daylight Time)","132456","","null","","","","offerFB","","<div class='trialBorder'><div class='vertical-center'><img style='vertical-align:center; align:center' src=img/fixation3.jpg></div><div class='cl'><div class='vertical-center'><font style='color:orange'>$78<br><br>now</font></div></div><div class='cr'><div class='vertical-center'>$80<br>in<br>12 weeks</div></div><div class='respDivL'><div class='vertical-center'><font style='color:orange'>(E)</font></div></div><div class='respDivR'><div class='vertical-center'>(I)</div></div></div>","null","$78<br><br>now","$80<br>in<br>12 weeks","0","78","80","12",""
"html-keyboard-response","49","101931","0.0-5.0-1.15","63153455849b153d56dd81db","bdp_td","Thu Mar 30 2023 15:38:35 GMT-0700 (Pacific Daylight Time)","132456","","null","","","","FIX","","<div class='trialBorder'><div class='vertical-center'><img style='vertical-align:center; align:center' src=img/fixation3.jpg></div></div>","null","","","","","","",""
"html-keyboard-response","50","103588","0.0-5.0-2.15","63153455849b153d56dd81db","bdp_td","Thu Mar 30 2023 15:38:35 GMT-0700 (Pacific Daylight Time)","132456","","1655","","","","offer","","<div class='trialBorder'><div class='vertical-center'><img style='vertical-align:center; align:center' src=img/fixation3.jpg></div><div class='cl'><div class='vertical-center'>$54<br><br>now</div></div><div class='cr'><div class='vertical-center'>$60<br>in<br>12 weeks</div></div><div class='respDivL'><div class='vertical-center'>(E)</div></div><div class='respDivR'><div class='vertical-center'>(I)</div></div></div>","E","$54<br><br>now","$60<br>in<br>12 weeks","0","54","60","12","NOW"
"html-keyboard-response","51","103856","0.0-5.0-3.15","63153455849b153d56dd81db","bdp_td","Thu Mar 30 2023 15:38:35 GMT-0700 (Pacific Daylight Time)","132456","","null","","","","offerFB","","<div class='trialBorder'><div class='vertical-center'><img style='vertical-align:center; align:center' src=img/fixation3.jpg></div><div class='cl'><div class='vertical-center'><font style='color:orange'>$54<br><br>now</font></div></div><div class='cr'><div class='vertical-center'>$60<br>in<br>12 weeks</div></div><div class='respDivL'><div class='vertical-center'><font style='color:orange'>(E)</font></div></div><div class='respDivR'><div class='vertical-center'>(I)</div></div></div>","null","$54<br><br>now","$60<br>in<br>12 weeks","0","54","60","12",""
"html-keyboard-response","52","104366","0.0-5.0-1.16","63153455849b153d56dd81db","bdp_td","Thu Mar 30 2023 15:38:35 GMT-0700 (Pacific Daylight Time)","132456","","null","","","","FIX","","<div class='trialBorder'><div class='vertical-center'><img style='vertical-align:center; align:center' src=img/fixation3.jpg></div></div>","null","","","","","","",""
"html-keyboard-response","53","106148","0.0-5.0-2.16","63153455849b153d56dd81db","bdp_td","Thu Mar 30 2023 15:38:35 GMT-0700 (Pacific Daylight Time)","132456","","1778","","","","offer","","<div class='trialBorder'><div class='vertical-center'><img style='vertical-align:center; align:center' src=img/fixation3.jpg></div><div class='cl'><div class='vertical-center'>$14<br><br>now</div></div><div class='cr'><div class='vertical-center'>$25<br>in<br>3 weeks</div></div><div class='respDivL'><div class='vertical-center'>(E)</div></div><div class='respDivR'><div class='vertical-center'>(I)</div></div></div>","I","$14<br><br>now","$25<br>in<br>3 weeks","0","14","25","3","THEN"
"html-keyboard-response","54","106418","0.0-5.0-3.16","63153455849b153d56dd81db","bdp_td","Thu Mar 30 2023 15:38:35 GMT-0700 (Pacific Daylight Time)","132456","","null","","","","offerFB","","<div class='trialBorder'><div class='vertical-center'><img style='vertical-align:center; align:center' src=img/fixation3.jpg></div><div class='cl'><div class='vertical-center'>$14<br><br>now</div></div><div class='cr'><div class='vertical-center'><font style='color:orange'>$25<br>in<br>3 weeks</font></div></div><div class='respDivL'><div class='vertical-center'>(E)</div></div><div class='respDivR'><div class='vertical-center'><font style='color:orange'>(I)</font></div></div></div>","null","$14<br><br>now","$25<br>in<br>3 weeks","0","14","25","3",""
"html-keyboard-response","55","106930","0.0-5.0-1.17","63153455849b153d56dd81db","bdp_td","Thu Mar 30 2023 15:38:35 GMT-0700 (Pacific Daylight Time)","132456","","null","","","","FIX","","<div class='trialBorder'><div class='vertical-center'><img style='vertical-align:center; align:center' src=img/fixation3.jpg></div></div>","null","","","","","","",""
"html-keyboard-response","56","107884","0.0-5.0-2.17","63153455849b153d56dd81db","bdp_td","Thu Mar 30 2023 15:38:35 GMT-0700 (Pacific Daylight Time)","132456","","950","","","","offer","","<div class='trialBorder'><div class='vertical-center'><img style='vertical-align:center; align:center' src=img/fixation3.jpg></div><div class='cl'><div class='vertical-center'>$11<br><br>now</div></div><div class='cr'><div class='vertical-center'>$30<br>in<br>2 weeks</div></div><div class='respDivL'><div class='vertical-center'>(E)</div></div><div class='respDivR'><div class='vertical-center'>(I)</div></div></div>","E","$11<br><br>now","$30<br>in<br>2 weeks","0","11","30","2","NOW"
"html-keyboard-response","57","108143","0.0-5.0-3.17","63153455849b153d56dd81db","bdp_td","Thu Mar 30 2023 15:38:35 GMT-0700 (Pacific Daylight Time)","132456","","null","","","","offerFB","","<div class='trialBorder'><div class='vertical-center'><img style='vertical-align:center; align:center' src=img/fixation3.jpg></div><div class='cl'><div class='vertical-center'><font style='color:orange'>$11<br><br>now</font></div></div><div class='cr'><div class='vertical-center'>$30<br>in<br>2 weeks</div></div><div class='respDivL'><div class='vertical-center'><font style='color:orange'>(E)</font></div></div><div class='respDivR'><div class='vertical-center'>(I)</div></div></div>","null","$11<br><br>now","$30<br>in<br>2 weeks","0","11","30","2",""
"html-keyboard-response","58","108655","0.0-5.0-1.18","63153455849b153d56dd81db","bdp_td","Thu Mar 30 2023 15:38:35 GMT-0700 (Pacific Daylight Time)","132456","","null","","","","FIX","","<div class='trialBorder'><div class='vertical-center'><img style='vertical-align:center; align:center' src=img/fixation3.jpg></div></div>","null","","","","","","",""
"html-keyboard-response","59","110748","0.0-5.0-2.18","63153455849b153d56dd81db","bdp_td","Thu Mar 30 2023 15:38:35 GMT-0700 (Pacific Daylight Time)","132456","","2090","","","","offer","","<div class='trialBorder'><div class='vertical-center'><img style='vertical-align:center; align:center' src=img/fixation3.jpg></div><div class='cl'><div class='vertical-center'>$50<br>in<br>6 weeks</div></div><div class='cr'><div class='vertical-center'>$34<br><br>now</div></div><div class='respDivL'><div class='vertical-center'>(E)</div></div><div class='respDivR'><div class='vertical-center'>(I)</div></div></div>","I","$34<br><br>now","$50<br>in<br>6 weeks","1","34","50","6","NOW"
"html-keyboard-response","60","111010","0.0-5.0-3.18","63153455849b153d56dd81db","bdp_td","Thu Mar 30 2023 15:38:35 GMT-0700 (Pacific Daylight Time)","132456","","null","","","","offerFB","","<div class='trialBorder'><div class='vertical-center'><img style='vertical-align:center; align:center' src=img/fixation3.jpg></div><div class='cl'><div class='vertical-center'>$50<br>in<br>6 weeks</div></div><div class='cr'><div class='vertical-center'><font style='color:orange'>$34<br><br>now</font></div></div><div class='respDivL'><div class='vertical-center'>(E)</div></div><div class='respDivR'><div class='vertical-center'><font style='color:orange'>(I)</font></div></div></div>","null","$34<br><br>now","$50<br>in<br>6 weeks","1","34","50","6",""
"html-keyboard-response","61","111528","0.0-5.0-1.19","63153455849b153d56dd81db","bdp_td","Thu Mar 30 2023 15:38:35 GMT-0700 (Pacific Daylight Time)","132456","","null","","","","FIX","","<div class='trialBorder'><div class='vertical-center'><img style='vertical-align:center; align:center' src=img/fixation3.jpg></div></div>","null","","","","","","",""
"html-keyboard-response","62","113092","0.0-5.0-2.19","63153455849b153d56dd81db","bdp_td","Thu Mar 30 2023 15:38:35 GMT-0700 (Pacific Daylight Time)","132456","","1560","","","","offer","","<div class='trialBorder'><div class='vertical-center'><img style='vertical-align:center; align:center' src=img/fixation3.jpg></div><div class='cl'><div class='vertical-center'>$35<br>in<br>12 weeks</div></div><div class='cr'><div class='vertical-center'>$34<br><br>now</div></div><div class='respDivL'><div class='vertical-center'>(E)</div></div><div class='respDivR'><div class='vertical-center'>(I)</div></div></div>","I","$34<br><br>now","$35<br>in<br>12 weeks","1","34","35","12","NOW"
"html-keyboard-response","63","113356","0.0-5.0-3.19","63153455849b153d56dd81db","bdp_td","Thu Mar 30 2023 15:38:35 GMT-0700 (Pacific Daylight Time)","132456","","null","","","","offerFB","","<div class='trialBorder'><div class='vertical-center'><img style='vertical-align:center; align:center' src=img/fixation3.jpg></div><div class='cl'><div class='vertical-center'>$35<br>in<br>12 weeks</div></div><div class='cr'><div class='vertical-center'><font style='color:orange'>$34<br><br>now</font></div></div><div class='respDivL'><div class='vertical-center'>(E)</div></div><div class='respDivR'><div class='vertical-center'><font style='color:orange'>(I)</font></div></div></div>","null","$34<br><br>now","$35<br>in<br>12 weeks","1","34","35","12",""
"html-keyboard-response","64","113877","0.0-5.0-1.20","63153455849b153d56dd81db","bdp_td","Thu Mar 30 2023 15:38:35 GMT-0700 (Pacific Daylight Time)","132456","","null","","","","FIX","","<div class='trialBorder'><div class='vertical-center'><img style='vertical-align:center; align:center' src=img/fixation3.jpg></div></div>","null","","","","","","",""
"html-keyboard-response","65","115276","0.0-5.0-2.20","63153455849b153d56dd81db","bdp_td","Thu Mar 30 2023 15:38:35 GMT-0700 (Pacific Daylight Time)","132456","","1396","","","","offer","","<div class='trialBorder'><div class='vertical-center'><img style='vertical-align:center; align:center' src=img/fixation3.jpg></div><div class='cl'><div class='vertical-center'>$30<br>in<br>12 weeks</div></div><div class='cr'><div class='vertical-center'>$28<br><br>now</div></div><div class='respDivL'><div class='vertical-center'>(E)</div></div><div class='respDivR'><div class='vertical-center'>(I)</div></div></div>","I","$28<br><br>now","$30<br>in<br>12 weeks","1","28","30","12","NOW"
"html-keyboard-response","66","115540","0.0-5.0-3.20","63153455849b153d56dd81db","bdp_td","Thu Mar 30 2023 15:38:35 GMT-0700 (Pacific Daylight Time)","132456","","null","","","","offerFB","","<div class='trialBorder'><div class='vertical-center'><img style='vertical-align:center; align:center' src=img/fixation3.jpg></div><div class='cl'><div class='vertical-center'>$30<br>in<br>12 weeks</div></div><div class='cr'><div class='vertical-center'><font style='color:orange'>$28<br><br>now</font></div></div><div class='respDivL'><div class='vertical-center'>(E)</div></div><div class='respDivR'><div class='vertical-center'><font style='color:orange'>(I)</font></div></div></div>","null","$28<br><br>now","$30<br>in<br>12 weeks","1","28","30","12",""
"html-keyboard-response","67","116048","0.0-5.0-1.21","63153455849b153d56dd81db","bdp_td","Thu Mar 30 2023 15:38:35 GMT-0700 (Pacific Daylight Time)","132456","","null","","","","FIX","","<div class='trialBorder'><div class='vertical-center'><img style='vertical-align:center; align:center' src=img/fixation3.jpg></div></div>","null","","","","","","",""
"html-keyboard-response","68","118755","0.0-5.0-2.21","63153455849b153d56dd81db","bdp_td","Thu Mar 30 2023 15:38:35 GMT-0700 (Pacific Daylight Time)","132456","","2704","","","","offer","","<div class='trialBorder'><div class='vertical-center'><img style='vertical-align:center; align:center' src=img/fixation3.jpg></div><div class='cl'><div class='vertical-center'>$31<br><br>now</div></div><div class='cr'><div class='vertical-center'>$85<br>in<br>1 week</div></div><div class='respDivL'><div class='vertical-center'>(E)</div></div><div class='respDivR'><div class='vertical-center'>(I)</div></div></div>","I","$31<br><br>now","$85<br>in<br>1 week","0","31","85","1","THEN"
"html-keyboard-response","69","119019","0.0-5.0-3.21","63153455849b153d56dd81db","bdp_td","Thu Mar 30 2023 15:38:35 GMT-0700 (Pacific Daylight Time)","132456","","null","","","","offerFB","","<div class='trialBorder'><div class='vertical-center'><img style='vertical-align:center; align:center' src=img/fixation3.jpg></div><div class='cl'><div class='vertical-center'>$31<br><br>now</div></div><div class='cr'><div class='vertical-center'><font style='color:orange'>$85<br>in<br>1 week</font></div></div><div class='respDivL'><div class='vertical-center'>(E)</div></div><div class='respDivR'><div class='vertical-center'><font style='color:orange'>(I)</font></div></div></div>","null","$31<br><br>now","$85<br>in<br>1 week","0","31","85","1",""
"html-keyboard-response","70","119535","0.0-5.0-1.22","63153455849b153d56dd81db","bdp_td","Thu Mar 30 2023 15:38:35 GMT-0700 (Pacific Daylight Time)","132456","","null","","","","FIX","","<div class='trialBorder'><div class='vertical-center'><img style='vertical-align:center; align:center' src=img/fixation3.jpg></div></div>","null","","","","","","",""
"html-keyboard-response","71","121900","0.0-5.0-2.22","63153455849b153d56dd81db","bdp_td","Thu Mar 30 2023 15:38:35 GMT-0700 (Pacific Daylight Time)","132456","","2362","","","","offer","","<div class='trialBorder'><div class='vertical-center'><img style='vertical-align:center; align:center' src=img/fixation3.jpg></div><div class='cl'><div class='vertical-center'>$85<br>in<br>6 weeks</div></div><div class='cr'><div class='vertical-center'>$69<br><br>now</div></div><div class='respDivL'><div class='vertical-center'>(E)</div></div><div class='respDivR'><div class='vertical-center'>(I)</div></div></div>","I","$69<br><br>now","$85<br>in<br>6 weeks","1","69","85","6","NOW"
"html-keyboard-response","72","122164","0.0-5.0-3.22","63153455849b153d56dd81db","bdp_td","Thu Mar 30 2023 15:38:35 GMT-0700 (Pacific Daylight Time)","132456","","null","","","","offerFB","","<div class='trialBorder'><div class='vertical-center'><img style='vertical-align:center; align:center' src=img/fixation3.jpg></div><div class='cl'><div class='vertical-center'>$85<br>in<br>6 weeks</div></div><div class='cr'><div class='vertical-center'><font style='color:orange'>$69<br><br>now</font></div></div><div class='respDivL'><div class='vertical-center'>(E)</div></div><div class='respDivR'><div class='vertical-center'><font style='color:orange'>(I)</font></div></div></div>","null","$69<br><br>now","$85<br>in<br>6 weeks","1","69","85","6",""
"html-keyboard-response","73","122686","0.0-5.0-1.23","63153455849b153d56dd81db","bdp_td","Thu Mar 30 2023 15:38:35 GMT-0700 (Pacific Daylight Time)","132456","","null","","","","FIX","","<div class='trialBorder'><div class='vertical-center'><img style='vertical-align:center; align:center' src=img/fixation3.jpg></div></div>","null","","","","","","",""
"html-keyboard-response","74","124028","0.0-5.0-2.23","63153455849b153d56dd81db","bdp_td","Thu Mar 30 2023 15:38:35 GMT-0700 (Pacific Daylight Time)","132456","","1339","","","","offer","","<div class='trialBorder'><div class='vertical-center'><img style='vertical-align:center; align:center' src=img/fixation3.jpg></div><div class='cl'><div class='vertical-center'>$25<br><br>now</div></div><div class='cr'><div class='vertical-center'>$30<br>in<br>6 weeks</div></div><div class='respDivL'><div class='vertical-center'>(E)</div></div><div class='respDivR'><div class='vertical-center'>(I)</div></div></div>","E","$25<br><br>now","$30<br>in<br>6 weeks","0","25","30","6","NOW"
"html-keyboard-response","75","124291","0.0-5.0-3.23","63153455849b153d56dd81db","bdp_td","Thu Mar 30 2023 15:38:35 GMT-0700 (Pacific Daylight Time)","132456","","null","","","","offerFB","","<div class='trialBorder'><div class='vertical-center'><img style='vertical-align:center; align:center' src=img/fixation3.jpg></div><div class='cl'><div class='vertical-center'><font style='color:orange'>$25<br><br>now</font></div></div><div class='cr'><div class='vertical-center'>$30<br>in<br>6 weeks</div></div><div class='respDivL'><div class='vertical-center'><font style='color:orange'>(E)</font></div></div><div class='respDivR'><div class='vertical-center'>(I)</div></div></div>","null","$25<br><br>now","$30<br>in<br>6 weeks","0","25","30","6",""
"html-keyboard-response","76","124806","0.0-5.0-1.24","63153455849b153d56dd81db","bdp_td","Thu Mar 30 2023 15:38:35 GMT-0700 (Pacific Daylight Time)","132456","","null","","","","FIX","","<div class='trialBorder'><div class='vertical-center'><img style='vertical-align:center; align:center' src=img/fixation3.jpg></div></div>","null","","","","","","",""
"html-keyboard-response","77","127140","0.0-5.0-2.24","63153455849b153d56dd81db","bdp_td","Thu Mar 30 2023 15:38:35 GMT-0700 (Pacific Daylight Time)","132456","","2331","","","","offer","","<div class='trialBorder'><div class='vertical-center'><img style='vertical-align:center; align:center' src=img/fixation3.jpg></div><div class='cl'><div class='vertical-center'>$54<br><br>now</div></div><div class='cr'><div class='vertical-center'>$80<br>in<br>3 weeks</div></div><div class='respDivL'><div class='vertical-center'>(E)</div></div><div class='respDivR'><div class='vertical-center'>(I)</div></div></div>","E","$54<br><br>now","$80<br>in<br>3 weeks","0","54","80","3","NOW"
"html-keyboard-response","78","127402","0.0-5.0-3.24","63153455849b153d56dd81db","bdp_td","Thu Mar 30 2023 15:38:35 GMT-0700 (Pacific Daylight Time)","132456","","null","","","","offerFB","","<div class='trialBorder'><div class='vertical-center'><img style='vertical-align:center; align:center' src=img/fixation3.jpg></div><div class='cl'><div class='vertical-center'><font style='color:orange'>$54<br><br>now</font></div></div><div class='cr'><div class='vertical-center'>$80<br>in<br>3 weeks</div></div><div class='respDivL'><div class='vertical-center'><font style='color:orange'>(E)</font></div></div><div class='respDivR'><div class='vertical-center'>(I)</div></div></div>","null","$54<br><br>now","$80<br>in<br>3 weeks","0","54","80","3",""
"html-keyboard-response","79","127918","0.0-5.0-1.25","63153455849b153d56dd81db","bdp_td","Thu Mar 30 2023 15:38:35 GMT-0700 (Pacific Daylight Time)","132456","","null","","","","FIX","","<div class='trialBorder'><div class='vertical-center'><img style='vertical-align:center; align:center' src=img/fixation3.jpg></div></div>","null","","","","","","",""
"html-keyboard-response","80","129339","0.0-5.0-2.25","63153455849b153d56dd81db","bdp_td","Thu Mar 30 2023 15:38:35 GMT-0700 (Pacific Daylight Time)","132456","","1419","","","","offer","","<div class='trialBorder'><div class='vertical-center'><img style='vertical-align:center; align:center' src=img/fixation3.jpg></div><div class='cl'><div class='vertical-center'>$41<br><br>now</div></div><div class='cr'><div class='vertical-center'>$75<br>in<br>3 weeks</div></div><div class='respDivL'><div class='vertical-center'>(E)</div></div><div class='respDivR'><div class='vertical-center'>(I)</div></div></div>","I","$41<br><br>now","$75<br>in<br>3 weeks","0","41","75","3","THEN"
"html-keyboard-response","81","129606","0.0-5.0-3.25","63153455849b153d56dd81db","bdp_td","Thu Mar 30 2023 15:38:35 GMT-0700 (Pacific Daylight Time)","132456","","null","","","","offerFB","","<div class='trialBorder'><div class='vertical-center'><img style='vertical-align:center; align:center' src=img/fixation3.jpg></div><div class='cl'><div class='vertical-center'>$41<br><br>now</div></div><div class='cr'><div class='vertical-center'><font style='color:orange'>$75<br>in<br>3 weeks</font></div></div><div class='respDivL'><div class='vertical-center'>(E)</div></div><div class='respDivR'><div class='vertical-center'><font style='color:orange'>(I)</font></div></div></div>","null","$41<br><br>now","$75<br>in<br>3 weeks","0","41","75","3",""
"html-keyboard-response","82","130119","0.0-5.0-1.26","63153455849b153d56dd81db","bdp_td","Thu Mar 30 2023 15:38:35 GMT-0700 (Pacific Daylight Time)","132456","","null","","","","FIX","","<div class='trialBorder'><div class='vertical-center'><img style='vertical-align:center; align:center' src=img/fixation3.jpg></div></div>","null","","","","","","",""
"html-keyboard-response","83","131179","0.0-5.0-2.26","63153455849b153d56dd81db","bdp_td","Thu Mar 30 2023 15:38:35 GMT-0700 (Pacific Daylight Time)","132456","","1057","","","","offer","","<div class='trialBorder'><div class='vertical-center'><img style='vertical-align:center; align:center' src=img/fixation3.jpg></div><div class='cl'><div class='vertical-center'>$67<br><br>now</div></div><div class='cr'><div class='vertical-center'>$75<br>in<br>12 weeks</div></div><div class='respDivL'><div class='vertical-center'>(E)</div></div><div class='respDivR'><div class='vertical-center'>(I)</div></div></div>","E","$67<br><br>now","$75<br>in<br>12 weeks","0","67","75","12","NOW"
"html-keyboard-response","84","131443","0.0-5.0-3.26","63153455849b153d56dd81db","bdp_td","Thu Mar 30 2023 15:38:35 GMT-0700 (Pacific Daylight Time)","132456","","null","","","","offerFB","","<div class='trialBorder'><div class='vertical-center'><img style='vertical-align:center; align:center' src=img/fixation3.jpg></div><div class='cl'><div class='vertical-center'><font style='color:orange'>$67<br><br>now</font></div></div><div class='cr'><div class='vertical-center'>$75<br>in<br>12 weeks</div></div><div class='respDivL'><div class='vertical-center'><font style='color:orange'>(E)</font></div></div><div class='respDivR'><div class='vertical-center'>(I)</div></div></div>","null","$67<br><br>now","$75<br>in<br>12 weeks","0","67","75","12",""
"","","","","63153455849b153d56dd81db","bdp_td","Thu Mar 30 2023 15:38:35 GMT-0700 (Pacific Daylight Time)","132456","","","fullscreenexit","85","131504","fullscreenexit","","","","","","","","","",""
"fullscreen","85","132455","0.0-6.0","63153455849b153d56dd81db","bdp_td","Thu Mar 30 2023 15:38:35 GMT-0700 (Pacific Daylight Time)","132456","","","","","","","true","","","","","","","","",""
"html-keyboard-response","86","132966","0.0-7.0","","","","","","null","","","","","","","null","","","","","","",""
