"trial_type","trial_index","time_elapsed","internal_node_id","subject_id","task","startTime","totalTime","view_history","rt","event","trial","time","trialtype","success","stimulus","key_press","nowOffer","thenOffer","thenLeft","nowAmt","thenAmt","thenWeeks","chosen"
"pavlovia","0","2","0.0-0.0","62951043176ada9a9de2faa4","bdp_td","Sun Mar 26 2023 20:11:49 GMT-0600 (Mountain Daylight Time)","97967","","","","","","","","","","","","","","","",""
"instructions","1","1667","0.0-1.0","62951043176ada9a9de2faa4","bdp_td","Sun Mar 26 2023 20:11:49 GMT-0600 (Mountain Daylight Time)","97967","[{""page_index"":0,""viewing_time"":1664}]","1664","","","","","","","","","","","","","",""
"","","","","62951043176ada9a9de2faa4","bdp_td","Sun Mar 26 2023 20:11:49 GMT-0600 (Mountain Daylight Time)","97967","","","fullscreenenter","2","4717","fullscreenenter","","","","","","","","","",""
"fullscreen","2","5723","0.0-2.0","62951043176ada9a9de2faa4","bdp_td","Sun Mar 26 2023 20:11:49 GMT-0600 (Mountain Daylight Time)","97967","","","","","","","true","","","","","","","","",""
"instructions","3","12308","0.0-4.0","62951043176ada9a9de2faa4","bdp_td","Sun Mar 26 2023 20:11:49 GMT-0600 (Mountain Daylight Time)","97967","[{""page_index"":0,""viewing_time"":3005},{""page_index"":1,""viewing_time"":2273},{""page_index"":2,""viewing_time"":1304}]","6583","","","","","","","","","","","","","",""
"html-keyboard-response","4","12812","0.0-5.0-1.0","62951043176ada9a9de2faa4","bdp_td","Sun Mar 26 2023 20:11:49 GMT-0600 (Mountain Daylight Time)","97967","","null","","","","FIX","","<div class='trialBorder'><div class='vertical-center'><img style='vertical-align:center; align:center' src=img/fixation3.jpg></div></div>","null","","","","","","",""
"html-keyboard-response","5","15503","0.0-5.0-2.0","62951043176ada9a9de2faa4","bdp_td","Sun Mar 26 2023 20:11:49 GMT-0600 (Mountain Daylight Time)","97967","","2689","","","","offer","","<div class='trialBorder'><div class='vertical-center'><img style='vertical-align:center; align:center' src=img/fixation3.jpg></div><div class='cl'><div class='vertical-center'>$80<br>in<br>12 weeks</div></div><div class='cr'><div class='vertical-center'>$78<br><br>now</div></div><div class='respDivL'><div class='vertical-center'>(E)</div></div><div class='respDivR'><div class='vertical-center'>(I)</div></div></div>","E","$78<br><br>now","$80<br>in<br>12 weeks","1","78","80","12","THEN"
"html-keyboard-response","6","15763","0.0-5.0-3.0","62951043176ada9a9de2faa4","bdp_td","Sun Mar 26 2023 20:11:49 GMT-0600 (Mountain Daylight Time)","97967","","null","","","","offerFB","","<div class='trialBorder'><div class='vertical-center'><img style='vertical-align:center; align:center' src=img/fixation3.jpg></div><div class='cl'><div class='vertical-center'><font style='color:orange'>$80<br>in<br>12 weeks</font></div></div><div class='cr'><div class='vertical-center'>$78<br><br>now</div></div><div class='respDivL'><div class='vertical-center'><font style='color:orange'>(E)</font></div></div><div class='respDivR'><div class='vertical-center'>(I)</div></div></div>","null","$78<br><br>now","$80<br>in<br>12 weeks","1","78","80","12",""
"html-keyboard-response","7","16275","0.0-5.0-1.1","62951043176ada9a9de2faa4","bdp_td","Sun Mar 26 2023 20:11:49 GMT-0600 (Mountain Daylight Time)","97967","","null","","","","FIX","","<div class='trialBorder'><div class='vertical-center'><img style='vertical-align:center; align:center' src=img/fixation3.jpg></div></div>","null","","","","","","",""
"html-keyboard-response","8","18766","0.0-5.0-2.1","62951043176ada9a9de2faa4","bdp_td","Sun Mar 26 2023 20:11:49 GMT-0600 (Mountain Daylight Time)","97967","","2490","","","","offer","","<div class='trialBorder'><div class='vertical-center'><img style='vertical-align:center; align:center' src=img/fixation3.jpg></div><div class='cl'><div class='vertical-center'>$14<br><br>now</div></div><div class='cr'><div class='vertical-center'>$25<br>in<br>3 weeks</div></div><div class='respDivL'><div class='vertical-center'>(E)</div></div><div class='respDivR'><div class='vertical-center'>(I)</div></div></div>","I","$14<br><br>now","$25<br>in<br>3 weeks","0","14","25","3","THEN"
"html-keyboard-response","9","19029","0.0-5.0-3.1","62951043176ada9a9de2faa4","bdp_td","Sun Mar 26 2023 20:11:49 GMT-0600 (Mountain Daylight Time)","97967","","null","","","","offerFB","","<div class='trialBorder'><div class='vertical-center'><img style='vertical-align:center; align:center' src=img/fixation3.jpg></div><div class='cl'><div class='vertical-center'>$14<br><br>now</div></div><div class='cr'><div class='vertical-center'><font style='color:orange'>$25<br>in<br>3 weeks</font></div></div><div class='respDivL'><div class='vertical-center'>(E)</div></div><div class='respDivR'><div class='vertical-center'><font style='color:orange'>(I)</font></div></div></div>","null","$14<br><br>now","$25<br>in<br>3 weeks","0","14","25","3",""
"html-keyboard-response","10","19539","0.0-5.0-1.2","62951043176ada9a9de2faa4","bdp_td","Sun Mar 26 2023 20:11:49 GMT-0600 (Mountain Daylight Time)","97967","","null","","","","FIX","","<div class='trialBorder'><div class='vertical-center'><img style='vertical-align:center; align:center' src=img/fixation3.jpg></div></div>","null","","","","","","",""
"html-keyboard-response","11","22006","0.0-5.0-2.2","62951043176ada9a9de2faa4","bdp_td","Sun Mar 26 2023 20:11:49 GMT-0600 (Mountain Daylight Time)","97967","","2466","","","","offer","","<div class='trialBorder'><div class='vertical-center'><img style='vertical-align:center; align:center' src=img/fixation3.jpg></div><div class='cl'><div class='vertical-center'>$54<br><br>now</div></div><div class='cr'><div class='vertical-center'>$55<br>in<br>12 weeks</div></div><div class='respDivL'><div class='vertical-center'>(E)</div></div><div class='respDivR'><div class='vertical-center'>(I)</div></div></div>","E","$54<br><br>now","$55<br>in<br>12 weeks","0","54","55","12","NOW"
"html-keyboard-response","12","22266","0.0-5.0-3.2","62951043176ada9a9de2faa4","bdp_td","Sun Mar 26 2023 20:11:49 GMT-0600 (Mountain Daylight Time)","97967","","null","","","","offerFB","","<div class='trialBorder'><div class='vertical-center'><img style='vertical-align:center; align:center' src=img/fixation3.jpg></div><div class='cl'><div class='vertical-center'><font style='color:orange'>$54<br><br>now</font></div></div><div class='cr'><div class='vertical-center'>$55<br>in<br>12 weeks</div></div><div class='respDivL'><div class='vertical-center'><font style='color:orange'>(E)</font></div></div><div class='respDivR'><div class='vertical-center'>(I)</div></div></div>","null","$54<br><br>now","$55<br>in<br>12 weeks","0","54","55","12",""
"html-keyboard-response","13","22771","0.0-5.0-1.3","62951043176ada9a9de2faa4","bdp_td","Sun Mar 26 2023 20:11:49 GMT-0600 (Mountain Daylight Time)","97967","","null","","","","FIX","","<div class='trialBorder'><div class='vertical-center'><img style='vertical-align:center; align:center' src=img/fixation3.jpg></div></div>","null","","","","","","",""
"html-keyboard-response","14","25875","0.0-5.0-2.3","62951043176ada9a9de2faa4","bdp_td","Sun Mar 26 2023 20:11:49 GMT-0600 (Mountain Daylight Time)","97967","","3103","","","","offer","","<div class='trialBorder'><div class='vertical-center'><img style='vertical-align:center; align:center' src=img/fixation3.jpg></div><div class='cl'><div class='vertical-center'>$35<br>in<br>12 weeks</div></div><div class='cr'><div class='vertical-center'>$34<br><br>now</div></div><div class='respDivL'><div class='vertical-center'>(E)</div></div><div class='respDivR'><div class='vertical-center'>(I)</div></div></div>","I","$34<br><br>now","$35<br>in<br>12 weeks","1","34","35","12","NOW"
"html-keyboard-response","15","26130","0.0-5.0-3.3","62951043176ada9a9de2faa4","bdp_td","Sun Mar 26 2023 20:11:49 GMT-0600 (Mountain Daylight Time)","97967","","null","","","","offerFB","","<div class='trialBorder'><div class='vertical-center'><img style='vertical-align:center; align:center' src=img/fixation3.jpg></div><div class='cl'><div class='vertical-center'>$35<br>in<br>12 weeks</div></div><div class='cr'><div class='vertical-center'><font style='color:orange'>$34<br><br>now</font></div></div><div class='respDivL'><div class='vertical-center'>(E)</div></div><div class='respDivR'><div class='vertical-center'><font style='color:orange'>(I)</font></div></div></div>","null","$34<br><br>now","$35<br>in<br>12 weeks","1","34","35","12",""
"html-keyboard-response","16","26634","0.0-5.0-1.4","62951043176ada9a9de2faa4","bdp_td","Sun Mar 26 2023 20:11:49 GMT-0600 (Mountain Daylight Time)","97967","","null","","","","FIX","","<div class='trialBorder'><div class='vertical-center'><img style='vertical-align:center; align:center' src=img/fixation3.jpg></div></div>","null","","","","","","",""
"html-keyboard-response","17","29699","0.0-5.0-2.4","62951043176ada9a9de2faa4","bdp_td","Sun Mar 26 2023 20:11:49 GMT-0600 (Mountain Daylight Time)","97967","","3064","","","","offer","","<div class='trialBorder'><div class='vertical-center'><img style='vertical-align:center; align:center' src=img/fixation3.jpg></div><div class='cl'><div class='vertical-center'>$25<br><br>now</div></div><div class='cr'><div class='vertical-center'>$60<br>in<br>3 weeks</div></div><div class='respDivL'><div class='vertical-center'>(E)</div></div><div class='respDivR'><div class='vertical-center'>(I)</div></div></div>","I","$25<br><br>now","$60<br>in<br>3 weeks","0","25","60","3","THEN"
"html-keyboard-response","18","29954","0.0-5.0-3.4","62951043176ada9a9de2faa4","bdp_td","Sun Mar 26 2023 20:11:49 GMT-0600 (Mountain Daylight Time)","97967","","null","","","","offerFB","","<div class='trialBorder'><div class='vertical-center'><img style='vertical-align:center; align:center' src=img/fixation3.jpg></div><div class='cl'><div class='vertical-center'>$25<br><br>now</div></div><div class='cr'><div class='vertical-center'><font style='color:orange'>$60<br>in<br>3 weeks</font></div></div><div class='respDivL'><div class='vertical-center'>(E)</div></div><div class='respDivR'><div class='vertical-center'><font style='color:orange'>(I)</font></div></div></div>","null","$25<br><br>now","$60<br>in<br>3 weeks","0","25","60","3",""
"html-keyboard-response","19","30458","0.0-5.0-1.5","62951043176ada9a9de2faa4","bdp_td","Sun Mar 26 2023 20:11:49 GMT-0600 (Mountain Daylight Time)","97967","","null","","","","FIX","","<div class='trialBorder'><div class='vertical-center'><img style='vertical-align:center; align:center' src=img/fixation3.jpg></div></div>","null","","","","","","",""
"html-keyboard-response","20","32985","0.0-5.0-2.5","62951043176ada9a9de2faa4","bdp_td","Sun Mar 26 2023 20:11:49 GMT-0600 (Mountain Daylight Time)","97967","","2526","","","","offer","","<div class='trialBorder'><div class='vertical-center'><img style='vertical-align:center; align:center' src=img/fixation3.jpg></div><div class='cl'><div class='vertical-center'>$67<br><br>now</div></div><div class='cr'><div class='vertical-center'>$75<br>in<br>12 weeks</div></div><div class='respDivL'><div class='vertical-center'>(E)</div></div><div class='respDivR'><div class='vertical-center'>(I)</div></div></div>","E","$67<br><br>now","$75<br>in<br>12 weeks","0","67","75","12","NOW"
"html-keyboard-response","21","33242","0.0-5.0-3.5","62951043176ada9a9de2faa4","bdp_td","Sun Mar 26 2023 20:11:49 GMT-0600 (Mountain Daylight Time)","97967","","null","","","","offerFB","","<div class='trialBorder'><div class='vertical-center'><img style='vertical-align:center; align:center' src=img/fixation3.jpg></div><div class='cl'><div class='vertical-center'><font style='color:orange'>$67<br><br>now</font></div></div><div class='cr'><div class='vertical-center'>$75<br>in<br>12 weeks</div></div><div class='respDivL'><div class='vertical-center'><font style='color:orange'>(E)</font></div></div><div class='respDivR'><div class='vertical-center'>(I)</div></div></div>","null","$67<br><br>now","$75<br>in<br>12 weeks","0","67","75","12",""
"html-keyboard-response","22","33746","0.0-5.0-1.6","62951043176ada9a9de2faa4","bdp_td","Sun Mar 26 2023 20:11:49 GMT-0600 (Mountain Daylight Time)","97967","","null","","","","FIX","","<div class='trialBorder'><div class='vertical-center'><img style='vertical-align:center; align:center' src=img/fixation3.jpg></div></div>","null","","","","","","",""
"html-keyboard-response","23","35168","0.0-5.0-2.6","62951043176ada9a9de2faa4","bdp_td","Sun Mar 26 2023 20:11:49 GMT-0600 (Mountain Daylight Time)","97967","","1421","","","","offer","","<div class='trialBorder'><div class='vertical-center'><img style='vertical-align:center; align:center' src=img/fixation3.jpg></div><div class='cl'><div class='vertical-center'>$50<br>in<br>12 weeks</div></div><div class='cr'><div class='vertical-center'>$47<br><br>now</div></div><div class='respDivL'><div class='vertical-center'>(E)</div></div><div class='respDivR'><div class='vertical-center'>(I)</div></div></div>","I","$47<br><br>now","$50<br>in<br>12 weeks","1","47","50","12","NOW"
"html-keyboard-response","24","35426","0.0-5.0-3.6","62951043176ada9a9de2faa4","bdp_td","Sun Mar 26 2023 20:11:49 GMT-0600 (Mountain Daylight Time)","97967","","null","","","","offerFB","","<div class='trialBorder'><div class='vertical-center'><img style='vertical-align:center; align:center' src=img/fixation3.jpg></div><div class='cl'><div class='vertical-center'>$50<br>in<br>12 weeks</div></div><div class='cr'><div class='vertical-center'><font style='color:orange'>$47<br><br>now</font></div></div><div class='respDivL'><div class='vertical-center'>(E)</div></div><div class='respDivR'><div class='vertical-center'><font style='color:orange'>(I)</font></div></div></div>","null","$47<br><br>now","$50<br>in<br>12 weeks","1","47","50","12",""
"html-keyboard-response","25","35930","0.0-5.0-1.7","62951043176ada9a9de2faa4","bdp_td","Sun Mar 26 2023 20:11:49 GMT-0600 (Mountain Daylight Time)","97967","","null","","","","FIX","","<div class='trialBorder'><div class='vertical-center'><img style='vertical-align:center; align:center' src=img/fixation3.jpg></div></div>","null","","","","","","",""
"html-keyboard-response","26","39240","0.0-5.0-2.7","62951043176ada9a9de2faa4","bdp_td","Sun Mar 26 2023 20:11:49 GMT-0600 (Mountain Daylight Time)","97967","","3308","","","","offer","","<div class='trialBorder'><div class='vertical-center'><img style='vertical-align:center; align:center' src=img/fixation3.jpg></div><div class='cl'><div class='vertical-center'>$60<br>in<br>6 weeks</div></div><div class='cr'><div class='vertical-center'>$49<br><br>now</div></div><div class='respDivL'><div class='vertical-center'>(E)</div></div><div class='respDivR'><div class='vertical-center'>(I)</div></div></div>","E","$49<br><br>now","$60<br>in<br>6 weeks","1","49","60","6","THEN"
"html-keyboard-response","27","39498","0.0-5.0-3.7","62951043176ada9a9de2faa4","bdp_td","Sun Mar 26 2023 20:11:49 GMT-0600 (Mountain Daylight Time)","97967","","null","","","","offerFB","","<div class='trialBorder'><div class='vertical-center'><img style='vertical-align:center; align:center' src=img/fixation3.jpg></div><div class='cl'><div class='vertical-center'><font style='color:orange'>$60<br>in<br>6 weeks</font></div></div><div class='cr'><div class='vertical-center'>$49<br><br>now</div></div><div class='respDivL'><div class='vertical-center'><font style='color:orange'>(E)</font></div></div><div class='respDivR'><div class='vertical-center'>(I)</div></div></div>","null","$49<br><br>now","$60<br>in<br>6 weeks","1","49","60","6",""
"html-keyboard-response","28","40002","0.0-5.0-1.8","62951043176ada9a9de2faa4","bdp_td","Sun Mar 26 2023 20:11:49 GMT-0600 (Mountain Daylight Time)","97967","","null","","","","FIX","","<div class='trialBorder'><div class='vertical-center'><img style='vertical-align:center; align:center' src=img/fixation3.jpg></div></div>","null","","","","","","",""
"html-keyboard-response","29","42480","0.0-5.0-2.8","62951043176ada9a9de2faa4","bdp_td","Sun Mar 26 2023 20:11:49 GMT-0600 (Mountain Daylight Time)","97967","","2476","","","","offer","","<div class='trialBorder'><div class='vertical-center'><img style='vertical-align:center; align:center' src=img/fixation3.jpg></div><div class='cl'><div class='vertical-center'>$25<br>in<br>12 weeks</div></div><div class='cr'><div class='vertical-center'>$22<br><br>now</div></div><div class='respDivL'><div class='vertical-center'>(E)</div></div><div class='respDivR'><div class='vertical-center'>(I)</div></div></div>","I","$22<br><br>now","$25<br>in<br>12 weeks","1","22","25","12","NOW"
"html-keyboard-response","30","42738","0.0-5.0-3.8","62951043176ada9a9de2faa4","bdp_td","Sun Mar 26 2023 20:11:49 GMT-0600 (Mountain Daylight Time)","97967","","null","","","","offerFB","","<div class='trialBorder'><div class='vertical-center'><img style='vertical-align:center; align:center' src=img/fixation3.jpg></div><div class='cl'><div class='vertical-center'>$25<br>in<br>12 weeks</div></div><div class='cr'><div class='vertical-center'><font style='color:orange'>$22<br><br>now</font></div></div><div class='respDivL'><div class='vertical-center'>(E)</div></div><div class='respDivR'><div class='vertical-center'><font style='color:orange'>(I)</font></div></div></div>","null","$22<br><br>now","$25<br>in<br>12 weeks","1","22","25","12",""
"html-keyboard-response","31","43242","0.0-5.0-1.9","62951043176ada9a9de2faa4","bdp_td","Sun Mar 26 2023 20:11:49 GMT-0600 (Mountain Daylight Time)","97967","","null","","","","FIX","","<div class='trialBorder'><div class='vertical-center'><img style='vertical-align:center; align:center' src=img/fixation3.jpg></div></div>","null","","","","","","",""
"html-keyboard-response","32","45854","0.0-5.0-2.9","62951043176ada9a9de2faa4","bdp_td","Sun Mar 26 2023 20:11:49 GMT-0600 (Mountain Daylight Time)","97967","","2611","","","","offer","","<div class='trialBorder'><div class='vertical-center'><img style='vertical-align:center; align:center' src=img/fixation3.jpg></div><div class='cl'><div class='vertical-center'>$55<br>in<br>1 week</div></div><div class='cr'><div class='vertical-center'>$20<br><br>now</div></div><div class='respDivL'><div class='vertical-center'>(E)</div></div><div class='respDivR'><div class='vertical-center'>(I)</div></div></div>","E","$20<br><br>now","$55<br>in<br>1 week","1","20","55","1","THEN"
"html-keyboard-response","33","46113","0.0-5.0-3.9","62951043176ada9a9de2faa4","bdp_td","Sun Mar 26 2023 20:11:49 GMT-0600 (Mountain Daylight Time)","97967","","null","","","","offerFB","","<div class='trialBorder'><div class='vertical-center'><img style='vertical-align:center; align:center' src=img/fixation3.jpg></div><div class='cl'><div class='vertical-center'><font style='color:orange'>$55<br>in<br>1 week</font></div></div><div class='cr'><div class='vertical-center'>$20<br><br>now</div></div><div class='respDivL'><div class='vertical-center'><font style='color:orange'>(E)</font></div></div><div class='respDivR'><div class='vertical-center'>(I)</div></div></div>","null","$20<br><br>now","$55<br>in<br>1 week","1","20","55","1",""
"html-keyboard-response","34","46617","0.0-5.0-1.10","62951043176ada9a9de2faa4","bdp_td","Sun Mar 26 2023 20:11:49 GMT-0600 (Mountain Daylight Time)","97967","","null","","","","FIX","","<div class='trialBorder'><div class='vertical-center'><img style='vertical-align:center; align:center' src=img/fixation3.jpg></div></div>","null","","","","","","",""
"html-keyboard-response","35","48195","0.0-5.0-2.10","62951043176ada9a9de2faa4","bdp_td","Sun Mar 26 2023 20:11:49 GMT-0600 (Mountain Daylight Time)","97967","","1577","","","","offer","","<div class='trialBorder'><div class='vertical-center'><img style='vertical-align:center; align:center' src=img/fixation3.jpg></div><div class='cl'><div class='vertical-center'>$24<br><br>now</div></div><div class='cr'><div class='vertical-center'>$35<br>in<br>3 weeks</div></div><div class='respDivL'><div class='vertical-center'>(E)</div></div><div class='respDivR'><div class='vertical-center'>(I)</div></div></div>","I","$24<br><br>now","$35<br>in<br>3 weeks","0","24","35","3","THEN"
"html-keyboard-response","36","48449","0.0-5.0-3.10","62951043176ada9a9de2faa4","bdp_td","Sun Mar 26 2023 20:11:49 GMT-0600 (Mountain Daylight Time)","97967","","null","","","","offerFB","","<div class='trialBorder'><div class='vertical-center'><img style='vertical-align:center; align:center' src=img/fixation3.jpg></div><div class='cl'><div class='vertical-center'>$24<br><br>now</div></div><div class='cr'><div class='vertical-center'><font style='color:orange'>$35<br>in<br>3 weeks</font></div></div><div class='respDivL'><div class='vertical-center'>(E)</div></div><div class='respDivR'><div class='vertical-center'><font style='color:orange'>(I)</font></div></div></div>","null","$24<br><br>now","$35<br>in<br>3 weeks","0","24","35","3",""
"html-keyboard-response","37","48953","0.0-5.0-1.11","62951043176ada9a9de2faa4","bdp_td","Sun Mar 26 2023 20:11:49 GMT-0600 (Mountain Daylight Time)","97967","","null","","","","FIX","","<div class='trialBorder'><div class='vertical-center'><img style='vertical-align:center; align:center' src=img/fixation3.jpg></div></div>","null","","","","","","",""
"html-keyboard-response","38","50602","0.0-5.0-2.11","62951043176ada9a9de2faa4","bdp_td","Sun Mar 26 2023 20:11:49 GMT-0600 (Mountain Daylight Time)","97967","","1648","","","","offer","","<div class='trialBorder'><div class='vertical-center'><img style='vertical-align:center; align:center' src=img/fixation3.jpg></div><div class='cl'><div class='vertical-center'>$75<br>in<br>6 weeks</div></div><div class='cr'><div class='vertical-center'>$55<br><br>now</div></div><div class='respDivL'><div class='vertical-center'>(E)</div></div><div class='respDivR'><div class='vertical-center'>(I)</div></div></div>","E","$55<br><br>now","$75<br>in<br>6 weeks","1","55","75","6","THEN"
"html-keyboard-response","39","50857","0.0-5.0-3.11","62951043176ada9a9de2faa4","bdp_td","Sun Mar 26 2023 20:11:49 GMT-0600 (Mountain Daylight Time)","97967","","null","","","","offerFB","","<div class='trialBorder'><div class='vertical-center'><img style='vertical-align:center; align:center' src=img/fixation3.jpg></div><div class='cl'><div class='vertical-center'><font style='color:orange'>$75<br>in<br>6 weeks</font></div></div><div class='cr'><div class='vertical-center'>$55<br><br>now</div></div><div class='respDivL'><div class='vertical-center'><font style='color:orange'>(E)</font></div></div><div class='respDivR'><div class='vertical-center'>(I)</div></div></div>","null","$55<br><br>now","$75<br>in<br>6 weeks","1","55","75","6",""
"html-keyboard-response","40","51361","0.0-5.0-1.12","62951043176ada9a9de2faa4","bdp_td","Sun Mar 26 2023 20:11:49 GMT-0600 (Mountain Daylight Time)","97967","","null","","","","FIX","","<div class='trialBorder'><div class='vertical-center'><img style='vertical-align:center; align:center' src=img/fixation3.jpg></div></div>","null","","","","","","",""
"html-keyboard-response","41","53413","0.0-5.0-2.12","62951043176ada9a9de2faa4","bdp_td","Sun Mar 26 2023 20:11:49 GMT-0600 (Mountain Daylight Time)","97967","","2051","","","","offer","","<div class='trialBorder'><div class='vertical-center'><img style='vertical-align:center; align:center' src=img/fixation3.jpg></div><div class='cl'><div class='vertical-center'>$35<br>in<br>2 weeks</div></div><div class='cr'><div class='vertical-center'>$15<br><br>now</div></div><div class='respDivL'><div class='vertical-center'>(E)</div></div><div class='respDivR'><div class='vertical-center'>(I)</div></div></div>","E","$15<br><br>now","$35<br>in<br>2 weeks","1","15","35","2","THEN"
"html-keyboard-response","42","53673","0.0-5.0-3.12","62951043176ada9a9de2faa4","bdp_td","Sun Mar 26 2023 20:11:49 GMT-0600 (Mountain Daylight Time)","97967","","null","","","","offerFB","","<div class='trialBorder'><div class='vertical-center'><img style='vertical-align:center; align:center' src=img/fixation3.jpg></div><div class='cl'><div class='vertical-center'><font style='color:orange'>$35<br>in<br>2 weeks</font></div></div><div class='cr'><div class='vertical-center'>$15<br><br>now</div></div><div class='respDivL'><div class='vertical-center'><font style='color:orange'>(E)</font></div></div><div class='respDivR'><div class='vertical-center'>(I)</div></div></div>","null","$15<br><br>now","$35<br>in<br>2 weeks","1","15","35","2",""
"html-keyboard-response","43","54177","0.0-5.0-1.13","62951043176ada9a9de2faa4","bdp_td","Sun Mar 26 2023 20:11:49 GMT-0600 (Mountain Daylight Time)","97967","","null","","","","FIX","","<div class='trialBorder'><div class='vertical-center'><img style='vertical-align:center; align:center' src=img/fixation3.jpg></div></div>","null","","","","","","",""
"html-keyboard-response","44","55912","0.0-5.0-2.13","62951043176ada9a9de2faa4","bdp_td","Sun Mar 26 2023 20:11:49 GMT-0600 (Mountain Daylight Time)","97967","","1734","","","","offer","","<div class='trialBorder'><div class='vertical-center'><img style='vertical-align:center; align:center' src=img/fixation3.jpg></div><div class='cl'><div class='vertical-center'>$85<br>in<br>1 week</div></div><div class='cr'><div class='vertical-center'>$31<br><br>now</div></div><div class='respDivL'><div class='vertical-center'>(E)</div></div><div class='respDivR'><div class='vertical-center'>(I)</div></div></div>","E","$31<br><br>now","$85<br>in<br>1 week","1","31","85","1","THEN"
"html-keyboard-response","45","56169","0.0-5.0-3.13","62951043176ada9a9de2faa4","bdp_td","Sun Mar 26 2023 20:11:49 GMT-0600 (Mountain Daylight Time)","97967","","null","","","","offerFB","","<div class='trialBorder'><div class='vertical-center'><img style='vertical-align:center; align:center' src=img/fixation3.jpg></div><div class='cl'><div class='vertical-center'><font style='color:orange'>$85<br>in<br>1 week</font></div></div><div class='cr'><div class='vertical-center'>$31<br><br>now</div></div><div class='respDivL'><div class='vertical-center'><font style='color:orange'>(E)</font></div></div><div class='respDivR'><div class='vertical-center'>(I)</div></div></div>","null","$31<br><br>now","$85<br>in<br>1 week","1","31","85","1",""
"html-keyboard-response","46","56673","0.0-5.0-1.14","62951043176ada9a9de2faa4","bdp_td","Sun Mar 26 2023 20:11:49 GMT-0600 (Mountain Daylight Time)","97967","","null","","","","FIX","","<div class='trialBorder'><div class='vertical-center'><img style='vertical-align:center; align:center' src=img/fixation3.jpg></div></div>","null","","","","","","",""
"html-keyboard-response","47","59084","0.0-5.0-2.14","62951043176ada9a9de2faa4","bdp_td","Sun Mar 26 2023 20:11:49 GMT-0600 (Mountain Daylight Time)","97967","","2410","","","","offer","","<div class='trialBorder'><div class='vertical-center'><img style='vertical-align:center; align:center' src=img/fixation3.jpg></div><div class='cl'><div class='vertical-center'>$80<br><br>now</div></div><div class='cr'><div class='vertical-center'>$85<br>in<br>12 weeks</div></div><div class='respDivL'><div class='vertical-center'>(E)</div></div><div class='respDivR'><div class='vertical-center'>(I)</div></div></div>","E","$80<br><br>now","$85<br>in<br>12 weeks","0","80","85","12","NOW"
"html-keyboard-response","48","59345","0.0-5.0-3.14","62951043176ada9a9de2faa4","bdp_td","Sun Mar 26 2023 20:11:49 GMT-0600 (Mountain Daylight Time)","97967","","null","","","","offerFB","","<div class='trialBorder'><div class='vertical-center'><img style='vertical-align:center; align:center' src=img/fixation3.jpg></div><div class='cl'><div class='vertical-center'><font style='color:orange'>$80<br><br>now</font></div></div><div class='cr'><div class='vertical-center'>$85<br>in<br>12 weeks</div></div><div class='respDivL'><div class='vertical-center'><font style='color:orange'>(E)</font></div></div><div class='respDivR'><div class='vertical-center'>(I)</div></div></div>","null","$80<br><br>now","$85<br>in<br>12 weeks","0","80","85","12",""
"html-keyboard-response","49","59849","0.0-5.0-1.15","62951043176ada9a9de2faa4","bdp_td","Sun Mar 26 2023 20:11:49 GMT-0600 (Mountain Daylight Time)","97967","","null","","","","FIX","","<div class='trialBorder'><div class='vertical-center'><img style='vertical-align:center; align:center' src=img/fixation3.jpg></div></div>","null","","","","","","",""
"html-keyboard-response","50","62076","0.0-5.0-2.15","62951043176ada9a9de2faa4","bdp_td","Sun Mar 26 2023 20:11:49 GMT-0600 (Mountain Daylight Time)","97967","","2226","","","","offer","","<div class='trialBorder'><div class='vertical-center'><img style='vertical-align:center; align:center' src=img/fixation3.jpg></div><div class='cl'><div class='vertical-center'>$33<br><br>now</div></div><div class='cr'><div class='vertical-center'>$80<br>in<br>2 weeks</div></div><div class='respDivL'><div class='vertical-center'>(E)</div></div><div class='respDivR'><div class='vertical-center'>(I)</div></div></div>","I","$33<br><br>now","$80<br>in<br>2 weeks","0","33","80","2","THEN"
"html-keyboard-response","51","62337","0.0-5.0-3.15","62951043176ada9a9de2faa4","bdp_td","Sun Mar 26 2023 20:11:49 GMT-0600 (Mountain Daylight Time)","97967","","null","","","","offerFB","","<div class='trialBorder'><div class='vertical-center'><img style='vertical-align:center; align:center' src=img/fixation3.jpg></div><div class='cl'><div class='vertical-center'>$33<br><br>now</div></div><div class='cr'><div class='vertical-center'><font style='color:orange'>$80<br>in<br>2 weeks</font></div></div><div class='respDivL'><div class='vertical-center'>(E)</div></div><div class='respDivR'><div class='vertical-center'><font style='color:orange'>(I)</font></div></div></div>","null","$33<br><br>now","$80<br>in<br>2 weeks","0","33","80","2",""
"html-keyboard-response","52","62841","0.0-5.0-1.16","62951043176ada9a9de2faa4","bdp_td","Sun Mar 26 2023 20:11:49 GMT-0600 (Mountain Daylight Time)","97967","","null","","","","FIX","","<div class='trialBorder'><div class='vertical-center'><img style='vertical-align:center; align:center' src=img/fixation3.jpg></div></div>","null","","","","","","",""
"html-keyboard-response","53","65158","0.0-5.0-2.16","62951043176ada9a9de2faa4","bdp_td","Sun Mar 26 2023 20:11:49 GMT-0600 (Mountain Daylight Time)","97967","","2316","","","","offer","","<div class='trialBorder'><div class='vertical-center'><img style='vertical-align:center; align:center' src=img/fixation3.jpg></div><div class='cl'><div class='vertical-center'>$54<br><br>now</div></div><div class='cr'><div class='vertical-center'>$80<br>in<br>3 weeks</div></div><div class='respDivL'><div class='vertical-center'>(E)</div></div><div class='respDivR'><div class='vertical-center'>(I)</div></div></div>","I","$54<br><br>now","$80<br>in<br>3 weeks","0","54","80","3","THEN"
"html-keyboard-response","54","65416","0.0-5.0-3.16","62951043176ada9a9de2faa4","bdp_td","Sun Mar 26 2023 20:11:49 GMT-0600 (Mountain Daylight Time)","97967","","null","","","","offerFB","","<div class='trialBorder'><div class='vertical-center'><img style='vertical-align:center; align:center' src=img/fixation3.jpg></div><div class='cl'><div class='vertical-center'>$54<br><br>now</div></div><div class='cr'><div class='vertical-center'><font style='color:orange'>$80<br>in<br>3 weeks</font></div></div><div class='respDivL'><div class='vertical-center'>(E)</div></div><div class='respDivR'><div class='vertical-center'><font style='color:orange'>(I)</font></div></div></div>","null","$54<br><br>now","$80<br>in<br>3 weeks","0","54","80","3",""
"html-keyboard-response","55","65920","0.0-5.0-1.17","62951043176ada9a9de2faa4","bdp_td","Sun Mar 26 2023 20:11:49 GMT-0600 (Mountain Daylight Time)","97967","","null","","","","FIX","","<div class='trialBorder'><div class='vertical-center'><img style='vertical-align:center; align:center' src=img/fixation3.jpg></div></div>","null","","","","","","",""
"html-keyboard-response","56","67926","0.0-5.0-2.17","62951043176ada9a9de2faa4","bdp_td","Sun Mar 26 2023 20:11:49 GMT-0600 (Mountain Daylight Time)","97967","","2004","","","","offer","","<div class='trialBorder'><div class='vertical-center'><img style='vertical-align:center; align:center' src=img/fixation3.jpg></div><div class='cl'><div class='vertical-center'>$25<br><br>now</div></div><div class='cr'><div class='vertical-center'>$30<br>in<br>6 weeks</div></div><div class='respDivL'><div class='vertical-center'>(E)</div></div><div class='respDivR'><div class='vertical-center'>(I)</div></div></div>","E","$25<br><br>now","$30<br>in<br>6 weeks","0","25","30","6","NOW"
"html-keyboard-response","57","68184","0.0-5.0-3.17","62951043176ada9a9de2faa4","bdp_td","Sun Mar 26 2023 20:11:49 GMT-0600 (Mountain Daylight Time)","97967","","null","","","","offerFB","","<div class='trialBorder'><div class='vertical-center'><img style='vertical-align:center; align:center' src=img/fixation3.jpg></div><div class='cl'><div class='vertical-center'><font style='color:orange'>$25<br><br>now</font></div></div><div class='cr'><div class='vertical-center'>$30<br>in<br>6 weeks</div></div><div class='respDivL'><div class='vertical-center'><font style='color:orange'>(E)</font></div></div><div class='respDivR'><div class='vertical-center'>(I)</div></div></div>","null","$25<br><br>now","$30<br>in<br>6 weeks","0","25","30","6",""
"html-keyboard-response","58","68688","0.0-5.0-1.18","62951043176ada9a9de2faa4","bdp_td","Sun Mar 26 2023 20:11:49 GMT-0600 (Mountain Daylight Time)","97967","","null","","","","FIX","","<div class='trialBorder'><div class='vertical-center'><img style='vertical-align:center; align:center' src=img/fixation3.jpg></div></div>","null","","","","","","",""
"html-keyboard-response","59","70851","0.0-5.0-2.18","62951043176ada9a9de2faa4","bdp_td","Sun Mar 26 2023 20:11:49 GMT-0600 (Mountain Daylight Time)","97967","","2162","","","","offer","","<div class='trialBorder'><div class='vertical-center'><img style='vertical-align:center; align:center' src=img/fixation3.jpg></div><div class='cl'><div class='vertical-center'>$69<br><br>now</div></div><div class='cr'><div class='vertical-center'>$85<br>in<br>6 weeks</div></div><div class='respDivL'><div class='vertical-center'>(E)</div></div><div class='respDivR'><div class='vertical-center'>(I)</div></div></div>","E","$69<br><br>now","$85<br>in<br>6 weeks","0","69","85","6","NOW"
"html-keyboard-response","60","71112","0.0-5.0-3.18","62951043176ada9a9de2faa4","bdp_td","Sun Mar 26 2023 20:11:49 GMT-0600 (Mountain Daylight Time)","97967","","null","","","","offerFB","","<div class='trialBorder'><div class='vertical-center'><img style='vertical-align:center; align:center' src=img/fixation3.jpg></div><div class='cl'><div class='vertical-center'><font style='color:orange'>$69<br><br>now</font></div></div><div class='cr'><div class='vertical-center'>$85<br>in<br>6 weeks</div></div><div class='respDivL'><div class='vertical-center'><font style='color:orange'>(E)</font></div></div><div class='respDivR'><div class='vertical-center'>(I)</div></div></div>","null","$69<br><br>now","$85<br>in<br>6 weeks","0","69","85","6",""
"html-keyboard-response","61","71616","0.0-5.0-1.19","62951043176ada9a9de2faa4","bdp_td","Sun Mar 26 2023 20:11:49 GMT-0600 (Mountain Daylight Time)","97967","","null","","","","FIX","","<div class='trialBorder'><div class='vertical-center'><img style='vertical-align:center; align:center' src=img/fixation3.jpg></div></div>","null","","","","","","",""
"html-keyboard-response","62","75305","0.0-5.0-2.19","62951043176ada9a9de2faa4","bdp_td","Sun Mar 26 2023 20:11:49 GMT-0600 (Mountain Daylight Time)","97967","","3687","","","","offer","","<div class='trialBorder'><div class='vertical-center'><img style='vertical-align:center; align:center' src=img/fixation3.jpg></div><div class='cl'><div class='vertical-center'>$27<br><br>now</div></div><div class='cr'><div class='vertical-center'>$50<br>in<br>3 weeks</div></div><div class='respDivL'><div class='vertical-center'>(E)</div></div><div class='respDivR'><div class='vertical-center'>(I)</div></div></div>","I","$27<br><br>now","$50<br>in<br>3 weeks","0","27","50","3","THEN"
"html-keyboard-response","63","75560","0.0-5.0-3.19","62951043176ada9a9de2faa4","bdp_td","Sun Mar 26 2023 20:11:49 GMT-0600 (Mountain Daylight Time)","97967","","null","","","","offerFB","","<div class='trialBorder'><div class='vertical-center'><img style='vertical-align:center; align:center' src=img/fixation3.jpg></div><div class='cl'><div class='vertical-center'>$27<br><br>now</div></div><div class='cr'><div class='vertical-center'><font style='color:orange'>$50<br>in<br>3 weeks</font></div></div><div class='respDivL'><div class='vertical-center'>(E)</div></div><div class='respDivR'><div class='vertical-center'><font style='color:orange'>(I)</font></div></div></div>","null","$27<br><br>now","$50<br>in<br>3 weeks","0","27","50","3",""
"html-keyboard-response","64","76064","0.0-5.0-1.20","62951043176ada9a9de2faa4","bdp_td","Sun Mar 26 2023 20:11:49 GMT-0600 (Mountain Daylight Time)","97967","","null","","","","FIX","","<div class='trialBorder'><div class='vertical-center'><img style='vertical-align:center; align:center' src=img/fixation3.jpg></div></div>","null","","","","","","",""
"html-keyboard-response","65","78186","0.0-5.0-2.20","62951043176ada9a9de2faa4","bdp_td","Sun Mar 26 2023 20:11:49 GMT-0600 (Mountain Daylight Time)","97967","","2120","","","","offer","","<div class='trialBorder'><div class='vertical-center'><img style='vertical-align:center; align:center' src=img/fixation3.jpg></div><div class='cl'><div class='vertical-center'>$60<br>in<br>12 weeks</div></div><div class='cr'><div class='vertical-center'>$54<br><br>now</div></div><div class='respDivL'><div class='vertical-center'>(E)</div></div><div class='respDivR'><div class='vertical-center'>(I)</div></div></div>","I","$54<br><br>now","$60<br>in<br>12 weeks","1","54","60","12","NOW"
"html-keyboard-response","66","78440","0.0-5.0-3.20","62951043176ada9a9de2faa4","bdp_td","Sun Mar 26 2023 20:11:49 GMT-0600 (Mountain Daylight Time)","97967","","null","","","","offerFB","","<div class='trialBorder'><div class='vertical-center'><img style='vertical-align:center; align:center' src=img/fixation3.jpg></div><div class='cl'><div class='vertical-center'>$60<br>in<br>12 weeks</div></div><div class='cr'><div class='vertical-center'><font style='color:orange'>$54<br><br>now</font></div></div><div class='respDivL'><div class='vertical-center'>(E)</div></div><div class='respDivR'><div class='vertical-center'><font style='color:orange'>(I)</font></div></div></div>","null","$54<br><br>now","$60<br>in<br>12 weeks","1","54","60","12",""
"html-keyboard-response","67","78944","0.0-5.0-1.21","62951043176ada9a9de2faa4","bdp_td","Sun Mar 26 2023 20:11:49 GMT-0600 (Mountain Daylight Time)","97967","","null","","","","FIX","","<div class='trialBorder'><div class='vertical-center'><img style='vertical-align:center; align:center' src=img/fixation3.jpg></div></div>","null","","","","","","",""
"html-keyboard-response","68","80908","0.0-5.0-2.21","62951043176ada9a9de2faa4","bdp_td","Sun Mar 26 2023 20:11:49 GMT-0600 (Mountain Daylight Time)","97967","","1963","","","","offer","","<div class='trialBorder'><div class='vertical-center'><img style='vertical-align:center; align:center' src=img/fixation3.jpg></div><div class='cl'><div class='vertical-center'>$34<br><br>now</div></div><div class='cr'><div class='vertical-center'>$50<br>in<br>6 weeks</div></div><div class='respDivL'><div class='vertical-center'>(E)</div></div><div class='respDivR'><div class='vertical-center'>(I)</div></div></div>","I","$34<br><br>now","$50<br>in<br>6 weeks","0","34","50","6","THEN"
"html-keyboard-response","69","81168","0.0-5.0-3.21","62951043176ada9a9de2faa4","bdp_td","Sun Mar 26 2023 20:11:49 GMT-0600 (Mountain Daylight Time)","97967","","null","","","","offerFB","","<div class='trialBorder'><div class='vertical-center'><img style='vertical-align:center; align:center' src=img/fixation3.jpg></div><div class='cl'><div class='vertical-center'>$34<br><br>now</div></div><div class='cr'><div class='vertical-center'><font style='color:orange'>$50<br>in<br>6 weeks</font></div></div><div class='respDivL'><div class='vertical-center'>(E)</div></div><div class='respDivR'><div class='vertical-center'><font style='color:orange'>(I)</font></div></div></div>","null","$34<br><br>now","$50<br>in<br>6 weeks","0","34","50","6",""
"html-keyboard-response","70","81671","0.0-5.0-1.22","62951043176ada9a9de2faa4","bdp_td","Sun Mar 26 2023 20:11:49 GMT-0600 (Mountain Daylight Time)","97967","","null","","","","FIX","","<div class='trialBorder'><div class='vertical-center'><img style='vertical-align:center; align:center' src=img/fixation3.jpg></div></div>","null","","","","","","",""
"html-keyboard-response","71","83406","0.0-5.0-2.22","62951043176ada9a9de2faa4","bdp_td","Sun Mar 26 2023 20:11:49 GMT-0600 (Mountain Daylight Time)","97967","","1734","","","","offer","","<div class='trialBorder'><div class='vertical-center'><img style='vertical-align:center; align:center' src=img/fixation3.jpg></div><div class='cl'><div class='vertical-center'>$55<br>in<br>6 weeks</div></div><div class='cr'><div class='vertical-center'>$40<br><br>now</div></div><div class='respDivL'><div class='vertical-center'>(E)</div></div><div class='respDivR'><div class='vertical-center'>(I)</div></div></div>","E","$40<br><br>now","$55<br>in<br>6 weeks","1","40","55","6","THEN"
"html-keyboard-response","72","83664","0.0-5.0-3.22","62951043176ada9a9de2faa4","bdp_td","Sun Mar 26 2023 20:11:49 GMT-0600 (Mountain Daylight Time)","97967","","null","","","","offerFB","","<div class='trialBorder'><div class='vertical-center'><img style='vertical-align:center; align:center' src=img/fixation3.jpg></div><div class='cl'><div class='vertical-center'><font style='color:orange'>$55<br>in<br>6 weeks</font></div></div><div class='cr'><div class='vertical-center'>$40<br><br>now</div></div><div class='respDivL'><div class='vertical-center'><font style='color:orange'>(E)</font></div></div><div class='respDivR'><div class='vertical-center'>(I)</div></div></div>","null","$40<br><br>now","$55<br>in<br>6 weeks","1","40","55","6",""
"html-keyboard-response","73","84168","0.0-5.0-1.23","62951043176ada9a9de2faa4","bdp_td","Sun Mar 26 2023 20:11:49 GMT-0600 (Mountain Daylight Time)","97967","","null","","","","FIX","","<div class='trialBorder'><div class='vertical-center'><img style='vertical-align:center; align:center' src=img/fixation3.jpg></div></div>","null","","","","","","",""
"html-keyboard-response","74","86915","0.0-5.0-2.23","62951043176ada9a9de2faa4","bdp_td","Sun Mar 26 2023 20:11:49 GMT-0600 (Mountain Daylight Time)","97967","","2746","","","","offer","","<div class='trialBorder'><div class='vertical-center'><img style='vertical-align:center; align:center' src=img/fixation3.jpg></div><div class='cl'><div class='vertical-center'>$28<br><br>now</div></div><div class='cr'><div class='vertical-center'>$30<br>in<br>12 weeks</div></div><div class='respDivL'><div class='vertical-center'>(E)</div></div><div class='respDivR'><div class='vertical-center'>(I)</div></div></div>","E","$28<br><br>now","$30<br>in<br>12 weeks","0","28","30","12","NOW"
"html-keyboard-response","75","87175","0.0-5.0-3.23","62951043176ada9a9de2faa4","bdp_td","Sun Mar 26 2023 20:11:49 GMT-0600 (Mountain Daylight Time)","97967","","null","","","","offerFB","","<div class='trialBorder'><div class='vertical-center'><img style='vertical-align:center; align:center' src=img/fixation3.jpg></div><div class='cl'><div class='vertical-center'><font style='color:orange'>$28<br><br>now</font></div></div><div class='cr'><div class='vertical-center'>$30<br>in<br>12 weeks</div></div><div class='respDivL'><div class='vertical-center'><font style='color:orange'>(E)</font></div></div><div class='respDivR'><div class='vertical-center'>(I)</div></div></div>","null","$28<br><br>now","$30<br>in<br>12 weeks","0","28","30","12",""
"html-keyboard-response","76","87679","0.0-5.0-1.24","62951043176ada9a9de2faa4","bdp_td","Sun Mar 26 2023 20:11:49 GMT-0600 (Mountain Daylight Time)","97967","","null","","","","FIX","","<div class='trialBorder'><div class='vertical-center'><img style='vertical-align:center; align:center' src=img/fixation3.jpg></div></div>","null","","","","","","",""
"html-keyboard-response","77","89615","0.0-5.0-2.24","62951043176ada9a9de2faa4","bdp_td","Sun Mar 26 2023 20:11:49 GMT-0600 (Mountain Daylight Time)","97967","","1934","","","","offer","","<div class='trialBorder'><div class='vertical-center'><img style='vertical-align:center; align:center' src=img/fixation3.jpg></div><div class='cl'><div class='vertical-center'>$30<br>in<br>2 weeks</div></div><div class='cr'><div class='vertical-center'>$11<br><br>now</div></div><div class='respDivL'><div class='vertical-center'>(E)</div></div><div class='respDivR'><div class='vertical-center'>(I)</div></div></div>","E","$11<br><br>now","$30<br>in<br>2 weeks","1","11","30","2","THEN"
"html-keyboard-response","78","89871","0.0-5.0-3.24","62951043176ada9a9de2faa4","bdp_td","Sun Mar 26 2023 20:11:49 GMT-0600 (Mountain Daylight Time)","97967","","null","","","","offerFB","","<div class='trialBorder'><div class='vertical-center'><img style='vertical-align:center; align:center' src=img/fixation3.jpg></div><div class='cl'><div class='vertical-center'><font style='color:orange'>$30<br>in<br>2 weeks</font></div></div><div class='cr'><div class='vertical-center'>$11<br><br>now</div></div><div class='respDivL'><div class='vertical-center'><font style='color:orange'>(E)</font></div></div><div class='respDivR'><div class='vertical-center'>(I)</div></div></div>","null","$11<br><br>now","$30<br>in<br>2 weeks","1","11","30","2",""
"html-keyboard-response","79","90375","0.0-5.0-1.25","62951043176ada9a9de2faa4","bdp_td","Sun Mar 26 2023 20:11:49 GMT-0600 (Mountain Daylight Time)","97967","","null","","","","FIX","","<div class='trialBorder'><div class='vertical-center'><img style='vertical-align:center; align:center' src=img/fixation3.jpg></div></div>","null","","","","","","",""
"html-keyboard-response","80","92607","0.0-5.0-2.25","62951043176ada9a9de2faa4","bdp_td","Sun Mar 26 2023 20:11:49 GMT-0600 (Mountain Daylight Time)","97967","","2230","","","","offer","","<div class='trialBorder'><div class='vertical-center'><img style='vertical-align:center; align:center' src=img/fixation3.jpg></div><div class='cl'><div class='vertical-center'>$75<br>in<br>3 weeks</div></div><div class='cr'><div class='vertical-center'>$41<br><br>now</div></div><div class='respDivL'><div class='vertical-center'>(E)</div></div><div class='respDivR'><div class='vertical-center'>(I)</div></div></div>","E","$41<br><br>now","$75<br>in<br>3 weeks","1","41","75","3","THEN"
"html-keyboard-response","81","92863","0.0-5.0-3.25","62951043176ada9a9de2faa4","bdp_td","Sun Mar 26 2023 20:11:49 GMT-0600 (Mountain Daylight Time)","97967","","null","","","","offerFB","","<div class='trialBorder'><div class='vertical-center'><img style='vertical-align:center; align:center' src=img/fixation3.jpg></div><div class='cl'><div class='vertical-center'><font style='color:orange'>$75<br>in<br>3 weeks</font></div></div><div class='cr'><div class='vertical-center'>$41<br><br>now</div></div><div class='respDivL'><div class='vertical-center'><font style='color:orange'>(E)</font></div></div><div class='respDivR'><div class='vertical-center'>(I)</div></div></div>","null","$41<br><br>now","$75<br>in<br>3 weeks","1","41","75","3",""
"html-keyboard-response","82","93367","0.0-5.0-1.26","62951043176ada9a9de2faa4","bdp_td","Sun Mar 26 2023 20:11:49 GMT-0600 (Mountain Daylight Time)","97967","","null","","","","FIX","","<div class='trialBorder'><div class='vertical-center'><img style='vertical-align:center; align:center' src=img/fixation3.jpg></div></div>","null","","","","","","",""
"html-keyboard-response","83","96702","0.0-5.0-2.26","62951043176ada9a9de2faa4","bdp_td","Sun Mar 26 2023 20:11:49 GMT-0600 (Mountain Daylight Time)","97967","","3334","","","","offer","","<div class='trialBorder'><div class='vertical-center'><img style='vertical-align:center; align:center' src=img/fixation3.jpg></div><div class='cl'><div class='vertical-center'>$25<br>in<br>6 weeks</div></div><div class='cr'><div class='vertical-center'>$19<br><br>now</div></div><div class='respDivL'><div class='vertical-center'>(E)</div></div><div class='respDivR'><div class='vertical-center'>(I)</div></div></div>","E","$19<br><br>now","$25<br>in<br>6 weeks","1","19","25","6","THEN"
"html-keyboard-response","84","96959","0.0-5.0-3.26","62951043176ada9a9de2faa4","bdp_td","Sun Mar 26 2023 20:11:49 GMT-0600 (Mountain Daylight Time)","97967","","null","","","","offerFB","","<div class='trialBorder'><div class='vertical-center'><img style='vertical-align:center; align:center' src=img/fixation3.jpg></div><div class='cl'><div class='vertical-center'><font style='color:orange'>$25<br>in<br>6 weeks</font></div></div><div class='cr'><div class='vertical-center'>$19<br><br>now</div></div><div class='respDivL'><div class='vertical-center'><font style='color:orange'>(E)</font></div></div><div class='respDivR'><div class='vertical-center'>(I)</div></div></div>","null","$19<br><br>now","$25<br>in<br>6 weeks","1","19","25","6",""
"","","","","62951043176ada9a9de2faa4","bdp_td","Sun Mar 26 2023 20:11:49 GMT-0600 (Mountain Daylight Time)","97967","","","fullscreenexit","85","96997","fullscreenexit","","","","","","","","","",""
"fullscreen","85","97967","0.0-6.0","62951043176ada9a9de2faa4","bdp_td","Sun Mar 26 2023 20:11:49 GMT-0600 (Mountain Daylight Time)","97967","","","","","","","true","","","","","","","","",""
"html-keyboard-response","86","98471","0.0-7.0","","","","","","null","","","","","","","null","","","","","","",""
