"trial_type","trial_index","time_elapsed","internal_node_id","subject_id","task","startTime","totalTime","view_history","rt","event","trial","time","trialtype","success","stimulus","key_press","nowOffer","thenOffer","thenLeft","nowAmt","thenAmt","thenWeeks","chosen"
"pavlovia","0","2","0.0-0.0","63f0fb9941434d10e8e4909b","bdp_td","Mon Apr 10 2023 07:00:51 GMT-0400 (Eastern Daylight Time)","176090","","","","","","","","","","","","","","","",""
"instructions","1","2861","0.0-1.0","63f0fb9941434d10e8e4909b","bdp_td","Mon Apr 10 2023 07:00:51 GMT-0400 (Eastern Daylight Time)","176090","[{""page_index"":0,""viewing_time"":2859}]","2859","","","","","","","","","","","","","",""
"","","","","63f0fb9941434d10e8e4909b","bdp_td","Mon Apr 10 2023 07:00:51 GMT-0400 (Eastern Daylight Time)","176090","","","fullscreenenter","2","6692","fullscreenenter","","","","","","","","","",""
"fullscreen","2","7608","0.0-2.0","63f0fb9941434d10e8e4909b","bdp_td","Mon Apr 10 2023 07:00:51 GMT-0400 (Eastern Daylight Time)","176090","","","","","","","true","","","","","","","","",""
"instructions","3","46181","0.0-4.0","63f0fb9941434d10e8e4909b","bdp_td","Mon Apr 10 2023 07:00:51 GMT-0400 (Eastern Daylight Time)","176090","[{""page_index"":0,""viewing_time"":11061},{""page_index"":1,""viewing_time"":22159},{""page_index"":2,""viewing_time"":5352}]","38573","","","","","","","","","","","","","",""
"html-keyboard-response","4","46682","0.0-5.0-1.0","63f0fb9941434d10e8e4909b","bdp_td","Mon Apr 10 2023 07:00:51 GMT-0400 (Eastern Daylight Time)","176090","","null","","","","FIX","","<div class='trialBorder'><div class='vertical-center'><img style='vertical-align:center; align:center' src=img/fixation3.jpg></div></div>","null","","","","","","",""
"html-keyboard-response","5","49613","0.0-5.0-2.0","63f0fb9941434d10e8e4909b","bdp_td","Mon Apr 10 2023 07:00:51 GMT-0400 (Eastern Daylight Time)","176090","","2929","","","","offer","","<div class='trialBorder'><div class='vertical-center'><img style='vertical-align:center; align:center' src=img/fixation3.jpg></div><div class='cl'><div class='vertical-center'>$55<br>in<br>1 week</div></div><div class='cr'><div class='vertical-center'>$20<br><br>now</div></div><div class='respDivL'><div class='vertical-center'>(E)</div></div><div class='respDivR'><div class='vertical-center'>(I)</div></div></div>","E","$20<br><br>now","$55<br>in<br>1 week","1","20","55","1","THEN"
"html-keyboard-response","6","49865","0.0-5.0-3.0","63f0fb9941434d10e8e4909b","bdp_td","Mon Apr 10 2023 07:00:51 GMT-0400 (Eastern Daylight Time)","176090","","null","","","","offerFB","","<div class='trialBorder'><div class='vertical-center'><img style='vertical-align:center; align:center' src=img/fixation3.jpg></div><div class='cl'><div class='vertical-center'><font style='color:orange'>$55<br>in<br>1 week</font></div></div><div class='cr'><div class='vertical-center'>$20<br><br>now</div></div><div class='respDivL'><div class='vertical-center'><font style='color:orange'>(E)</font></div></div><div class='respDivR'><div class='vertical-center'>(I)</div></div></div>","null","$20<br><br>now","$55<br>in<br>1 week","1","20","55","1",""
"html-keyboard-response","7","50366","0.0-5.0-1.1","63f0fb9941434d10e8e4909b","bdp_td","Mon Apr 10 2023 07:00:51 GMT-0400 (Eastern Daylight Time)","176090","","null","","","","FIX","","<div class='trialBorder'><div class='vertical-center'><img style='vertical-align:center; align:center' src=img/fixation3.jpg></div></div>","null","","","","","","",""
"html-keyboard-response","8","53460","0.0-5.0-2.1","63f0fb9941434d10e8e4909b","bdp_td","Mon Apr 10 2023 07:00:51 GMT-0400 (Eastern Daylight Time)","176090","","3093","","","","offer","","<div class='trialBorder'><div class='vertical-center'><img style='vertical-align:center; align:center' src=img/fixation3.jpg></div><div class='cl'><div class='vertical-center'>$75<br>in<br>12 weeks</div></div><div class='cr'><div class='vertical-center'>$67<br><br>now</div></div><div class='respDivL'><div class='vertical-center'>(E)</div></div><div class='respDivR'><div class='vertical-center'>(I)</div></div></div>","I","$67<br><br>now","$75<br>in<br>12 weeks","1","67","75","12","NOW"
"html-keyboard-response","9","53712","0.0-5.0-3.1","63f0fb9941434d10e8e4909b","bdp_td","Mon Apr 10 2023 07:00:51 GMT-0400 (Eastern Daylight Time)","176090","","null","","","","offerFB","","<div class='trialBorder'><div class='vertical-center'><img style='vertical-align:center; align:center' src=img/fixation3.jpg></div><div class='cl'><div class='vertical-center'>$75<br>in<br>12 weeks</div></div><div class='cr'><div class='vertical-center'><font style='color:orange'>$67<br><br>now</font></div></div><div class='respDivL'><div class='vertical-center'>(E)</div></div><div class='respDivR'><div class='vertical-center'><font style='color:orange'>(I)</font></div></div></div>","null","$67<br><br>now","$75<br>in<br>12 weeks","1","67","75","12",""
"html-keyboard-response","10","54213","0.0-5.0-1.2","63f0fb9941434d10e8e4909b","bdp_td","Mon Apr 10 2023 07:00:51 GMT-0400 (Eastern Daylight Time)","176090","","null","","","","FIX","","<div class='trialBorder'><div class='vertical-center'><img style='vertical-align:center; align:center' src=img/fixation3.jpg></div></div>","null","","","","","","",""
"html-keyboard-response","11","58324","0.0-5.0-2.2","63f0fb9941434d10e8e4909b","bdp_td","Mon Apr 10 2023 07:00:51 GMT-0400 (Eastern Daylight Time)","176090","","4111","","","","offer","","<div class='trialBorder'><div class='vertical-center'><img style='vertical-align:center; align:center' src=img/fixation3.jpg></div><div class='cl'><div class='vertical-center'>$49<br><br>now</div></div><div class='cr'><div class='vertical-center'>$60<br>in<br>6 weeks</div></div><div class='respDivL'><div class='vertical-center'>(E)</div></div><div class='respDivR'><div class='vertical-center'>(I)</div></div></div>","E","$49<br><br>now","$60<br>in<br>6 weeks","0","49","60","6","NOW"
"html-keyboard-response","12","58577","0.0-5.0-3.2","63f0fb9941434d10e8e4909b","bdp_td","Mon Apr 10 2023 07:00:51 GMT-0400 (Eastern Daylight Time)","176090","","null","","","","offerFB","","<div class='trialBorder'><div class='vertical-center'><img style='vertical-align:center; align:center' src=img/fixation3.jpg></div><div class='cl'><div class='vertical-center'><font style='color:orange'>$49<br><br>now</font></div></div><div class='cr'><div class='vertical-center'>$60<br>in<br>6 weeks</div></div><div class='respDivL'><div class='vertical-center'><font style='color:orange'>(E)</font></div></div><div class='respDivR'><div class='vertical-center'>(I)</div></div></div>","null","$49<br><br>now","$60<br>in<br>6 weeks","0","49","60","6",""
"html-keyboard-response","13","59077","0.0-5.0-1.3","63f0fb9941434d10e8e4909b","bdp_td","Mon Apr 10 2023 07:00:51 GMT-0400 (Eastern Daylight Time)","176090","","null","","","","FIX","","<div class='trialBorder'><div class='vertical-center'><img style='vertical-align:center; align:center' src=img/fixation3.jpg></div></div>","null","","","","","","",""
"html-keyboard-response","14","61245","0.0-5.0-2.3","63f0fb9941434d10e8e4909b","bdp_td","Mon Apr 10 2023 07:00:51 GMT-0400 (Eastern Daylight Time)","176090","","2166","","","","offer","","<div class='trialBorder'><div class='vertical-center'><img style='vertical-align:center; align:center' src=img/fixation3.jpg></div><div class='cl'><div class='vertical-center'>$22<br><br>now</div></div><div class='cr'><div class='vertical-center'>$25<br>in<br>12 weeks</div></div><div class='respDivL'><div class='vertical-center'>(E)</div></div><div class='respDivR'><div class='vertical-center'>(I)</div></div></div>","E","$22<br><br>now","$25<br>in<br>12 weeks","0","22","25","12","NOW"
"html-keyboard-response","15","61497","0.0-5.0-3.3","63f0fb9941434d10e8e4909b","bdp_td","Mon Apr 10 2023 07:00:51 GMT-0400 (Eastern Daylight Time)","176090","","null","","","","offerFB","","<div class='trialBorder'><div class='vertical-center'><img style='vertical-align:center; align:center' src=img/fixation3.jpg></div><div class='cl'><div class='vertical-center'><font style='color:orange'>$22<br><br>now</font></div></div><div class='cr'><div class='vertical-center'>$25<br>in<br>12 weeks</div></div><div class='respDivL'><div class='vertical-center'><font style='color:orange'>(E)</font></div></div><div class='respDivR'><div class='vertical-center'>(I)</div></div></div>","null","$22<br><br>now","$25<br>in<br>12 weeks","0","22","25","12",""
"html-keyboard-response","16","61999","0.0-5.0-1.4","63f0fb9941434d10e8e4909b","bdp_td","Mon Apr 10 2023 07:00:51 GMT-0400 (Eastern Daylight Time)","176090","","null","","","","FIX","","<div class='trialBorder'><div class='vertical-center'><img style='vertical-align:center; align:center' src=img/fixation3.jpg></div></div>","null","","","","","","",""
"html-keyboard-response","17","67260","0.0-5.0-2.4","63f0fb9941434d10e8e4909b","bdp_td","Mon Apr 10 2023 07:00:51 GMT-0400 (Eastern Daylight Time)","176090","","5260","","","","offer","","<div class='trialBorder'><div class='vertical-center'><img style='vertical-align:center; align:center' src=img/fixation3.jpg></div><div class='cl'><div class='vertical-center'>$55<br>in<br>6 weeks</div></div><div class='cr'><div class='vertical-center'>$40<br><br>now</div></div><div class='respDivL'><div class='vertical-center'>(E)</div></div><div class='respDivR'><div class='vertical-center'>(I)</div></div></div>","I","$40<br><br>now","$55<br>in<br>6 weeks","1","40","55","6","NOW"
"html-keyboard-response","18","67511","0.0-5.0-3.4","63f0fb9941434d10e8e4909b","bdp_td","Mon Apr 10 2023 07:00:51 GMT-0400 (Eastern Daylight Time)","176090","","null","","","","offerFB","","<div class='trialBorder'><div class='vertical-center'><img style='vertical-align:center; align:center' src=img/fixation3.jpg></div><div class='cl'><div class='vertical-center'>$55<br>in<br>6 weeks</div></div><div class='cr'><div class='vertical-center'><font style='color:orange'>$40<br><br>now</font></div></div><div class='respDivL'><div class='vertical-center'>(E)</div></div><div class='respDivR'><div class='vertical-center'><font style='color:orange'>(I)</font></div></div></div>","null","$40<br><br>now","$55<br>in<br>6 weeks","1","40","55","6",""
"html-keyboard-response","19","68012","0.0-5.0-1.5","63f0fb9941434d10e8e4909b","bdp_td","Mon Apr 10 2023 07:00:51 GMT-0400 (Eastern Daylight Time)","176090","","null","","","","FIX","","<div class='trialBorder'><div class='vertical-center'><img style='vertical-align:center; align:center' src=img/fixation3.jpg></div></div>","null","","","","","","",""
"html-keyboard-response","20","73173","0.0-5.0-2.5","63f0fb9941434d10e8e4909b","bdp_td","Mon Apr 10 2023 07:00:51 GMT-0400 (Eastern Daylight Time)","176090","","5159","","","","offer","","<div class='trialBorder'><div class='vertical-center'><img style='vertical-align:center; align:center' src=img/fixation3.jpg></div><div class='cl'><div class='vertical-center'>$30<br>in<br>2 weeks</div></div><div class='cr'><div class='vertical-center'>$11<br><br>now</div></div><div class='respDivL'><div class='vertical-center'>(E)</div></div><div class='respDivR'><div class='vertical-center'>(I)</div></div></div>","E","$11<br><br>now","$30<br>in<br>2 weeks","1","11","30","2","THEN"
"html-keyboard-response","21","73424","0.0-5.0-3.5","63f0fb9941434d10e8e4909b","bdp_td","Mon Apr 10 2023 07:00:51 GMT-0400 (Eastern Daylight Time)","176090","","null","","","","offerFB","","<div class='trialBorder'><div class='vertical-center'><img style='vertical-align:center; align:center' src=img/fixation3.jpg></div><div class='cl'><div class='vertical-center'><font style='color:orange'>$30<br>in<br>2 weeks</font></div></div><div class='cr'><div class='vertical-center'>$11<br><br>now</div></div><div class='respDivL'><div class='vertical-center'><font style='color:orange'>(E)</font></div></div><div class='respDivR'><div class='vertical-center'>(I)</div></div></div>","null","$11<br><br>now","$30<br>in<br>2 weeks","1","11","30","2",""
"html-keyboard-response","22","73925","0.0-5.0-1.6","63f0fb9941434d10e8e4909b","bdp_td","Mon Apr 10 2023 07:00:51 GMT-0400 (Eastern Daylight Time)","176090","","null","","","","FIX","","<div class='trialBorder'><div class='vertical-center'><img style='vertical-align:center; align:center' src=img/fixation3.jpg></div></div>","null","","","","","","",""
"html-keyboard-response","23","76652","0.0-5.0-2.6","63f0fb9941434d10e8e4909b","bdp_td","Mon Apr 10 2023 07:00:51 GMT-0400 (Eastern Daylight Time)","176090","","2726","","","","offer","","<div class='trialBorder'><div class='vertical-center'><img style='vertical-align:center; align:center' src=img/fixation3.jpg></div><div class='cl'><div class='vertical-center'>$47<br><br>now</div></div><div class='cr'><div class='vertical-center'>$50<br>in<br>12 weeks</div></div><div class='respDivL'><div class='vertical-center'>(E)</div></div><div class='respDivR'><div class='vertical-center'>(I)</div></div></div>","E","$47<br><br>now","$50<br>in<br>12 weeks","0","47","50","12","NOW"
"html-keyboard-response","24","76905","0.0-5.0-3.6","63f0fb9941434d10e8e4909b","bdp_td","Mon Apr 10 2023 07:00:51 GMT-0400 (Eastern Daylight Time)","176090","","null","","","","offerFB","","<div class='trialBorder'><div class='vertical-center'><img style='vertical-align:center; align:center' src=img/fixation3.jpg></div><div class='cl'><div class='vertical-center'><font style='color:orange'>$47<br><br>now</font></div></div><div class='cr'><div class='vertical-center'>$50<br>in<br>12 weeks</div></div><div class='respDivL'><div class='vertical-center'><font style='color:orange'>(E)</font></div></div><div class='respDivR'><div class='vertical-center'>(I)</div></div></div>","null","$47<br><br>now","$50<br>in<br>12 weeks","0","47","50","12",""
"html-keyboard-response","25","77406","0.0-5.0-1.7","63f0fb9941434d10e8e4909b","bdp_td","Mon Apr 10 2023 07:00:51 GMT-0400 (Eastern Daylight Time)","176090","","null","","","","FIX","","<div class='trialBorder'><div class='vertical-center'><img style='vertical-align:center; align:center' src=img/fixation3.jpg></div></div>","null","","","","","","",""
"html-keyboard-response","26","90165","0.0-5.0-2.7","63f0fb9941434d10e8e4909b","bdp_td","Mon Apr 10 2023 07:00:51 GMT-0400 (Eastern Daylight Time)","176090","","12758","","","","offer","","<div class='trialBorder'><div class='vertical-center'><img style='vertical-align:center; align:center' src=img/fixation3.jpg></div><div class='cl'><div class='vertical-center'>$14<br><br>now</div></div><div class='cr'><div class='vertical-center'>$25<br>in<br>3 weeks</div></div><div class='respDivL'><div class='vertical-center'>(E)</div></div><div class='respDivR'><div class='vertical-center'>(I)</div></div></div>","E","$14<br><br>now","$25<br>in<br>3 weeks","0","14","25","3","NOW"
"html-keyboard-response","27","90416","0.0-5.0-3.7","63f0fb9941434d10e8e4909b","bdp_td","Mon Apr 10 2023 07:00:51 GMT-0400 (Eastern Daylight Time)","176090","","null","","","","offerFB","","<div class='trialBorder'><div class='vertical-center'><img style='vertical-align:center; align:center' src=img/fixation3.jpg></div><div class='cl'><div class='vertical-center'><font style='color:orange'>$14<br><br>now</font></div></div><div class='cr'><div class='vertical-center'>$25<br>in<br>3 weeks</div></div><div class='respDivL'><div class='vertical-center'><font style='color:orange'>(E)</font></div></div><div class='respDivR'><div class='vertical-center'>(I)</div></div></div>","null","$14<br><br>now","$25<br>in<br>3 weeks","0","14","25","3",""
"html-keyboard-response","28","90918","0.0-5.0-1.8","63f0fb9941434d10e8e4909b","bdp_td","Mon Apr 10 2023 07:00:51 GMT-0400 (Eastern Daylight Time)","176090","","null","","","","FIX","","<div class='trialBorder'><div class='vertical-center'><img style='vertical-align:center; align:center' src=img/fixation3.jpg></div></div>","null","","","","","","",""
"html-keyboard-response","29","93572","0.0-5.0-2.8","63f0fb9941434d10e8e4909b","bdp_td","Mon Apr 10 2023 07:00:51 GMT-0400 (Eastern Daylight Time)","176090","","2654","","","","offer","","<div class='trialBorder'><div class='vertical-center'><img style='vertical-align:center; align:center' src=img/fixation3.jpg></div><div class='cl'><div class='vertical-center'>$25<br><br>now</div></div><div class='cr'><div class='vertical-center'>$30<br>in<br>6 weeks</div></div><div class='respDivL'><div class='vertical-center'>(E)</div></div><div class='respDivR'><div class='vertical-center'>(I)</div></div></div>","E","$25<br><br>now","$30<br>in<br>6 weeks","0","25","30","6","NOW"
"html-keyboard-response","30","93823","0.0-5.0-3.8","63f0fb9941434d10e8e4909b","bdp_td","Mon Apr 10 2023 07:00:51 GMT-0400 (Eastern Daylight Time)","176090","","null","","","","offerFB","","<div class='trialBorder'><div class='vertical-center'><img style='vertical-align:center; align:center' src=img/fixation3.jpg></div><div class='cl'><div class='vertical-center'><font style='color:orange'>$25<br><br>now</font></div></div><div class='cr'><div class='vertical-center'>$30<br>in<br>6 weeks</div></div><div class='respDivL'><div class='vertical-center'><font style='color:orange'>(E)</font></div></div><div class='respDivR'><div class='vertical-center'>(I)</div></div></div>","null","$25<br><br>now","$30<br>in<br>6 weeks","0","25","30","6",""
"html-keyboard-response","31","94325","0.0-5.0-1.9","63f0fb9941434d10e8e4909b","bdp_td","Mon Apr 10 2023 07:00:51 GMT-0400 (Eastern Daylight Time)","176090","","null","","","","FIX","","<div class='trialBorder'><div class='vertical-center'><img style='vertical-align:center; align:center' src=img/fixation3.jpg></div></div>","null","","","","","","",""
"html-keyboard-response","32","96676","0.0-5.0-2.9","63f0fb9941434d10e8e4909b","bdp_td","Mon Apr 10 2023 07:00:51 GMT-0400 (Eastern Daylight Time)","176090","","2350","","","","offer","","<div class='trialBorder'><div class='vertical-center'><img style='vertical-align:center; align:center' src=img/fixation3.jpg></div><div class='cl'><div class='vertical-center'>$19<br><br>now</div></div><div class='cr'><div class='vertical-center'>$25<br>in<br>6 weeks</div></div><div class='respDivL'><div class='vertical-center'>(E)</div></div><div class='respDivR'><div class='vertical-center'>(I)</div></div></div>","E","$19<br><br>now","$25<br>in<br>6 weeks","0","19","25","6","NOW"
"html-keyboard-response","33","96928","0.0-5.0-3.9","63f0fb9941434d10e8e4909b","bdp_td","Mon Apr 10 2023 07:00:51 GMT-0400 (Eastern Daylight Time)","176090","","null","","","","offerFB","","<div class='trialBorder'><div class='vertical-center'><img style='vertical-align:center; align:center' src=img/fixation3.jpg></div><div class='cl'><div class='vertical-center'><font style='color:orange'>$19<br><br>now</font></div></div><div class='cr'><div class='vertical-center'>$25<br>in<br>6 weeks</div></div><div class='respDivL'><div class='vertical-center'><font style='color:orange'>(E)</font></div></div><div class='respDivR'><div class='vertical-center'>(I)</div></div></div>","null","$19<br><br>now","$25<br>in<br>6 weeks","0","19","25","6",""
"html-keyboard-response","34","97429","0.0-5.0-1.10","63f0fb9941434d10e8e4909b","bdp_td","Mon Apr 10 2023 07:00:51 GMT-0400 (Eastern Daylight Time)","176090","","null","","","","FIX","","<div class='trialBorder'><div class='vertical-center'><img style='vertical-align:center; align:center' src=img/fixation3.jpg></div></div>","null","","","","","","",""
"html-keyboard-response","35","100796","0.0-5.0-2.10","63f0fb9941434d10e8e4909b","bdp_td","Mon Apr 10 2023 07:00:51 GMT-0400 (Eastern Daylight Time)","176090","","3366","","","","offer","","<div class='trialBorder'><div class='vertical-center'><img style='vertical-align:center; align:center' src=img/fixation3.jpg></div><div class='cl'><div class='vertical-center'>$60<br>in<br>3 weeks</div></div><div class='cr'><div class='vertical-center'>$25<br><br>now</div></div><div class='respDivL'><div class='vertical-center'>(E)</div></div><div class='respDivR'><div class='vertical-center'>(I)</div></div></div>","E","$25<br><br>now","$60<br>in<br>3 weeks","1","25","60","3","THEN"
"html-keyboard-response","36","101048","0.0-5.0-3.10","63f0fb9941434d10e8e4909b","bdp_td","Mon Apr 10 2023 07:00:51 GMT-0400 (Eastern Daylight Time)","176090","","null","","","","offerFB","","<div class='trialBorder'><div class='vertical-center'><img style='vertical-align:center; align:center' src=img/fixation3.jpg></div><div class='cl'><div class='vertical-center'><font style='color:orange'>$60<br>in<br>3 weeks</font></div></div><div class='cr'><div class='vertical-center'>$25<br><br>now</div></div><div class='respDivL'><div class='vertical-center'><font style='color:orange'>(E)</font></div></div><div class='respDivR'><div class='vertical-center'>(I)</div></div></div>","null","$25<br><br>now","$60<br>in<br>3 weeks","1","25","60","3",""
"html-keyboard-response","37","101550","0.0-5.0-1.11","63f0fb9941434d10e8e4909b","bdp_td","Mon Apr 10 2023 07:00:51 GMT-0400 (Eastern Daylight Time)","176090","","null","","","","FIX","","<div class='trialBorder'><div class='vertical-center'><img style='vertical-align:center; align:center' src=img/fixation3.jpg></div></div>","null","","","","","","",""
"html-keyboard-response","38","104580","0.0-5.0-2.11","63f0fb9941434d10e8e4909b","bdp_td","Mon Apr 10 2023 07:00:51 GMT-0400 (Eastern Daylight Time)","176090","","3030","","","","offer","","<div class='trialBorder'><div class='vertical-center'><img style='vertical-align:center; align:center' src=img/fixation3.jpg></div><div class='cl'><div class='vertical-center'>$80<br>in<br>12 weeks</div></div><div class='cr'><div class='vertical-center'>$78<br><br>now</div></div><div class='respDivL'><div class='vertical-center'>(E)</div></div><div class='respDivR'><div class='vertical-center'>(I)</div></div></div>","I","$78<br><br>now","$80<br>in<br>12 weeks","1","78","80","12","NOW"
"html-keyboard-response","39","104833","0.0-5.0-3.11","63f0fb9941434d10e8e4909b","bdp_td","Mon Apr 10 2023 07:00:51 GMT-0400 (Eastern Daylight Time)","176090","","null","","","","offerFB","","<div class='trialBorder'><div class='vertical-center'><img style='vertical-align:center; align:center' src=img/fixation3.jpg></div><div class='cl'><div class='vertical-center'>$80<br>in<br>12 weeks</div></div><div class='cr'><div class='vertical-center'><font style='color:orange'>$78<br><br>now</font></div></div><div class='respDivL'><div class='vertical-center'>(E)</div></div><div class='respDivR'><div class='vertical-center'><font style='color:orange'>(I)</font></div></div></div>","null","$78<br><br>now","$80<br>in<br>12 weeks","1","78","80","12",""
"html-keyboard-response","40","105335","0.0-5.0-1.12","63f0fb9941434d10e8e4909b","bdp_td","Mon Apr 10 2023 07:00:51 GMT-0400 (Eastern Daylight Time)","176090","","null","","","","FIX","","<div class='trialBorder'><div class='vertical-center'><img style='vertical-align:center; align:center' src=img/fixation3.jpg></div></div>","null","","","","","","",""
"html-keyboard-response","41","108660","0.0-5.0-2.12","63f0fb9941434d10e8e4909b","bdp_td","Mon Apr 10 2023 07:00:51 GMT-0400 (Eastern Daylight Time)","176090","","3325","","","","offer","","<div class='trialBorder'><div class='vertical-center'><img style='vertical-align:center; align:center' src=img/fixation3.jpg></div><div class='cl'><div class='vertical-center'>$24<br><br>now</div></div><div class='cr'><div class='vertical-center'>$35<br>in<br>3 weeks</div></div><div class='respDivL'><div class='vertical-center'>(E)</div></div><div class='respDivR'><div class='vertical-center'>(I)</div></div></div>","E","$24<br><br>now","$35<br>in<br>3 weeks","0","24","35","3","NOW"
"html-keyboard-response","42","108912","0.0-5.0-3.12","63f0fb9941434d10e8e4909b","bdp_td","Mon Apr 10 2023 07:00:51 GMT-0400 (Eastern Daylight Time)","176090","","null","","","","offerFB","","<div class='trialBorder'><div class='vertical-center'><img style='vertical-align:center; align:center' src=img/fixation3.jpg></div><div class='cl'><div class='vertical-center'><font style='color:orange'>$24<br><br>now</font></div></div><div class='cr'><div class='vertical-center'>$35<br>in<br>3 weeks</div></div><div class='respDivL'><div class='vertical-center'><font style='color:orange'>(E)</font></div></div><div class='respDivR'><div class='vertical-center'>(I)</div></div></div>","null","$24<br><br>now","$35<br>in<br>3 weeks","0","24","35","3",""
"html-keyboard-response","43","109413","0.0-5.0-1.13","63f0fb9941434d10e8e4909b","bdp_td","Mon Apr 10 2023 07:00:51 GMT-0400 (Eastern Daylight Time)","176090","","null","","","","FIX","","<div class='trialBorder'><div class='vertical-center'><img style='vertical-align:center; align:center' src=img/fixation3.jpg></div></div>","null","","","","","","",""
"html-keyboard-response","44","113076","0.0-5.0-2.13","63f0fb9941434d10e8e4909b","bdp_td","Mon Apr 10 2023 07:00:51 GMT-0400 (Eastern Daylight Time)","176090","","3663","","","","offer","","<div class='trialBorder'><div class='vertical-center'><img style='vertical-align:center; align:center' src=img/fixation3.jpg></div><div class='cl'><div class='vertical-center'>$80<br>in<br>2 weeks</div></div><div class='cr'><div class='vertical-center'>$33<br><br>now</div></div><div class='respDivL'><div class='vertical-center'>(E)</div></div><div class='respDivR'><div class='vertical-center'>(I)</div></div></div>","E","$33<br><br>now","$80<br>in<br>2 weeks","1","33","80","2","THEN"
"html-keyboard-response","45","113328","0.0-5.0-3.13","63f0fb9941434d10e8e4909b","bdp_td","Mon Apr 10 2023 07:00:51 GMT-0400 (Eastern Daylight Time)","176090","","null","","","","offerFB","","<div class='trialBorder'><div class='vertical-center'><img style='vertical-align:center; align:center' src=img/fixation3.jpg></div><div class='cl'><div class='vertical-center'><font style='color:orange'>$80<br>in<br>2 weeks</font></div></div><div class='cr'><div class='vertical-center'>$33<br><br>now</div></div><div class='respDivL'><div class='vertical-center'><font style='color:orange'>(E)</font></div></div><div class='respDivR'><div class='vertical-center'>(I)</div></div></div>","null","$33<br><br>now","$80<br>in<br>2 weeks","1","33","80","2",""
"html-keyboard-response","46","113829","0.0-5.0-1.14","63f0fb9941434d10e8e4909b","bdp_td","Mon Apr 10 2023 07:00:51 GMT-0400 (Eastern Daylight Time)","176090","","null","","","","FIX","","<div class='trialBorder'><div class='vertical-center'><img style='vertical-align:center; align:center' src=img/fixation3.jpg></div></div>","null","","","","","","",""
"html-keyboard-response","47","120148","0.0-5.0-2.14","63f0fb9941434d10e8e4909b","bdp_td","Mon Apr 10 2023 07:00:51 GMT-0400 (Eastern Daylight Time)","176090","","6317","","","","offer","","<div class='trialBorder'><div class='vertical-center'><img style='vertical-align:center; align:center' src=img/fixation3.jpg></div><div class='cl'><div class='vertical-center'>$50<br>in<br>6 weeks</div></div><div class='cr'><div class='vertical-center'>$34<br><br>now</div></div><div class='respDivL'><div class='vertical-center'>(E)</div></div><div class='respDivR'><div class='vertical-center'>(I)</div></div></div>","I","$34<br><br>now","$50<br>in<br>6 weeks","1","34","50","6","NOW"
"html-keyboard-response","48","120400","0.0-5.0-3.14","63f0fb9941434d10e8e4909b","bdp_td","Mon Apr 10 2023 07:00:51 GMT-0400 (Eastern Daylight Time)","176090","","null","","","","offerFB","","<div class='trialBorder'><div class='vertical-center'><img style='vertical-align:center; align:center' src=img/fixation3.jpg></div><div class='cl'><div class='vertical-center'>$50<br>in<br>6 weeks</div></div><div class='cr'><div class='vertical-center'><font style='color:orange'>$34<br><br>now</font></div></div><div class='respDivL'><div class='vertical-center'>(E)</div></div><div class='respDivR'><div class='vertical-center'><font style='color:orange'>(I)</font></div></div></div>","null","$34<br><br>now","$50<br>in<br>6 weeks","1","34","50","6",""
"html-keyboard-response","49","120901","0.0-5.0-1.15","63f0fb9941434d10e8e4909b","bdp_td","Mon Apr 10 2023 07:00:51 GMT-0400 (Eastern Daylight Time)","176090","","null","","","","FIX","","<div class='trialBorder'><div class='vertical-center'><img style='vertical-align:center; align:center' src=img/fixation3.jpg></div></div>","null","","","","","","",""
"html-keyboard-response","50","122732","0.0-5.0-2.15","63f0fb9941434d10e8e4909b","bdp_td","Mon Apr 10 2023 07:00:51 GMT-0400 (Eastern Daylight Time)","176090","","1829","","","","offer","","<div class='trialBorder'><div class='vertical-center'><img style='vertical-align:center; align:center' src=img/fixation3.jpg></div><div class='cl'><div class='vertical-center'>$54<br><br>now</div></div><div class='cr'><div class='vertical-center'>$55<br>in<br>12 weeks</div></div><div class='respDivL'><div class='vertical-center'>(E)</div></div><div class='respDivR'><div class='vertical-center'>(I)</div></div></div>","E","$54<br><br>now","$55<br>in<br>12 weeks","0","54","55","12","NOW"
"html-keyboard-response","51","122983","0.0-5.0-3.15","63f0fb9941434d10e8e4909b","bdp_td","Mon Apr 10 2023 07:00:51 GMT-0400 (Eastern Daylight Time)","176090","","null","","","","offerFB","","<div class='trialBorder'><div class='vertical-center'><img style='vertical-align:center; align:center' src=img/fixation3.jpg></div><div class='cl'><div class='vertical-center'><font style='color:orange'>$54<br><br>now</font></div></div><div class='cr'><div class='vertical-center'>$55<br>in<br>12 weeks</div></div><div class='respDivL'><div class='vertical-center'><font style='color:orange'>(E)</font></div></div><div class='respDivR'><div class='vertical-center'>(I)</div></div></div>","null","$54<br><br>now","$55<br>in<br>12 weeks","0","54","55","12",""
"html-keyboard-response","52","123485","0.0-5.0-1.16","63f0fb9941434d10e8e4909b","bdp_td","Mon Apr 10 2023 07:00:51 GMT-0400 (Eastern Daylight Time)","176090","","null","","","","FIX","","<div class='trialBorder'><div class='vertical-center'><img style='vertical-align:center; align:center' src=img/fixation3.jpg></div></div>","null","","","","","","",""
"html-keyboard-response","53","125556","0.0-5.0-2.16","63f0fb9941434d10e8e4909b","bdp_td","Mon Apr 10 2023 07:00:51 GMT-0400 (Eastern Daylight Time)","176090","","2071","","","","offer","","<div class='trialBorder'><div class='vertical-center'><img style='vertical-align:center; align:center' src=img/fixation3.jpg></div><div class='cl'><div class='vertical-center'>$41<br><br>now</div></div><div class='cr'><div class='vertical-center'>$75<br>in<br>3 weeks</div></div><div class='respDivL'><div class='vertical-center'>(E)</div></div><div class='respDivR'><div class='vertical-center'>(I)</div></div></div>","I","$41<br><br>now","$75<br>in<br>3 weeks","0","41","75","3","THEN"
"html-keyboard-response","54","125808","0.0-5.0-3.16","63f0fb9941434d10e8e4909b","bdp_td","Mon Apr 10 2023 07:00:51 GMT-0400 (Eastern Daylight Time)","176090","","null","","","","offerFB","","<div class='trialBorder'><div class='vertical-center'><img style='vertical-align:center; align:center' src=img/fixation3.jpg></div><div class='cl'><div class='vertical-center'>$41<br><br>now</div></div><div class='cr'><div class='vertical-center'><font style='color:orange'>$75<br>in<br>3 weeks</font></div></div><div class='respDivL'><div class='vertical-center'>(E)</div></div><div class='respDivR'><div class='vertical-center'><font style='color:orange'>(I)</font></div></div></div>","null","$41<br><br>now","$75<br>in<br>3 weeks","0","41","75","3",""
"html-keyboard-response","55","126309","0.0-5.0-1.17","63f0fb9941434d10e8e4909b","bdp_td","Mon Apr 10 2023 07:00:51 GMT-0400 (Eastern Daylight Time)","176090","","null","","","","FIX","","<div class='trialBorder'><div class='vertical-center'><img style='vertical-align:center; align:center' src=img/fixation3.jpg></div></div>","null","","","","","","",""
"html-keyboard-response","56","128260","0.0-5.0-2.17","63f0fb9941434d10e8e4909b","bdp_td","Mon Apr 10 2023 07:00:51 GMT-0400 (Eastern Daylight Time)","176090","","1949","","","","offer","","<div class='trialBorder'><div class='vertical-center'><img style='vertical-align:center; align:center' src=img/fixation3.jpg></div><div class='cl'><div class='vertical-center'>$80<br><br>now</div></div><div class='cr'><div class='vertical-center'>$85<br>in<br>12 weeks</div></div><div class='respDivL'><div class='vertical-center'>(E)</div></div><div class='respDivR'><div class='vertical-center'>(I)</div></div></div>","E","$80<br><br>now","$85<br>in<br>12 weeks","0","80","85","12","NOW"
"html-keyboard-response","57","128512","0.0-5.0-3.17","63f0fb9941434d10e8e4909b","bdp_td","Mon Apr 10 2023 07:00:51 GMT-0400 (Eastern Daylight Time)","176090","","null","","","","offerFB","","<div class='trialBorder'><div class='vertical-center'><img style='vertical-align:center; align:center' src=img/fixation3.jpg></div><div class='cl'><div class='vertical-center'><font style='color:orange'>$80<br><br>now</font></div></div><div class='cr'><div class='vertical-center'>$85<br>in<br>12 weeks</div></div><div class='respDivL'><div class='vertical-center'><font style='color:orange'>(E)</font></div></div><div class='respDivR'><div class='vertical-center'>(I)</div></div></div>","null","$80<br><br>now","$85<br>in<br>12 weeks","0","80","85","12",""
"html-keyboard-response","58","129012","0.0-5.0-1.18","63f0fb9941434d10e8e4909b","bdp_td","Mon Apr 10 2023 07:00:51 GMT-0400 (Eastern Daylight Time)","176090","","null","","","","FIX","","<div class='trialBorder'><div class='vertical-center'><img style='vertical-align:center; align:center' src=img/fixation3.jpg></div></div>","null","","","","","","",""
"html-keyboard-response","59","131252","0.0-5.0-2.18","63f0fb9941434d10e8e4909b","bdp_td","Mon Apr 10 2023 07:00:51 GMT-0400 (Eastern Daylight Time)","176090","","2238","","","","offer","","<div class='trialBorder'><div class='vertical-center'><img style='vertical-align:center; align:center' src=img/fixation3.jpg></div><div class='cl'><div class='vertical-center'>$54<br><br>now</div></div><div class='cr'><div class='vertical-center'>$80<br>in<br>3 weeks</div></div><div class='respDivL'><div class='vertical-center'>(E)</div></div><div class='respDivR'><div class='vertical-center'>(I)</div></div></div>","I","$54<br><br>now","$80<br>in<br>3 weeks","0","54","80","3","THEN"
"html-keyboard-response","60","131502","0.0-5.0-3.18","63f0fb9941434d10e8e4909b","bdp_td","Mon Apr 10 2023 07:00:51 GMT-0400 (Eastern Daylight Time)","176090","","null","","","","offerFB","","<div class='trialBorder'><div class='vertical-center'><img style='vertical-align:center; align:center' src=img/fixation3.jpg></div><div class='cl'><div class='vertical-center'>$54<br><br>now</div></div><div class='cr'><div class='vertical-center'><font style='color:orange'>$80<br>in<br>3 weeks</font></div></div><div class='respDivL'><div class='vertical-center'>(E)</div></div><div class='respDivR'><div class='vertical-center'><font style='color:orange'>(I)</font></div></div></div>","null","$54<br><br>now","$80<br>in<br>3 weeks","0","54","80","3",""
"html-keyboard-response","61","132004","0.0-5.0-1.19","63f0fb9941434d10e8e4909b","bdp_td","Mon Apr 10 2023 07:00:51 GMT-0400 (Eastern Daylight Time)","176090","","null","","","","FIX","","<div class='trialBorder'><div class='vertical-center'><img style='vertical-align:center; align:center' src=img/fixation3.jpg></div></div>","null","","","","","","",""
"html-keyboard-response","62","134444","0.0-5.0-2.19","63f0fb9941434d10e8e4909b","bdp_td","Mon Apr 10 2023 07:00:51 GMT-0400 (Eastern Daylight Time)","176090","","2439","","","","offer","","<div class='trialBorder'><div class='vertical-center'><img style='vertical-align:center; align:center' src=img/fixation3.jpg></div><div class='cl'><div class='vertical-center'>$28<br><br>now</div></div><div class='cr'><div class='vertical-center'>$30<br>in<br>12 weeks</div></div><div class='respDivL'><div class='vertical-center'>(E)</div></div><div class='respDivR'><div class='vertical-center'>(I)</div></div></div>","E","$28<br><br>now","$30<br>in<br>12 weeks","0","28","30","12","NOW"
"html-keyboard-response","63","134696","0.0-5.0-3.19","63f0fb9941434d10e8e4909b","bdp_td","Mon Apr 10 2023 07:00:51 GMT-0400 (Eastern Daylight Time)","176090","","null","","","","offerFB","","<div class='trialBorder'><div class='vertical-center'><img style='vertical-align:center; align:center' src=img/fixation3.jpg></div><div class='cl'><div class='vertical-center'><font style='color:orange'>$28<br><br>now</font></div></div><div class='cr'><div class='vertical-center'>$30<br>in<br>12 weeks</div></div><div class='respDivL'><div class='vertical-center'><font style='color:orange'>(E)</font></div></div><div class='respDivR'><div class='vertical-center'>(I)</div></div></div>","null","$28<br><br>now","$30<br>in<br>12 weeks","0","28","30","12",""
"html-keyboard-response","64","135197","0.0-5.0-1.20","63f0fb9941434d10e8e4909b","bdp_td","Mon Apr 10 2023 07:00:51 GMT-0400 (Eastern Daylight Time)","176090","","null","","","","FIX","","<div class='trialBorder'><div class='vertical-center'><img style='vertical-align:center; align:center' src=img/fixation3.jpg></div></div>","null","","","","","","",""
"html-keyboard-response","65","139300","0.0-5.0-2.20","63f0fb9941434d10e8e4909b","bdp_td","Mon Apr 10 2023 07:00:51 GMT-0400 (Eastern Daylight Time)","176090","","4102","","","","offer","","<div class='trialBorder'><div class='vertical-center'><img style='vertical-align:center; align:center' src=img/fixation3.jpg></div><div class='cl'><div class='vertical-center'>$35<br>in<br>12 weeks</div></div><div class='cr'><div class='vertical-center'>$34<br><br>now</div></div><div class='respDivL'><div class='vertical-center'>(E)</div></div><div class='respDivR'><div class='vertical-center'>(I)</div></div></div>","I","$34<br><br>now","$35<br>in<br>12 weeks","1","34","35","12","NOW"
"html-keyboard-response","66","139552","0.0-5.0-3.20","63f0fb9941434d10e8e4909b","bdp_td","Mon Apr 10 2023 07:00:51 GMT-0400 (Eastern Daylight Time)","176090","","null","","","","offerFB","","<div class='trialBorder'><div class='vertical-center'><img style='vertical-align:center; align:center' src=img/fixation3.jpg></div><div class='cl'><div class='vertical-center'>$35<br>in<br>12 weeks</div></div><div class='cr'><div class='vertical-center'><font style='color:orange'>$34<br><br>now</font></div></div><div class='respDivL'><div class='vertical-center'>(E)</div></div><div class='respDivR'><div class='vertical-center'><font style='color:orange'>(I)</font></div></div></div>","null","$34<br><br>now","$35<br>in<br>12 weeks","1","34","35","12",""
"html-keyboard-response","67","140053","0.0-5.0-1.21","63f0fb9941434d10e8e4909b","bdp_td","Mon Apr 10 2023 07:00:51 GMT-0400 (Eastern Daylight Time)","176090","","null","","","","FIX","","<div class='trialBorder'><div class='vertical-center'><img style='vertical-align:center; align:center' src=img/fixation3.jpg></div></div>","null","","","","","","",""
"html-keyboard-response","68","142636","0.0-5.0-2.21","63f0fb9941434d10e8e4909b","bdp_td","Mon Apr 10 2023 07:00:51 GMT-0400 (Eastern Daylight Time)","176090","","2581","","","","offer","","<div class='trialBorder'><div class='vertical-center'><img style='vertical-align:center; align:center' src=img/fixation3.jpg></div><div class='cl'><div class='vertical-center'>$85<br>in<br>6 weeks</div></div><div class='cr'><div class='vertical-center'>$69<br><br>now</div></div><div class='respDivL'><div class='vertical-center'>(E)</div></div><div class='respDivR'><div class='vertical-center'>(I)</div></div></div>","I","$69<br><br>now","$85<br>in<br>6 weeks","1","69","85","6","NOW"
"html-keyboard-response","69","142887","0.0-5.0-3.21","63f0fb9941434d10e8e4909b","bdp_td","Mon Apr 10 2023 07:00:51 GMT-0400 (Eastern Daylight Time)","176090","","null","","","","offerFB","","<div class='trialBorder'><div class='vertical-center'><img style='vertical-align:center; align:center' src=img/fixation3.jpg></div><div class='cl'><div class='vertical-center'>$85<br>in<br>6 weeks</div></div><div class='cr'><div class='vertical-center'><font style='color:orange'>$69<br><br>now</font></div></div><div class='respDivL'><div class='vertical-center'>(E)</div></div><div class='respDivR'><div class='vertical-center'><font style='color:orange'>(I)</font></div></div></div>","null","$69<br><br>now","$85<br>in<br>6 weeks","1","69","85","6",""
"html-keyboard-response","70","143389","0.0-5.0-1.22","63f0fb9941434d10e8e4909b","bdp_td","Mon Apr 10 2023 07:00:51 GMT-0400 (Eastern Daylight Time)","176090","","null","","","","FIX","","<div class='trialBorder'><div class='vertical-center'><img style='vertical-align:center; align:center' src=img/fixation3.jpg></div></div>","null","","","","","","",""
"html-keyboard-response","71","149340","0.0-5.0-2.22","63f0fb9941434d10e8e4909b","bdp_td","Mon Apr 10 2023 07:00:51 GMT-0400 (Eastern Daylight Time)","176090","","5951","","","","offer","","<div class='trialBorder'><div class='vertical-center'><img style='vertical-align:center; align:center' src=img/fixation3.jpg></div><div class='cl'><div class='vertical-center'>$15<br><br>now</div></div><div class='cr'><div class='vertical-center'>$35<br>in<br>2 weeks</div></div><div class='respDivL'><div class='vertical-center'>(E)</div></div><div class='respDivR'><div class='vertical-center'>(I)</div></div></div>","I","$15<br><br>now","$35<br>in<br>2 weeks","0","15","35","2","THEN"
"html-keyboard-response","72","149592","0.0-5.0-3.22","63f0fb9941434d10e8e4909b","bdp_td","Mon Apr 10 2023 07:00:51 GMT-0400 (Eastern Daylight Time)","176090","","null","","","","offerFB","","<div class='trialBorder'><div class='vertical-center'><img style='vertical-align:center; align:center' src=img/fixation3.jpg></div><div class='cl'><div class='vertical-center'>$15<br><br>now</div></div><div class='cr'><div class='vertical-center'><font style='color:orange'>$35<br>in<br>2 weeks</font></div></div><div class='respDivL'><div class='vertical-center'>(E)</div></div><div class='respDivR'><div class='vertical-center'><font style='color:orange'>(I)</font></div></div></div>","null","$15<br><br>now","$35<br>in<br>2 weeks","0","15","35","2",""
"html-keyboard-response","73","150093","0.0-5.0-1.23","63f0fb9941434d10e8e4909b","bdp_td","Mon Apr 10 2023 07:00:51 GMT-0400 (Eastern Daylight Time)","176090","","null","","","","FIX","","<div class='trialBorder'><div class='vertical-center'><img style='vertical-align:center; align:center' src=img/fixation3.jpg></div></div>","null","","","","","","",""
"html-keyboard-response","74","156028","0.0-5.0-2.23","63f0fb9941434d10e8e4909b","bdp_td","Mon Apr 10 2023 07:00:51 GMT-0400 (Eastern Daylight Time)","176090","","5933","","","","offer","","<div class='trialBorder'><div class='vertical-center'><img style='vertical-align:center; align:center' src=img/fixation3.jpg></div><div class='cl'><div class='vertical-center'>$75<br>in<br>6 weeks</div></div><div class='cr'><div class='vertical-center'>$55<br><br>now</div></div><div class='respDivL'><div class='vertical-center'>(E)</div></div><div class='respDivR'><div class='vertical-center'>(I)</div></div></div>","I","$55<br><br>now","$75<br>in<br>6 weeks","1","55","75","6","NOW"
"html-keyboard-response","75","156280","0.0-5.0-3.23","63f0fb9941434d10e8e4909b","bdp_td","Mon Apr 10 2023 07:00:51 GMT-0400 (Eastern Daylight Time)","176090","","null","","","","offerFB","","<div class='trialBorder'><div class='vertical-center'><img style='vertical-align:center; align:center' src=img/fixation3.jpg></div><div class='cl'><div class='vertical-center'>$75<br>in<br>6 weeks</div></div><div class='cr'><div class='vertical-center'><font style='color:orange'>$55<br><br>now</font></div></div><div class='respDivL'><div class='vertical-center'>(E)</div></div><div class='respDivR'><div class='vertical-center'><font style='color:orange'>(I)</font></div></div></div>","null","$55<br><br>now","$75<br>in<br>6 weeks","1","55","75","6",""
"html-keyboard-response","76","156781","0.0-5.0-1.24","63f0fb9941434d10e8e4909b","bdp_td","Mon Apr 10 2023 07:00:51 GMT-0400 (Eastern Daylight Time)","176090","","null","","","","FIX","","<div class='trialBorder'><div class='vertical-center'><img style='vertical-align:center; align:center' src=img/fixation3.jpg></div></div>","null","","","","","","",""
"html-keyboard-response","77","165900","0.0-5.0-2.24","63f0fb9941434d10e8e4909b","bdp_td","Mon Apr 10 2023 07:00:51 GMT-0400 (Eastern Daylight Time)","176090","","9118","","","","offer","","<div class='trialBorder'><div class='vertical-center'><img style='vertical-align:center; align:center' src=img/fixation3.jpg></div><div class='cl'><div class='vertical-center'>$85<br>in<br>1 week</div></div><div class='cr'><div class='vertical-center'>$31<br><br>now</div></div><div class='respDivL'><div class='vertical-center'>(E)</div></div><div class='respDivR'><div class='vertical-center'>(I)</div></div></div>","E","$31<br><br>now","$85<br>in<br>1 week","1","31","85","1","THEN"
"html-keyboard-response","78","166151","0.0-5.0-3.24","63f0fb9941434d10e8e4909b","bdp_td","Mon Apr 10 2023 07:00:51 GMT-0400 (Eastern Daylight Time)","176090","","null","","","","offerFB","","<div class='trialBorder'><div class='vertical-center'><img style='vertical-align:center; align:center' src=img/fixation3.jpg></div><div class='cl'><div class='vertical-center'><font style='color:orange'>$85<br>in<br>1 week</font></div></div><div class='cr'><div class='vertical-center'>$31<br><br>now</div></div><div class='respDivL'><div class='vertical-center'><font style='color:orange'>(E)</font></div></div><div class='respDivR'><div class='vertical-center'>(I)</div></div></div>","null","$31<br><br>now","$85<br>in<br>1 week","1","31","85","1",""
"html-keyboard-response","79","166652","0.0-5.0-1.25","63f0fb9941434d10e8e4909b","bdp_td","Mon Apr 10 2023 07:00:51 GMT-0400 (Eastern Daylight Time)","176090","","null","","","","FIX","","<div class='trialBorder'><div class='vertical-center'><img style='vertical-align:center; align:center' src=img/fixation3.jpg></div></div>","null","","","","","","",""
"html-keyboard-response","80","171883","0.0-5.0-2.25","63f0fb9941434d10e8e4909b","bdp_td","Mon Apr 10 2023 07:00:51 GMT-0400 (Eastern Daylight Time)","176090","","5230","","","","offer","","<div class='trialBorder'><div class='vertical-center'><img style='vertical-align:center; align:center' src=img/fixation3.jpg></div><div class='cl'><div class='vertical-center'>$50<br>in<br>3 weeks</div></div><div class='cr'><div class='vertical-center'>$27<br><br>now</div></div><div class='respDivL'><div class='vertical-center'>(E)</div></div><div class='respDivR'><div class='vertical-center'>(I)</div></div></div>","E","$27<br><br>now","$50<br>in<br>3 weeks","1","27","50","3","THEN"
"html-keyboard-response","81","172135","0.0-5.0-3.25","63f0fb9941434d10e8e4909b","bdp_td","Mon Apr 10 2023 07:00:51 GMT-0400 (Eastern Daylight Time)","176090","","null","","","","offerFB","","<div class='trialBorder'><div class='vertical-center'><img style='vertical-align:center; align:center' src=img/fixation3.jpg></div><div class='cl'><div class='vertical-center'><font style='color:orange'>$50<br>in<br>3 weeks</font></div></div><div class='cr'><div class='vertical-center'>$27<br><br>now</div></div><div class='respDivL'><div class='vertical-center'><font style='color:orange'>(E)</font></div></div><div class='respDivR'><div class='vertical-center'>(I)</div></div></div>","null","$27<br><br>now","$50<br>in<br>3 weeks","1","27","50","3",""
"html-keyboard-response","82","172637","0.0-5.0-1.26","63f0fb9941434d10e8e4909b","bdp_td","Mon Apr 10 2023 07:00:51 GMT-0400 (Eastern Daylight Time)","176090","","null","","","","FIX","","<div class='trialBorder'><div class='vertical-center'><img style='vertical-align:center; align:center' src=img/fixation3.jpg></div></div>","null","","","","","","",""
"html-keyboard-response","83","174836","0.0-5.0-2.26","63f0fb9941434d10e8e4909b","bdp_td","Mon Apr 10 2023 07:00:51 GMT-0400 (Eastern Daylight Time)","176090","","2199","","","","offer","","<div class='trialBorder'><div class='vertical-center'><img style='vertical-align:center; align:center' src=img/fixation3.jpg></div><div class='cl'><div class='vertical-center'>$54<br><br>now</div></div><div class='cr'><div class='vertical-center'>$60<br>in<br>12 weeks</div></div><div class='respDivL'><div class='vertical-center'>(E)</div></div><div class='respDivR'><div class='vertical-center'>(I)</div></div></div>","E","$54<br><br>now","$60<br>in<br>12 weeks","0","54","60","12","NOW"
"html-keyboard-response","84","175088","0.0-5.0-3.26","63f0fb9941434d10e8e4909b","bdp_td","Mon Apr 10 2023 07:00:51 GMT-0400 (Eastern Daylight Time)","176090","","null","","","","offerFB","","<div class='trialBorder'><div class='vertical-center'><img style='vertical-align:center; align:center' src=img/fixation3.jpg></div><div class='cl'><div class='vertical-center'><font style='color:orange'>$54<br><br>now</font></div></div><div class='cr'><div class='vertical-center'>$60<br>in<br>12 weeks</div></div><div class='respDivL'><div class='vertical-center'><font style='color:orange'>(E)</font></div></div><div class='respDivR'><div class='vertical-center'>(I)</div></div></div>","null","$54<br><br>now","$60<br>in<br>12 weeks","0","54","60","12",""
"","","","","63f0fb9941434d10e8e4909b","bdp_td","Mon Apr 10 2023 07:00:51 GMT-0400 (Eastern Daylight Time)","176090","","","fullscreenexit","85","175144","fullscreenexit","","","","","","","","","",""
"fullscreen","85","176089","0.0-6.0","63f0fb9941434d10e8e4909b","bdp_td","Mon Apr 10 2023 07:00:51 GMT-0400 (Eastern Daylight Time)","176090","","","","","","","true","","","","","","","","",""
"html-keyboard-response","86","176591","0.0-7.0","","","","","","null","","","","","","","null","","","","","","",""
