"trial_type","trial_index","time_elapsed","internal_node_id","subject_id","task","startTime","totalTime","view_history","rt","event","trial","time","trialtype","success","stimulus","key_press","nowOffer","thenOffer","thenLeft","nowAmt","thenAmt","thenWeeks","chosen"
"pavlovia","0","1","0.0-0.0","631381096e95278a3f97fed4","bdp_td","Sun Mar 26 2023 05:15:03 GMT-0500 (Central Daylight Time)","216140","","","","","","","","","","","","","","","",""
"instructions","1","13891","0.0-1.0","631381096e95278a3f97fed4","bdp_td","Sun Mar 26 2023 05:15:03 GMT-0500 (Central Daylight Time)","216140","[{""page_index"":0,""viewing_time"":13889}]","13889","","","","","","","","","","","","","",""
"","","","","631381096e95278a3f97fed4","bdp_td","Sun Mar 26 2023 05:15:03 GMT-0500 (Central Daylight Time)","216140","","","fullscreenenter","2","16674","fullscreenenter","","","","","","","","","",""
"fullscreen","2","17659","0.0-2.0","631381096e95278a3f97fed4","bdp_td","Sun Mar 26 2023 05:15:03 GMT-0500 (Central Daylight Time)","216140","","","","","","","true","","","","","","","","",""
"instructions","3","92934","0.0-4.0","631381096e95278a3f97fed4","bdp_td","Sun Mar 26 2023 05:15:03 GMT-0500 (Central Daylight Time)","216140","[{""page_index"":0,""viewing_time"":39660},{""page_index"":1,""viewing_time"":24369},{""page_index"":2,""viewing_time"":11245}]","75274","","","","","","","","","","","","","",""
"html-keyboard-response","4","93436","0.0-5.0-1.0","631381096e95278a3f97fed4","bdp_td","Sun Mar 26 2023 05:15:03 GMT-0500 (Central Daylight Time)","216140","","null","","","","FIX","","<div class='trialBorder'><div class='vertical-center'><img style='vertical-align:center; align:center' src=img/fixation3.jpg></div></div>","null","","","","","","",""
"html-keyboard-response","5","98450","0.0-5.0-2.0","631381096e95278a3f97fed4","bdp_td","Sun Mar 26 2023 05:15:03 GMT-0500 (Central Daylight Time)","216140","","5014","","","","offer","","<div class='trialBorder'><div class='vertical-center'><img style='vertical-align:center; align:center' src=img/fixation3.jpg></div><div class='cl'><div class='vertical-center'>$31<br><br>now</div></div><div class='cr'><div class='vertical-center'>$85<br>in<br>1 week</div></div><div class='respDivL'><div class='vertical-center'>(E)</div></div><div class='respDivR'><div class='vertical-center'>(I)</div></div></div>","I","$31<br><br>now","$85<br>in<br>1 week","0","31","85","1","THEN"
"html-keyboard-response","6","98702","0.0-5.0-3.0","631381096e95278a3f97fed4","bdp_td","Sun Mar 26 2023 05:15:03 GMT-0500 (Central Daylight Time)","216140","","null","","","","offerFB","","<div class='trialBorder'><div class='vertical-center'><img style='vertical-align:center; align:center' src=img/fixation3.jpg></div><div class='cl'><div class='vertical-center'>$31<br><br>now</div></div><div class='cr'><div class='vertical-center'><font style='color:orange'>$85<br>in<br>1 week</font></div></div><div class='respDivL'><div class='vertical-center'>(E)</div></div><div class='respDivR'><div class='vertical-center'><font style='color:orange'>(I)</font></div></div></div>","null","$31<br><br>now","$85<br>in<br>1 week","0","31","85","1",""
"html-keyboard-response","7","99203","0.0-5.0-1.1","631381096e95278a3f97fed4","bdp_td","Sun Mar 26 2023 05:15:03 GMT-0500 (Central Daylight Time)","216140","","null","","","","FIX","","<div class='trialBorder'><div class='vertical-center'><img style='vertical-align:center; align:center' src=img/fixation3.jpg></div></div>","null","","","","","","",""
"html-keyboard-response","8","103399","0.0-5.0-2.1","631381096e95278a3f97fed4","bdp_td","Sun Mar 26 2023 05:15:03 GMT-0500 (Central Daylight Time)","216140","","4195","","","","offer","","<div class='trialBorder'><div class='vertical-center'><img style='vertical-align:center; align:center' src=img/fixation3.jpg></div><div class='cl'><div class='vertical-center'>$60<br>in<br>12 weeks</div></div><div class='cr'><div class='vertical-center'>$54<br><br>now</div></div><div class='respDivL'><div class='vertical-center'>(E)</div></div><div class='respDivR'><div class='vertical-center'>(I)</div></div></div>","I","$54<br><br>now","$60<br>in<br>12 weeks","1","54","60","12","NOW"
"html-keyboard-response","9","103652","0.0-5.0-3.1","631381096e95278a3f97fed4","bdp_td","Sun Mar 26 2023 05:15:03 GMT-0500 (Central Daylight Time)","216140","","null","","","","offerFB","","<div class='trialBorder'><div class='vertical-center'><img style='vertical-align:center; align:center' src=img/fixation3.jpg></div><div class='cl'><div class='vertical-center'>$60<br>in<br>12 weeks</div></div><div class='cr'><div class='vertical-center'><font style='color:orange'>$54<br><br>now</font></div></div><div class='respDivL'><div class='vertical-center'>(E)</div></div><div class='respDivR'><div class='vertical-center'><font style='color:orange'>(I)</font></div></div></div>","null","$54<br><br>now","$60<br>in<br>12 weeks","1","54","60","12",""
"html-keyboard-response","10","104153","0.0-5.0-1.2","631381096e95278a3f97fed4","bdp_td","Sun Mar 26 2023 05:15:03 GMT-0500 (Central Daylight Time)","216140","","null","","","","FIX","","<div class='trialBorder'><div class='vertical-center'><img style='vertical-align:center; align:center' src=img/fixation3.jpg></div></div>","null","","","","","","",""
"html-keyboard-response","11","106402","0.0-5.0-2.2","631381096e95278a3f97fed4","bdp_td","Sun Mar 26 2023 05:15:03 GMT-0500 (Central Daylight Time)","216140","","2248","","","","offer","","<div class='trialBorder'><div class='vertical-center'><img style='vertical-align:center; align:center' src=img/fixation3.jpg></div><div class='cl'><div class='vertical-center'>$55<br><br>now</div></div><div class='cr'><div class='vertical-center'>$75<br>in<br>6 weeks</div></div><div class='respDivL'><div class='vertical-center'>(E)</div></div><div class='respDivR'><div class='vertical-center'>(I)</div></div></div>","E","$55<br><br>now","$75<br>in<br>6 weeks","0","55","75","6","NOW"
"html-keyboard-response","12","106653","0.0-5.0-3.2","631381096e95278a3f97fed4","bdp_td","Sun Mar 26 2023 05:15:03 GMT-0500 (Central Daylight Time)","216140","","null","","","","offerFB","","<div class='trialBorder'><div class='vertical-center'><img style='vertical-align:center; align:center' src=img/fixation3.jpg></div><div class='cl'><div class='vertical-center'><font style='color:orange'>$55<br><br>now</font></div></div><div class='cr'><div class='vertical-center'>$75<br>in<br>6 weeks</div></div><div class='respDivL'><div class='vertical-center'><font style='color:orange'>(E)</font></div></div><div class='respDivR'><div class='vertical-center'>(I)</div></div></div>","null","$55<br><br>now","$75<br>in<br>6 weeks","0","55","75","6",""
"html-keyboard-response","13","107154","0.0-5.0-1.3","631381096e95278a3f97fed4","bdp_td","Sun Mar 26 2023 05:15:03 GMT-0500 (Central Daylight Time)","216140","","null","","","","FIX","","<div class='trialBorder'><div class='vertical-center'><img style='vertical-align:center; align:center' src=img/fixation3.jpg></div></div>","null","","","","","","",""
"html-keyboard-response","14","109726","0.0-5.0-2.3","631381096e95278a3f97fed4","bdp_td","Sun Mar 26 2023 05:15:03 GMT-0500 (Central Daylight Time)","216140","","2571","","","","offer","","<div class='trialBorder'><div class='vertical-center'><img style='vertical-align:center; align:center' src=img/fixation3.jpg></div><div class='cl'><div class='vertical-center'>$85<br>in<br>6 weeks</div></div><div class='cr'><div class='vertical-center'>$69<br><br>now</div></div><div class='respDivL'><div class='vertical-center'>(E)</div></div><div class='respDivR'><div class='vertical-center'>(I)</div></div></div>","I","$69<br><br>now","$85<br>in<br>6 weeks","1","69","85","6","NOW"
"html-keyboard-response","15","109978","0.0-5.0-3.3","631381096e95278a3f97fed4","bdp_td","Sun Mar 26 2023 05:15:03 GMT-0500 (Central Daylight Time)","216140","","null","","","","offerFB","","<div class='trialBorder'><div class='vertical-center'><img style='vertical-align:center; align:center' src=img/fixation3.jpg></div><div class='cl'><div class='vertical-center'>$85<br>in<br>6 weeks</div></div><div class='cr'><div class='vertical-center'><font style='color:orange'>$69<br><br>now</font></div></div><div class='respDivL'><div class='vertical-center'>(E)</div></div><div class='respDivR'><div class='vertical-center'><font style='color:orange'>(I)</font></div></div></div>","null","$69<br><br>now","$85<br>in<br>6 weeks","1","69","85","6",""
"html-keyboard-response","16","110481","0.0-5.0-1.4","631381096e95278a3f97fed4","bdp_td","Sun Mar 26 2023 05:15:03 GMT-0500 (Central Daylight Time)","216140","","null","","","","FIX","","<div class='trialBorder'><div class='vertical-center'><img style='vertical-align:center; align:center' src=img/fixation3.jpg></div></div>","null","","","","","","",""
"html-keyboard-response","17","125244","0.0-5.0-2.4","631381096e95278a3f97fed4","bdp_td","Sun Mar 26 2023 05:15:03 GMT-0500 (Central Daylight Time)","216140","","14761","","","","offer","","<div class='trialBorder'><div class='vertical-center'><img style='vertical-align:center; align:center' src=img/fixation3.jpg></div><div class='cl'><div class='vertical-center'>$75<br>in<br>3 weeks</div></div><div class='cr'><div class='vertical-center'>$41<br><br>now</div></div><div class='respDivL'><div class='vertical-center'>(E)</div></div><div class='respDivR'><div class='vertical-center'>(I)</div></div></div>","I","$41<br><br>now","$75<br>in<br>3 weeks","1","41","75","3","NOW"
"html-keyboard-response","18","125495","0.0-5.0-3.4","631381096e95278a3f97fed4","bdp_td","Sun Mar 26 2023 05:15:03 GMT-0500 (Central Daylight Time)","216140","","null","","","","offerFB","","<div class='trialBorder'><div class='vertical-center'><img style='vertical-align:center; align:center' src=img/fixation3.jpg></div><div class='cl'><div class='vertical-center'>$75<br>in<br>3 weeks</div></div><div class='cr'><div class='vertical-center'><font style='color:orange'>$41<br><br>now</font></div></div><div class='respDivL'><div class='vertical-center'>(E)</div></div><div class='respDivR'><div class='vertical-center'><font style='color:orange'>(I)</font></div></div></div>","null","$41<br><br>now","$75<br>in<br>3 weeks","1","41","75","3",""
"html-keyboard-response","19","125996","0.0-5.0-1.5","631381096e95278a3f97fed4","bdp_td","Sun Mar 26 2023 05:15:03 GMT-0500 (Central Daylight Time)","216140","","null","","","","FIX","","<div class='trialBorder'><div class='vertical-center'><img style='vertical-align:center; align:center' src=img/fixation3.jpg></div></div>","null","","","","","","",""
"html-keyboard-response","20","131184","0.0-5.0-2.5","631381096e95278a3f97fed4","bdp_td","Sun Mar 26 2023 05:15:03 GMT-0500 (Central Daylight Time)","216140","","5187","","","","offer","","<div class='trialBorder'><div class='vertical-center'><img style='vertical-align:center; align:center' src=img/fixation3.jpg></div><div class='cl'><div class='vertical-center'>$27<br><br>now</div></div><div class='cr'><div class='vertical-center'>$50<br>in<br>3 weeks</div></div><div class='respDivL'><div class='vertical-center'>(E)</div></div><div class='respDivR'><div class='vertical-center'>(I)</div></div></div>","E","$27<br><br>now","$50<br>in<br>3 weeks","0","27","50","3","NOW"
"html-keyboard-response","21","131435","0.0-5.0-3.5","631381096e95278a3f97fed4","bdp_td","Sun Mar 26 2023 05:15:03 GMT-0500 (Central Daylight Time)","216140","","null","","","","offerFB","","<div class='trialBorder'><div class='vertical-center'><img style='vertical-align:center; align:center' src=img/fixation3.jpg></div><div class='cl'><div class='vertical-center'><font style='color:orange'>$27<br><br>now</font></div></div><div class='cr'><div class='vertical-center'>$50<br>in<br>3 weeks</div></div><div class='respDivL'><div class='vertical-center'><font style='color:orange'>(E)</font></div></div><div class='respDivR'><div class='vertical-center'>(I)</div></div></div>","null","$27<br><br>now","$50<br>in<br>3 weeks","0","27","50","3",""
"html-keyboard-response","22","131936","0.0-5.0-1.6","631381096e95278a3f97fed4","bdp_td","Sun Mar 26 2023 05:15:03 GMT-0500 (Central Daylight Time)","216140","","null","","","","FIX","","<div class='trialBorder'><div class='vertical-center'><img style='vertical-align:center; align:center' src=img/fixation3.jpg></div></div>","null","","","","","","",""
"html-keyboard-response","23","135392","0.0-5.0-2.6","631381096e95278a3f97fed4","bdp_td","Sun Mar 26 2023 05:15:03 GMT-0500 (Central Daylight Time)","216140","","3454","","","","offer","","<div class='trialBorder'><div class='vertical-center'><img style='vertical-align:center; align:center' src=img/fixation3.jpg></div><div class='cl'><div class='vertical-center'>$30<br>in<br>6 weeks</div></div><div class='cr'><div class='vertical-center'>$25<br><br>now</div></div><div class='respDivL'><div class='vertical-center'>(E)</div></div><div class='respDivR'><div class='vertical-center'>(I)</div></div></div>","I","$25<br><br>now","$30<br>in<br>6 weeks","1","25","30","6","NOW"
"html-keyboard-response","24","135644","0.0-5.0-3.6","631381096e95278a3f97fed4","bdp_td","Sun Mar 26 2023 05:15:03 GMT-0500 (Central Daylight Time)","216140","","null","","","","offerFB","","<div class='trialBorder'><div class='vertical-center'><img style='vertical-align:center; align:center' src=img/fixation3.jpg></div><div class='cl'><div class='vertical-center'>$30<br>in<br>6 weeks</div></div><div class='cr'><div class='vertical-center'><font style='color:orange'>$25<br><br>now</font></div></div><div class='respDivL'><div class='vertical-center'>(E)</div></div><div class='respDivR'><div class='vertical-center'><font style='color:orange'>(I)</font></div></div></div>","null","$25<br><br>now","$30<br>in<br>6 weeks","1","25","30","6",""
"html-keyboard-response","25","136145","0.0-5.0-1.7","631381096e95278a3f97fed4","bdp_td","Sun Mar 26 2023 05:15:03 GMT-0500 (Central Daylight Time)","216140","","null","","","","FIX","","<div class='trialBorder'><div class='vertical-center'><img style='vertical-align:center; align:center' src=img/fixation3.jpg></div></div>","null","","","","","","",""
"html-keyboard-response","26","139941","0.0-5.0-2.7","631381096e95278a3f97fed4","bdp_td","Sun Mar 26 2023 05:15:03 GMT-0500 (Central Daylight Time)","216140","","3794","","","","offer","","<div class='trialBorder'><div class='vertical-center'><img style='vertical-align:center; align:center' src=img/fixation3.jpg></div><div class='cl'><div class='vertical-center'>$35<br>in<br>2 weeks</div></div><div class='cr'><div class='vertical-center'>$15<br><br>now</div></div><div class='respDivL'><div class='vertical-center'>(E)</div></div><div class='respDivR'><div class='vertical-center'>(I)</div></div></div>","I","$15<br><br>now","$35<br>in<br>2 weeks","1","15","35","2","NOW"
"html-keyboard-response","27","140192","0.0-5.0-3.7","631381096e95278a3f97fed4","bdp_td","Sun Mar 26 2023 05:15:03 GMT-0500 (Central Daylight Time)","216140","","null","","","","offerFB","","<div class='trialBorder'><div class='vertical-center'><img style='vertical-align:center; align:center' src=img/fixation3.jpg></div><div class='cl'><div class='vertical-center'>$35<br>in<br>2 weeks</div></div><div class='cr'><div class='vertical-center'><font style='color:orange'>$15<br><br>now</font></div></div><div class='respDivL'><div class='vertical-center'>(E)</div></div><div class='respDivR'><div class='vertical-center'><font style='color:orange'>(I)</font></div></div></div>","null","$15<br><br>now","$35<br>in<br>2 weeks","1","15","35","2",""
"html-keyboard-response","28","140693","0.0-5.0-1.8","631381096e95278a3f97fed4","bdp_td","Sun Mar 26 2023 05:15:03 GMT-0500 (Central Daylight Time)","216140","","null","","","","FIX","","<div class='trialBorder'><div class='vertical-center'><img style='vertical-align:center; align:center' src=img/fixation3.jpg></div></div>","null","","","","","","",""
"html-keyboard-response","29","143409","0.0-5.0-2.8","631381096e95278a3f97fed4","bdp_td","Sun Mar 26 2023 05:15:03 GMT-0500 (Central Daylight Time)","216140","","2714","","","","offer","","<div class='trialBorder'><div class='vertical-center'><img style='vertical-align:center; align:center' src=img/fixation3.jpg></div><div class='cl'><div class='vertical-center'>$55<br>in<br>6 weeks</div></div><div class='cr'><div class='vertical-center'>$40<br><br>now</div></div><div class='respDivL'><div class='vertical-center'>(E)</div></div><div class='respDivR'><div class='vertical-center'>(I)</div></div></div>","I","$40<br><br>now","$55<br>in<br>6 weeks","1","40","55","6","NOW"
"html-keyboard-response","30","143660","0.0-5.0-3.8","631381096e95278a3f97fed4","bdp_td","Sun Mar 26 2023 05:15:03 GMT-0500 (Central Daylight Time)","216140","","null","","","","offerFB","","<div class='trialBorder'><div class='vertical-center'><img style='vertical-align:center; align:center' src=img/fixation3.jpg></div><div class='cl'><div class='vertical-center'>$55<br>in<br>6 weeks</div></div><div class='cr'><div class='vertical-center'><font style='color:orange'>$40<br><br>now</font></div></div><div class='respDivL'><div class='vertical-center'>(E)</div></div><div class='respDivR'><div class='vertical-center'><font style='color:orange'>(I)</font></div></div></div>","null","$40<br><br>now","$55<br>in<br>6 weeks","1","40","55","6",""
"html-keyboard-response","31","144162","0.0-5.0-1.9","631381096e95278a3f97fed4","bdp_td","Sun Mar 26 2023 05:15:03 GMT-0500 (Central Daylight Time)","216140","","null","","","","FIX","","<div class='trialBorder'><div class='vertical-center'><img style='vertical-align:center; align:center' src=img/fixation3.jpg></div></div>","null","","","","","","",""
"html-keyboard-response","32","146508","0.0-5.0-2.9","631381096e95278a3f97fed4","bdp_td","Sun Mar 26 2023 05:15:03 GMT-0500 (Central Daylight Time)","216140","","2346","","","","offer","","<div class='trialBorder'><div class='vertical-center'><img style='vertical-align:center; align:center' src=img/fixation3.jpg></div><div class='cl'><div class='vertical-center'>$80<br>in<br>12 weeks</div></div><div class='cr'><div class='vertical-center'>$78<br><br>now</div></div><div class='respDivL'><div class='vertical-center'>(E)</div></div><div class='respDivR'><div class='vertical-center'>(I)</div></div></div>","I","$78<br><br>now","$80<br>in<br>12 weeks","1","78","80","12","NOW"
"html-keyboard-response","33","146760","0.0-5.0-3.9","631381096e95278a3f97fed4","bdp_td","Sun Mar 26 2023 05:15:03 GMT-0500 (Central Daylight Time)","216140","","null","","","","offerFB","","<div class='trialBorder'><div class='vertical-center'><img style='vertical-align:center; align:center' src=img/fixation3.jpg></div><div class='cl'><div class='vertical-center'>$80<br>in<br>12 weeks</div></div><div class='cr'><div class='vertical-center'><font style='color:orange'>$78<br><br>now</font></div></div><div class='respDivL'><div class='vertical-center'>(E)</div></div><div class='respDivR'><div class='vertical-center'><font style='color:orange'>(I)</font></div></div></div>","null","$78<br><br>now","$80<br>in<br>12 weeks","1","78","80","12",""
"html-keyboard-response","34","147262","0.0-5.0-1.10","631381096e95278a3f97fed4","bdp_td","Sun Mar 26 2023 05:15:03 GMT-0500 (Central Daylight Time)","216140","","null","","","","FIX","","<div class='trialBorder'><div class='vertical-center'><img style='vertical-align:center; align:center' src=img/fixation3.jpg></div></div>","null","","","","","","",""
"html-keyboard-response","35","154831","0.0-5.0-2.10","631381096e95278a3f97fed4","bdp_td","Sun Mar 26 2023 05:15:03 GMT-0500 (Central Daylight Time)","216140","","7569","","","","offer","","<div class='trialBorder'><div class='vertical-center'><img style='vertical-align:center; align:center' src=img/fixation3.jpg></div><div class='cl'><div class='vertical-center'>$11<br><br>now</div></div><div class='cr'><div class='vertical-center'>$30<br>in<br>2 weeks</div></div><div class='respDivL'><div class='vertical-center'>(E)</div></div><div class='respDivR'><div class='vertical-center'>(I)</div></div></div>","I","$11<br><br>now","$30<br>in<br>2 weeks","0","11","30","2","THEN"
"html-keyboard-response","36","155082","0.0-5.0-3.10","631381096e95278a3f97fed4","bdp_td","Sun Mar 26 2023 05:15:03 GMT-0500 (Central Daylight Time)","216140","","null","","","","offerFB","","<div class='trialBorder'><div class='vertical-center'><img style='vertical-align:center; align:center' src=img/fixation3.jpg></div><div class='cl'><div class='vertical-center'>$11<br><br>now</div></div><div class='cr'><div class='vertical-center'><font style='color:orange'>$30<br>in<br>2 weeks</font></div></div><div class='respDivL'><div class='vertical-center'>(E)</div></div><div class='respDivR'><div class='vertical-center'><font style='color:orange'>(I)</font></div></div></div>","null","$11<br><br>now","$30<br>in<br>2 weeks","0","11","30","2",""
"html-keyboard-response","37","155584","0.0-5.0-1.11","631381096e95278a3f97fed4","bdp_td","Sun Mar 26 2023 05:15:03 GMT-0500 (Central Daylight Time)","216140","","null","","","","FIX","","<div class='trialBorder'><div class='vertical-center'><img style='vertical-align:center; align:center' src=img/fixation3.jpg></div></div>","null","","","","","","",""
"html-keyboard-response","38","158392","0.0-5.0-2.11","631381096e95278a3f97fed4","bdp_td","Sun Mar 26 2023 05:15:03 GMT-0500 (Central Daylight Time)","216140","","2808","","","","offer","","<div class='trialBorder'><div class='vertical-center'><img style='vertical-align:center; align:center' src=img/fixation3.jpg></div><div class='cl'><div class='vertical-center'>$25<br>in<br>3 weeks</div></div><div class='cr'><div class='vertical-center'>$14<br><br>now</div></div><div class='respDivL'><div class='vertical-center'>(E)</div></div><div class='respDivR'><div class='vertical-center'>(I)</div></div></div>","I","$14<br><br>now","$25<br>in<br>3 weeks","1","14","25","3","NOW"
"html-keyboard-response","39","158643","0.0-5.0-3.11","631381096e95278a3f97fed4","bdp_td","Sun Mar 26 2023 05:15:03 GMT-0500 (Central Daylight Time)","216140","","null","","","","offerFB","","<div class='trialBorder'><div class='vertical-center'><img style='vertical-align:center; align:center' src=img/fixation3.jpg></div><div class='cl'><div class='vertical-center'>$25<br>in<br>3 weeks</div></div><div class='cr'><div class='vertical-center'><font style='color:orange'>$14<br><br>now</font></div></div><div class='respDivL'><div class='vertical-center'>(E)</div></div><div class='respDivR'><div class='vertical-center'><font style='color:orange'>(I)</font></div></div></div>","null","$14<br><br>now","$25<br>in<br>3 weeks","1","14","25","3",""
"html-keyboard-response","40","159145","0.0-5.0-1.12","631381096e95278a3f97fed4","bdp_td","Sun Mar 26 2023 05:15:03 GMT-0500 (Central Daylight Time)","216140","","null","","","","FIX","","<div class='trialBorder'><div class='vertical-center'><img style='vertical-align:center; align:center' src=img/fixation3.jpg></div></div>","null","","","","","","",""
"html-keyboard-response","41","162003","0.0-5.0-2.12","631381096e95278a3f97fed4","bdp_td","Sun Mar 26 2023 05:15:03 GMT-0500 (Central Daylight Time)","216140","","2858","","","","offer","","<div class='trialBorder'><div class='vertical-center'><img style='vertical-align:center; align:center' src=img/fixation3.jpg></div><div class='cl'><div class='vertical-center'>$34<br><br>now</div></div><div class='cr'><div class='vertical-center'>$50<br>in<br>6 weeks</div></div><div class='respDivL'><div class='vertical-center'>(E)</div></div><div class='respDivR'><div class='vertical-center'>(I)</div></div></div>","E","$34<br><br>now","$50<br>in<br>6 weeks","0","34","50","6","NOW"
"html-keyboard-response","42","162254","0.0-5.0-3.12","631381096e95278a3f97fed4","bdp_td","Sun Mar 26 2023 05:15:03 GMT-0500 (Central Daylight Time)","216140","","null","","","","offerFB","","<div class='trialBorder'><div class='vertical-center'><img style='vertical-align:center; align:center' src=img/fixation3.jpg></div><div class='cl'><div class='vertical-center'><font style='color:orange'>$34<br><br>now</font></div></div><div class='cr'><div class='vertical-center'>$50<br>in<br>6 weeks</div></div><div class='respDivL'><div class='vertical-center'><font style='color:orange'>(E)</font></div></div><div class='respDivR'><div class='vertical-center'>(I)</div></div></div>","null","$34<br><br>now","$50<br>in<br>6 weeks","0","34","50","6",""
"html-keyboard-response","43","162756","0.0-5.0-1.13","631381096e95278a3f97fed4","bdp_td","Sun Mar 26 2023 05:15:03 GMT-0500 (Central Daylight Time)","216140","","null","","","","FIX","","<div class='trialBorder'><div class='vertical-center'><img style='vertical-align:center; align:center' src=img/fixation3.jpg></div></div>","null","","","","","","",""
"html-keyboard-response","44","166243","0.0-5.0-2.13","631381096e95278a3f97fed4","bdp_td","Sun Mar 26 2023 05:15:03 GMT-0500 (Central Daylight Time)","216140","","3486","","","","offer","","<div class='trialBorder'><div class='vertical-center'><img style='vertical-align:center; align:center' src=img/fixation3.jpg></div><div class='cl'><div class='vertical-center'>$35<br>in<br>3 weeks</div></div><div class='cr'><div class='vertical-center'>$24<br><br>now</div></div><div class='respDivL'><div class='vertical-center'>(E)</div></div><div class='respDivR'><div class='vertical-center'>(I)</div></div></div>","I","$24<br><br>now","$35<br>in<br>3 weeks","1","24","35","3","NOW"
"html-keyboard-response","45","166495","0.0-5.0-3.13","631381096e95278a3f97fed4","bdp_td","Sun Mar 26 2023 05:15:03 GMT-0500 (Central Daylight Time)","216140","","null","","","","offerFB","","<div class='trialBorder'><div class='vertical-center'><img style='vertical-align:center; align:center' src=img/fixation3.jpg></div><div class='cl'><div class='vertical-center'>$35<br>in<br>3 weeks</div></div><div class='cr'><div class='vertical-center'><font style='color:orange'>$24<br><br>now</font></div></div><div class='respDivL'><div class='vertical-center'>(E)</div></div><div class='respDivR'><div class='vertical-center'><font style='color:orange'>(I)</font></div></div></div>","null","$24<br><br>now","$35<br>in<br>3 weeks","1","24","35","3",""
"html-keyboard-response","46","166996","0.0-5.0-1.14","631381096e95278a3f97fed4","bdp_td","Sun Mar 26 2023 05:15:03 GMT-0500 (Central Daylight Time)","216140","","null","","","","FIX","","<div class='trialBorder'><div class='vertical-center'><img style='vertical-align:center; align:center' src=img/fixation3.jpg></div></div>","null","","","","","","",""
"html-keyboard-response","47","169161","0.0-5.0-2.14","631381096e95278a3f97fed4","bdp_td","Sun Mar 26 2023 05:15:03 GMT-0500 (Central Daylight Time)","216140","","2164","","","","offer","","<div class='trialBorder'><div class='vertical-center'><img style='vertical-align:center; align:center' src=img/fixation3.jpg></div><div class='cl'><div class='vertical-center'>$35<br>in<br>12 weeks</div></div><div class='cr'><div class='vertical-center'>$34<br><br>now</div></div><div class='respDivL'><div class='vertical-center'>(E)</div></div><div class='respDivR'><div class='vertical-center'>(I)</div></div></div>","I","$34<br><br>now","$35<br>in<br>12 weeks","1","34","35","12","NOW"
"html-keyboard-response","48","169413","0.0-5.0-3.14","631381096e95278a3f97fed4","bdp_td","Sun Mar 26 2023 05:15:03 GMT-0500 (Central Daylight Time)","216140","","null","","","","offerFB","","<div class='trialBorder'><div class='vertical-center'><img style='vertical-align:center; align:center' src=img/fixation3.jpg></div><div class='cl'><div class='vertical-center'>$35<br>in<br>12 weeks</div></div><div class='cr'><div class='vertical-center'><font style='color:orange'>$34<br><br>now</font></div></div><div class='respDivL'><div class='vertical-center'>(E)</div></div><div class='respDivR'><div class='vertical-center'><font style='color:orange'>(I)</font></div></div></div>","null","$34<br><br>now","$35<br>in<br>12 weeks","1","34","35","12",""
"html-keyboard-response","49","169914","0.0-5.0-1.15","631381096e95278a3f97fed4","bdp_td","Sun Mar 26 2023 05:15:03 GMT-0500 (Central Daylight Time)","216140","","null","","","","FIX","","<div class='trialBorder'><div class='vertical-center'><img style='vertical-align:center; align:center' src=img/fixation3.jpg></div></div>","null","","","","","","",""
"html-keyboard-response","50","173073","0.0-5.0-2.15","631381096e95278a3f97fed4","bdp_td","Sun Mar 26 2023 05:15:03 GMT-0500 (Central Daylight Time)","216140","","3158","","","","offer","","<div class='trialBorder'><div class='vertical-center'><img style='vertical-align:center; align:center' src=img/fixation3.jpg></div><div class='cl'><div class='vertical-center'>$47<br><br>now</div></div><div class='cr'><div class='vertical-center'>$50<br>in<br>12 weeks</div></div><div class='respDivL'><div class='vertical-center'>(E)</div></div><div class='respDivR'><div class='vertical-center'>(I)</div></div></div>","E","$47<br><br>now","$50<br>in<br>12 weeks","0","47","50","12","NOW"
"html-keyboard-response","51","173325","0.0-5.0-3.15","631381096e95278a3f97fed4","bdp_td","Sun Mar 26 2023 05:15:03 GMT-0500 (Central Daylight Time)","216140","","null","","","","offerFB","","<div class='trialBorder'><div class='vertical-center'><img style='vertical-align:center; align:center' src=img/fixation3.jpg></div><div class='cl'><div class='vertical-center'><font style='color:orange'>$47<br><br>now</font></div></div><div class='cr'><div class='vertical-center'>$50<br>in<br>12 weeks</div></div><div class='respDivL'><div class='vertical-center'><font style='color:orange'>(E)</font></div></div><div class='respDivR'><div class='vertical-center'>(I)</div></div></div>","null","$47<br><br>now","$50<br>in<br>12 weeks","0","47","50","12",""
"html-keyboard-response","52","173826","0.0-5.0-1.16","631381096e95278a3f97fed4","bdp_td","Sun Mar 26 2023 05:15:03 GMT-0500 (Central Daylight Time)","216140","","null","","","","FIX","","<div class='trialBorder'><div class='vertical-center'><img style='vertical-align:center; align:center' src=img/fixation3.jpg></div></div>","null","","","","","","",""
"html-keyboard-response","53","176491","0.0-5.0-2.16","631381096e95278a3f97fed4","bdp_td","Sun Mar 26 2023 05:15:03 GMT-0500 (Central Daylight Time)","216140","","2664","","","","offer","","<div class='trialBorder'><div class='vertical-center'><img style='vertical-align:center; align:center' src=img/fixation3.jpg></div><div class='cl'><div class='vertical-center'>$54<br><br>now</div></div><div class='cr'><div class='vertical-center'>$55<br>in<br>12 weeks</div></div><div class='respDivL'><div class='vertical-center'>(E)</div></div><div class='respDivR'><div class='vertical-center'>(I)</div></div></div>","E","$54<br><br>now","$55<br>in<br>12 weeks","0","54","55","12","NOW"
"html-keyboard-response","54","176742","0.0-5.0-3.16","631381096e95278a3f97fed4","bdp_td","Sun Mar 26 2023 05:15:03 GMT-0500 (Central Daylight Time)","216140","","null","","","","offerFB","","<div class='trialBorder'><div class='vertical-center'><img style='vertical-align:center; align:center' src=img/fixation3.jpg></div><div class='cl'><div class='vertical-center'><font style='color:orange'>$54<br><br>now</font></div></div><div class='cr'><div class='vertical-center'>$55<br>in<br>12 weeks</div></div><div class='respDivL'><div class='vertical-center'><font style='color:orange'>(E)</font></div></div><div class='respDivR'><div class='vertical-center'>(I)</div></div></div>","null","$54<br><br>now","$55<br>in<br>12 weeks","0","54","55","12",""
"html-keyboard-response","55","177244","0.0-5.0-1.17","631381096e95278a3f97fed4","bdp_td","Sun Mar 26 2023 05:15:03 GMT-0500 (Central Daylight Time)","216140","","null","","","","FIX","","<div class='trialBorder'><div class='vertical-center'><img style='vertical-align:center; align:center' src=img/fixation3.jpg></div></div>","null","","","","","","",""
"html-keyboard-response","56","179986","0.0-5.0-2.17","631381096e95278a3f97fed4","bdp_td","Sun Mar 26 2023 05:15:03 GMT-0500 (Central Daylight Time)","216140","","2741","","","","offer","","<div class='trialBorder'><div class='vertical-center'><img style='vertical-align:center; align:center' src=img/fixation3.jpg></div><div class='cl'><div class='vertical-center'>$25<br>in<br>12 weeks</div></div><div class='cr'><div class='vertical-center'>$22<br><br>now</div></div><div class='respDivL'><div class='vertical-center'>(E)</div></div><div class='respDivR'><div class='vertical-center'>(I)</div></div></div>","I","$22<br><br>now","$25<br>in<br>12 weeks","1","22","25","12","NOW"
"html-keyboard-response","57","180237","0.0-5.0-3.17","631381096e95278a3f97fed4","bdp_td","Sun Mar 26 2023 05:15:03 GMT-0500 (Central Daylight Time)","216140","","null","","","","offerFB","","<div class='trialBorder'><div class='vertical-center'><img style='vertical-align:center; align:center' src=img/fixation3.jpg></div><div class='cl'><div class='vertical-center'>$25<br>in<br>12 weeks</div></div><div class='cr'><div class='vertical-center'><font style='color:orange'>$22<br><br>now</font></div></div><div class='respDivL'><div class='vertical-center'>(E)</div></div><div class='respDivR'><div class='vertical-center'><font style='color:orange'>(I)</font></div></div></div>","null","$22<br><br>now","$25<br>in<br>12 weeks","1","22","25","12",""
"html-keyboard-response","58","180738","0.0-5.0-1.18","631381096e95278a3f97fed4","bdp_td","Sun Mar 26 2023 05:15:03 GMT-0500 (Central Daylight Time)","216140","","null","","","","FIX","","<div class='trialBorder'><div class='vertical-center'><img style='vertical-align:center; align:center' src=img/fixation3.jpg></div></div>","null","","","","","","",""
"html-keyboard-response","59","184331","0.0-5.0-2.18","631381096e95278a3f97fed4","bdp_td","Sun Mar 26 2023 05:15:03 GMT-0500 (Central Daylight Time)","216140","","3592","","","","offer","","<div class='trialBorder'><div class='vertical-center'><img style='vertical-align:center; align:center' src=img/fixation3.jpg></div><div class='cl'><div class='vertical-center'>$20<br><br>now</div></div><div class='cr'><div class='vertical-center'>$55<br>in<br>1 week</div></div><div class='respDivL'><div class='vertical-center'>(E)</div></div><div class='respDivR'><div class='vertical-center'>(I)</div></div></div>","I","$20<br><br>now","$55<br>in<br>1 week","0","20","55","1","THEN"
"html-keyboard-response","60","184583","0.0-5.0-3.18","631381096e95278a3f97fed4","bdp_td","Sun Mar 26 2023 05:15:03 GMT-0500 (Central Daylight Time)","216140","","null","","","","offerFB","","<div class='trialBorder'><div class='vertical-center'><img style='vertical-align:center; align:center' src=img/fixation3.jpg></div><div class='cl'><div class='vertical-center'>$20<br><br>now</div></div><div class='cr'><div class='vertical-center'><font style='color:orange'>$55<br>in<br>1 week</font></div></div><div class='respDivL'><div class='vertical-center'>(E)</div></div><div class='respDivR'><div class='vertical-center'><font style='color:orange'>(I)</font></div></div></div>","null","$20<br><br>now","$55<br>in<br>1 week","0","20","55","1",""
"html-keyboard-response","61","185085","0.0-5.0-1.19","631381096e95278a3f97fed4","bdp_td","Sun Mar 26 2023 05:15:03 GMT-0500 (Central Daylight Time)","216140","","null","","","","FIX","","<div class='trialBorder'><div class='vertical-center'><img style='vertical-align:center; align:center' src=img/fixation3.jpg></div></div>","null","","","","","","",""
"html-keyboard-response","62","188070","0.0-5.0-2.19","631381096e95278a3f97fed4","bdp_td","Sun Mar 26 2023 05:15:03 GMT-0500 (Central Daylight Time)","216140","","2984","","","","offer","","<div class='trialBorder'><div class='vertical-center'><img style='vertical-align:center; align:center' src=img/fixation3.jpg></div><div class='cl'><div class='vertical-center'>$25<br>in<br>6 weeks</div></div><div class='cr'><div class='vertical-center'>$19<br><br>now</div></div><div class='respDivL'><div class='vertical-center'>(E)</div></div><div class='respDivR'><div class='vertical-center'>(I)</div></div></div>","I","$19<br><br>now","$25<br>in<br>6 weeks","1","19","25","6","NOW"
"html-keyboard-response","63","188322","0.0-5.0-3.19","631381096e95278a3f97fed4","bdp_td","Sun Mar 26 2023 05:15:03 GMT-0500 (Central Daylight Time)","216140","","null","","","","offerFB","","<div class='trialBorder'><div class='vertical-center'><img style='vertical-align:center; align:center' src=img/fixation3.jpg></div><div class='cl'><div class='vertical-center'>$25<br>in<br>6 weeks</div></div><div class='cr'><div class='vertical-center'><font style='color:orange'>$19<br><br>now</font></div></div><div class='respDivL'><div class='vertical-center'>(E)</div></div><div class='respDivR'><div class='vertical-center'><font style='color:orange'>(I)</font></div></div></div>","null","$19<br><br>now","$25<br>in<br>6 weeks","1","19","25","6",""
"html-keyboard-response","64","188823","0.0-5.0-1.20","631381096e95278a3f97fed4","bdp_td","Sun Mar 26 2023 05:15:03 GMT-0500 (Central Daylight Time)","216140","","null","","","","FIX","","<div class='trialBorder'><div class='vertical-center'><img style='vertical-align:center; align:center' src=img/fixation3.jpg></div></div>","null","","","","","","",""
"html-keyboard-response","65","192975","0.0-5.0-2.20","631381096e95278a3f97fed4","bdp_td","Sun Mar 26 2023 05:15:03 GMT-0500 (Central Daylight Time)","216140","","4151","","","","offer","","<div class='trialBorder'><div class='vertical-center'><img style='vertical-align:center; align:center' src=img/fixation3.jpg></div><div class='cl'><div class='vertical-center'>$54<br><br>now</div></div><div class='cr'><div class='vertical-center'>$80<br>in<br>3 weeks</div></div><div class='respDivL'><div class='vertical-center'>(E)</div></div><div class='respDivR'><div class='vertical-center'>(I)</div></div></div>","I","$54<br><br>now","$80<br>in<br>3 weeks","0","54","80","3","THEN"
"html-keyboard-response","66","193227","0.0-5.0-3.20","631381096e95278a3f97fed4","bdp_td","Sun Mar 26 2023 05:15:03 GMT-0500 (Central Daylight Time)","216140","","null","","","","offerFB","","<div class='trialBorder'><div class='vertical-center'><img style='vertical-align:center; align:center' src=img/fixation3.jpg></div><div class='cl'><div class='vertical-center'>$54<br><br>now</div></div><div class='cr'><div class='vertical-center'><font style='color:orange'>$80<br>in<br>3 weeks</font></div></div><div class='respDivL'><div class='vertical-center'>(E)</div></div><div class='respDivR'><div class='vertical-center'><font style='color:orange'>(I)</font></div></div></div>","null","$54<br><br>now","$80<br>in<br>3 weeks","0","54","80","3",""
"html-keyboard-response","67","193728","0.0-5.0-1.21","631381096e95278a3f97fed4","bdp_td","Sun Mar 26 2023 05:15:03 GMT-0500 (Central Daylight Time)","216140","","null","","","","FIX","","<div class='trialBorder'><div class='vertical-center'><img style='vertical-align:center; align:center' src=img/fixation3.jpg></div></div>","null","","","","","","",""
"html-keyboard-response","68","197654","0.0-5.0-2.21","631381096e95278a3f97fed4","bdp_td","Sun Mar 26 2023 05:15:03 GMT-0500 (Central Daylight Time)","216140","","3925","","","","offer","","<div class='trialBorder'><div class='vertical-center'><img style='vertical-align:center; align:center' src=img/fixation3.jpg></div><div class='cl'><div class='vertical-center'>$80<br><br>now</div></div><div class='cr'><div class='vertical-center'>$85<br>in<br>12 weeks</div></div><div class='respDivL'><div class='vertical-center'>(E)</div></div><div class='respDivR'><div class='vertical-center'>(I)</div></div></div>","E","$80<br><br>now","$85<br>in<br>12 weeks","0","80","85","12","NOW"
"html-keyboard-response","69","197906","0.0-5.0-3.21","631381096e95278a3f97fed4","bdp_td","Sun Mar 26 2023 05:15:03 GMT-0500 (Central Daylight Time)","216140","","null","","","","offerFB","","<div class='trialBorder'><div class='vertical-center'><img style='vertical-align:center; align:center' src=img/fixation3.jpg></div><div class='cl'><div class='vertical-center'><font style='color:orange'>$80<br><br>now</font></div></div><div class='cr'><div class='vertical-center'>$85<br>in<br>12 weeks</div></div><div class='respDivL'><div class='vertical-center'><font style='color:orange'>(E)</font></div></div><div class='respDivR'><div class='vertical-center'>(I)</div></div></div>","null","$80<br><br>now","$85<br>in<br>12 weeks","0","80","85","12",""
"html-keyboard-response","70","198407","0.0-5.0-1.22","631381096e95278a3f97fed4","bdp_td","Sun Mar 26 2023 05:15:03 GMT-0500 (Central Daylight Time)","216140","","null","","","","FIX","","<div class='trialBorder'><div class='vertical-center'><img style='vertical-align:center; align:center' src=img/fixation3.jpg></div></div>","null","","","","","","",""
"html-keyboard-response","71","200472","0.0-5.0-2.22","631381096e95278a3f97fed4","bdp_td","Sun Mar 26 2023 05:15:03 GMT-0500 (Central Daylight Time)","216140","","2065","","","","offer","","<div class='trialBorder'><div class='vertical-center'><img style='vertical-align:center; align:center' src=img/fixation3.jpg></div><div class='cl'><div class='vertical-center'>$49<br><br>now</div></div><div class='cr'><div class='vertical-center'>$60<br>in<br>6 weeks</div></div><div class='respDivL'><div class='vertical-center'>(E)</div></div><div class='respDivR'><div class='vertical-center'>(I)</div></div></div>","E","$49<br><br>now","$60<br>in<br>6 weeks","0","49","60","6","NOW"
"html-keyboard-response","72","200723","0.0-5.0-3.22","631381096e95278a3f97fed4","bdp_td","Sun Mar 26 2023 05:15:03 GMT-0500 (Central Daylight Time)","216140","","null","","","","offerFB","","<div class='trialBorder'><div class='vertical-center'><img style='vertical-align:center; align:center' src=img/fixation3.jpg></div><div class='cl'><div class='vertical-center'><font style='color:orange'>$49<br><br>now</font></div></div><div class='cr'><div class='vertical-center'>$60<br>in<br>6 weeks</div></div><div class='respDivL'><div class='vertical-center'><font style='color:orange'>(E)</font></div></div><div class='respDivR'><div class='vertical-center'>(I)</div></div></div>","null","$49<br><br>now","$60<br>in<br>6 weeks","0","49","60","6",""
"html-keyboard-response","73","201224","0.0-5.0-1.23","631381096e95278a3f97fed4","bdp_td","Sun Mar 26 2023 05:15:03 GMT-0500 (Central Daylight Time)","216140","","null","","","","FIX","","<div class='trialBorder'><div class='vertical-center'><img style='vertical-align:center; align:center' src=img/fixation3.jpg></div></div>","null","","","","","","",""
"html-keyboard-response","74","205279","0.0-5.0-2.23","631381096e95278a3f97fed4","bdp_td","Sun Mar 26 2023 05:15:03 GMT-0500 (Central Daylight Time)","216140","","4053","","","","offer","","<div class='trialBorder'><div class='vertical-center'><img style='vertical-align:center; align:center' src=img/fixation3.jpg></div><div class='cl'><div class='vertical-center'>$60<br>in<br>3 weeks</div></div><div class='cr'><div class='vertical-center'>$25<br><br>now</div></div><div class='respDivL'><div class='vertical-center'>(E)</div></div><div class='respDivR'><div class='vertical-center'>(I)</div></div></div>","E","$25<br><br>now","$60<br>in<br>3 weeks","1","25","60","3","THEN"
"html-keyboard-response","75","205530","0.0-5.0-3.23","631381096e95278a3f97fed4","bdp_td","Sun Mar 26 2023 05:15:03 GMT-0500 (Central Daylight Time)","216140","","null","","","","offerFB","","<div class='trialBorder'><div class='vertical-center'><img style='vertical-align:center; align:center' src=img/fixation3.jpg></div><div class='cl'><div class='vertical-center'><font style='color:orange'>$60<br>in<br>3 weeks</font></div></div><div class='cr'><div class='vertical-center'>$25<br><br>now</div></div><div class='respDivL'><div class='vertical-center'><font style='color:orange'>(E)</font></div></div><div class='respDivR'><div class='vertical-center'>(I)</div></div></div>","null","$25<br><br>now","$60<br>in<br>3 weeks","1","25","60","3",""
"html-keyboard-response","76","206032","0.0-5.0-1.24","631381096e95278a3f97fed4","bdp_td","Sun Mar 26 2023 05:15:03 GMT-0500 (Central Daylight Time)","216140","","null","","","","FIX","","<div class='trialBorder'><div class='vertical-center'><img style='vertical-align:center; align:center' src=img/fixation3.jpg></div></div>","null","","","","","","",""
"html-keyboard-response","77","208688","0.0-5.0-2.24","631381096e95278a3f97fed4","bdp_td","Sun Mar 26 2023 05:15:03 GMT-0500 (Central Daylight Time)","216140","","2656","","","","offer","","<div class='trialBorder'><div class='vertical-center'><img style='vertical-align:center; align:center' src=img/fixation3.jpg></div><div class='cl'><div class='vertical-center'>$28<br><br>now</div></div><div class='cr'><div class='vertical-center'>$30<br>in<br>12 weeks</div></div><div class='respDivL'><div class='vertical-center'>(E)</div></div><div class='respDivR'><div class='vertical-center'>(I)</div></div></div>","E","$28<br><br>now","$30<br>in<br>12 weeks","0","28","30","12","NOW"
"html-keyboard-response","78","208939","0.0-5.0-3.24","631381096e95278a3f97fed4","bdp_td","Sun Mar 26 2023 05:15:03 GMT-0500 (Central Daylight Time)","216140","","null","","","","offerFB","","<div class='trialBorder'><div class='vertical-center'><img style='vertical-align:center; align:center' src=img/fixation3.jpg></div><div class='cl'><div class='vertical-center'><font style='color:orange'>$28<br><br>now</font></div></div><div class='cr'><div class='vertical-center'>$30<br>in<br>12 weeks</div></div><div class='respDivL'><div class='vertical-center'><font style='color:orange'>(E)</font></div></div><div class='respDivR'><div class='vertical-center'>(I)</div></div></div>","null","$28<br><br>now","$30<br>in<br>12 weeks","0","28","30","12",""
"html-keyboard-response","79","209441","0.0-5.0-1.25","631381096e95278a3f97fed4","bdp_td","Sun Mar 26 2023 05:15:03 GMT-0500 (Central Daylight Time)","216140","","null","","","","FIX","","<div class='trialBorder'><div class='vertical-center'><img style='vertical-align:center; align:center' src=img/fixation3.jpg></div></div>","null","","","","","","",""
"html-keyboard-response","80","212398","0.0-5.0-2.25","631381096e95278a3f97fed4","bdp_td","Sun Mar 26 2023 05:15:03 GMT-0500 (Central Daylight Time)","216140","","2956","","","","offer","","<div class='trialBorder'><div class='vertical-center'><img style='vertical-align:center; align:center' src=img/fixation3.jpg></div><div class='cl'><div class='vertical-center'>$80<br>in<br>2 weeks</div></div><div class='cr'><div class='vertical-center'>$33<br><br>now</div></div><div class='respDivL'><div class='vertical-center'>(E)</div></div><div class='respDivR'><div class='vertical-center'>(I)</div></div></div>","E","$33<br><br>now","$80<br>in<br>2 weeks","1","33","80","2","THEN"
"html-keyboard-response","81","212649","0.0-5.0-3.25","631381096e95278a3f97fed4","bdp_td","Sun Mar 26 2023 05:15:03 GMT-0500 (Central Daylight Time)","216140","","null","","","","offerFB","","<div class='trialBorder'><div class='vertical-center'><img style='vertical-align:center; align:center' src=img/fixation3.jpg></div><div class='cl'><div class='vertical-center'><font style='color:orange'>$80<br>in<br>2 weeks</font></div></div><div class='cr'><div class='vertical-center'>$33<br><br>now</div></div><div class='respDivL'><div class='vertical-center'><font style='color:orange'>(E)</font></div></div><div class='respDivR'><div class='vertical-center'>(I)</div></div></div>","null","$33<br><br>now","$80<br>in<br>2 weeks","1","33","80","2",""
"html-keyboard-response","82","213151","0.0-5.0-1.26","631381096e95278a3f97fed4","bdp_td","Sun Mar 26 2023 05:15:03 GMT-0500 (Central Daylight Time)","216140","","null","","","","FIX","","<div class='trialBorder'><div class='vertical-center'><img style='vertical-align:center; align:center' src=img/fixation3.jpg></div></div>","null","","","","","","",""
"html-keyboard-response","83","214887","0.0-5.0-2.26","631381096e95278a3f97fed4","bdp_td","Sun Mar 26 2023 05:15:03 GMT-0500 (Central Daylight Time)","216140","","1734","","","","offer","","<div class='trialBorder'><div class='vertical-center'><img style='vertical-align:center; align:center' src=img/fixation3.jpg></div><div class='cl'><div class='vertical-center'>$67<br><br>now</div></div><div class='cr'><div class='vertical-center'>$75<br>in<br>12 weeks</div></div><div class='respDivL'><div class='vertical-center'>(E)</div></div><div class='respDivR'><div class='vertical-center'>(I)</div></div></div>","E","$67<br><br>now","$75<br>in<br>12 weeks","0","67","75","12","NOW"
"html-keyboard-response","84","215138","0.0-5.0-3.26","631381096e95278a3f97fed4","bdp_td","Sun Mar 26 2023 05:15:03 GMT-0500 (Central Daylight Time)","216140","","null","","","","offerFB","","<div class='trialBorder'><div class='vertical-center'><img style='vertical-align:center; align:center' src=img/fixation3.jpg></div><div class='cl'><div class='vertical-center'><font style='color:orange'>$67<br><br>now</font></div></div><div class='cr'><div class='vertical-center'>$75<br>in<br>12 weeks</div></div><div class='respDivL'><div class='vertical-center'><font style='color:orange'>(E)</font></div></div><div class='respDivR'><div class='vertical-center'>(I)</div></div></div>","null","$67<br><br>now","$75<br>in<br>12 weeks","0","67","75","12",""
"","","","","631381096e95278a3f97fed4","bdp_td","Sun Mar 26 2023 05:15:03 GMT-0500 (Central Daylight Time)","216140","","","fullscreenexit","85","215141","fullscreenexit","","","","","","","","","",""
"fullscreen","85","216140","0.0-6.0","631381096e95278a3f97fed4","bdp_td","Sun Mar 26 2023 05:15:03 GMT-0500 (Central Daylight Time)","216140","","","","","","","true","","","","","","","","",""
"html-keyboard-response","86","216641","0.0-7.0","","","","","","null","","","","","","","null","","","","","","",""
