"trial_type","trial_index","time_elapsed","internal_node_id","subject_id","task","startTime","totalTime","view_history","rt","event","trial","time","trialtype","success","stimulus","key_press","nowOffer","thenOffer","thenLeft","nowAmt","thenAmt","thenWeeks","chosen"
"pavlovia","0","3","0.0-0.0","6276b88b3b4036b3f0ca289b","bdp_td","Tue Mar 28 2023 18:09:28 GMT-0700 (Pacific Daylight Time)","131104","","","","","","","","","","","","","","","",""
"instructions","1","5912","0.0-1.0","6276b88b3b4036b3f0ca289b","bdp_td","Tue Mar 28 2023 18:09:28 GMT-0700 (Pacific Daylight Time)","131104","[{""page_index"":0,""viewing_time"":5908}]","5908","","","","","","","","","","","","","",""
"","","","","6276b88b3b4036b3f0ca289b","bdp_td","Tue Mar 28 2023 18:09:28 GMT-0700 (Pacific Daylight Time)","131104","","","fullscreenenter","2","8194","fullscreenenter","","","","","","","","","",""
"fullscreen","2","9162","0.0-2.0","6276b88b3b4036b3f0ca289b","bdp_td","Tue Mar 28 2023 18:09:28 GMT-0700 (Pacific Daylight Time)","131104","","","","","","","true","","","","","","","","",""
"instructions","3","41330","0.0-4.0","6276b88b3b4036b3f0ca289b","bdp_td","Tue Mar 28 2023 18:09:28 GMT-0700 (Pacific Daylight Time)","131104","[{""page_index"":0,""viewing_time"":11169},{""page_index"":1,""viewing_time"":14407},{""page_index"":2,""viewing_time"":6592}]","32168","","","","","","","","","","","","","",""
"html-keyboard-response","4","41832","0.0-5.0-1.0","6276b88b3b4036b3f0ca289b","bdp_td","Tue Mar 28 2023 18:09:28 GMT-0700 (Pacific Daylight Time)","131104","","null","","","","FIX","","<div class='trialBorder'><div class='vertical-center'><img style='vertical-align:center; align:center' src=img/fixation3.jpg></div></div>","null","","","","","","",""
"html-keyboard-response","5","44965","0.0-5.0-2.0","6276b88b3b4036b3f0ca289b","bdp_td","Tue Mar 28 2023 18:09:28 GMT-0700 (Pacific Daylight Time)","131104","","3132","","","","offer","","<div class='trialBorder'><div class='vertical-center'><img style='vertical-align:center; align:center' src=img/fixation3.jpg></div><div class='cl'><div class='vertical-center'>$69<br><br>now</div></div><div class='cr'><div class='vertical-center'>$85<br>in<br>6 weeks</div></div><div class='respDivL'><div class='vertical-center'>(E)</div></div><div class='respDivR'><div class='vertical-center'>(I)</div></div></div>","E","$69<br><br>now","$85<br>in<br>6 weeks","0","69","85","6","NOW"
"html-keyboard-response","6","45217","0.0-5.0-3.0","6276b88b3b4036b3f0ca289b","bdp_td","Tue Mar 28 2023 18:09:28 GMT-0700 (Pacific Daylight Time)","131104","","null","","","","offerFB","","<div class='trialBorder'><div class='vertical-center'><img style='vertical-align:center; align:center' src=img/fixation3.jpg></div><div class='cl'><div class='vertical-center'><font style='color:orange'>$69<br><br>now</font></div></div><div class='cr'><div class='vertical-center'>$85<br>in<br>6 weeks</div></div><div class='respDivL'><div class='vertical-center'><font style='color:orange'>(E)</font></div></div><div class='respDivR'><div class='vertical-center'>(I)</div></div></div>","null","$69<br><br>now","$85<br>in<br>6 weeks","0","69","85","6",""
"html-keyboard-response","7","45719","0.0-5.0-1.1","6276b88b3b4036b3f0ca289b","bdp_td","Tue Mar 28 2023 18:09:28 GMT-0700 (Pacific Daylight Time)","131104","","null","","","","FIX","","<div class='trialBorder'><div class='vertical-center'><img style='vertical-align:center; align:center' src=img/fixation3.jpg></div></div>","null","","","","","","",""
"html-keyboard-response","8","47628","0.0-5.0-2.1","6276b88b3b4036b3f0ca289b","bdp_td","Tue Mar 28 2023 18:09:28 GMT-0700 (Pacific Daylight Time)","131104","","1909","","","","offer","","<div class='trialBorder'><div class='vertical-center'><img style='vertical-align:center; align:center' src=img/fixation3.jpg></div><div class='cl'><div class='vertical-center'>$25<br><br>now</div></div><div class='cr'><div class='vertical-center'>$60<br>in<br>3 weeks</div></div><div class='respDivL'><div class='vertical-center'>(E)</div></div><div class='respDivR'><div class='vertical-center'>(I)</div></div></div>","I","$25<br><br>now","$60<br>in<br>3 weeks","0","25","60","3","THEN"
"html-keyboard-response","9","47880","0.0-5.0-3.1","6276b88b3b4036b3f0ca289b","bdp_td","Tue Mar 28 2023 18:09:28 GMT-0700 (Pacific Daylight Time)","131104","","null","","","","offerFB","","<div class='trialBorder'><div class='vertical-center'><img style='vertical-align:center; align:center' src=img/fixation3.jpg></div><div class='cl'><div class='vertical-center'>$25<br><br>now</div></div><div class='cr'><div class='vertical-center'><font style='color:orange'>$60<br>in<br>3 weeks</font></div></div><div class='respDivL'><div class='vertical-center'>(E)</div></div><div class='respDivR'><div class='vertical-center'><font style='color:orange'>(I)</font></div></div></div>","null","$25<br><br>now","$60<br>in<br>3 weeks","0","25","60","3",""
"html-keyboard-response","10","48382","0.0-5.0-1.2","6276b88b3b4036b3f0ca289b","bdp_td","Tue Mar 28 2023 18:09:28 GMT-0700 (Pacific Daylight Time)","131104","","null","","","","FIX","","<div class='trialBorder'><div class='vertical-center'><img style='vertical-align:center; align:center' src=img/fixation3.jpg></div></div>","null","","","","","","",""
"html-keyboard-response","11","52004","0.0-5.0-2.2","6276b88b3b4036b3f0ca289b","bdp_td","Tue Mar 28 2023 18:09:28 GMT-0700 (Pacific Daylight Time)","131104","","3622","","","","offer","","<div class='trialBorder'><div class='vertical-center'><img style='vertical-align:center; align:center' src=img/fixation3.jpg></div><div class='cl'><div class='vertical-center'>$80<br>in<br>2 weeks</div></div><div class='cr'><div class='vertical-center'>$33<br><br>now</div></div><div class='respDivL'><div class='vertical-center'>(E)</div></div><div class='respDivR'><div class='vertical-center'>(I)</div></div></div>","E","$33<br><br>now","$80<br>in<br>2 weeks","1","33","80","2","THEN"
"html-keyboard-response","12","52255","0.0-5.0-3.2","6276b88b3b4036b3f0ca289b","bdp_td","Tue Mar 28 2023 18:09:28 GMT-0700 (Pacific Daylight Time)","131104","","null","","","","offerFB","","<div class='trialBorder'><div class='vertical-center'><img style='vertical-align:center; align:center' src=img/fixation3.jpg></div><div class='cl'><div class='vertical-center'><font style='color:orange'>$80<br>in<br>2 weeks</font></div></div><div class='cr'><div class='vertical-center'>$33<br><br>now</div></div><div class='respDivL'><div class='vertical-center'><font style='color:orange'>(E)</font></div></div><div class='respDivR'><div class='vertical-center'>(I)</div></div></div>","null","$33<br><br>now","$80<br>in<br>2 weeks","1","33","80","2",""
"html-keyboard-response","13","52757","0.0-5.0-1.3","6276b88b3b4036b3f0ca289b","bdp_td","Tue Mar 28 2023 18:09:28 GMT-0700 (Pacific Daylight Time)","131104","","null","","","","FIX","","<div class='trialBorder'><div class='vertical-center'><img style='vertical-align:center; align:center' src=img/fixation3.jpg></div></div>","null","","","","","","",""
"html-keyboard-response","14","55591","0.0-5.0-2.3","6276b88b3b4036b3f0ca289b","bdp_td","Tue Mar 28 2023 18:09:28 GMT-0700 (Pacific Daylight Time)","131104","","2834","","","","offer","","<div class='trialBorder'><div class='vertical-center'><img style='vertical-align:center; align:center' src=img/fixation3.jpg></div><div class='cl'><div class='vertical-center'>$80<br>in<br>3 weeks</div></div><div class='cr'><div class='vertical-center'>$54<br><br>now</div></div><div class='respDivL'><div class='vertical-center'>(E)</div></div><div class='respDivR'><div class='vertical-center'>(I)</div></div></div>","E","$54<br><br>now","$80<br>in<br>3 weeks","1","54","80","3","THEN"
"html-keyboard-response","15","55842","0.0-5.0-3.3","6276b88b3b4036b3f0ca289b","bdp_td","Tue Mar 28 2023 18:09:28 GMT-0700 (Pacific Daylight Time)","131104","","null","","","","offerFB","","<div class='trialBorder'><div class='vertical-center'><img style='vertical-align:center; align:center' src=img/fixation3.jpg></div><div class='cl'><div class='vertical-center'><font style='color:orange'>$80<br>in<br>3 weeks</font></div></div><div class='cr'><div class='vertical-center'>$54<br><br>now</div></div><div class='respDivL'><div class='vertical-center'><font style='color:orange'>(E)</font></div></div><div class='respDivR'><div class='vertical-center'>(I)</div></div></div>","null","$54<br><br>now","$80<br>in<br>3 weeks","1","54","80","3",""
"html-keyboard-response","16","56343","0.0-5.0-1.4","6276b88b3b4036b3f0ca289b","bdp_td","Tue Mar 28 2023 18:09:28 GMT-0700 (Pacific Daylight Time)","131104","","null","","","","FIX","","<div class='trialBorder'><div class='vertical-center'><img style='vertical-align:center; align:center' src=img/fixation3.jpg></div></div>","null","","","","","","",""
"html-keyboard-response","17","59253","0.0-5.0-2.4","6276b88b3b4036b3f0ca289b","bdp_td","Tue Mar 28 2023 18:09:28 GMT-0700 (Pacific Daylight Time)","131104","","2910","","","","offer","","<div class='trialBorder'><div class='vertical-center'><img style='vertical-align:center; align:center' src=img/fixation3.jpg></div><div class='cl'><div class='vertical-center'>$55<br><br>now</div></div><div class='cr'><div class='vertical-center'>$75<br>in<br>6 weeks</div></div><div class='respDivL'><div class='vertical-center'>(E)</div></div><div class='respDivR'><div class='vertical-center'>(I)</div></div></div>","E","$55<br><br>now","$75<br>in<br>6 weeks","0","55","75","6","NOW"
"html-keyboard-response","18","59504","0.0-5.0-3.4","6276b88b3b4036b3f0ca289b","bdp_td","Tue Mar 28 2023 18:09:28 GMT-0700 (Pacific Daylight Time)","131104","","null","","","","offerFB","","<div class='trialBorder'><div class='vertical-center'><img style='vertical-align:center; align:center' src=img/fixation3.jpg></div><div class='cl'><div class='vertical-center'><font style='color:orange'>$55<br><br>now</font></div></div><div class='cr'><div class='vertical-center'>$75<br>in<br>6 weeks</div></div><div class='respDivL'><div class='vertical-center'><font style='color:orange'>(E)</font></div></div><div class='respDivR'><div class='vertical-center'>(I)</div></div></div>","null","$55<br><br>now","$75<br>in<br>6 weeks","0","55","75","6",""
"html-keyboard-response","19","60006","0.0-5.0-1.5","6276b88b3b4036b3f0ca289b","bdp_td","Tue Mar 28 2023 18:09:28 GMT-0700 (Pacific Daylight Time)","131104","","null","","","","FIX","","<div class='trialBorder'><div class='vertical-center'><img style='vertical-align:center; align:center' src=img/fixation3.jpg></div></div>","null","","","","","","",""
"html-keyboard-response","20","64854","0.0-5.0-2.5","6276b88b3b4036b3f0ca289b","bdp_td","Tue Mar 28 2023 18:09:28 GMT-0700 (Pacific Daylight Time)","131104","","4848","","","","offer","","<div class='trialBorder'><div class='vertical-center'><img style='vertical-align:center; align:center' src=img/fixation3.jpg></div><div class='cl'><div class='vertical-center'>$55<br>in<br>1 week</div></div><div class='cr'><div class='vertical-center'>$20<br><br>now</div></div><div class='respDivL'><div class='vertical-center'>(E)</div></div><div class='respDivR'><div class='vertical-center'>(I)</div></div></div>","E","$20<br><br>now","$55<br>in<br>1 week","1","20","55","1","THEN"
"html-keyboard-response","21","65106","0.0-5.0-3.5","6276b88b3b4036b3f0ca289b","bdp_td","Tue Mar 28 2023 18:09:28 GMT-0700 (Pacific Daylight Time)","131104","","null","","","","offerFB","","<div class='trialBorder'><div class='vertical-center'><img style='vertical-align:center; align:center' src=img/fixation3.jpg></div><div class='cl'><div class='vertical-center'><font style='color:orange'>$55<br>in<br>1 week</font></div></div><div class='cr'><div class='vertical-center'>$20<br><br>now</div></div><div class='respDivL'><div class='vertical-center'><font style='color:orange'>(E)</font></div></div><div class='respDivR'><div class='vertical-center'>(I)</div></div></div>","null","$20<br><br>now","$55<br>in<br>1 week","1","20","55","1",""
"html-keyboard-response","22","65607","0.0-5.0-1.6","6276b88b3b4036b3f0ca289b","bdp_td","Tue Mar 28 2023 18:09:28 GMT-0700 (Pacific Daylight Time)","131104","","null","","","","FIX","","<div class='trialBorder'><div class='vertical-center'><img style='vertical-align:center; align:center' src=img/fixation3.jpg></div></div>","null","","","","","","",""
"html-keyboard-response","23","68355","0.0-5.0-2.6","6276b88b3b4036b3f0ca289b","bdp_td","Tue Mar 28 2023 18:09:28 GMT-0700 (Pacific Daylight Time)","131104","","2747","","","","offer","","<div class='trialBorder'><div class='vertical-center'><img style='vertical-align:center; align:center' src=img/fixation3.jpg></div><div class='cl'><div class='vertical-center'>$34<br><br>now</div></div><div class='cr'><div class='vertical-center'>$35<br>in<br>12 weeks</div></div><div class='respDivL'><div class='vertical-center'>(E)</div></div><div class='respDivR'><div class='vertical-center'>(I)</div></div></div>","E","$34<br><br>now","$35<br>in<br>12 weeks","0","34","35","12","NOW"
"html-keyboard-response","24","68606","0.0-5.0-3.6","6276b88b3b4036b3f0ca289b","bdp_td","Tue Mar 28 2023 18:09:28 GMT-0700 (Pacific Daylight Time)","131104","","null","","","","offerFB","","<div class='trialBorder'><div class='vertical-center'><img style='vertical-align:center; align:center' src=img/fixation3.jpg></div><div class='cl'><div class='vertical-center'><font style='color:orange'>$34<br><br>now</font></div></div><div class='cr'><div class='vertical-center'>$35<br>in<br>12 weeks</div></div><div class='respDivL'><div class='vertical-center'><font style='color:orange'>(E)</font></div></div><div class='respDivR'><div class='vertical-center'>(I)</div></div></div>","null","$34<br><br>now","$35<br>in<br>12 weeks","0","34","35","12",""
"html-keyboard-response","25","69108","0.0-5.0-1.7","6276b88b3b4036b3f0ca289b","bdp_td","Tue Mar 28 2023 18:09:28 GMT-0700 (Pacific Daylight Time)","131104","","null","","","","FIX","","<div class='trialBorder'><div class='vertical-center'><img style='vertical-align:center; align:center' src=img/fixation3.jpg></div></div>","null","","","","","","",""
"html-keyboard-response","26","71904","0.0-5.0-2.7","6276b88b3b4036b3f0ca289b","bdp_td","Tue Mar 28 2023 18:09:28 GMT-0700 (Pacific Daylight Time)","131104","","2795","","","","offer","","<div class='trialBorder'><div class='vertical-center'><img style='vertical-align:center; align:center' src=img/fixation3.jpg></div><div class='cl'><div class='vertical-center'>$50<br>in<br>6 weeks</div></div><div class='cr'><div class='vertical-center'>$34<br><br>now</div></div><div class='respDivL'><div class='vertical-center'>(E)</div></div><div class='respDivR'><div class='vertical-center'>(I)</div></div></div>","I","$34<br><br>now","$50<br>in<br>6 weeks","1","34","50","6","NOW"
"html-keyboard-response","27","72156","0.0-5.0-3.7","6276b88b3b4036b3f0ca289b","bdp_td","Tue Mar 28 2023 18:09:28 GMT-0700 (Pacific Daylight Time)","131104","","null","","","","offerFB","","<div class='trialBorder'><div class='vertical-center'><img style='vertical-align:center; align:center' src=img/fixation3.jpg></div><div class='cl'><div class='vertical-center'>$50<br>in<br>6 weeks</div></div><div class='cr'><div class='vertical-center'><font style='color:orange'>$34<br><br>now</font></div></div><div class='respDivL'><div class='vertical-center'>(E)</div></div><div class='respDivR'><div class='vertical-center'><font style='color:orange'>(I)</font></div></div></div>","null","$34<br><br>now","$50<br>in<br>6 weeks","1","34","50","6",""
"html-keyboard-response","28","72657","0.0-5.0-1.8","6276b88b3b4036b3f0ca289b","bdp_td","Tue Mar 28 2023 18:09:28 GMT-0700 (Pacific Daylight Time)","131104","","null","","","","FIX","","<div class='trialBorder'><div class='vertical-center'><img style='vertical-align:center; align:center' src=img/fixation3.jpg></div></div>","null","","","","","","",""
"html-keyboard-response","29","74354","0.0-5.0-2.8","6276b88b3b4036b3f0ca289b","bdp_td","Tue Mar 28 2023 18:09:28 GMT-0700 (Pacific Daylight Time)","131104","","1696","","","","offer","","<div class='trialBorder'><div class='vertical-center'><img style='vertical-align:center; align:center' src=img/fixation3.jpg></div><div class='cl'><div class='vertical-center'>$25<br><br>now</div></div><div class='cr'><div class='vertical-center'>$30<br>in<br>6 weeks</div></div><div class='respDivL'><div class='vertical-center'>(E)</div></div><div class='respDivR'><div class='vertical-center'>(I)</div></div></div>","E","$25<br><br>now","$30<br>in<br>6 weeks","0","25","30","6","NOW"
"html-keyboard-response","30","74605","0.0-5.0-3.8","6276b88b3b4036b3f0ca289b","bdp_td","Tue Mar 28 2023 18:09:28 GMT-0700 (Pacific Daylight Time)","131104","","null","","","","offerFB","","<div class='trialBorder'><div class='vertical-center'><img style='vertical-align:center; align:center' src=img/fixation3.jpg></div><div class='cl'><div class='vertical-center'><font style='color:orange'>$25<br><br>now</font></div></div><div class='cr'><div class='vertical-center'>$30<br>in<br>6 weeks</div></div><div class='respDivL'><div class='vertical-center'><font style='color:orange'>(E)</font></div></div><div class='respDivR'><div class='vertical-center'>(I)</div></div></div>","null","$25<br><br>now","$30<br>in<br>6 weeks","0","25","30","6",""
"html-keyboard-response","31","75107","0.0-5.0-1.9","6276b88b3b4036b3f0ca289b","bdp_td","Tue Mar 28 2023 18:09:28 GMT-0700 (Pacific Daylight Time)","131104","","null","","","","FIX","","<div class='trialBorder'><div class='vertical-center'><img style='vertical-align:center; align:center' src=img/fixation3.jpg></div></div>","null","","","","","","",""
"html-keyboard-response","32","78856","0.0-5.0-2.9","6276b88b3b4036b3f0ca289b","bdp_td","Tue Mar 28 2023 18:09:28 GMT-0700 (Pacific Daylight Time)","131104","","3748","","","","offer","","<div class='trialBorder'><div class='vertical-center'><img style='vertical-align:center; align:center' src=img/fixation3.jpg></div><div class='cl'><div class='vertical-center'>$75<br>in<br>12 weeks</div></div><div class='cr'><div class='vertical-center'>$67<br><br>now</div></div><div class='respDivL'><div class='vertical-center'>(E)</div></div><div class='respDivR'><div class='vertical-center'>(I)</div></div></div>","I","$67<br><br>now","$75<br>in<br>12 weeks","1","67","75","12","NOW"
"html-keyboard-response","33","79108","0.0-5.0-3.9","6276b88b3b4036b3f0ca289b","bdp_td","Tue Mar 28 2023 18:09:28 GMT-0700 (Pacific Daylight Time)","131104","","null","","","","offerFB","","<div class='trialBorder'><div class='vertical-center'><img style='vertical-align:center; align:center' src=img/fixation3.jpg></div><div class='cl'><div class='vertical-center'>$75<br>in<br>12 weeks</div></div><div class='cr'><div class='vertical-center'><font style='color:orange'>$67<br><br>now</font></div></div><div class='respDivL'><div class='vertical-center'>(E)</div></div><div class='respDivR'><div class='vertical-center'><font style='color:orange'>(I)</font></div></div></div>","null","$67<br><br>now","$75<br>in<br>12 weeks","1","67","75","12",""
"html-keyboard-response","34","79609","0.0-5.0-1.10","6276b88b3b4036b3f0ca289b","bdp_td","Tue Mar 28 2023 18:09:28 GMT-0700 (Pacific Daylight Time)","131104","","null","","","","FIX","","<div class='trialBorder'><div class='vertical-center'><img style='vertical-align:center; align:center' src=img/fixation3.jpg></div></div>","null","","","","","","",""
"html-keyboard-response","35","81798","0.0-5.0-2.10","6276b88b3b4036b3f0ca289b","bdp_td","Tue Mar 28 2023 18:09:28 GMT-0700 (Pacific Daylight Time)","131104","","2188","","","","offer","","<div class='trialBorder'><div class='vertical-center'><img style='vertical-align:center; align:center' src=img/fixation3.jpg></div><div class='cl'><div class='vertical-center'>$25<br>in<br>12 weeks</div></div><div class='cr'><div class='vertical-center'>$22<br><br>now</div></div><div class='respDivL'><div class='vertical-center'>(E)</div></div><div class='respDivR'><div class='vertical-center'>(I)</div></div></div>","I","$22<br><br>now","$25<br>in<br>12 weeks","1","22","25","12","NOW"
"html-keyboard-response","36","82050","0.0-5.0-3.10","6276b88b3b4036b3f0ca289b","bdp_td","Tue Mar 28 2023 18:09:28 GMT-0700 (Pacific Daylight Time)","131104","","null","","","","offerFB","","<div class='trialBorder'><div class='vertical-center'><img style='vertical-align:center; align:center' src=img/fixation3.jpg></div><div class='cl'><div class='vertical-center'>$25<br>in<br>12 weeks</div></div><div class='cr'><div class='vertical-center'><font style='color:orange'>$22<br><br>now</font></div></div><div class='respDivL'><div class='vertical-center'>(E)</div></div><div class='respDivR'><div class='vertical-center'><font style='color:orange'>(I)</font></div></div></div>","null","$22<br><br>now","$25<br>in<br>12 weeks","1","22","25","12",""
"html-keyboard-response","37","82552","0.0-5.0-1.11","6276b88b3b4036b3f0ca289b","bdp_td","Tue Mar 28 2023 18:09:28 GMT-0700 (Pacific Daylight Time)","131104","","null","","","","FIX","","<div class='trialBorder'><div class='vertical-center'><img style='vertical-align:center; align:center' src=img/fixation3.jpg></div></div>","null","","","","","","",""
"html-keyboard-response","38","83901","0.0-5.0-2.11","6276b88b3b4036b3f0ca289b","bdp_td","Tue Mar 28 2023 18:09:28 GMT-0700 (Pacific Daylight Time)","131104","","1349","","","","offer","","<div class='trialBorder'><div class='vertical-center'><img style='vertical-align:center; align:center' src=img/fixation3.jpg></div><div class='cl'><div class='vertical-center'>$25<br>in<br>3 weeks</div></div><div class='cr'><div class='vertical-center'>$14<br><br>now</div></div><div class='respDivL'><div class='vertical-center'>(E)</div></div><div class='respDivR'><div class='vertical-center'>(I)</div></div></div>","I","$14<br><br>now","$25<br>in<br>3 weeks","1","14","25","3","NOW"
"html-keyboard-response","39","84153","0.0-5.0-3.11","6276b88b3b4036b3f0ca289b","bdp_td","Tue Mar 28 2023 18:09:28 GMT-0700 (Pacific Daylight Time)","131104","","null","","","","offerFB","","<div class='trialBorder'><div class='vertical-center'><img style='vertical-align:center; align:center' src=img/fixation3.jpg></div><div class='cl'><div class='vertical-center'>$25<br>in<br>3 weeks</div></div><div class='cr'><div class='vertical-center'><font style='color:orange'>$14<br><br>now</font></div></div><div class='respDivL'><div class='vertical-center'>(E)</div></div><div class='respDivR'><div class='vertical-center'><font style='color:orange'>(I)</font></div></div></div>","null","$14<br><br>now","$25<br>in<br>3 weeks","1","14","25","3",""
"html-keyboard-response","40","84655","0.0-5.0-1.12","6276b88b3b4036b3f0ca289b","bdp_td","Tue Mar 28 2023 18:09:28 GMT-0700 (Pacific Daylight Time)","131104","","null","","","","FIX","","<div class='trialBorder'><div class='vertical-center'><img style='vertical-align:center; align:center' src=img/fixation3.jpg></div></div>","null","","","","","","",""
"html-keyboard-response","41","86227","0.0-5.0-2.12","6276b88b3b4036b3f0ca289b","bdp_td","Tue Mar 28 2023 18:09:28 GMT-0700 (Pacific Daylight Time)","131104","","1572","","","","offer","","<div class='trialBorder'><div class='vertical-center'><img style='vertical-align:center; align:center' src=img/fixation3.jpg></div><div class='cl'><div class='vertical-center'>$24<br><br>now</div></div><div class='cr'><div class='vertical-center'>$35<br>in<br>3 weeks</div></div><div class='respDivL'><div class='vertical-center'>(E)</div></div><div class='respDivR'><div class='vertical-center'>(I)</div></div></div>","E","$24<br><br>now","$35<br>in<br>3 weeks","0","24","35","3","NOW"
"html-keyboard-response","42","86479","0.0-5.0-3.12","6276b88b3b4036b3f0ca289b","bdp_td","Tue Mar 28 2023 18:09:28 GMT-0700 (Pacific Daylight Time)","131104","","null","","","","offerFB","","<div class='trialBorder'><div class='vertical-center'><img style='vertical-align:center; align:center' src=img/fixation3.jpg></div><div class='cl'><div class='vertical-center'><font style='color:orange'>$24<br><br>now</font></div></div><div class='cr'><div class='vertical-center'>$35<br>in<br>3 weeks</div></div><div class='respDivL'><div class='vertical-center'><font style='color:orange'>(E)</font></div></div><div class='respDivR'><div class='vertical-center'>(I)</div></div></div>","null","$24<br><br>now","$35<br>in<br>3 weeks","0","24","35","3",""
"html-keyboard-response","43","86980","0.0-5.0-1.13","6276b88b3b4036b3f0ca289b","bdp_td","Tue Mar 28 2023 18:09:28 GMT-0700 (Pacific Daylight Time)","131104","","null","","","","FIX","","<div class='trialBorder'><div class='vertical-center'><img style='vertical-align:center; align:center' src=img/fixation3.jpg></div></div>","null","","","","","","",""
"html-keyboard-response","44","88448","0.0-5.0-2.13","6276b88b3b4036b3f0ca289b","bdp_td","Tue Mar 28 2023 18:09:28 GMT-0700 (Pacific Daylight Time)","131104","","1467","","","","offer","","<div class='trialBorder'><div class='vertical-center'><img style='vertical-align:center; align:center' src=img/fixation3.jpg></div><div class='cl'><div class='vertical-center'>$25<br>in<br>6 weeks</div></div><div class='cr'><div class='vertical-center'>$19<br><br>now</div></div><div class='respDivL'><div class='vertical-center'>(E)</div></div><div class='respDivR'><div class='vertical-center'>(I)</div></div></div>","I","$19<br><br>now","$25<br>in<br>6 weeks","1","19","25","6","NOW"
"html-keyboard-response","45","88700","0.0-5.0-3.13","6276b88b3b4036b3f0ca289b","bdp_td","Tue Mar 28 2023 18:09:28 GMT-0700 (Pacific Daylight Time)","131104","","null","","","","offerFB","","<div class='trialBorder'><div class='vertical-center'><img style='vertical-align:center; align:center' src=img/fixation3.jpg></div><div class='cl'><div class='vertical-center'>$25<br>in<br>6 weeks</div></div><div class='cr'><div class='vertical-center'><font style='color:orange'>$19<br><br>now</font></div></div><div class='respDivL'><div class='vertical-center'>(E)</div></div><div class='respDivR'><div class='vertical-center'><font style='color:orange'>(I)</font></div></div></div>","null","$19<br><br>now","$25<br>in<br>6 weeks","1","19","25","6",""
"html-keyboard-response","46","89201","0.0-5.0-1.14","6276b88b3b4036b3f0ca289b","bdp_td","Tue Mar 28 2023 18:09:28 GMT-0700 (Pacific Daylight Time)","131104","","null","","","","FIX","","<div class='trialBorder'><div class='vertical-center'><img style='vertical-align:center; align:center' src=img/fixation3.jpg></div></div>","null","","","","","","",""
"html-keyboard-response","47","92083","0.0-5.0-2.14","6276b88b3b4036b3f0ca289b","bdp_td","Tue Mar 28 2023 18:09:28 GMT-0700 (Pacific Daylight Time)","131104","","2881","","","","offer","","<div class='trialBorder'><div class='vertical-center'><img style='vertical-align:center; align:center' src=img/fixation3.jpg></div><div class='cl'><div class='vertical-center'>$75<br>in<br>3 weeks</div></div><div class='cr'><div class='vertical-center'>$41<br><br>now</div></div><div class='respDivL'><div class='vertical-center'>(E)</div></div><div class='respDivR'><div class='vertical-center'>(I)</div></div></div>","I","$41<br><br>now","$75<br>in<br>3 weeks","1","41","75","3","NOW"
"html-keyboard-response","48","92334","0.0-5.0-3.14","6276b88b3b4036b3f0ca289b","bdp_td","Tue Mar 28 2023 18:09:28 GMT-0700 (Pacific Daylight Time)","131104","","null","","","","offerFB","","<div class='trialBorder'><div class='vertical-center'><img style='vertical-align:center; align:center' src=img/fixation3.jpg></div><div class='cl'><div class='vertical-center'>$75<br>in<br>3 weeks</div></div><div class='cr'><div class='vertical-center'><font style='color:orange'>$41<br><br>now</font></div></div><div class='respDivL'><div class='vertical-center'>(E)</div></div><div class='respDivR'><div class='vertical-center'><font style='color:orange'>(I)</font></div></div></div>","null","$41<br><br>now","$75<br>in<br>3 weeks","1","41","75","3",""
"html-keyboard-response","49","92835","0.0-5.0-1.15","6276b88b3b4036b3f0ca289b","bdp_td","Tue Mar 28 2023 18:09:28 GMT-0700 (Pacific Daylight Time)","131104","","null","","","","FIX","","<div class='trialBorder'><div class='vertical-center'><img style='vertical-align:center; align:center' src=img/fixation3.jpg></div></div>","null","","","","","","",""
"html-keyboard-response","50","94520","0.0-5.0-2.15","6276b88b3b4036b3f0ca289b","bdp_td","Tue Mar 28 2023 18:09:28 GMT-0700 (Pacific Daylight Time)","131104","","1685","","","","offer","","<div class='trialBorder'><div class='vertical-center'><img style='vertical-align:center; align:center' src=img/fixation3.jpg></div><div class='cl'><div class='vertical-center'>$47<br><br>now</div></div><div class='cr'><div class='vertical-center'>$50<br>in<br>12 weeks</div></div><div class='respDivL'><div class='vertical-center'>(E)</div></div><div class='respDivR'><div class='vertical-center'>(I)</div></div></div>","E","$47<br><br>now","$50<br>in<br>12 weeks","0","47","50","12","NOW"
"html-keyboard-response","51","94772","0.0-5.0-3.15","6276b88b3b4036b3f0ca289b","bdp_td","Tue Mar 28 2023 18:09:28 GMT-0700 (Pacific Daylight Time)","131104","","null","","","","offerFB","","<div class='trialBorder'><div class='vertical-center'><img style='vertical-align:center; align:center' src=img/fixation3.jpg></div><div class='cl'><div class='vertical-center'><font style='color:orange'>$47<br><br>now</font></div></div><div class='cr'><div class='vertical-center'>$50<br>in<br>12 weeks</div></div><div class='respDivL'><div class='vertical-center'><font style='color:orange'>(E)</font></div></div><div class='respDivR'><div class='vertical-center'>(I)</div></div></div>","null","$47<br><br>now","$50<br>in<br>12 weeks","0","47","50","12",""
"html-keyboard-response","52","95274","0.0-5.0-1.16","6276b88b3b4036b3f0ca289b","bdp_td","Tue Mar 28 2023 18:09:28 GMT-0700 (Pacific Daylight Time)","131104","","null","","","","FIX","","<div class='trialBorder'><div class='vertical-center'><img style='vertical-align:center; align:center' src=img/fixation3.jpg></div></div>","null","","","","","","",""
"html-keyboard-response","53","96410","0.0-5.0-2.16","6276b88b3b4036b3f0ca289b","bdp_td","Tue Mar 28 2023 18:09:28 GMT-0700 (Pacific Daylight Time)","131104","","1135","","","","offer","","<div class='trialBorder'><div class='vertical-center'><img style='vertical-align:center; align:center' src=img/fixation3.jpg></div><div class='cl'><div class='vertical-center'>$40<br><br>now</div></div><div class='cr'><div class='vertical-center'>$55<br>in<br>6 weeks</div></div><div class='respDivL'><div class='vertical-center'>(E)</div></div><div class='respDivR'><div class='vertical-center'>(I)</div></div></div>","E","$40<br><br>now","$55<br>in<br>6 weeks","0","40","55","6","NOW"
"html-keyboard-response","54","96663","0.0-5.0-3.16","6276b88b3b4036b3f0ca289b","bdp_td","Tue Mar 28 2023 18:09:28 GMT-0700 (Pacific Daylight Time)","131104","","null","","","","offerFB","","<div class='trialBorder'><div class='vertical-center'><img style='vertical-align:center; align:center' src=img/fixation3.jpg></div><div class='cl'><div class='vertical-center'><font style='color:orange'>$40<br><br>now</font></div></div><div class='cr'><div class='vertical-center'>$55<br>in<br>6 weeks</div></div><div class='respDivL'><div class='vertical-center'><font style='color:orange'>(E)</font></div></div><div class='respDivR'><div class='vertical-center'>(I)</div></div></div>","null","$40<br><br>now","$55<br>in<br>6 weeks","0","40","55","6",""
"html-keyboard-response","55","97165","0.0-5.0-1.17","6276b88b3b4036b3f0ca289b","bdp_td","Tue Mar 28 2023 18:09:28 GMT-0700 (Pacific Daylight Time)","131104","","null","","","","FIX","","<div class='trialBorder'><div class='vertical-center'><img style='vertical-align:center; align:center' src=img/fixation3.jpg></div></div>","null","","","","","","",""
"html-keyboard-response","56","98452","0.0-5.0-2.17","6276b88b3b4036b3f0ca289b","bdp_td","Tue Mar 28 2023 18:09:28 GMT-0700 (Pacific Daylight Time)","131104","","1287","","","","offer","","<div class='trialBorder'><div class='vertical-center'><img style='vertical-align:center; align:center' src=img/fixation3.jpg></div><div class='cl'><div class='vertical-center'>$60<br>in<br>12 weeks</div></div><div class='cr'><div class='vertical-center'>$54<br><br>now</div></div><div class='respDivL'><div class='vertical-center'>(E)</div></div><div class='respDivR'><div class='vertical-center'>(I)</div></div></div>","I","$54<br><br>now","$60<br>in<br>12 weeks","1","54","60","12","NOW"
"html-keyboard-response","57","98704","0.0-5.0-3.17","6276b88b3b4036b3f0ca289b","bdp_td","Tue Mar 28 2023 18:09:28 GMT-0700 (Pacific Daylight Time)","131104","","null","","","","offerFB","","<div class='trialBorder'><div class='vertical-center'><img style='vertical-align:center; align:center' src=img/fixation3.jpg></div><div class='cl'><div class='vertical-center'>$60<br>in<br>12 weeks</div></div><div class='cr'><div class='vertical-center'><font style='color:orange'>$54<br><br>now</font></div></div><div class='respDivL'><div class='vertical-center'>(E)</div></div><div class='respDivR'><div class='vertical-center'><font style='color:orange'>(I)</font></div></div></div>","null","$54<br><br>now","$60<br>in<br>12 weeks","1","54","60","12",""
"html-keyboard-response","58","99205","0.0-5.0-1.18","6276b88b3b4036b3f0ca289b","bdp_td","Tue Mar 28 2023 18:09:28 GMT-0700 (Pacific Daylight Time)","131104","","null","","","","FIX","","<div class='trialBorder'><div class='vertical-center'><img style='vertical-align:center; align:center' src=img/fixation3.jpg></div></div>","null","","","","","","",""
"html-keyboard-response","59","101662","0.0-5.0-2.18","6276b88b3b4036b3f0ca289b","bdp_td","Tue Mar 28 2023 18:09:28 GMT-0700 (Pacific Daylight Time)","131104","","2456","","","","offer","","<div class='trialBorder'><div class='vertical-center'><img style='vertical-align:center; align:center' src=img/fixation3.jpg></div><div class='cl'><div class='vertical-center'>$15<br><br>now</div></div><div class='cr'><div class='vertical-center'>$35<br>in<br>2 weeks</div></div><div class='respDivL'><div class='vertical-center'>(E)</div></div><div class='respDivR'><div class='vertical-center'>(I)</div></div></div>","I","$15<br><br>now","$35<br>in<br>2 weeks","0","15","35","2","THEN"
"html-keyboard-response","60","101914","0.0-5.0-3.18","6276b88b3b4036b3f0ca289b","bdp_td","Tue Mar 28 2023 18:09:28 GMT-0700 (Pacific Daylight Time)","131104","","null","","","","offerFB","","<div class='trialBorder'><div class='vertical-center'><img style='vertical-align:center; align:center' src=img/fixation3.jpg></div><div class='cl'><div class='vertical-center'>$15<br><br>now</div></div><div class='cr'><div class='vertical-center'><font style='color:orange'>$35<br>in<br>2 weeks</font></div></div><div class='respDivL'><div class='vertical-center'>(E)</div></div><div class='respDivR'><div class='vertical-center'><font style='color:orange'>(I)</font></div></div></div>","null","$15<br><br>now","$35<br>in<br>2 weeks","0","15","35","2",""
"html-keyboard-response","61","102415","0.0-5.0-1.19","6276b88b3b4036b3f0ca289b","bdp_td","Tue Mar 28 2023 18:09:28 GMT-0700 (Pacific Daylight Time)","131104","","null","","","","FIX","","<div class='trialBorder'><div class='vertical-center'><img style='vertical-align:center; align:center' src=img/fixation3.jpg></div></div>","null","","","","","","",""
"html-keyboard-response","62","105918","0.0-5.0-2.19","6276b88b3b4036b3f0ca289b","bdp_td","Tue Mar 28 2023 18:09:28 GMT-0700 (Pacific Daylight Time)","131104","","3501","","","","offer","","<div class='trialBorder'><div class='vertical-center'><img style='vertical-align:center; align:center' src=img/fixation3.jpg></div><div class='cl'><div class='vertical-center'>$55<br>in<br>12 weeks</div></div><div class='cr'><div class='vertical-center'>$54<br><br>now</div></div><div class='respDivL'><div class='vertical-center'>(E)</div></div><div class='respDivR'><div class='vertical-center'>(I)</div></div></div>","I","$54<br><br>now","$55<br>in<br>12 weeks","1","54","55","12","NOW"
"html-keyboard-response","63","106169","0.0-5.0-3.19","6276b88b3b4036b3f0ca289b","bdp_td","Tue Mar 28 2023 18:09:28 GMT-0700 (Pacific Daylight Time)","131104","","null","","","","offerFB","","<div class='trialBorder'><div class='vertical-center'><img style='vertical-align:center; align:center' src=img/fixation3.jpg></div><div class='cl'><div class='vertical-center'>$55<br>in<br>12 weeks</div></div><div class='cr'><div class='vertical-center'><font style='color:orange'>$54<br><br>now</font></div></div><div class='respDivL'><div class='vertical-center'>(E)</div></div><div class='respDivR'><div class='vertical-center'><font style='color:orange'>(I)</font></div></div></div>","null","$54<br><br>now","$55<br>in<br>12 weeks","1","54","55","12",""
"html-keyboard-response","64","106671","0.0-5.0-1.20","6276b88b3b4036b3f0ca289b","bdp_td","Tue Mar 28 2023 18:09:28 GMT-0700 (Pacific Daylight Time)","131104","","null","","","","FIX","","<div class='trialBorder'><div class='vertical-center'><img style='vertical-align:center; align:center' src=img/fixation3.jpg></div></div>","null","","","","","","",""
"html-keyboard-response","65","108820","0.0-5.0-2.20","6276b88b3b4036b3f0ca289b","bdp_td","Tue Mar 28 2023 18:09:28 GMT-0700 (Pacific Daylight Time)","131104","","2147","","","","offer","","<div class='trialBorder'><div class='vertical-center'><img style='vertical-align:center; align:center' src=img/fixation3.jpg></div><div class='cl'><div class='vertical-center'>$28<br><br>now</div></div><div class='cr'><div class='vertical-center'>$30<br>in<br>12 weeks</div></div><div class='respDivL'><div class='vertical-center'>(E)</div></div><div class='respDivR'><div class='vertical-center'>(I)</div></div></div>","E","$28<br><br>now","$30<br>in<br>12 weeks","0","28","30","12","NOW"
"html-keyboard-response","66","109072","0.0-5.0-3.20","6276b88b3b4036b3f0ca289b","bdp_td","Tue Mar 28 2023 18:09:28 GMT-0700 (Pacific Daylight Time)","131104","","null","","","","offerFB","","<div class='trialBorder'><div class='vertical-center'><img style='vertical-align:center; align:center' src=img/fixation3.jpg></div><div class='cl'><div class='vertical-center'><font style='color:orange'>$28<br><br>now</font></div></div><div class='cr'><div class='vertical-center'>$30<br>in<br>12 weeks</div></div><div class='respDivL'><div class='vertical-center'><font style='color:orange'>(E)</font></div></div><div class='respDivR'><div class='vertical-center'>(I)</div></div></div>","null","$28<br><br>now","$30<br>in<br>12 weeks","0","28","30","12",""
"html-keyboard-response","67","109574","0.0-5.0-1.21","6276b88b3b4036b3f0ca289b","bdp_td","Tue Mar 28 2023 18:09:28 GMT-0700 (Pacific Daylight Time)","131104","","null","","","","FIX","","<div class='trialBorder'><div class='vertical-center'><img style='vertical-align:center; align:center' src=img/fixation3.jpg></div></div>","null","","","","","","",""
"html-keyboard-response","68","111726","0.0-5.0-2.21","6276b88b3b4036b3f0ca289b","bdp_td","Tue Mar 28 2023 18:09:28 GMT-0700 (Pacific Daylight Time)","131104","","2151","","","","offer","","<div class='trialBorder'><div class='vertical-center'><img style='vertical-align:center; align:center' src=img/fixation3.jpg></div><div class='cl'><div class='vertical-center'>$27<br><br>now</div></div><div class='cr'><div class='vertical-center'>$50<br>in<br>3 weeks</div></div><div class='respDivL'><div class='vertical-center'>(E)</div></div><div class='respDivR'><div class='vertical-center'>(I)</div></div></div>","E","$27<br><br>now","$50<br>in<br>3 weeks","0","27","50","3","NOW"
"html-keyboard-response","69","111978","0.0-5.0-3.21","6276b88b3b4036b3f0ca289b","bdp_td","Tue Mar 28 2023 18:09:28 GMT-0700 (Pacific Daylight Time)","131104","","null","","","","offerFB","","<div class='trialBorder'><div class='vertical-center'><img style='vertical-align:center; align:center' src=img/fixation3.jpg></div><div class='cl'><div class='vertical-center'><font style='color:orange'>$27<br><br>now</font></div></div><div class='cr'><div class='vertical-center'>$50<br>in<br>3 weeks</div></div><div class='respDivL'><div class='vertical-center'><font style='color:orange'>(E)</font></div></div><div class='respDivR'><div class='vertical-center'>(I)</div></div></div>","null","$27<br><br>now","$50<br>in<br>3 weeks","0","27","50","3",""
"html-keyboard-response","70","112479","0.0-5.0-1.22","6276b88b3b4036b3f0ca289b","bdp_td","Tue Mar 28 2023 18:09:28 GMT-0700 (Pacific Daylight Time)","131104","","null","","","","FIX","","<div class='trialBorder'><div class='vertical-center'><img style='vertical-align:center; align:center' src=img/fixation3.jpg></div></div>","null","","","","","","",""
"html-keyboard-response","71","113855","0.0-5.0-2.22","6276b88b3b4036b3f0ca289b","bdp_td","Tue Mar 28 2023 18:09:28 GMT-0700 (Pacific Daylight Time)","131104","","1376","","","","offer","","<div class='trialBorder'><div class='vertical-center'><img style='vertical-align:center; align:center' src=img/fixation3.jpg></div><div class='cl'><div class='vertical-center'>$80<br><br>now</div></div><div class='cr'><div class='vertical-center'>$85<br>in<br>12 weeks</div></div><div class='respDivL'><div class='vertical-center'>(E)</div></div><div class='respDivR'><div class='vertical-center'>(I)</div></div></div>","E","$80<br><br>now","$85<br>in<br>12 weeks","0","80","85","12","NOW"
"html-keyboard-response","72","114106","0.0-5.0-3.22","6276b88b3b4036b3f0ca289b","bdp_td","Tue Mar 28 2023 18:09:28 GMT-0700 (Pacific Daylight Time)","131104","","null","","","","offerFB","","<div class='trialBorder'><div class='vertical-center'><img style='vertical-align:center; align:center' src=img/fixation3.jpg></div><div class='cl'><div class='vertical-center'><font style='color:orange'>$80<br><br>now</font></div></div><div class='cr'><div class='vertical-center'>$85<br>in<br>12 weeks</div></div><div class='respDivL'><div class='vertical-center'><font style='color:orange'>(E)</font></div></div><div class='respDivR'><div class='vertical-center'>(I)</div></div></div>","null","$80<br><br>now","$85<br>in<br>12 weeks","0","80","85","12",""
"html-keyboard-response","73","114607","0.0-5.0-1.23","6276b88b3b4036b3f0ca289b","bdp_td","Tue Mar 28 2023 18:09:28 GMT-0700 (Pacific Daylight Time)","131104","","null","","","","FIX","","<div class='trialBorder'><div class='vertical-center'><img style='vertical-align:center; align:center' src=img/fixation3.jpg></div></div>","null","","","","","","",""
"html-keyboard-response","74","119535","0.0-5.0-2.23","6276b88b3b4036b3f0ca289b","bdp_td","Tue Mar 28 2023 18:09:28 GMT-0700 (Pacific Daylight Time)","131104","","4927","","","","offer","","<div class='trialBorder'><div class='vertical-center'><img style='vertical-align:center; align:center' src=img/fixation3.jpg></div><div class='cl'><div class='vertical-center'>$30<br>in<br>2 weeks</div></div><div class='cr'><div class='vertical-center'>$11<br><br>now</div></div><div class='respDivL'><div class='vertical-center'>(E)</div></div><div class='respDivR'><div class='vertical-center'>(I)</div></div></div>","E","$11<br><br>now","$30<br>in<br>2 weeks","1","11","30","2","THEN"
"html-keyboard-response","75","119787","0.0-5.0-3.23","6276b88b3b4036b3f0ca289b","bdp_td","Tue Mar 28 2023 18:09:28 GMT-0700 (Pacific Daylight Time)","131104","","null","","","","offerFB","","<div class='trialBorder'><div class='vertical-center'><img style='vertical-align:center; align:center' src=img/fixation3.jpg></div><div class='cl'><div class='vertical-center'><font style='color:orange'>$30<br>in<br>2 weeks</font></div></div><div class='cr'><div class='vertical-center'>$11<br><br>now</div></div><div class='respDivL'><div class='vertical-center'><font style='color:orange'>(E)</font></div></div><div class='respDivR'><div class='vertical-center'>(I)</div></div></div>","null","$11<br><br>now","$30<br>in<br>2 weeks","1","11","30","2",""
"html-keyboard-response","76","120289","0.0-5.0-1.24","6276b88b3b4036b3f0ca289b","bdp_td","Tue Mar 28 2023 18:09:28 GMT-0700 (Pacific Daylight Time)","131104","","null","","","","FIX","","<div class='trialBorder'><div class='vertical-center'><img style='vertical-align:center; align:center' src=img/fixation3.jpg></div></div>","null","","","","","","",""
"html-keyboard-response","77","125250","0.0-5.0-2.24","6276b88b3b4036b3f0ca289b","bdp_td","Tue Mar 28 2023 18:09:28 GMT-0700 (Pacific Daylight Time)","131104","","4961","","","","offer","","<div class='trialBorder'><div class='vertical-center'><img style='vertical-align:center; align:center' src=img/fixation3.jpg></div><div class='cl'><div class='vertical-center'>$85<br>in<br>1 week</div></div><div class='cr'><div class='vertical-center'>$31<br><br>now</div></div><div class='respDivL'><div class='vertical-center'>(E)</div></div><div class='respDivR'><div class='vertical-center'>(I)</div></div></div>","E","$31<br><br>now","$85<br>in<br>1 week","1","31","85","1","THEN"
"html-keyboard-response","78","125502","0.0-5.0-3.24","6276b88b3b4036b3f0ca289b","bdp_td","Tue Mar 28 2023 18:09:28 GMT-0700 (Pacific Daylight Time)","131104","","null","","","","offerFB","","<div class='trialBorder'><div class='vertical-center'><img style='vertical-align:center; align:center' src=img/fixation3.jpg></div><div class='cl'><div class='vertical-center'><font style='color:orange'>$85<br>in<br>1 week</font></div></div><div class='cr'><div class='vertical-center'>$31<br><br>now</div></div><div class='respDivL'><div class='vertical-center'><font style='color:orange'>(E)</font></div></div><div class='respDivR'><div class='vertical-center'>(I)</div></div></div>","null","$31<br><br>now","$85<br>in<br>1 week","1","31","85","1",""
"html-keyboard-response","79","126003","0.0-5.0-1.25","6276b88b3b4036b3f0ca289b","bdp_td","Tue Mar 28 2023 18:09:28 GMT-0700 (Pacific Daylight Time)","131104","","null","","","","FIX","","<div class='trialBorder'><div class='vertical-center'><img style='vertical-align:center; align:center' src=img/fixation3.jpg></div></div>","null","","","","","","",""
"html-keyboard-response","80","127866","0.0-5.0-2.25","6276b88b3b4036b3f0ca289b","bdp_td","Tue Mar 28 2023 18:09:28 GMT-0700 (Pacific Daylight Time)","131104","","1863","","","","offer","","<div class='trialBorder'><div class='vertical-center'><img style='vertical-align:center; align:center' src=img/fixation3.jpg></div><div class='cl'><div class='vertical-center'>$80<br>in<br>12 weeks</div></div><div class='cr'><div class='vertical-center'>$78<br><br>now</div></div><div class='respDivL'><div class='vertical-center'>(E)</div></div><div class='respDivR'><div class='vertical-center'>(I)</div></div></div>","I","$78<br><br>now","$80<br>in<br>12 weeks","1","78","80","12","NOW"
"html-keyboard-response","81","128118","0.0-5.0-3.25","6276b88b3b4036b3f0ca289b","bdp_td","Tue Mar 28 2023 18:09:28 GMT-0700 (Pacific Daylight Time)","131104","","null","","","","offerFB","","<div class='trialBorder'><div class='vertical-center'><img style='vertical-align:center; align:center' src=img/fixation3.jpg></div><div class='cl'><div class='vertical-center'>$80<br>in<br>12 weeks</div></div><div class='cr'><div class='vertical-center'><font style='color:orange'>$78<br><br>now</font></div></div><div class='respDivL'><div class='vertical-center'>(E)</div></div><div class='respDivR'><div class='vertical-center'><font style='color:orange'>(I)</font></div></div></div>","null","$78<br><br>now","$80<br>in<br>12 weeks","1","78","80","12",""
"html-keyboard-response","82","128620","0.0-5.0-1.26","6276b88b3b4036b3f0ca289b","bdp_td","Tue Mar 28 2023 18:09:28 GMT-0700 (Pacific Daylight Time)","131104","","null","","","","FIX","","<div class='trialBorder'><div class='vertical-center'><img style='vertical-align:center; align:center' src=img/fixation3.jpg></div></div>","null","","","","","","",""
"html-keyboard-response","83","129851","0.0-5.0-2.26","6276b88b3b4036b3f0ca289b","bdp_td","Tue Mar 28 2023 18:09:28 GMT-0700 (Pacific Daylight Time)","131104","","1231","","","","offer","","<div class='trialBorder'><div class='vertical-center'><img style='vertical-align:center; align:center' src=img/fixation3.jpg></div><div class='cl'><div class='vertical-center'>$49<br><br>now</div></div><div class='cr'><div class='vertical-center'>$60<br>in<br>6 weeks</div></div><div class='respDivL'><div class='vertical-center'>(E)</div></div><div class='respDivR'><div class='vertical-center'>(I)</div></div></div>","E","$49<br><br>now","$60<br>in<br>6 weeks","0","49","60","6","NOW"
"html-keyboard-response","84","130103","0.0-5.0-3.26","6276b88b3b4036b3f0ca289b","bdp_td","Tue Mar 28 2023 18:09:28 GMT-0700 (Pacific Daylight Time)","131104","","null","","","","offerFB","","<div class='trialBorder'><div class='vertical-center'><img style='vertical-align:center; align:center' src=img/fixation3.jpg></div><div class='cl'><div class='vertical-center'><font style='color:orange'>$49<br><br>now</font></div></div><div class='cr'><div class='vertical-center'>$60<br>in<br>6 weeks</div></div><div class='respDivL'><div class='vertical-center'><font style='color:orange'>(E)</font></div></div><div class='respDivR'><div class='vertical-center'>(I)</div></div></div>","null","$49<br><br>now","$60<br>in<br>6 weeks","0","49","60","6",""
"","","","","6276b88b3b4036b3f0ca289b","bdp_td","Tue Mar 28 2023 18:09:28 GMT-0700 (Pacific Daylight Time)","131104","","","fullscreenexit","85","130138","fullscreenexit","","","","","","","","","",""
"fullscreen","85","131104","0.0-6.0","6276b88b3b4036b3f0ca289b","bdp_td","Tue Mar 28 2023 18:09:28 GMT-0700 (Pacific Daylight Time)","131104","","","","","","","true","","","","","","","","",""
"html-keyboard-response","86","131605","0.0-7.0","","","","","","null","","","","","","","null","","","","","","",""
