"trial_type","trial_index","time_elapsed","internal_node_id","subject_id","task","startTime","totalTime","view_history","rt","event","trial","time","trialtype","success","stimulus","key_press","nowOffer","thenOffer","thenLeft","nowAmt","thenAmt","thenWeeks","chosen"
"pavlovia","0","2","0.0-0.0","63ee59dc6e5fbabca14d3d16","bdp_td","Tue Mar 28 2023 21:38:37 GMT-0400 (Eastern Daylight Time)","131099","","","","","","","","","","","","","","","",""
"instructions","1","2510","0.0-1.0","63ee59dc6e5fbabca14d3d16","bdp_td","Tue Mar 28 2023 21:38:37 GMT-0400 (Eastern Daylight Time)","131099","[{""page_index"":0,""viewing_time"":2507}]","2507","","","","","","","","","","","","","",""
"","","","","63ee59dc6e5fbabca14d3d16","bdp_td","Tue Mar 28 2023 21:38:37 GMT-0400 (Eastern Daylight Time)","131099","","","fullscreenenter","2","4697","fullscreenenter","","","","","","","","","",""
"fullscreen","2","5682","0.0-2.0","63ee59dc6e5fbabca14d3d16","bdp_td","Tue Mar 28 2023 21:38:37 GMT-0400 (Eastern Daylight Time)","131099","","","","","","","true","","","","","","","","",""
"instructions","3","33714","0.0-4.0","63ee59dc6e5fbabca14d3d16","bdp_td","Tue Mar 28 2023 21:38:37 GMT-0400 (Eastern Daylight Time)","131099","[{""page_index"":0,""viewing_time"":8809},{""page_index"":1,""viewing_time"":13088},{""page_index"":2,""viewing_time"":6134}]","28031","","","","","","","","","","","","","",""
"html-keyboard-response","4","34217","0.0-5.0-1.0","63ee59dc6e5fbabca14d3d16","bdp_td","Tue Mar 28 2023 21:38:37 GMT-0400 (Eastern Daylight Time)","131099","","null","","","","FIX","","<div class='trialBorder'><div class='vertical-center'><img style='vertical-align:center; align:center' src=img/fixation3.jpg></div></div>","null","","","","","","",""
"html-keyboard-response","5","38528","0.0-5.0-2.0","63ee59dc6e5fbabca14d3d16","bdp_td","Tue Mar 28 2023 21:38:37 GMT-0400 (Eastern Daylight Time)","131099","","4310","","","","offer","","<div class='trialBorder'><div class='vertical-center'><img style='vertical-align:center; align:center' src=img/fixation3.jpg></div><div class='cl'><div class='vertical-center'>$28<br><br>now</div></div><div class='cr'><div class='vertical-center'>$30<br>in<br>12 weeks</div></div><div class='respDivL'><div class='vertical-center'>(E)</div></div><div class='respDivR'><div class='vertical-center'>(I)</div></div></div>","E","$28<br><br>now","$30<br>in<br>12 weeks","0","28","30","12","NOW"
"html-keyboard-response","6","38780","0.0-5.0-3.0","63ee59dc6e5fbabca14d3d16","bdp_td","Tue Mar 28 2023 21:38:37 GMT-0400 (Eastern Daylight Time)","131099","","null","","","","offerFB","","<div class='trialBorder'><div class='vertical-center'><img style='vertical-align:center; align:center' src=img/fixation3.jpg></div><div class='cl'><div class='vertical-center'><font style='color:orange'>$28<br><br>now</font></div></div><div class='cr'><div class='vertical-center'>$30<br>in<br>12 weeks</div></div><div class='respDivL'><div class='vertical-center'><font style='color:orange'>(E)</font></div></div><div class='respDivR'><div class='vertical-center'>(I)</div></div></div>","null","$28<br><br>now","$30<br>in<br>12 weeks","0","28","30","12",""
"html-keyboard-response","7","39282","0.0-5.0-1.1","63ee59dc6e5fbabca14d3d16","bdp_td","Tue Mar 28 2023 21:38:37 GMT-0400 (Eastern Daylight Time)","131099","","null","","","","FIX","","<div class='trialBorder'><div class='vertical-center'><img style='vertical-align:center; align:center' src=img/fixation3.jpg></div></div>","null","","","","","","",""
"html-keyboard-response","8","41362","0.0-5.0-2.1","63ee59dc6e5fbabca14d3d16","bdp_td","Tue Mar 28 2023 21:38:37 GMT-0400 (Eastern Daylight Time)","131099","","2080","","","","offer","","<div class='trialBorder'><div class='vertical-center'><img style='vertical-align:center; align:center' src=img/fixation3.jpg></div><div class='cl'><div class='vertical-center'>$33<br><br>now</div></div><div class='cr'><div class='vertical-center'>$80<br>in<br>2 weeks</div></div><div class='respDivL'><div class='vertical-center'>(E)</div></div><div class='respDivR'><div class='vertical-center'>(I)</div></div></div>","I","$33<br><br>now","$80<br>in<br>2 weeks","0","33","80","2","THEN"
"html-keyboard-response","9","41614","0.0-5.0-3.1","63ee59dc6e5fbabca14d3d16","bdp_td","Tue Mar 28 2023 21:38:37 GMT-0400 (Eastern Daylight Time)","131099","","null","","","","offerFB","","<div class='trialBorder'><div class='vertical-center'><img style='vertical-align:center; align:center' src=img/fixation3.jpg></div><div class='cl'><div class='vertical-center'>$33<br><br>now</div></div><div class='cr'><div class='vertical-center'><font style='color:orange'>$80<br>in<br>2 weeks</font></div></div><div class='respDivL'><div class='vertical-center'>(E)</div></div><div class='respDivR'><div class='vertical-center'><font style='color:orange'>(I)</font></div></div></div>","null","$33<br><br>now","$80<br>in<br>2 weeks","0","33","80","2",""
"html-keyboard-response","10","42115","0.0-5.0-1.2","63ee59dc6e5fbabca14d3d16","bdp_td","Tue Mar 28 2023 21:38:37 GMT-0400 (Eastern Daylight Time)","131099","","null","","","","FIX","","<div class='trialBorder'><div class='vertical-center'><img style='vertical-align:center; align:center' src=img/fixation3.jpg></div></div>","null","","","","","","",""
"html-keyboard-response","11","45112","0.0-5.0-2.2","63ee59dc6e5fbabca14d3d16","bdp_td","Tue Mar 28 2023 21:38:37 GMT-0400 (Eastern Daylight Time)","131099","","2997","","","","offer","","<div class='trialBorder'><div class='vertical-center'><img style='vertical-align:center; align:center' src=img/fixation3.jpg></div><div class='cl'><div class='vertical-center'>$35<br>in<br>3 weeks</div></div><div class='cr'><div class='vertical-center'>$24<br><br>now</div></div><div class='respDivL'><div class='vertical-center'>(E)</div></div><div class='respDivR'><div class='vertical-center'>(I)</div></div></div>","E","$24<br><br>now","$35<br>in<br>3 weeks","1","24","35","3","THEN"
"html-keyboard-response","12","45364","0.0-5.0-3.2","63ee59dc6e5fbabca14d3d16","bdp_td","Tue Mar 28 2023 21:38:37 GMT-0400 (Eastern Daylight Time)","131099","","null","","","","offerFB","","<div class='trialBorder'><div class='vertical-center'><img style='vertical-align:center; align:center' src=img/fixation3.jpg></div><div class='cl'><div class='vertical-center'><font style='color:orange'>$35<br>in<br>3 weeks</font></div></div><div class='cr'><div class='vertical-center'>$24<br><br>now</div></div><div class='respDivL'><div class='vertical-center'><font style='color:orange'>(E)</font></div></div><div class='respDivR'><div class='vertical-center'>(I)</div></div></div>","null","$24<br><br>now","$35<br>in<br>3 weeks","1","24","35","3",""
"html-keyboard-response","13","45865","0.0-5.0-1.3","63ee59dc6e5fbabca14d3d16","bdp_td","Tue Mar 28 2023 21:38:37 GMT-0400 (Eastern Daylight Time)","131099","","null","","","","FIX","","<div class='trialBorder'><div class='vertical-center'><img style='vertical-align:center; align:center' src=img/fixation3.jpg></div></div>","null","","","","","","",""
"html-keyboard-response","14","47294","0.0-5.0-2.3","63ee59dc6e5fbabca14d3d16","bdp_td","Tue Mar 28 2023 21:38:37 GMT-0400 (Eastern Daylight Time)","131099","","1428","","","","offer","","<div class='trialBorder'><div class='vertical-center'><img style='vertical-align:center; align:center' src=img/fixation3.jpg></div><div class='cl'><div class='vertical-center'>$11<br><br>now</div></div><div class='cr'><div class='vertical-center'>$30<br>in<br>2 weeks</div></div><div class='respDivL'><div class='vertical-center'>(E)</div></div><div class='respDivR'><div class='vertical-center'>(I)</div></div></div>","I","$11<br><br>now","$30<br>in<br>2 weeks","0","11","30","2","THEN"
"html-keyboard-response","15","47546","0.0-5.0-3.3","63ee59dc6e5fbabca14d3d16","bdp_td","Tue Mar 28 2023 21:38:37 GMT-0400 (Eastern Daylight Time)","131099","","null","","","","offerFB","","<div class='trialBorder'><div class='vertical-center'><img style='vertical-align:center; align:center' src=img/fixation3.jpg></div><div class='cl'><div class='vertical-center'>$11<br><br>now</div></div><div class='cr'><div class='vertical-center'><font style='color:orange'>$30<br>in<br>2 weeks</font></div></div><div class='respDivL'><div class='vertical-center'>(E)</div></div><div class='respDivR'><div class='vertical-center'><font style='color:orange'>(I)</font></div></div></div>","null","$11<br><br>now","$30<br>in<br>2 weeks","0","11","30","2",""
"html-keyboard-response","16","48048","0.0-5.0-1.4","63ee59dc6e5fbabca14d3d16","bdp_td","Tue Mar 28 2023 21:38:37 GMT-0400 (Eastern Daylight Time)","131099","","null","","","","FIX","","<div class='trialBorder'><div class='vertical-center'><img style='vertical-align:center; align:center' src=img/fixation3.jpg></div></div>","null","","","","","","",""
"html-keyboard-response","17","49952","0.0-5.0-2.4","63ee59dc6e5fbabca14d3d16","bdp_td","Tue Mar 28 2023 21:38:37 GMT-0400 (Eastern Daylight Time)","131099","","1903","","","","offer","","<div class='trialBorder'><div class='vertical-center'><img style='vertical-align:center; align:center' src=img/fixation3.jpg></div><div class='cl'><div class='vertical-center'>$80<br><br>now</div></div><div class='cr'><div class='vertical-center'>$85<br>in<br>12 weeks</div></div><div class='respDivL'><div class='vertical-center'>(E)</div></div><div class='respDivR'><div class='vertical-center'>(I)</div></div></div>","E","$80<br><br>now","$85<br>in<br>12 weeks","0","80","85","12","NOW"
"html-keyboard-response","18","50204","0.0-5.0-3.4","63ee59dc6e5fbabca14d3d16","bdp_td","Tue Mar 28 2023 21:38:37 GMT-0400 (Eastern Daylight Time)","131099","","null","","","","offerFB","","<div class='trialBorder'><div class='vertical-center'><img style='vertical-align:center; align:center' src=img/fixation3.jpg></div><div class='cl'><div class='vertical-center'><font style='color:orange'>$80<br><br>now</font></div></div><div class='cr'><div class='vertical-center'>$85<br>in<br>12 weeks</div></div><div class='respDivL'><div class='vertical-center'><font style='color:orange'>(E)</font></div></div><div class='respDivR'><div class='vertical-center'>(I)</div></div></div>","null","$80<br><br>now","$85<br>in<br>12 weeks","0","80","85","12",""
"html-keyboard-response","19","50705","0.0-5.0-1.5","63ee59dc6e5fbabca14d3d16","bdp_td","Tue Mar 28 2023 21:38:37 GMT-0400 (Eastern Daylight Time)","131099","","null","","","","FIX","","<div class='trialBorder'><div class='vertical-center'><img style='vertical-align:center; align:center' src=img/fixation3.jpg></div></div>","null","","","","","","",""
"html-keyboard-response","20","59584","0.0-5.0-2.5","63ee59dc6e5fbabca14d3d16","bdp_td","Tue Mar 28 2023 21:38:37 GMT-0400 (Eastern Daylight Time)","131099","","8878","","","","offer","","<div class='trialBorder'><div class='vertical-center'><img style='vertical-align:center; align:center' src=img/fixation3.jpg></div><div class='cl'><div class='vertical-center'>$35<br>in<br>2 weeks</div></div><div class='cr'><div class='vertical-center'>$15<br><br>now</div></div><div class='respDivL'><div class='vertical-center'>(E)</div></div><div class='respDivR'><div class='vertical-center'>(I)</div></div></div>","E","$15<br><br>now","$35<br>in<br>2 weeks","1","15","35","2","THEN"
"html-keyboard-response","21","59835","0.0-5.0-3.5","63ee59dc6e5fbabca14d3d16","bdp_td","Tue Mar 28 2023 21:38:37 GMT-0400 (Eastern Daylight Time)","131099","","null","","","","offerFB","","<div class='trialBorder'><div class='vertical-center'><img style='vertical-align:center; align:center' src=img/fixation3.jpg></div><div class='cl'><div class='vertical-center'><font style='color:orange'>$35<br>in<br>2 weeks</font></div></div><div class='cr'><div class='vertical-center'>$15<br><br>now</div></div><div class='respDivL'><div class='vertical-center'><font style='color:orange'>(E)</font></div></div><div class='respDivR'><div class='vertical-center'>(I)</div></div></div>","null","$15<br><br>now","$35<br>in<br>2 weeks","1","15","35","2",""
"html-keyboard-response","22","60336","0.0-5.0-1.6","63ee59dc6e5fbabca14d3d16","bdp_td","Tue Mar 28 2023 21:38:37 GMT-0400 (Eastern Daylight Time)","131099","","null","","","","FIX","","<div class='trialBorder'><div class='vertical-center'><img style='vertical-align:center; align:center' src=img/fixation3.jpg></div></div>","null","","","","","","",""
"html-keyboard-response","23","63718","0.0-5.0-2.6","63ee59dc6e5fbabca14d3d16","bdp_td","Tue Mar 28 2023 21:38:37 GMT-0400 (Eastern Daylight Time)","131099","","3381","","","","offer","","<div class='trialBorder'><div class='vertical-center'><img style='vertical-align:center; align:center' src=img/fixation3.jpg></div><div class='cl'><div class='vertical-center'>$75<br>in<br>6 weeks</div></div><div class='cr'><div class='vertical-center'>$55<br><br>now</div></div><div class='respDivL'><div class='vertical-center'>(E)</div></div><div class='respDivR'><div class='vertical-center'>(I)</div></div></div>","E","$55<br><br>now","$75<br>in<br>6 weeks","1","55","75","6","THEN"
"html-keyboard-response","24","63970","0.0-5.0-3.6","63ee59dc6e5fbabca14d3d16","bdp_td","Tue Mar 28 2023 21:38:37 GMT-0400 (Eastern Daylight Time)","131099","","null","","","","offerFB","","<div class='trialBorder'><div class='vertical-center'><img style='vertical-align:center; align:center' src=img/fixation3.jpg></div><div class='cl'><div class='vertical-center'><font style='color:orange'>$75<br>in<br>6 weeks</font></div></div><div class='cr'><div class='vertical-center'>$55<br><br>now</div></div><div class='respDivL'><div class='vertical-center'><font style='color:orange'>(E)</font></div></div><div class='respDivR'><div class='vertical-center'>(I)</div></div></div>","null","$55<br><br>now","$75<br>in<br>6 weeks","1","55","75","6",""
"html-keyboard-response","25","64471","0.0-5.0-1.7","63ee59dc6e5fbabca14d3d16","bdp_td","Tue Mar 28 2023 21:38:37 GMT-0400 (Eastern Daylight Time)","131099","","null","","","","FIX","","<div class='trialBorder'><div class='vertical-center'><img style='vertical-align:center; align:center' src=img/fixation3.jpg></div></div>","null","","","","","","",""
"html-keyboard-response","26","65600","0.0-5.0-2.7","63ee59dc6e5fbabca14d3d16","bdp_td","Tue Mar 28 2023 21:38:37 GMT-0400 (Eastern Daylight Time)","131099","","1129","","","","offer","","<div class='trialBorder'><div class='vertical-center'><img style='vertical-align:center; align:center' src=img/fixation3.jpg></div><div class='cl'><div class='vertical-center'>$27<br><br>now</div></div><div class='cr'><div class='vertical-center'>$50<br>in<br>3 weeks</div></div><div class='respDivL'><div class='vertical-center'>(E)</div></div><div class='respDivR'><div class='vertical-center'>(I)</div></div></div>","I","$27<br><br>now","$50<br>in<br>3 weeks","0","27","50","3","THEN"
"html-keyboard-response","27","65852","0.0-5.0-3.7","63ee59dc6e5fbabca14d3d16","bdp_td","Tue Mar 28 2023 21:38:37 GMT-0400 (Eastern Daylight Time)","131099","","null","","","","offerFB","","<div class='trialBorder'><div class='vertical-center'><img style='vertical-align:center; align:center' src=img/fixation3.jpg></div><div class='cl'><div class='vertical-center'>$27<br><br>now</div></div><div class='cr'><div class='vertical-center'><font style='color:orange'>$50<br>in<br>3 weeks</font></div></div><div class='respDivL'><div class='vertical-center'>(E)</div></div><div class='respDivR'><div class='vertical-center'><font style='color:orange'>(I)</font></div></div></div>","null","$27<br><br>now","$50<br>in<br>3 weeks","0","27","50","3",""
"html-keyboard-response","28","66353","0.0-5.0-1.8","63ee59dc6e5fbabca14d3d16","bdp_td","Tue Mar 28 2023 21:38:37 GMT-0400 (Eastern Daylight Time)","131099","","null","","","","FIX","","<div class='trialBorder'><div class='vertical-center'><img style='vertical-align:center; align:center' src=img/fixation3.jpg></div></div>","null","","","","","","",""
"html-keyboard-response","29","68160","0.0-5.0-2.8","63ee59dc6e5fbabca14d3d16","bdp_td","Tue Mar 28 2023 21:38:37 GMT-0400 (Eastern Daylight Time)","131099","","1807","","","","offer","","<div class='trialBorder'><div class='vertical-center'><img style='vertical-align:center; align:center' src=img/fixation3.jpg></div><div class='cl'><div class='vertical-center'>$25<br><br>now</div></div><div class='cr'><div class='vertical-center'>$30<br>in<br>6 weeks</div></div><div class='respDivL'><div class='vertical-center'>(E)</div></div><div class='respDivR'><div class='vertical-center'>(I)</div></div></div>","E","$25<br><br>now","$30<br>in<br>6 weeks","0","25","30","6","NOW"
"html-keyboard-response","30","68412","0.0-5.0-3.8","63ee59dc6e5fbabca14d3d16","bdp_td","Tue Mar 28 2023 21:38:37 GMT-0400 (Eastern Daylight Time)","131099","","null","","","","offerFB","","<div class='trialBorder'><div class='vertical-center'><img style='vertical-align:center; align:center' src=img/fixation3.jpg></div><div class='cl'><div class='vertical-center'><font style='color:orange'>$25<br><br>now</font></div></div><div class='cr'><div class='vertical-center'>$30<br>in<br>6 weeks</div></div><div class='respDivL'><div class='vertical-center'><font style='color:orange'>(E)</font></div></div><div class='respDivR'><div class='vertical-center'>(I)</div></div></div>","null","$25<br><br>now","$30<br>in<br>6 weeks","0","25","30","6",""
"html-keyboard-response","31","68913","0.0-5.0-1.9","63ee59dc6e5fbabca14d3d16","bdp_td","Tue Mar 28 2023 21:38:37 GMT-0400 (Eastern Daylight Time)","131099","","null","","","","FIX","","<div class='trialBorder'><div class='vertical-center'><img style='vertical-align:center; align:center' src=img/fixation3.jpg></div></div>","null","","","","","","",""
"html-keyboard-response","32","72016","0.0-5.0-2.9","63ee59dc6e5fbabca14d3d16","bdp_td","Tue Mar 28 2023 21:38:37 GMT-0400 (Eastern Daylight Time)","131099","","3102","","","","offer","","<div class='trialBorder'><div class='vertical-center'><img style='vertical-align:center; align:center' src=img/fixation3.jpg></div><div class='cl'><div class='vertical-center'>$85<br>in<br>6 weeks</div></div><div class='cr'><div class='vertical-center'>$69<br><br>now</div></div><div class='respDivL'><div class='vertical-center'>(E)</div></div><div class='respDivR'><div class='vertical-center'>(I)</div></div></div>","E","$69<br><br>now","$85<br>in<br>6 weeks","1","69","85","6","THEN"
"html-keyboard-response","33","72275","0.0-5.0-3.9","63ee59dc6e5fbabca14d3d16","bdp_td","Tue Mar 28 2023 21:38:37 GMT-0400 (Eastern Daylight Time)","131099","","null","","","","offerFB","","<div class='trialBorder'><div class='vertical-center'><img style='vertical-align:center; align:center' src=img/fixation3.jpg></div><div class='cl'><div class='vertical-center'><font style='color:orange'>$85<br>in<br>6 weeks</font></div></div><div class='cr'><div class='vertical-center'>$69<br><br>now</div></div><div class='respDivL'><div class='vertical-center'><font style='color:orange'>(E)</font></div></div><div class='respDivR'><div class='vertical-center'>(I)</div></div></div>","null","$69<br><br>now","$85<br>in<br>6 weeks","1","69","85","6",""
"html-keyboard-response","34","72777","0.0-5.0-1.10","63ee59dc6e5fbabca14d3d16","bdp_td","Tue Mar 28 2023 21:38:37 GMT-0400 (Eastern Daylight Time)","131099","","null","","","","FIX","","<div class='trialBorder'><div class='vertical-center'><img style='vertical-align:center; align:center' src=img/fixation3.jpg></div></div>","null","","","","","","",""
"html-keyboard-response","35","74198","0.0-5.0-2.10","63ee59dc6e5fbabca14d3d16","bdp_td","Tue Mar 28 2023 21:38:37 GMT-0400 (Eastern Daylight Time)","131099","","1420","","","","offer","","<div class='trialBorder'><div class='vertical-center'><img style='vertical-align:center; align:center' src=img/fixation3.jpg></div><div class='cl'><div class='vertical-center'>$75<br>in<br>3 weeks</div></div><div class='cr'><div class='vertical-center'>$41<br><br>now</div></div><div class='respDivL'><div class='vertical-center'>(E)</div></div><div class='respDivR'><div class='vertical-center'>(I)</div></div></div>","E","$41<br><br>now","$75<br>in<br>3 weeks","1","41","75","3","THEN"
"html-keyboard-response","36","74450","0.0-5.0-3.10","63ee59dc6e5fbabca14d3d16","bdp_td","Tue Mar 28 2023 21:38:37 GMT-0400 (Eastern Daylight Time)","131099","","null","","","","offerFB","","<div class='trialBorder'><div class='vertical-center'><img style='vertical-align:center; align:center' src=img/fixation3.jpg></div><div class='cl'><div class='vertical-center'><font style='color:orange'>$75<br>in<br>3 weeks</font></div></div><div class='cr'><div class='vertical-center'>$41<br><br>now</div></div><div class='respDivL'><div class='vertical-center'><font style='color:orange'>(E)</font></div></div><div class='respDivR'><div class='vertical-center'>(I)</div></div></div>","null","$41<br><br>now","$75<br>in<br>3 weeks","1","41","75","3",""
"html-keyboard-response","37","74951","0.0-5.0-1.11","63ee59dc6e5fbabca14d3d16","bdp_td","Tue Mar 28 2023 21:38:37 GMT-0400 (Eastern Daylight Time)","131099","","null","","","","FIX","","<div class='trialBorder'><div class='vertical-center'><img style='vertical-align:center; align:center' src=img/fixation3.jpg></div></div>","null","","","","","","",""
"html-keyboard-response","38","76920","0.0-5.0-2.11","63ee59dc6e5fbabca14d3d16","bdp_td","Tue Mar 28 2023 21:38:37 GMT-0400 (Eastern Daylight Time)","131099","","1968","","","","offer","","<div class='trialBorder'><div class='vertical-center'><img style='vertical-align:center; align:center' src=img/fixation3.jpg></div><div class='cl'><div class='vertical-center'>$22<br><br>now</div></div><div class='cr'><div class='vertical-center'>$25<br>in<br>12 weeks</div></div><div class='respDivL'><div class='vertical-center'>(E)</div></div><div class='respDivR'><div class='vertical-center'>(I)</div></div></div>","E","$22<br><br>now","$25<br>in<br>12 weeks","0","22","25","12","NOW"
"html-keyboard-response","39","77171","0.0-5.0-3.11","63ee59dc6e5fbabca14d3d16","bdp_td","Tue Mar 28 2023 21:38:37 GMT-0400 (Eastern Daylight Time)","131099","","null","","","","offerFB","","<div class='trialBorder'><div class='vertical-center'><img style='vertical-align:center; align:center' src=img/fixation3.jpg></div><div class='cl'><div class='vertical-center'><font style='color:orange'>$22<br><br>now</font></div></div><div class='cr'><div class='vertical-center'>$25<br>in<br>12 weeks</div></div><div class='respDivL'><div class='vertical-center'><font style='color:orange'>(E)</font></div></div><div class='respDivR'><div class='vertical-center'>(I)</div></div></div>","null","$22<br><br>now","$25<br>in<br>12 weeks","0","22","25","12",""
"html-keyboard-response","40","77673","0.0-5.0-1.12","63ee59dc6e5fbabca14d3d16","bdp_td","Tue Mar 28 2023 21:38:37 GMT-0400 (Eastern Daylight Time)","131099","","null","","","","FIX","","<div class='trialBorder'><div class='vertical-center'><img style='vertical-align:center; align:center' src=img/fixation3.jpg></div></div>","null","","","","","","",""
"html-keyboard-response","41","79296","0.0-5.0-2.12","63ee59dc6e5fbabca14d3d16","bdp_td","Tue Mar 28 2023 21:38:37 GMT-0400 (Eastern Daylight Time)","131099","","1622","","","","offer","","<div class='trialBorder'><div class='vertical-center'><img style='vertical-align:center; align:center' src=img/fixation3.jpg></div><div class='cl'><div class='vertical-center'>$54<br><br>now</div></div><div class='cr'><div class='vertical-center'>$55<br>in<br>12 weeks</div></div><div class='respDivL'><div class='vertical-center'>(E)</div></div><div class='respDivR'><div class='vertical-center'>(I)</div></div></div>","E","$54<br><br>now","$55<br>in<br>12 weeks","0","54","55","12","NOW"
"html-keyboard-response","42","79548","0.0-5.0-3.12","63ee59dc6e5fbabca14d3d16","bdp_td","Tue Mar 28 2023 21:38:37 GMT-0400 (Eastern Daylight Time)","131099","","null","","","","offerFB","","<div class='trialBorder'><div class='vertical-center'><img style='vertical-align:center; align:center' src=img/fixation3.jpg></div><div class='cl'><div class='vertical-center'><font style='color:orange'>$54<br><br>now</font></div></div><div class='cr'><div class='vertical-center'>$55<br>in<br>12 weeks</div></div><div class='respDivL'><div class='vertical-center'><font style='color:orange'>(E)</font></div></div><div class='respDivR'><div class='vertical-center'>(I)</div></div></div>","null","$54<br><br>now","$55<br>in<br>12 weeks","0","54","55","12",""
"html-keyboard-response","43","80049","0.0-5.0-1.13","63ee59dc6e5fbabca14d3d16","bdp_td","Tue Mar 28 2023 21:38:37 GMT-0400 (Eastern Daylight Time)","131099","","null","","","","FIX","","<div class='trialBorder'><div class='vertical-center'><img style='vertical-align:center; align:center' src=img/fixation3.jpg></div></div>","null","","","","","","",""
"html-keyboard-response","44","82134","0.0-5.0-2.13","63ee59dc6e5fbabca14d3d16","bdp_td","Tue Mar 28 2023 21:38:37 GMT-0400 (Eastern Daylight Time)","131099","","2084","","","","offer","","<div class='trialBorder'><div class='vertical-center'><img style='vertical-align:center; align:center' src=img/fixation3.jpg></div><div class='cl'><div class='vertical-center'>$60<br>in<br>3 weeks</div></div><div class='cr'><div class='vertical-center'>$25<br><br>now</div></div><div class='respDivL'><div class='vertical-center'>(E)</div></div><div class='respDivR'><div class='vertical-center'>(I)</div></div></div>","E","$25<br><br>now","$60<br>in<br>3 weeks","1","25","60","3","THEN"
"html-keyboard-response","45","82386","0.0-5.0-3.13","63ee59dc6e5fbabca14d3d16","bdp_td","Tue Mar 28 2023 21:38:37 GMT-0400 (Eastern Daylight Time)","131099","","null","","","","offerFB","","<div class='trialBorder'><div class='vertical-center'><img style='vertical-align:center; align:center' src=img/fixation3.jpg></div><div class='cl'><div class='vertical-center'><font style='color:orange'>$60<br>in<br>3 weeks</font></div></div><div class='cr'><div class='vertical-center'>$25<br><br>now</div></div><div class='respDivL'><div class='vertical-center'><font style='color:orange'>(E)</font></div></div><div class='respDivR'><div class='vertical-center'>(I)</div></div></div>","null","$25<br><br>now","$60<br>in<br>3 weeks","1","25","60","3",""
"html-keyboard-response","46","82888","0.0-5.0-1.14","63ee59dc6e5fbabca14d3d16","bdp_td","Tue Mar 28 2023 21:38:37 GMT-0400 (Eastern Daylight Time)","131099","","null","","","","FIX","","<div class='trialBorder'><div class='vertical-center'><img style='vertical-align:center; align:center' src=img/fixation3.jpg></div></div>","null","","","","","","",""
"html-keyboard-response","47","88648","0.0-5.0-2.14","63ee59dc6e5fbabca14d3d16","bdp_td","Tue Mar 28 2023 21:38:37 GMT-0400 (Eastern Daylight Time)","131099","","5760","","","","offer","","<div class='trialBorder'><div class='vertical-center'><img style='vertical-align:center; align:center' src=img/fixation3.jpg></div><div class='cl'><div class='vertical-center'>$40<br><br>now</div></div><div class='cr'><div class='vertical-center'>$55<br>in<br>6 weeks</div></div><div class='respDivL'><div class='vertical-center'>(E)</div></div><div class='respDivR'><div class='vertical-center'>(I)</div></div></div>","I","$40<br><br>now","$55<br>in<br>6 weeks","0","40","55","6","THEN"
"html-keyboard-response","48","88900","0.0-5.0-3.14","63ee59dc6e5fbabca14d3d16","bdp_td","Tue Mar 28 2023 21:38:37 GMT-0400 (Eastern Daylight Time)","131099","","null","","","","offerFB","","<div class='trialBorder'><div class='vertical-center'><img style='vertical-align:center; align:center' src=img/fixation3.jpg></div><div class='cl'><div class='vertical-center'>$40<br><br>now</div></div><div class='cr'><div class='vertical-center'><font style='color:orange'>$55<br>in<br>6 weeks</font></div></div><div class='respDivL'><div class='vertical-center'>(E)</div></div><div class='respDivR'><div class='vertical-center'><font style='color:orange'>(I)</font></div></div></div>","null","$40<br><br>now","$55<br>in<br>6 weeks","0","40","55","6",""
"html-keyboard-response","49","89402","0.0-5.0-1.15","63ee59dc6e5fbabca14d3d16","bdp_td","Tue Mar 28 2023 21:38:37 GMT-0400 (Eastern Daylight Time)","131099","","null","","","","FIX","","<div class='trialBorder'><div class='vertical-center'><img style='vertical-align:center; align:center' src=img/fixation3.jpg></div></div>","null","","","","","","",""
"html-keyboard-response","50","91838","0.0-5.0-2.15","63ee59dc6e5fbabca14d3d16","bdp_td","Tue Mar 28 2023 21:38:37 GMT-0400 (Eastern Daylight Time)","131099","","2436","","","","offer","","<div class='trialBorder'><div class='vertical-center'><img style='vertical-align:center; align:center' src=img/fixation3.jpg></div><div class='cl'><div class='vertical-center'>$34<br><br>now</div></div><div class='cr'><div class='vertical-center'>$50<br>in<br>6 weeks</div></div><div class='respDivL'><div class='vertical-center'>(E)</div></div><div class='respDivR'><div class='vertical-center'>(I)</div></div></div>","I","$34<br><br>now","$50<br>in<br>6 weeks","0","34","50","6","THEN"
"html-keyboard-response","51","92089","0.0-5.0-3.15","63ee59dc6e5fbabca14d3d16","bdp_td","Tue Mar 28 2023 21:38:37 GMT-0400 (Eastern Daylight Time)","131099","","null","","","","offerFB","","<div class='trialBorder'><div class='vertical-center'><img style='vertical-align:center; align:center' src=img/fixation3.jpg></div><div class='cl'><div class='vertical-center'>$34<br><br>now</div></div><div class='cr'><div class='vertical-center'><font style='color:orange'>$50<br>in<br>6 weeks</font></div></div><div class='respDivL'><div class='vertical-center'>(E)</div></div><div class='respDivR'><div class='vertical-center'><font style='color:orange'>(I)</font></div></div></div>","null","$34<br><br>now","$50<br>in<br>6 weeks","0","34","50","6",""
"html-keyboard-response","52","92591","0.0-5.0-1.16","63ee59dc6e5fbabca14d3d16","bdp_td","Tue Mar 28 2023 21:38:37 GMT-0400 (Eastern Daylight Time)","131099","","null","","","","FIX","","<div class='trialBorder'><div class='vertical-center'><img style='vertical-align:center; align:center' src=img/fixation3.jpg></div></div>","null","","","","","","",""
"html-keyboard-response","53","95074","0.0-5.0-2.16","63ee59dc6e5fbabca14d3d16","bdp_td","Tue Mar 28 2023 21:38:37 GMT-0400 (Eastern Daylight Time)","131099","","2483","","","","offer","","<div class='trialBorder'><div class='vertical-center'><img style='vertical-align:center; align:center' src=img/fixation3.jpg></div><div class='cl'><div class='vertical-center'>$19<br><br>now</div></div><div class='cr'><div class='vertical-center'>$25<br>in<br>6 weeks</div></div><div class='respDivL'><div class='vertical-center'>(E)</div></div><div class='respDivR'><div class='vertical-center'>(I)</div></div></div>","E","$19<br><br>now","$25<br>in<br>6 weeks","0","19","25","6","NOW"
"html-keyboard-response","54","95326","0.0-5.0-3.16","63ee59dc6e5fbabca14d3d16","bdp_td","Tue Mar 28 2023 21:38:37 GMT-0400 (Eastern Daylight Time)","131099","","null","","","","offerFB","","<div class='trialBorder'><div class='vertical-center'><img style='vertical-align:center; align:center' src=img/fixation3.jpg></div><div class='cl'><div class='vertical-center'><font style='color:orange'>$19<br><br>now</font></div></div><div class='cr'><div class='vertical-center'>$25<br>in<br>6 weeks</div></div><div class='respDivL'><div class='vertical-center'><font style='color:orange'>(E)</font></div></div><div class='respDivR'><div class='vertical-center'>(I)</div></div></div>","null","$19<br><br>now","$25<br>in<br>6 weeks","0","19","25","6",""
"html-keyboard-response","55","95827","0.0-5.0-1.17","63ee59dc6e5fbabca14d3d16","bdp_td","Tue Mar 28 2023 21:38:37 GMT-0400 (Eastern Daylight Time)","131099","","null","","","","FIX","","<div class='trialBorder'><div class='vertical-center'><img style='vertical-align:center; align:center' src=img/fixation3.jpg></div></div>","null","","","","","","",""
"html-keyboard-response","56","101945","0.0-5.0-2.17","63ee59dc6e5fbabca14d3d16","bdp_td","Tue Mar 28 2023 21:38:37 GMT-0400 (Eastern Daylight Time)","131099","","6116","","","","offer","","<div class='trialBorder'><div class='vertical-center'><img style='vertical-align:center; align:center' src=img/fixation3.jpg></div><div class='cl'><div class='vertical-center'>$75<br>in<br>12 weeks</div></div><div class='cr'><div class='vertical-center'>$67<br><br>now</div></div><div class='respDivL'><div class='vertical-center'>(E)</div></div><div class='respDivR'><div class='vertical-center'>(I)</div></div></div>","I","$67<br><br>now","$75<br>in<br>12 weeks","1","67","75","12","NOW"
"html-keyboard-response","57","102196","0.0-5.0-3.17","63ee59dc6e5fbabca14d3d16","bdp_td","Tue Mar 28 2023 21:38:37 GMT-0400 (Eastern Daylight Time)","131099","","null","","","","offerFB","","<div class='trialBorder'><div class='vertical-center'><img style='vertical-align:center; align:center' src=img/fixation3.jpg></div><div class='cl'><div class='vertical-center'>$75<br>in<br>12 weeks</div></div><div class='cr'><div class='vertical-center'><font style='color:orange'>$67<br><br>now</font></div></div><div class='respDivL'><div class='vertical-center'>(E)</div></div><div class='respDivR'><div class='vertical-center'><font style='color:orange'>(I)</font></div></div></div>","null","$67<br><br>now","$75<br>in<br>12 weeks","1","67","75","12",""
"html-keyboard-response","58","102699","0.0-5.0-1.18","63ee59dc6e5fbabca14d3d16","bdp_td","Tue Mar 28 2023 21:38:37 GMT-0400 (Eastern Daylight Time)","131099","","null","","","","FIX","","<div class='trialBorder'><div class='vertical-center'><img style='vertical-align:center; align:center' src=img/fixation3.jpg></div></div>","null","","","","","","",""
"html-keyboard-response","59","106994","0.0-5.0-2.18","63ee59dc6e5fbabca14d3d16","bdp_td","Tue Mar 28 2023 21:38:37 GMT-0400 (Eastern Daylight Time)","131099","","4294","","","","offer","","<div class='trialBorder'><div class='vertical-center'><img style='vertical-align:center; align:center' src=img/fixation3.jpg></div><div class='cl'><div class='vertical-center'>$49<br><br>now</div></div><div class='cr'><div class='vertical-center'>$60<br>in<br>6 weeks</div></div><div class='respDivL'><div class='vertical-center'>(E)</div></div><div class='respDivR'><div class='vertical-center'>(I)</div></div></div>","I","$49<br><br>now","$60<br>in<br>6 weeks","0","49","60","6","THEN"
"html-keyboard-response","60","107246","0.0-5.0-3.18","63ee59dc6e5fbabca14d3d16","bdp_td","Tue Mar 28 2023 21:38:37 GMT-0400 (Eastern Daylight Time)","131099","","null","","","","offerFB","","<div class='trialBorder'><div class='vertical-center'><img style='vertical-align:center; align:center' src=img/fixation3.jpg></div><div class='cl'><div class='vertical-center'>$49<br><br>now</div></div><div class='cr'><div class='vertical-center'><font style='color:orange'>$60<br>in<br>6 weeks</font></div></div><div class='respDivL'><div class='vertical-center'>(E)</div></div><div class='respDivR'><div class='vertical-center'><font style='color:orange'>(I)</font></div></div></div>","null","$49<br><br>now","$60<br>in<br>6 weeks","0","49","60","6",""
"html-keyboard-response","61","107747","0.0-5.0-1.19","63ee59dc6e5fbabca14d3d16","bdp_td","Tue Mar 28 2023 21:38:37 GMT-0400 (Eastern Daylight Time)","131099","","null","","","","FIX","","<div class='trialBorder'><div class='vertical-center'><img style='vertical-align:center; align:center' src=img/fixation3.jpg></div></div>","null","","","","","","",""
"html-keyboard-response","62","110673","0.0-5.0-2.19","63ee59dc6e5fbabca14d3d16","bdp_td","Tue Mar 28 2023 21:38:37 GMT-0400 (Eastern Daylight Time)","131099","","2925","","","","offer","","<div class='trialBorder'><div class='vertical-center'><img style='vertical-align:center; align:center' src=img/fixation3.jpg></div><div class='cl'><div class='vertical-center'>$35<br>in<br>12 weeks</div></div><div class='cr'><div class='vertical-center'>$34<br><br>now</div></div><div class='respDivL'><div class='vertical-center'>(E)</div></div><div class='respDivR'><div class='vertical-center'>(I)</div></div></div>","I","$34<br><br>now","$35<br>in<br>12 weeks","1","34","35","12","NOW"
"html-keyboard-response","63","110925","0.0-5.0-3.19","63ee59dc6e5fbabca14d3d16","bdp_td","Tue Mar 28 2023 21:38:37 GMT-0400 (Eastern Daylight Time)","131099","","null","","","","offerFB","","<div class='trialBorder'><div class='vertical-center'><img style='vertical-align:center; align:center' src=img/fixation3.jpg></div><div class='cl'><div class='vertical-center'>$35<br>in<br>12 weeks</div></div><div class='cr'><div class='vertical-center'><font style='color:orange'>$34<br><br>now</font></div></div><div class='respDivL'><div class='vertical-center'>(E)</div></div><div class='respDivR'><div class='vertical-center'><font style='color:orange'>(I)</font></div></div></div>","null","$34<br><br>now","$35<br>in<br>12 weeks","1","34","35","12",""
"html-keyboard-response","64","111426","0.0-5.0-1.20","63ee59dc6e5fbabca14d3d16","bdp_td","Tue Mar 28 2023 21:38:37 GMT-0400 (Eastern Daylight Time)","131099","","null","","","","FIX","","<div class='trialBorder'><div class='vertical-center'><img style='vertical-align:center; align:center' src=img/fixation3.jpg></div></div>","null","","","","","","",""
"html-keyboard-response","65","114525","0.0-5.0-2.20","63ee59dc6e5fbabca14d3d16","bdp_td","Tue Mar 28 2023 21:38:37 GMT-0400 (Eastern Daylight Time)","131099","","3098","","","","offer","","<div class='trialBorder'><div class='vertical-center'><img style='vertical-align:center; align:center' src=img/fixation3.jpg></div><div class='cl'><div class='vertical-center'>$60<br>in<br>12 weeks</div></div><div class='cr'><div class='vertical-center'>$54<br><br>now</div></div><div class='respDivL'><div class='vertical-center'>(E)</div></div><div class='respDivR'><div class='vertical-center'>(I)</div></div></div>","I","$54<br><br>now","$60<br>in<br>12 weeks","1","54","60","12","NOW"
"html-keyboard-response","66","114778","0.0-5.0-3.20","63ee59dc6e5fbabca14d3d16","bdp_td","Tue Mar 28 2023 21:38:37 GMT-0400 (Eastern Daylight Time)","131099","","null","","","","offerFB","","<div class='trialBorder'><div class='vertical-center'><img style='vertical-align:center; align:center' src=img/fixation3.jpg></div><div class='cl'><div class='vertical-center'>$60<br>in<br>12 weeks</div></div><div class='cr'><div class='vertical-center'><font style='color:orange'>$54<br><br>now</font></div></div><div class='respDivL'><div class='vertical-center'>(E)</div></div><div class='respDivR'><div class='vertical-center'><font style='color:orange'>(I)</font></div></div></div>","null","$54<br><br>now","$60<br>in<br>12 weeks","1","54","60","12",""
"html-keyboard-response","67","115279","0.0-5.0-1.21","63ee59dc6e5fbabca14d3d16","bdp_td","Tue Mar 28 2023 21:38:37 GMT-0400 (Eastern Daylight Time)","131099","","null","","","","FIX","","<div class='trialBorder'><div class='vertical-center'><img style='vertical-align:center; align:center' src=img/fixation3.jpg></div></div>","null","","","","","","",""
"html-keyboard-response","68","117289","0.0-5.0-2.21","63ee59dc6e5fbabca14d3d16","bdp_td","Tue Mar 28 2023 21:38:37 GMT-0400 (Eastern Daylight Time)","131099","","2009","","","","offer","","<div class='trialBorder'><div class='vertical-center'><img style='vertical-align:center; align:center' src=img/fixation3.jpg></div><div class='cl'><div class='vertical-center'>$80<br>in<br>12 weeks</div></div><div class='cr'><div class='vertical-center'>$78<br><br>now</div></div><div class='respDivL'><div class='vertical-center'>(E)</div></div><div class='respDivR'><div class='vertical-center'>(I)</div></div></div>","I","$78<br><br>now","$80<br>in<br>12 weeks","1","78","80","12","NOW"
"html-keyboard-response","69","117541","0.0-5.0-3.21","63ee59dc6e5fbabca14d3d16","bdp_td","Tue Mar 28 2023 21:38:37 GMT-0400 (Eastern Daylight Time)","131099","","null","","","","offerFB","","<div class='trialBorder'><div class='vertical-center'><img style='vertical-align:center; align:center' src=img/fixation3.jpg></div><div class='cl'><div class='vertical-center'>$80<br>in<br>12 weeks</div></div><div class='cr'><div class='vertical-center'><font style='color:orange'>$78<br><br>now</font></div></div><div class='respDivL'><div class='vertical-center'>(E)</div></div><div class='respDivR'><div class='vertical-center'><font style='color:orange'>(I)</font></div></div></div>","null","$78<br><br>now","$80<br>in<br>12 weeks","1","78","80","12",""
"html-keyboard-response","70","118042","0.0-5.0-1.22","63ee59dc6e5fbabca14d3d16","bdp_td","Tue Mar 28 2023 21:38:37 GMT-0400 (Eastern Daylight Time)","131099","","null","","","","FIX","","<div class='trialBorder'><div class='vertical-center'><img style='vertical-align:center; align:center' src=img/fixation3.jpg></div></div>","null","","","","","","",""
"html-keyboard-response","71","119437","0.0-5.0-2.22","63ee59dc6e5fbabca14d3d16","bdp_td","Tue Mar 28 2023 21:38:37 GMT-0400 (Eastern Daylight Time)","131099","","1395","","","","offer","","<div class='trialBorder'><div class='vertical-center'><img style='vertical-align:center; align:center' src=img/fixation3.jpg></div><div class='cl'><div class='vertical-center'>$55<br>in<br>1 week</div></div><div class='cr'><div class='vertical-center'>$20<br><br>now</div></div><div class='respDivL'><div class='vertical-center'>(E)</div></div><div class='respDivR'><div class='vertical-center'>(I)</div></div></div>","E","$20<br><br>now","$55<br>in<br>1 week","1","20","55","1","THEN"
"html-keyboard-response","72","119689","0.0-5.0-3.22","63ee59dc6e5fbabca14d3d16","bdp_td","Tue Mar 28 2023 21:38:37 GMT-0400 (Eastern Daylight Time)","131099","","null","","","","offerFB","","<div class='trialBorder'><div class='vertical-center'><img style='vertical-align:center; align:center' src=img/fixation3.jpg></div><div class='cl'><div class='vertical-center'><font style='color:orange'>$55<br>in<br>1 week</font></div></div><div class='cr'><div class='vertical-center'>$20<br><br>now</div></div><div class='respDivL'><div class='vertical-center'><font style='color:orange'>(E)</font></div></div><div class='respDivR'><div class='vertical-center'>(I)</div></div></div>","null","$20<br><br>now","$55<br>in<br>1 week","1","20","55","1",""
"html-keyboard-response","73","120190","0.0-5.0-1.23","63ee59dc6e5fbabca14d3d16","bdp_td","Tue Mar 28 2023 21:38:37 GMT-0400 (Eastern Daylight Time)","131099","","null","","","","FIX","","<div class='trialBorder'><div class='vertical-center'><img style='vertical-align:center; align:center' src=img/fixation3.jpg></div></div>","null","","","","","","",""
"html-keyboard-response","74","122948","0.0-5.0-2.23","63ee59dc6e5fbabca14d3d16","bdp_td","Tue Mar 28 2023 21:38:37 GMT-0400 (Eastern Daylight Time)","131099","","2756","","","","offer","","<div class='trialBorder'><div class='vertical-center'><img style='vertical-align:center; align:center' src=img/fixation3.jpg></div><div class='cl'><div class='vertical-center'>$25<br>in<br>3 weeks</div></div><div class='cr'><div class='vertical-center'>$14<br><br>now</div></div><div class='respDivL'><div class='vertical-center'>(E)</div></div><div class='respDivR'><div class='vertical-center'>(I)</div></div></div>","E","$14<br><br>now","$25<br>in<br>3 weeks","1","14","25","3","THEN"
"html-keyboard-response","75","123200","0.0-5.0-3.23","63ee59dc6e5fbabca14d3d16","bdp_td","Tue Mar 28 2023 21:38:37 GMT-0400 (Eastern Daylight Time)","131099","","null","","","","offerFB","","<div class='trialBorder'><div class='vertical-center'><img style='vertical-align:center; align:center' src=img/fixation3.jpg></div><div class='cl'><div class='vertical-center'><font style='color:orange'>$25<br>in<br>3 weeks</font></div></div><div class='cr'><div class='vertical-center'>$14<br><br>now</div></div><div class='respDivL'><div class='vertical-center'><font style='color:orange'>(E)</font></div></div><div class='respDivR'><div class='vertical-center'>(I)</div></div></div>","null","$14<br><br>now","$25<br>in<br>3 weeks","1","14","25","3",""
"html-keyboard-response","76","123701","0.0-5.0-1.24","63ee59dc6e5fbabca14d3d16","bdp_td","Tue Mar 28 2023 21:38:37 GMT-0400 (Eastern Daylight Time)","131099","","null","","","","FIX","","<div class='trialBorder'><div class='vertical-center'><img style='vertical-align:center; align:center' src=img/fixation3.jpg></div></div>","null","","","","","","",""
"html-keyboard-response","77","125160","0.0-5.0-2.24","63ee59dc6e5fbabca14d3d16","bdp_td","Tue Mar 28 2023 21:38:37 GMT-0400 (Eastern Daylight Time)","131099","","1457","","","","offer","","<div class='trialBorder'><div class='vertical-center'><img style='vertical-align:center; align:center' src=img/fixation3.jpg></div><div class='cl'><div class='vertical-center'>$54<br><br>now</div></div><div class='cr'><div class='vertical-center'>$80<br>in<br>3 weeks</div></div><div class='respDivL'><div class='vertical-center'>(E)</div></div><div class='respDivR'><div class='vertical-center'>(I)</div></div></div>","I","$54<br><br>now","$80<br>in<br>3 weeks","0","54","80","3","THEN"
"html-keyboard-response","78","125411","0.0-5.0-3.24","63ee59dc6e5fbabca14d3d16","bdp_td","Tue Mar 28 2023 21:38:37 GMT-0400 (Eastern Daylight Time)","131099","","null","","","","offerFB","","<div class='trialBorder'><div class='vertical-center'><img style='vertical-align:center; align:center' src=img/fixation3.jpg></div><div class='cl'><div class='vertical-center'>$54<br><br>now</div></div><div class='cr'><div class='vertical-center'><font style='color:orange'>$80<br>in<br>3 weeks</font></div></div><div class='respDivL'><div class='vertical-center'>(E)</div></div><div class='respDivR'><div class='vertical-center'><font style='color:orange'>(I)</font></div></div></div>","null","$54<br><br>now","$80<br>in<br>3 weeks","0","54","80","3",""
"html-keyboard-response","79","125912","0.0-5.0-1.25","63ee59dc6e5fbabca14d3d16","bdp_td","Tue Mar 28 2023 21:38:37 GMT-0400 (Eastern Daylight Time)","131099","","null","","","","FIX","","<div class='trialBorder'><div class='vertical-center'><img style='vertical-align:center; align:center' src=img/fixation3.jpg></div></div>","null","","","","","","",""
"html-keyboard-response","80","127149","0.0-5.0-2.25","63ee59dc6e5fbabca14d3d16","bdp_td","Tue Mar 28 2023 21:38:37 GMT-0400 (Eastern Daylight Time)","131099","","1237","","","","offer","","<div class='trialBorder'><div class='vertical-center'><img style='vertical-align:center; align:center' src=img/fixation3.jpg></div><div class='cl'><div class='vertical-center'>$85<br>in<br>1 week</div></div><div class='cr'><div class='vertical-center'>$31<br><br>now</div></div><div class='respDivL'><div class='vertical-center'>(E)</div></div><div class='respDivR'><div class='vertical-center'>(I)</div></div></div>","E","$31<br><br>now","$85<br>in<br>1 week","1","31","85","1","THEN"
"html-keyboard-response","81","127400","0.0-5.0-3.25","63ee59dc6e5fbabca14d3d16","bdp_td","Tue Mar 28 2023 21:38:37 GMT-0400 (Eastern Daylight Time)","131099","","null","","","","offerFB","","<div class='trialBorder'><div class='vertical-center'><img style='vertical-align:center; align:center' src=img/fixation3.jpg></div><div class='cl'><div class='vertical-center'><font style='color:orange'>$85<br>in<br>1 week</font></div></div><div class='cr'><div class='vertical-center'>$31<br><br>now</div></div><div class='respDivL'><div class='vertical-center'><font style='color:orange'>(E)</font></div></div><div class='respDivR'><div class='vertical-center'>(I)</div></div></div>","null","$31<br><br>now","$85<br>in<br>1 week","1","31","85","1",""
"html-keyboard-response","82","127902","0.0-5.0-1.26","63ee59dc6e5fbabca14d3d16","bdp_td","Tue Mar 28 2023 21:38:37 GMT-0400 (Eastern Daylight Time)","131099","","null","","","","FIX","","<div class='trialBorder'><div class='vertical-center'><img style='vertical-align:center; align:center' src=img/fixation3.jpg></div></div>","null","","","","","","",""
"html-keyboard-response","83","129845","0.0-5.0-2.26","63ee59dc6e5fbabca14d3d16","bdp_td","Tue Mar 28 2023 21:38:37 GMT-0400 (Eastern Daylight Time)","131099","","1942","","","","offer","","<div class='trialBorder'><div class='vertical-center'><img style='vertical-align:center; align:center' src=img/fixation3.jpg></div><div class='cl'><div class='vertical-center'>$50<br>in<br>12 weeks</div></div><div class='cr'><div class='vertical-center'>$47<br><br>now</div></div><div class='respDivL'><div class='vertical-center'>(E)</div></div><div class='respDivR'><div class='vertical-center'>(I)</div></div></div>","I","$47<br><br>now","$50<br>in<br>12 weeks","1","47","50","12","NOW"
"html-keyboard-response","84","130097","0.0-5.0-3.26","63ee59dc6e5fbabca14d3d16","bdp_td","Tue Mar 28 2023 21:38:37 GMT-0400 (Eastern Daylight Time)","131099","","null","","","","offerFB","","<div class='trialBorder'><div class='vertical-center'><img style='vertical-align:center; align:center' src=img/fixation3.jpg></div><div class='cl'><div class='vertical-center'>$50<br>in<br>12 weeks</div></div><div class='cr'><div class='vertical-center'><font style='color:orange'>$47<br><br>now</font></div></div><div class='respDivL'><div class='vertical-center'>(E)</div></div><div class='respDivR'><div class='vertical-center'><font style='color:orange'>(I)</font></div></div></div>","null","$47<br><br>now","$50<br>in<br>12 weeks","1","47","50","12",""
"","","","","63ee59dc6e5fbabca14d3d16","bdp_td","Tue Mar 28 2023 21:38:37 GMT-0400 (Eastern Daylight Time)","131099","","","fullscreenexit","85","130114","fullscreenexit","","","","","","","","","",""
"fullscreen","85","131099","0.0-6.0","63ee59dc6e5fbabca14d3d16","bdp_td","Tue Mar 28 2023 21:38:37 GMT-0400 (Eastern Daylight Time)","131099","","","","","","","true","","","","","","","","",""
"html-keyboard-response","86","131600","0.0-7.0","","","","","","null","","","","","","","null","","","","","","",""
