"trial_type","trial_index","time_elapsed","internal_node_id","subject_id","task","startTime","totalTime","view_history","rt","event","trial","time","trialtype","success","stimulus","key_press","nowOffer","thenOffer","thenLeft","nowAmt","thenAmt","thenWeeks","chosen"
"pavlovia","0","7","0.0-0.0","5ad2c8334d061300011b1985","bdp_td","Tue Mar 28 2023 15:18:28 GMT-0500 (Central Daylight Time)","89650","","","","","","","","","","","","","","","",""
"instructions","1","1512","0.0-1.0","5ad2c8334d061300011b1985","bdp_td","Tue Mar 28 2023 15:18:28 GMT-0500 (Central Daylight Time)","89650","[{""page_index"":0,""viewing_time"":1504}]","1504","","","","","","","","","","","","","",""
"","","","","5ad2c8334d061300011b1985","bdp_td","Tue Mar 28 2023 15:18:28 GMT-0500 (Central Daylight Time)","89650","","","fullscreenenter","2","5240","fullscreenenter","","","","","","","","","",""
"fullscreen","2","6233","0.0-2.0","5ad2c8334d061300011b1985","bdp_td","Tue Mar 28 2023 15:18:28 GMT-0500 (Central Daylight Time)","89650","","","","","","","true","","","","","","","","",""
"instructions","3","17488","0.0-4.0","5ad2c8334d061300011b1985","bdp_td","Tue Mar 28 2023 15:18:28 GMT-0500 (Central Daylight Time)","89650","[{""page_index"":0,""viewing_time"":5465},{""page_index"":1,""viewing_time"":3553},{""page_index"":2,""viewing_time"":2234}]","11253","","","","","","","","","","","","","",""
"html-keyboard-response","4","17995","0.0-5.0-1.0","5ad2c8334d061300011b1985","bdp_td","Tue Mar 28 2023 15:18:28 GMT-0500 (Central Daylight Time)","89650","","null","","","","FIX","","<div class='trialBorder'><div class='vertical-center'><img style='vertical-align:center; align:center' src=img/fixation3.jpg></div></div>","null","","","","","","",""
"html-keyboard-response","5","21189","0.0-5.0-2.0","5ad2c8334d061300011b1985","bdp_td","Tue Mar 28 2023 15:18:28 GMT-0500 (Central Daylight Time)","89650","","3191","","","","offer","","<div class='trialBorder'><div class='vertical-center'><img style='vertical-align:center; align:center' src=img/fixation3.jpg></div><div class='cl'><div class='vertical-center'>$50<br>in<br>6 weeks</div></div><div class='cr'><div class='vertical-center'>$34<br><br>now</div></div><div class='respDivL'><div class='vertical-center'>(E)</div></div><div class='respDivR'><div class='vertical-center'>(I)</div></div></div>","I","$34<br><br>now","$50<br>in<br>6 weeks","1","34","50","6","NOW"
"html-keyboard-response","6","21449","0.0-5.0-3.0","5ad2c8334d061300011b1985","bdp_td","Tue Mar 28 2023 15:18:28 GMT-0500 (Central Daylight Time)","89650","","null","","","","offerFB","","<div class='trialBorder'><div class='vertical-center'><img style='vertical-align:center; align:center' src=img/fixation3.jpg></div><div class='cl'><div class='vertical-center'>$50<br>in<br>6 weeks</div></div><div class='cr'><div class='vertical-center'><font style='color:orange'>$34<br><br>now</font></div></div><div class='respDivL'><div class='vertical-center'>(E)</div></div><div class='respDivR'><div class='vertical-center'><font style='color:orange'>(I)</font></div></div></div>","null","$34<br><br>now","$50<br>in<br>6 weeks","1","34","50","6",""
"html-keyboard-response","7","21953","0.0-5.0-1.1","5ad2c8334d061300011b1985","bdp_td","Tue Mar 28 2023 15:18:28 GMT-0500 (Central Daylight Time)","89650","","null","","","","FIX","","<div class='trialBorder'><div class='vertical-center'><img style='vertical-align:center; align:center' src=img/fixation3.jpg></div></div>","null","","","","","","",""
"html-keyboard-response","8","24039","0.0-5.0-2.1","5ad2c8334d061300011b1985","bdp_td","Tue Mar 28 2023 15:18:28 GMT-0500 (Central Daylight Time)","89650","","2082","","","","offer","","<div class='trialBorder'><div class='vertical-center'><img style='vertical-align:center; align:center' src=img/fixation3.jpg></div><div class='cl'><div class='vertical-center'>$22<br><br>now</div></div><div class='cr'><div class='vertical-center'>$25<br>in<br>12 weeks</div></div><div class='respDivL'><div class='vertical-center'>(E)</div></div><div class='respDivR'><div class='vertical-center'>(I)</div></div></div>","E","$22<br><br>now","$25<br>in<br>12 weeks","0","22","25","12","NOW"
"html-keyboard-response","9","24298","0.0-5.0-3.1","5ad2c8334d061300011b1985","bdp_td","Tue Mar 28 2023 15:18:28 GMT-0500 (Central Daylight Time)","89650","","null","","","","offerFB","","<div class='trialBorder'><div class='vertical-center'><img style='vertical-align:center; align:center' src=img/fixation3.jpg></div><div class='cl'><div class='vertical-center'><font style='color:orange'>$22<br><br>now</font></div></div><div class='cr'><div class='vertical-center'>$25<br>in<br>12 weeks</div></div><div class='respDivL'><div class='vertical-center'><font style='color:orange'>(E)</font></div></div><div class='respDivR'><div class='vertical-center'>(I)</div></div></div>","null","$22<br><br>now","$25<br>in<br>12 weeks","0","22","25","12",""
"html-keyboard-response","10","24801","0.0-5.0-1.2","5ad2c8334d061300011b1985","bdp_td","Tue Mar 28 2023 15:18:28 GMT-0500 (Central Daylight Time)","89650","","null","","","","FIX","","<div class='trialBorder'><div class='vertical-center'><img style='vertical-align:center; align:center' src=img/fixation3.jpg></div></div>","null","","","","","","",""
"html-keyboard-response","11","26432","0.0-5.0-2.2","5ad2c8334d061300011b1985","bdp_td","Tue Mar 28 2023 15:18:28 GMT-0500 (Central Daylight Time)","89650","","1627","","","","offer","","<div class='trialBorder'><div class='vertical-center'><img style='vertical-align:center; align:center' src=img/fixation3.jpg></div><div class='cl'><div class='vertical-center'>$47<br><br>now</div></div><div class='cr'><div class='vertical-center'>$50<br>in<br>12 weeks</div></div><div class='respDivL'><div class='vertical-center'>(E)</div></div><div class='respDivR'><div class='vertical-center'>(I)</div></div></div>","E","$47<br><br>now","$50<br>in<br>12 weeks","0","47","50","12","NOW"
"html-keyboard-response","12","26689","0.0-5.0-3.2","5ad2c8334d061300011b1985","bdp_td","Tue Mar 28 2023 15:18:28 GMT-0500 (Central Daylight Time)","89650","","null","","","","offerFB","","<div class='trialBorder'><div class='vertical-center'><img style='vertical-align:center; align:center' src=img/fixation3.jpg></div><div class='cl'><div class='vertical-center'><font style='color:orange'>$47<br><br>now</font></div></div><div class='cr'><div class='vertical-center'>$50<br>in<br>12 weeks</div></div><div class='respDivL'><div class='vertical-center'><font style='color:orange'>(E)</font></div></div><div class='respDivR'><div class='vertical-center'>(I)</div></div></div>","null","$47<br><br>now","$50<br>in<br>12 weeks","0","47","50","12",""
"html-keyboard-response","13","27193","0.0-5.0-1.3","5ad2c8334d061300011b1985","bdp_td","Tue Mar 28 2023 15:18:28 GMT-0500 (Central Daylight Time)","89650","","null","","","","FIX","","<div class='trialBorder'><div class='vertical-center'><img style='vertical-align:center; align:center' src=img/fixation3.jpg></div></div>","null","","","","","","",""
"html-keyboard-response","14","29389","0.0-5.0-2.3","5ad2c8334d061300011b1985","bdp_td","Tue Mar 28 2023 15:18:28 GMT-0500 (Central Daylight Time)","89650","","2192","","","","offer","","<div class='trialBorder'><div class='vertical-center'><img style='vertical-align:center; align:center' src=img/fixation3.jpg></div><div class='cl'><div class='vertical-center'>$24<br><br>now</div></div><div class='cr'><div class='vertical-center'>$35<br>in<br>3 weeks</div></div><div class='respDivL'><div class='vertical-center'>(E)</div></div><div class='respDivR'><div class='vertical-center'>(I)</div></div></div>","E","$24<br><br>now","$35<br>in<br>3 weeks","0","24","35","3","NOW"
"html-keyboard-response","15","29650","0.0-5.0-3.3","5ad2c8334d061300011b1985","bdp_td","Tue Mar 28 2023 15:18:28 GMT-0500 (Central Daylight Time)","89650","","null","","","","offerFB","","<div class='trialBorder'><div class='vertical-center'><img style='vertical-align:center; align:center' src=img/fixation3.jpg></div><div class='cl'><div class='vertical-center'><font style='color:orange'>$24<br><br>now</font></div></div><div class='cr'><div class='vertical-center'>$35<br>in<br>3 weeks</div></div><div class='respDivL'><div class='vertical-center'><font style='color:orange'>(E)</font></div></div><div class='respDivR'><div class='vertical-center'>(I)</div></div></div>","null","$24<br><br>now","$35<br>in<br>3 weeks","0","24","35","3",""
"html-keyboard-response","16","30161","0.0-5.0-1.4","5ad2c8334d061300011b1985","bdp_td","Tue Mar 28 2023 15:18:28 GMT-0500 (Central Daylight Time)","89650","","null","","","","FIX","","<div class='trialBorder'><div class='vertical-center'><img style='vertical-align:center; align:center' src=img/fixation3.jpg></div></div>","null","","","","","","",""
"html-keyboard-response","17","36490","0.0-5.0-2.4","5ad2c8334d061300011b1985","bdp_td","Tue Mar 28 2023 15:18:28 GMT-0500 (Central Daylight Time)","89650","","6327","","","","offer","","<div class='trialBorder'><div class='vertical-center'><img style='vertical-align:center; align:center' src=img/fixation3.jpg></div><div class='cl'><div class='vertical-center'>$54<br><br>now</div></div><div class='cr'><div class='vertical-center'>$80<br>in<br>3 weeks</div></div><div class='respDivL'><div class='vertical-center'>(E)</div></div><div class='respDivR'><div class='vertical-center'>(I)</div></div></div>","E","$54<br><br>now","$80<br>in<br>3 weeks","0","54","80","3","NOW"
"html-keyboard-response","18","36745","0.0-5.0-3.4","5ad2c8334d061300011b1985","bdp_td","Tue Mar 28 2023 15:18:28 GMT-0500 (Central Daylight Time)","89650","","null","","","","offerFB","","<div class='trialBorder'><div class='vertical-center'><img style='vertical-align:center; align:center' src=img/fixation3.jpg></div><div class='cl'><div class='vertical-center'><font style='color:orange'>$54<br><br>now</font></div></div><div class='cr'><div class='vertical-center'>$80<br>in<br>3 weeks</div></div><div class='respDivL'><div class='vertical-center'><font style='color:orange'>(E)</font></div></div><div class='respDivR'><div class='vertical-center'>(I)</div></div></div>","null","$54<br><br>now","$80<br>in<br>3 weeks","0","54","80","3",""
"html-keyboard-response","19","37249","0.0-5.0-1.5","5ad2c8334d061300011b1985","bdp_td","Tue Mar 28 2023 15:18:28 GMT-0500 (Central Daylight Time)","89650","","null","","","","FIX","","<div class='trialBorder'><div class='vertical-center'><img style='vertical-align:center; align:center' src=img/fixation3.jpg></div></div>","null","","","","","","",""
"html-keyboard-response","20","42612","0.0-5.0-2.5","5ad2c8334d061300011b1985","bdp_td","Tue Mar 28 2023 15:18:28 GMT-0500 (Central Daylight Time)","89650","","5361","","","","offer","","<div class='trialBorder'><div class='vertical-center'><img style='vertical-align:center; align:center' src=img/fixation3.jpg></div><div class='cl'><div class='vertical-center'>$75<br>in<br>3 weeks</div></div><div class='cr'><div class='vertical-center'>$41<br><br>now</div></div><div class='respDivL'><div class='vertical-center'>(E)</div></div><div class='respDivR'><div class='vertical-center'>(I)</div></div></div>","E","$41<br><br>now","$75<br>in<br>3 weeks","1","41","75","3","THEN"
"html-keyboard-response","21","42873","0.0-5.0-3.5","5ad2c8334d061300011b1985","bdp_td","Tue Mar 28 2023 15:18:28 GMT-0500 (Central Daylight Time)","89650","","null","","","","offerFB","","<div class='trialBorder'><div class='vertical-center'><img style='vertical-align:center; align:center' src=img/fixation3.jpg></div><div class='cl'><div class='vertical-center'><font style='color:orange'>$75<br>in<br>3 weeks</font></div></div><div class='cr'><div class='vertical-center'>$41<br><br>now</div></div><div class='respDivL'><div class='vertical-center'><font style='color:orange'>(E)</font></div></div><div class='respDivR'><div class='vertical-center'>(I)</div></div></div>","null","$41<br><br>now","$75<br>in<br>3 weeks","1","41","75","3",""
"html-keyboard-response","22","43377","0.0-5.0-1.6","5ad2c8334d061300011b1985","bdp_td","Tue Mar 28 2023 15:18:28 GMT-0500 (Central Daylight Time)","89650","","null","","","","FIX","","<div class='trialBorder'><div class='vertical-center'><img style='vertical-align:center; align:center' src=img/fixation3.jpg></div></div>","null","","","","","","",""
"html-keyboard-response","23","45696","0.0-5.0-2.6","5ad2c8334d061300011b1985","bdp_td","Tue Mar 28 2023 15:18:28 GMT-0500 (Central Daylight Time)","89650","","2317","","","","offer","","<div class='trialBorder'><div class='vertical-center'><img style='vertical-align:center; align:center' src=img/fixation3.jpg></div><div class='cl'><div class='vertical-center'>$55<br>in<br>1 week</div></div><div class='cr'><div class='vertical-center'>$20<br><br>now</div></div><div class='respDivL'><div class='vertical-center'>(E)</div></div><div class='respDivR'><div class='vertical-center'>(I)</div></div></div>","E","$20<br><br>now","$55<br>in<br>1 week","1","20","55","1","THEN"
"html-keyboard-response","24","45953","0.0-5.0-3.6","5ad2c8334d061300011b1985","bdp_td","Tue Mar 28 2023 15:18:28 GMT-0500 (Central Daylight Time)","89650","","null","","","","offerFB","","<div class='trialBorder'><div class='vertical-center'><img style='vertical-align:center; align:center' src=img/fixation3.jpg></div><div class='cl'><div class='vertical-center'><font style='color:orange'>$55<br>in<br>1 week</font></div></div><div class='cr'><div class='vertical-center'>$20<br><br>now</div></div><div class='respDivL'><div class='vertical-center'><font style='color:orange'>(E)</font></div></div><div class='respDivR'><div class='vertical-center'>(I)</div></div></div>","null","$20<br><br>now","$55<br>in<br>1 week","1","20","55","1",""
"html-keyboard-response","25","46457","0.0-5.0-1.7","5ad2c8334d061300011b1985","bdp_td","Tue Mar 28 2023 15:18:28 GMT-0500 (Central Daylight Time)","89650","","null","","","","FIX","","<div class='trialBorder'><div class='vertical-center'><img style='vertical-align:center; align:center' src=img/fixation3.jpg></div></div>","null","","","","","","",""
"html-keyboard-response","26","47493","0.0-5.0-2.7","5ad2c8334d061300011b1985","bdp_td","Tue Mar 28 2023 15:18:28 GMT-0500 (Central Daylight Time)","89650","","1033","","","","offer","","<div class='trialBorder'><div class='vertical-center'><img style='vertical-align:center; align:center' src=img/fixation3.jpg></div><div class='cl'><div class='vertical-center'>$85<br>in<br>1 week</div></div><div class='cr'><div class='vertical-center'>$31<br><br>now</div></div><div class='respDivL'><div class='vertical-center'>(E)</div></div><div class='respDivR'><div class='vertical-center'>(I)</div></div></div>","E","$31<br><br>now","$85<br>in<br>1 week","1","31","85","1","THEN"
"html-keyboard-response","27","47753","0.0-5.0-3.7","5ad2c8334d061300011b1985","bdp_td","Tue Mar 28 2023 15:18:28 GMT-0500 (Central Daylight Time)","89650","","null","","","","offerFB","","<div class='trialBorder'><div class='vertical-center'><img style='vertical-align:center; align:center' src=img/fixation3.jpg></div><div class='cl'><div class='vertical-center'><font style='color:orange'>$85<br>in<br>1 week</font></div></div><div class='cr'><div class='vertical-center'>$31<br><br>now</div></div><div class='respDivL'><div class='vertical-center'><font style='color:orange'>(E)</font></div></div><div class='respDivR'><div class='vertical-center'>(I)</div></div></div>","null","$31<br><br>now","$85<br>in<br>1 week","1","31","85","1",""
"html-keyboard-response","28","48257","0.0-5.0-1.8","5ad2c8334d061300011b1985","bdp_td","Tue Mar 28 2023 15:18:28 GMT-0500 (Central Daylight Time)","89650","","null","","","","FIX","","<div class='trialBorder'><div class='vertical-center'><img style='vertical-align:center; align:center' src=img/fixation3.jpg></div></div>","null","","","","","","",""
"html-keyboard-response","29","49799","0.0-5.0-2.8","5ad2c8334d061300011b1985","bdp_td","Tue Mar 28 2023 15:18:28 GMT-0500 (Central Daylight Time)","89650","","1540","","","","offer","","<div class='trialBorder'><div class='vertical-center'><img style='vertical-align:center; align:center' src=img/fixation3.jpg></div><div class='cl'><div class='vertical-center'>$15<br><br>now</div></div><div class='cr'><div class='vertical-center'>$35<br>in<br>2 weeks</div></div><div class='respDivL'><div class='vertical-center'>(E)</div></div><div class='respDivR'><div class='vertical-center'>(I)</div></div></div>","E","$15<br><br>now","$35<br>in<br>2 weeks","0","15","35","2","NOW"
"html-keyboard-response","30","50057","0.0-5.0-3.8","5ad2c8334d061300011b1985","bdp_td","Tue Mar 28 2023 15:18:28 GMT-0500 (Central Daylight Time)","89650","","null","","","","offerFB","","<div class='trialBorder'><div class='vertical-center'><img style='vertical-align:center; align:center' src=img/fixation3.jpg></div><div class='cl'><div class='vertical-center'><font style='color:orange'>$15<br><br>now</font></div></div><div class='cr'><div class='vertical-center'>$35<br>in<br>2 weeks</div></div><div class='respDivL'><div class='vertical-center'><font style='color:orange'>(E)</font></div></div><div class='respDivR'><div class='vertical-center'>(I)</div></div></div>","null","$15<br><br>now","$35<br>in<br>2 weeks","0","15","35","2",""
"html-keyboard-response","31","50561","0.0-5.0-1.9","5ad2c8334d061300011b1985","bdp_td","Tue Mar 28 2023 15:18:28 GMT-0500 (Central Daylight Time)","89650","","null","","","","FIX","","<div class='trialBorder'><div class='vertical-center'><img style='vertical-align:center; align:center' src=img/fixation3.jpg></div></div>","null","","","","","","",""
"html-keyboard-response","32","53227","0.0-5.0-2.9","5ad2c8334d061300011b1985","bdp_td","Tue Mar 28 2023 15:18:28 GMT-0500 (Central Daylight Time)","89650","","2664","","","","offer","","<div class='trialBorder'><div class='vertical-center'><img style='vertical-align:center; align:center' src=img/fixation3.jpg></div><div class='cl'><div class='vertical-center'>$80<br>in<br>2 weeks</div></div><div class='cr'><div class='vertical-center'>$33<br><br>now</div></div><div class='respDivL'><div class='vertical-center'>(E)</div></div><div class='respDivR'><div class='vertical-center'>(I)</div></div></div>","E","$33<br><br>now","$80<br>in<br>2 weeks","1","33","80","2","THEN"
"html-keyboard-response","33","53481","0.0-5.0-3.9","5ad2c8334d061300011b1985","bdp_td","Tue Mar 28 2023 15:18:28 GMT-0500 (Central Daylight Time)","89650","","null","","","","offerFB","","<div class='trialBorder'><div class='vertical-center'><img style='vertical-align:center; align:center' src=img/fixation3.jpg></div><div class='cl'><div class='vertical-center'><font style='color:orange'>$80<br>in<br>2 weeks</font></div></div><div class='cr'><div class='vertical-center'>$33<br><br>now</div></div><div class='respDivL'><div class='vertical-center'><font style='color:orange'>(E)</font></div></div><div class='respDivR'><div class='vertical-center'>(I)</div></div></div>","null","$33<br><br>now","$80<br>in<br>2 weeks","1","33","80","2",""
"html-keyboard-response","34","53985","0.0-5.0-1.10","5ad2c8334d061300011b1985","bdp_td","Tue Mar 28 2023 15:18:28 GMT-0500 (Central Daylight Time)","89650","","null","","","","FIX","","<div class='trialBorder'><div class='vertical-center'><img style='vertical-align:center; align:center' src=img/fixation3.jpg></div></div>","null","","","","","","",""
"html-keyboard-response","35","56543","0.0-5.0-2.10","5ad2c8334d061300011b1985","bdp_td","Tue Mar 28 2023 15:18:28 GMT-0500 (Central Daylight Time)","89650","","2556","","","","offer","","<div class='trialBorder'><div class='vertical-center'><img style='vertical-align:center; align:center' src=img/fixation3.jpg></div><div class='cl'><div class='vertical-center'>$25<br><br>now</div></div><div class='cr'><div class='vertical-center'>$60<br>in<br>3 weeks</div></div><div class='respDivL'><div class='vertical-center'>(E)</div></div><div class='respDivR'><div class='vertical-center'>(I)</div></div></div>","E","$25<br><br>now","$60<br>in<br>3 weeks","0","25","60","3","NOW"
"html-keyboard-response","36","56801","0.0-5.0-3.10","5ad2c8334d061300011b1985","bdp_td","Tue Mar 28 2023 15:18:28 GMT-0500 (Central Daylight Time)","89650","","null","","","","offerFB","","<div class='trialBorder'><div class='vertical-center'><img style='vertical-align:center; align:center' src=img/fixation3.jpg></div><div class='cl'><div class='vertical-center'><font style='color:orange'>$25<br><br>now</font></div></div><div class='cr'><div class='vertical-center'>$60<br>in<br>3 weeks</div></div><div class='respDivL'><div class='vertical-center'><font style='color:orange'>(E)</font></div></div><div class='respDivR'><div class='vertical-center'>(I)</div></div></div>","null","$25<br><br>now","$60<br>in<br>3 weeks","0","25","60","3",""
"html-keyboard-response","37","57305","0.0-5.0-1.11","5ad2c8334d061300011b1985","bdp_td","Tue Mar 28 2023 15:18:28 GMT-0500 (Central Daylight Time)","89650","","null","","","","FIX","","<div class='trialBorder'><div class='vertical-center'><img style='vertical-align:center; align:center' src=img/fixation3.jpg></div></div>","null","","","","","","",""
"html-keyboard-response","38","58869","0.0-5.0-2.11","5ad2c8334d061300011b1985","bdp_td","Tue Mar 28 2023 15:18:28 GMT-0500 (Central Daylight Time)","89650","","1560","","","","offer","","<div class='trialBorder'><div class='vertical-center'><img style='vertical-align:center; align:center' src=img/fixation3.jpg></div><div class='cl'><div class='vertical-center'>$67<br><br>now</div></div><div class='cr'><div class='vertical-center'>$75<br>in<br>12 weeks</div></div><div class='respDivL'><div class='vertical-center'>(E)</div></div><div class='respDivR'><div class='vertical-center'>(I)</div></div></div>","E","$67<br><br>now","$75<br>in<br>12 weeks","0","67","75","12","NOW"
"html-keyboard-response","39","59129","0.0-5.0-3.11","5ad2c8334d061300011b1985","bdp_td","Tue Mar 28 2023 15:18:28 GMT-0500 (Central Daylight Time)","89650","","null","","","","offerFB","","<div class='trialBorder'><div class='vertical-center'><img style='vertical-align:center; align:center' src=img/fixation3.jpg></div><div class='cl'><div class='vertical-center'><font style='color:orange'>$67<br><br>now</font></div></div><div class='cr'><div class='vertical-center'>$75<br>in<br>12 weeks</div></div><div class='respDivL'><div class='vertical-center'><font style='color:orange'>(E)</font></div></div><div class='respDivR'><div class='vertical-center'>(I)</div></div></div>","null","$67<br><br>now","$75<br>in<br>12 weeks","0","67","75","12",""
"html-keyboard-response","40","59633","0.0-5.0-1.12","5ad2c8334d061300011b1985","bdp_td","Tue Mar 28 2023 15:18:28 GMT-0500 (Central Daylight Time)","89650","","null","","","","FIX","","<div class='trialBorder'><div class='vertical-center'><img style='vertical-align:center; align:center' src=img/fixation3.jpg></div></div>","null","","","","","","",""
"html-keyboard-response","41","60629","0.0-5.0-2.12","5ad2c8334d061300011b1985","bdp_td","Tue Mar 28 2023 15:18:28 GMT-0500 (Central Daylight Time)","89650","","993","","","","offer","","<div class='trialBorder'><div class='vertical-center'><img style='vertical-align:center; align:center' src=img/fixation3.jpg></div><div class='cl'><div class='vertical-center'>$54<br><br>now</div></div><div class='cr'><div class='vertical-center'>$60<br>in<br>12 weeks</div></div><div class='respDivL'><div class='vertical-center'>(E)</div></div><div class='respDivR'><div class='vertical-center'>(I)</div></div></div>","E","$54<br><br>now","$60<br>in<br>12 weeks","0","54","60","12","NOW"
"html-keyboard-response","42","60889","0.0-5.0-3.12","5ad2c8334d061300011b1985","bdp_td","Tue Mar 28 2023 15:18:28 GMT-0500 (Central Daylight Time)","89650","","null","","","","offerFB","","<div class='trialBorder'><div class='vertical-center'><img style='vertical-align:center; align:center' src=img/fixation3.jpg></div><div class='cl'><div class='vertical-center'><font style='color:orange'>$54<br><br>now</font></div></div><div class='cr'><div class='vertical-center'>$60<br>in<br>12 weeks</div></div><div class='respDivL'><div class='vertical-center'><font style='color:orange'>(E)</font></div></div><div class='respDivR'><div class='vertical-center'>(I)</div></div></div>","null","$54<br><br>now","$60<br>in<br>12 weeks","0","54","60","12",""
"html-keyboard-response","43","61393","0.0-5.0-1.13","5ad2c8334d061300011b1985","bdp_td","Tue Mar 28 2023 15:18:28 GMT-0500 (Central Daylight Time)","89650","","null","","","","FIX","","<div class='trialBorder'><div class='vertical-center'><img style='vertical-align:center; align:center' src=img/fixation3.jpg></div></div>","null","","","","","","",""
"html-keyboard-response","44","62741","0.0-5.0-2.13","5ad2c8334d061300011b1985","bdp_td","Tue Mar 28 2023 15:18:28 GMT-0500 (Central Daylight Time)","89650","","1345","","","","offer","","<div class='trialBorder'><div class='vertical-center'><img style='vertical-align:center; align:center' src=img/fixation3.jpg></div><div class='cl'><div class='vertical-center'>$69<br><br>now</div></div><div class='cr'><div class='vertical-center'>$85<br>in<br>6 weeks</div></div><div class='respDivL'><div class='vertical-center'>(E)</div></div><div class='respDivR'><div class='vertical-center'>(I)</div></div></div>","E","$69<br><br>now","$85<br>in<br>6 weeks","0","69","85","6","NOW"
"html-keyboard-response","45","63001","0.0-5.0-3.13","5ad2c8334d061300011b1985","bdp_td","Tue Mar 28 2023 15:18:28 GMT-0500 (Central Daylight Time)","89650","","null","","","","offerFB","","<div class='trialBorder'><div class='vertical-center'><img style='vertical-align:center; align:center' src=img/fixation3.jpg></div><div class='cl'><div class='vertical-center'><font style='color:orange'>$69<br><br>now</font></div></div><div class='cr'><div class='vertical-center'>$85<br>in<br>6 weeks</div></div><div class='respDivL'><div class='vertical-center'><font style='color:orange'>(E)</font></div></div><div class='respDivR'><div class='vertical-center'>(I)</div></div></div>","null","$69<br><br>now","$85<br>in<br>6 weeks","0","69","85","6",""
"html-keyboard-response","46","63505","0.0-5.0-1.14","5ad2c8334d061300011b1985","bdp_td","Tue Mar 28 2023 15:18:28 GMT-0500 (Central Daylight Time)","89650","","null","","","","FIX","","<div class='trialBorder'><div class='vertical-center'><img style='vertical-align:center; align:center' src=img/fixation3.jpg></div></div>","null","","","","","","",""
"html-keyboard-response","47","64176","0.0-5.0-2.14","5ad2c8334d061300011b1985","bdp_td","Tue Mar 28 2023 15:18:28 GMT-0500 (Central Daylight Time)","89650","","668","","","","offer","","<div class='trialBorder'><div class='vertical-center'><img style='vertical-align:center; align:center' src=img/fixation3.jpg></div><div class='cl'><div class='vertical-center'>$78<br><br>now</div></div><div class='cr'><div class='vertical-center'>$80<br>in<br>12 weeks</div></div><div class='respDivL'><div class='vertical-center'>(E)</div></div><div class='respDivR'><div class='vertical-center'>(I)</div></div></div>","E","$78<br><br>now","$80<br>in<br>12 weeks","0","78","80","12","NOW"
"html-keyboard-response","48","64433","0.0-5.0-3.14","5ad2c8334d061300011b1985","bdp_td","Tue Mar 28 2023 15:18:28 GMT-0500 (Central Daylight Time)","89650","","null","","","","offerFB","","<div class='trialBorder'><div class='vertical-center'><img style='vertical-align:center; align:center' src=img/fixation3.jpg></div><div class='cl'><div class='vertical-center'><font style='color:orange'>$78<br><br>now</font></div></div><div class='cr'><div class='vertical-center'>$80<br>in<br>12 weeks</div></div><div class='respDivL'><div class='vertical-center'><font style='color:orange'>(E)</font></div></div><div class='respDivR'><div class='vertical-center'>(I)</div></div></div>","null","$78<br><br>now","$80<br>in<br>12 weeks","0","78","80","12",""
"html-keyboard-response","49","64937","0.0-5.0-1.15","5ad2c8334d061300011b1985","bdp_td","Tue Mar 28 2023 15:18:28 GMT-0500 (Central Daylight Time)","89650","","null","","","","FIX","","<div class='trialBorder'><div class='vertical-center'><img style='vertical-align:center; align:center' src=img/fixation3.jpg></div></div>","null","","","","","","",""
"html-keyboard-response","50","66009","0.0-5.0-2.15","5ad2c8334d061300011b1985","bdp_td","Tue Mar 28 2023 15:18:28 GMT-0500 (Central Daylight Time)","89650","","1070","","","","offer","","<div class='trialBorder'><div class='vertical-center'><img style='vertical-align:center; align:center' src=img/fixation3.jpg></div><div class='cl'><div class='vertical-center'>$14<br><br>now</div></div><div class='cr'><div class='vertical-center'>$25<br>in<br>3 weeks</div></div><div class='respDivL'><div class='vertical-center'>(E)</div></div><div class='respDivR'><div class='vertical-center'>(I)</div></div></div>","E","$14<br><br>now","$25<br>in<br>3 weeks","0","14","25","3","NOW"
"html-keyboard-response","51","66266","0.0-5.0-3.15","5ad2c8334d061300011b1985","bdp_td","Tue Mar 28 2023 15:18:28 GMT-0500 (Central Daylight Time)","89650","","null","","","","offerFB","","<div class='trialBorder'><div class='vertical-center'><img style='vertical-align:center; align:center' src=img/fixation3.jpg></div><div class='cl'><div class='vertical-center'><font style='color:orange'>$14<br><br>now</font></div></div><div class='cr'><div class='vertical-center'>$25<br>in<br>3 weeks</div></div><div class='respDivL'><div class='vertical-center'><font style='color:orange'>(E)</font></div></div><div class='respDivR'><div class='vertical-center'>(I)</div></div></div>","null","$14<br><br>now","$25<br>in<br>3 weeks","0","14","25","3",""
"html-keyboard-response","52","66769","0.0-5.0-1.16","5ad2c8334d061300011b1985","bdp_td","Tue Mar 28 2023 15:18:28 GMT-0500 (Central Daylight Time)","89650","","null","","","","FIX","","<div class='trialBorder'><div class='vertical-center'><img style='vertical-align:center; align:center' src=img/fixation3.jpg></div></div>","null","","","","","","",""
"html-keyboard-response","53","68444","0.0-5.0-2.16","5ad2c8334d061300011b1985","bdp_td","Tue Mar 28 2023 15:18:28 GMT-0500 (Central Daylight Time)","89650","","1671","","","","offer","","<div class='trialBorder'><div class='vertical-center'><img style='vertical-align:center; align:center' src=img/fixation3.jpg></div><div class='cl'><div class='vertical-center'>$60<br>in<br>6 weeks</div></div><div class='cr'><div class='vertical-center'>$49<br><br>now</div></div><div class='respDivL'><div class='vertical-center'>(E)</div></div><div class='respDivR'><div class='vertical-center'>(I)</div></div></div>","I","$49<br><br>now","$60<br>in<br>6 weeks","1","49","60","6","NOW"
"html-keyboard-response","54","68705","0.0-5.0-3.16","5ad2c8334d061300011b1985","bdp_td","Tue Mar 28 2023 15:18:28 GMT-0500 (Central Daylight Time)","89650","","null","","","","offerFB","","<div class='trialBorder'><div class='vertical-center'><img style='vertical-align:center; align:center' src=img/fixation3.jpg></div><div class='cl'><div class='vertical-center'>$60<br>in<br>6 weeks</div></div><div class='cr'><div class='vertical-center'><font style='color:orange'>$49<br><br>now</font></div></div><div class='respDivL'><div class='vertical-center'>(E)</div></div><div class='respDivR'><div class='vertical-center'><font style='color:orange'>(I)</font></div></div></div>","null","$49<br><br>now","$60<br>in<br>6 weeks","1","49","60","6",""
"html-keyboard-response","55","69209","0.0-5.0-1.17","5ad2c8334d061300011b1985","bdp_td","Tue Mar 28 2023 15:18:28 GMT-0500 (Central Daylight Time)","89650","","null","","","","FIX","","<div class='trialBorder'><div class='vertical-center'><img style='vertical-align:center; align:center' src=img/fixation3.jpg></div></div>","null","","","","","","",""
"html-keyboard-response","56","69904","0.0-5.0-2.17","5ad2c8334d061300011b1985","bdp_td","Tue Mar 28 2023 15:18:28 GMT-0500 (Central Daylight Time)","89650","","691","","","","offer","","<div class='trialBorder'><div class='vertical-center'><img style='vertical-align:center; align:center' src=img/fixation3.jpg></div><div class='cl'><div class='vertical-center'>$25<br>in<br>6 weeks</div></div><div class='cr'><div class='vertical-center'>$19<br><br>now</div></div><div class='respDivL'><div class='vertical-center'>(E)</div></div><div class='respDivR'><div class='vertical-center'>(I)</div></div></div>","I","$19<br><br>now","$25<br>in<br>6 weeks","1","19","25","6","NOW"
"html-keyboard-response","57","70161","0.0-5.0-3.17","5ad2c8334d061300011b1985","bdp_td","Tue Mar 28 2023 15:18:28 GMT-0500 (Central Daylight Time)","89650","","null","","","","offerFB","","<div class='trialBorder'><div class='vertical-center'><img style='vertical-align:center; align:center' src=img/fixation3.jpg></div><div class='cl'><div class='vertical-center'>$25<br>in<br>6 weeks</div></div><div class='cr'><div class='vertical-center'><font style='color:orange'>$19<br><br>now</font></div></div><div class='respDivL'><div class='vertical-center'>(E)</div></div><div class='respDivR'><div class='vertical-center'><font style='color:orange'>(I)</font></div></div></div>","null","$19<br><br>now","$25<br>in<br>6 weeks","1","19","25","6",""
"html-keyboard-response","58","70665","0.0-5.0-1.18","5ad2c8334d061300011b1985","bdp_td","Tue Mar 28 2023 15:18:28 GMT-0500 (Central Daylight Time)","89650","","null","","","","FIX","","<div class='trialBorder'><div class='vertical-center'><img style='vertical-align:center; align:center' src=img/fixation3.jpg></div></div>","null","","","","","","",""
"html-keyboard-response","59","72388","0.0-5.0-2.18","5ad2c8334d061300011b1985","bdp_td","Tue Mar 28 2023 15:18:28 GMT-0500 (Central Daylight Time)","89650","","1721","","","","offer","","<div class='trialBorder'><div class='vertical-center'><img style='vertical-align:center; align:center' src=img/fixation3.jpg></div><div class='cl'><div class='vertical-center'>$80<br><br>now</div></div><div class='cr'><div class='vertical-center'>$85<br>in<br>12 weeks</div></div><div class='respDivL'><div class='vertical-center'>(E)</div></div><div class='respDivR'><div class='vertical-center'>(I)</div></div></div>","E","$80<br><br>now","$85<br>in<br>12 weeks","0","80","85","12","NOW"
"html-keyboard-response","60","72649","0.0-5.0-3.18","5ad2c8334d061300011b1985","bdp_td","Tue Mar 28 2023 15:18:28 GMT-0500 (Central Daylight Time)","89650","","null","","","","offerFB","","<div class='trialBorder'><div class='vertical-center'><img style='vertical-align:center; align:center' src=img/fixation3.jpg></div><div class='cl'><div class='vertical-center'><font style='color:orange'>$80<br><br>now</font></div></div><div class='cr'><div class='vertical-center'>$85<br>in<br>12 weeks</div></div><div class='respDivL'><div class='vertical-center'><font style='color:orange'>(E)</font></div></div><div class='respDivR'><div class='vertical-center'>(I)</div></div></div>","null","$80<br><br>now","$85<br>in<br>12 weeks","0","80","85","12",""
"html-keyboard-response","61","73153","0.0-5.0-1.19","5ad2c8334d061300011b1985","bdp_td","Tue Mar 28 2023 15:18:28 GMT-0500 (Central Daylight Time)","89650","","null","","","","FIX","","<div class='trialBorder'><div class='vertical-center'><img style='vertical-align:center; align:center' src=img/fixation3.jpg></div></div>","null","","","","","","",""
"html-keyboard-response","62","75429","0.0-5.0-2.19","5ad2c8334d061300011b1985","bdp_td","Tue Mar 28 2023 15:18:28 GMT-0500 (Central Daylight Time)","89650","","2273","","","","offer","","<div class='trialBorder'><div class='vertical-center'><img style='vertical-align:center; align:center' src=img/fixation3.jpg></div><div class='cl'><div class='vertical-center'>$50<br>in<br>3 weeks</div></div><div class='cr'><div class='vertical-center'>$27<br><br>now</div></div><div class='respDivL'><div class='vertical-center'>(E)</div></div><div class='respDivR'><div class='vertical-center'>(I)</div></div></div>","I","$27<br><br>now","$50<br>in<br>3 weeks","1","27","50","3","NOW"
"html-keyboard-response","63","75689","0.0-5.0-3.19","5ad2c8334d061300011b1985","bdp_td","Tue Mar 28 2023 15:18:28 GMT-0500 (Central Daylight Time)","89650","","null","","","","offerFB","","<div class='trialBorder'><div class='vertical-center'><img style='vertical-align:center; align:center' src=img/fixation3.jpg></div><div class='cl'><div class='vertical-center'>$50<br>in<br>3 weeks</div></div><div class='cr'><div class='vertical-center'><font style='color:orange'>$27<br><br>now</font></div></div><div class='respDivL'><div class='vertical-center'>(E)</div></div><div class='respDivR'><div class='vertical-center'><font style='color:orange'>(I)</font></div></div></div>","null","$27<br><br>now","$50<br>in<br>3 weeks","1","27","50","3",""
"html-keyboard-response","64","76193","0.0-5.0-1.20","5ad2c8334d061300011b1985","bdp_td","Tue Mar 28 2023 15:18:28 GMT-0500 (Central Daylight Time)","89650","","null","","","","FIX","","<div class='trialBorder'><div class='vertical-center'><img style='vertical-align:center; align:center' src=img/fixation3.jpg></div></div>","null","","","","","","",""
"html-keyboard-response","65","77514","0.0-5.0-2.20","5ad2c8334d061300011b1985","bdp_td","Tue Mar 28 2023 15:18:28 GMT-0500 (Central Daylight Time)","89650","","1319","","","","offer","","<div class='trialBorder'><div class='vertical-center'><img style='vertical-align:center; align:center' src=img/fixation3.jpg></div><div class='cl'><div class='vertical-center'>$75<br>in<br>6 weeks</div></div><div class='cr'><div class='vertical-center'>$55<br><br>now</div></div><div class='respDivL'><div class='vertical-center'>(E)</div></div><div class='respDivR'><div class='vertical-center'>(I)</div></div></div>","I","$55<br><br>now","$75<br>in<br>6 weeks","1","55","75","6","NOW"
"html-keyboard-response","66","77769","0.0-5.0-3.20","5ad2c8334d061300011b1985","bdp_td","Tue Mar 28 2023 15:18:28 GMT-0500 (Central Daylight Time)","89650","","null","","","","offerFB","","<div class='trialBorder'><div class='vertical-center'><img style='vertical-align:center; align:center' src=img/fixation3.jpg></div><div class='cl'><div class='vertical-center'>$75<br>in<br>6 weeks</div></div><div class='cr'><div class='vertical-center'><font style='color:orange'>$55<br><br>now</font></div></div><div class='respDivL'><div class='vertical-center'>(E)</div></div><div class='respDivR'><div class='vertical-center'><font style='color:orange'>(I)</font></div></div></div>","null","$55<br><br>now","$75<br>in<br>6 weeks","1","55","75","6",""
"html-keyboard-response","67","78273","0.0-5.0-1.21","5ad2c8334d061300011b1985","bdp_td","Tue Mar 28 2023 15:18:28 GMT-0500 (Central Daylight Time)","89650","","null","","","","FIX","","<div class='trialBorder'><div class='vertical-center'><img style='vertical-align:center; align:center' src=img/fixation3.jpg></div></div>","null","","","","","","",""
"html-keyboard-response","68","79675","0.0-5.0-2.21","5ad2c8334d061300011b1985","bdp_td","Tue Mar 28 2023 15:18:28 GMT-0500 (Central Daylight Time)","89650","","1399","","","","offer","","<div class='trialBorder'><div class='vertical-center'><img style='vertical-align:center; align:center' src=img/fixation3.jpg></div><div class='cl'><div class='vertical-center'>$30<br>in<br>2 weeks</div></div><div class='cr'><div class='vertical-center'>$11<br><br>now</div></div><div class='respDivL'><div class='vertical-center'>(E)</div></div><div class='respDivR'><div class='vertical-center'>(I)</div></div></div>","I","$11<br><br>now","$30<br>in<br>2 weeks","1","11","30","2","NOW"
"html-keyboard-response","69","79929","0.0-5.0-3.21","5ad2c8334d061300011b1985","bdp_td","Tue Mar 28 2023 15:18:28 GMT-0500 (Central Daylight Time)","89650","","null","","","","offerFB","","<div class='trialBorder'><div class='vertical-center'><img style='vertical-align:center; align:center' src=img/fixation3.jpg></div><div class='cl'><div class='vertical-center'>$30<br>in<br>2 weeks</div></div><div class='cr'><div class='vertical-center'><font style='color:orange'>$11<br><br>now</font></div></div><div class='respDivL'><div class='vertical-center'>(E)</div></div><div class='respDivR'><div class='vertical-center'><font style='color:orange'>(I)</font></div></div></div>","null","$11<br><br>now","$30<br>in<br>2 weeks","1","11","30","2",""
"html-keyboard-response","70","80433","0.0-5.0-1.22","5ad2c8334d061300011b1985","bdp_td","Tue Mar 28 2023 15:18:28 GMT-0500 (Central Daylight Time)","89650","","null","","","","FIX","","<div class='trialBorder'><div class='vertical-center'><img style='vertical-align:center; align:center' src=img/fixation3.jpg></div></div>","null","","","","","","",""
"html-keyboard-response","71","81860","0.0-5.0-2.22","5ad2c8334d061300011b1985","bdp_td","Tue Mar 28 2023 15:18:28 GMT-0500 (Central Daylight Time)","89650","","1423","","","","offer","","<div class='trialBorder'><div class='vertical-center'><img style='vertical-align:center; align:center' src=img/fixation3.jpg></div><div class='cl'><div class='vertical-center'>$28<br><br>now</div></div><div class='cr'><div class='vertical-center'>$30<br>in<br>12 weeks</div></div><div class='respDivL'><div class='vertical-center'>(E)</div></div><div class='respDivR'><div class='vertical-center'>(I)</div></div></div>","E","$28<br><br>now","$30<br>in<br>12 weeks","0","28","30","12","NOW"
"html-keyboard-response","72","82121","0.0-5.0-3.22","5ad2c8334d061300011b1985","bdp_td","Tue Mar 28 2023 15:18:28 GMT-0500 (Central Daylight Time)","89650","","null","","","","offerFB","","<div class='trialBorder'><div class='vertical-center'><img style='vertical-align:center; align:center' src=img/fixation3.jpg></div><div class='cl'><div class='vertical-center'><font style='color:orange'>$28<br><br>now</font></div></div><div class='cr'><div class='vertical-center'>$30<br>in<br>12 weeks</div></div><div class='respDivL'><div class='vertical-center'><font style='color:orange'>(E)</font></div></div><div class='respDivR'><div class='vertical-center'>(I)</div></div></div>","null","$28<br><br>now","$30<br>in<br>12 weeks","0","28","30","12",""
"html-keyboard-response","73","82625","0.0-5.0-1.23","5ad2c8334d061300011b1985","bdp_td","Tue Mar 28 2023 15:18:28 GMT-0500 (Central Daylight Time)","89650","","null","","","","FIX","","<div class='trialBorder'><div class='vertical-center'><img style='vertical-align:center; align:center' src=img/fixation3.jpg></div></div>","null","","","","","","",""
"html-keyboard-response","74","83210","0.0-5.0-2.23","5ad2c8334d061300011b1985","bdp_td","Tue Mar 28 2023 15:18:28 GMT-0500 (Central Daylight Time)","89650","","582","","","","offer","","<div class='trialBorder'><div class='vertical-center'><img style='vertical-align:center; align:center' src=img/fixation3.jpg></div><div class='cl'><div class='vertical-center'>$25<br><br>now</div></div><div class='cr'><div class='vertical-center'>$30<br>in<br>6 weeks</div></div><div class='respDivL'><div class='vertical-center'>(E)</div></div><div class='respDivR'><div class='vertical-center'>(I)</div></div></div>","E","$25<br><br>now","$30<br>in<br>6 weeks","0","25","30","6","NOW"
"html-keyboard-response","75","83465","0.0-5.0-3.23","5ad2c8334d061300011b1985","bdp_td","Tue Mar 28 2023 15:18:28 GMT-0500 (Central Daylight Time)","89650","","null","","","","offerFB","","<div class='trialBorder'><div class='vertical-center'><img style='vertical-align:center; align:center' src=img/fixation3.jpg></div><div class='cl'><div class='vertical-center'><font style='color:orange'>$25<br><br>now</font></div></div><div class='cr'><div class='vertical-center'>$30<br>in<br>6 weeks</div></div><div class='respDivL'><div class='vertical-center'><font style='color:orange'>(E)</font></div></div><div class='respDivR'><div class='vertical-center'>(I)</div></div></div>","null","$25<br><br>now","$30<br>in<br>6 weeks","0","25","30","6",""
"html-keyboard-response","76","83969","0.0-5.0-1.24","5ad2c8334d061300011b1985","bdp_td","Tue Mar 28 2023 15:18:28 GMT-0500 (Central Daylight Time)","89650","","null","","","","FIX","","<div class='trialBorder'><div class='vertical-center'><img style='vertical-align:center; align:center' src=img/fixation3.jpg></div></div>","null","","","","","","",""
"html-keyboard-response","77","84897","0.0-5.0-2.24","5ad2c8334d061300011b1985","bdp_td","Tue Mar 28 2023 15:18:28 GMT-0500 (Central Daylight Time)","89650","","925","","","","offer","","<div class='trialBorder'><div class='vertical-center'><img style='vertical-align:center; align:center' src=img/fixation3.jpg></div><div class='cl'><div class='vertical-center'>$55<br>in<br>6 weeks</div></div><div class='cr'><div class='vertical-center'>$40<br><br>now</div></div><div class='respDivL'><div class='vertical-center'>(E)</div></div><div class='respDivR'><div class='vertical-center'>(I)</div></div></div>","I","$40<br><br>now","$55<br>in<br>6 weeks","1","40","55","6","NOW"
"html-keyboard-response","78","85153","0.0-5.0-3.24","5ad2c8334d061300011b1985","bdp_td","Tue Mar 28 2023 15:18:28 GMT-0500 (Central Daylight Time)","89650","","null","","","","offerFB","","<div class='trialBorder'><div class='vertical-center'><img style='vertical-align:center; align:center' src=img/fixation3.jpg></div><div class='cl'><div class='vertical-center'>$55<br>in<br>6 weeks</div></div><div class='cr'><div class='vertical-center'><font style='color:orange'>$40<br><br>now</font></div></div><div class='respDivL'><div class='vertical-center'>(E)</div></div><div class='respDivR'><div class='vertical-center'><font style='color:orange'>(I)</font></div></div></div>","null","$40<br><br>now","$55<br>in<br>6 weeks","1","40","55","6",""
"html-keyboard-response","79","85657","0.0-5.0-1.25","5ad2c8334d061300011b1985","bdp_td","Tue Mar 28 2023 15:18:28 GMT-0500 (Central Daylight Time)","89650","","null","","","","FIX","","<div class='trialBorder'><div class='vertical-center'><img style='vertical-align:center; align:center' src=img/fixation3.jpg></div></div>","null","","","","","","",""
"html-keyboard-response","80","86451","0.0-5.0-2.25","5ad2c8334d061300011b1985","bdp_td","Tue Mar 28 2023 15:18:28 GMT-0500 (Central Daylight Time)","89650","","792","","","","offer","","<div class='trialBorder'><div class='vertical-center'><img style='vertical-align:center; align:center' src=img/fixation3.jpg></div><div class='cl'><div class='vertical-center'>$35<br>in<br>12 weeks</div></div><div class='cr'><div class='vertical-center'>$34<br><br>now</div></div><div class='respDivL'><div class='vertical-center'>(E)</div></div><div class='respDivR'><div class='vertical-center'>(I)</div></div></div>","I","$34<br><br>now","$35<br>in<br>12 weeks","1","34","35","12","NOW"
"html-keyboard-response","81","86705","0.0-5.0-3.25","5ad2c8334d061300011b1985","bdp_td","Tue Mar 28 2023 15:18:28 GMT-0500 (Central Daylight Time)","89650","","null","","","","offerFB","","<div class='trialBorder'><div class='vertical-center'><img style='vertical-align:center; align:center' src=img/fixation3.jpg></div><div class='cl'><div class='vertical-center'>$35<br>in<br>12 weeks</div></div><div class='cr'><div class='vertical-center'><font style='color:orange'>$34<br><br>now</font></div></div><div class='respDivL'><div class='vertical-center'>(E)</div></div><div class='respDivR'><div class='vertical-center'><font style='color:orange'>(I)</font></div></div></div>","null","$34<br><br>now","$35<br>in<br>12 weeks","1","34","35","12",""
"html-keyboard-response","82","87209","0.0-5.0-1.26","5ad2c8334d061300011b1985","bdp_td","Tue Mar 28 2023 15:18:28 GMT-0500 (Central Daylight Time)","89650","","null","","","","FIX","","<div class='trialBorder'><div class='vertical-center'><img style='vertical-align:center; align:center' src=img/fixation3.jpg></div></div>","null","","","","","","",""
"html-keyboard-response","83","88383","0.0-5.0-2.26","5ad2c8334d061300011b1985","bdp_td","Tue Mar 28 2023 15:18:28 GMT-0500 (Central Daylight Time)","89650","","1171","","","","offer","","<div class='trialBorder'><div class='vertical-center'><img style='vertical-align:center; align:center' src=img/fixation3.jpg></div><div class='cl'><div class='vertical-center'>$55<br>in<br>12 weeks</div></div><div class='cr'><div class='vertical-center'>$54<br><br>now</div></div><div class='respDivL'><div class='vertical-center'>(E)</div></div><div class='respDivR'><div class='vertical-center'>(I)</div></div></div>","I","$54<br><br>now","$55<br>in<br>12 weeks","1","54","55","12","NOW"
"html-keyboard-response","84","88641","0.0-5.0-3.26","5ad2c8334d061300011b1985","bdp_td","Tue Mar 28 2023 15:18:28 GMT-0500 (Central Daylight Time)","89650","","null","","","","offerFB","","<div class='trialBorder'><div class='vertical-center'><img style='vertical-align:center; align:center' src=img/fixation3.jpg></div><div class='cl'><div class='vertical-center'>$55<br>in<br>12 weeks</div></div><div class='cr'><div class='vertical-center'><font style='color:orange'>$54<br><br>now</font></div></div><div class='respDivL'><div class='vertical-center'>(E)</div></div><div class='respDivR'><div class='vertical-center'><font style='color:orange'>(I)</font></div></div></div>","null","$54<br><br>now","$55<br>in<br>12 weeks","1","54","55","12",""
"","","","","5ad2c8334d061300011b1985","bdp_td","Tue Mar 28 2023 15:18:28 GMT-0500 (Central Daylight Time)","89650","","","fullscreenexit","85","88651","fullscreenexit","","","","","","","","","",""
"fullscreen","85","89649","0.0-6.0","5ad2c8334d061300011b1985","bdp_td","Tue Mar 28 2023 15:18:28 GMT-0500 (Central Daylight Time)","89650","","","","","","","true","","","","","","","","",""
"html-keyboard-response","86","90153","0.0-7.0","","","","","","null","","","","","","","null","","","","","","",""
