"trial_type","trial_index","time_elapsed","internal_node_id","subject_id","task","startTime","totalTime","view_history","rt","event","trial","time","trialtype","success","stimulus","key_press","nowOffer","thenOffer","thenLeft","nowAmt","thenAmt","thenWeeks","chosen"
"pavlovia","0","3","0.0-0.0","5f5691fb24d1090e6bcdf1ec","bdp_td","Sat Mar 25 2023 09:40:48 GMT-0500 (Central Daylight Time)","121856","","","","","","","","","","","","","","","",""
"instructions","1","1852","0.0-1.0","5f5691fb24d1090e6bcdf1ec","bdp_td","Sat Mar 25 2023 09:40:48 GMT-0500 (Central Daylight Time)","121856","[{""page_index"":0,""viewing_time"":1849}]","1849","","","","","","","","","","","","","",""
"","","","","5f5691fb24d1090e6bcdf1ec","bdp_td","Sat Mar 25 2023 09:40:48 GMT-0500 (Central Daylight Time)","121856","","","fullscreenenter","2","2721","fullscreenenter","","","","","","","","","",""
"fullscreen","2","3714","0.0-2.0","5f5691fb24d1090e6bcdf1ec","bdp_td","Sat Mar 25 2023 09:40:48 GMT-0500 (Central Daylight Time)","121856","","","","","","","true","","","","","","","","",""
"instructions","3","26587","0.0-4.0","5f5691fb24d1090e6bcdf1ec","bdp_td","Sat Mar 25 2023 09:40:48 GMT-0500 (Central Daylight Time)","121856","[{""page_index"":0,""viewing_time"":7804},{""page_index"":1,""viewing_time"":8628},{""page_index"":2,""viewing_time"":6436}]","22868","","","","","","","","","","","","","",""
"html-keyboard-response","4","27091","0.0-5.0-1.0","5f5691fb24d1090e6bcdf1ec","bdp_td","Sat Mar 25 2023 09:40:48 GMT-0500 (Central Daylight Time)","121856","","null","","","","FIX","","<div class='trialBorder'><div class='vertical-center'><img style='vertical-align:center; align:center' src=img/fixation3.jpg></div></div>","null","","","","","","",""
"html-keyboard-response","5","29320","0.0-5.0-2.0","5f5691fb24d1090e6bcdf1ec","bdp_td","Sat Mar 25 2023 09:40:48 GMT-0500 (Central Daylight Time)","121856","","2226","","","","offer","","<div class='trialBorder'><div class='vertical-center'><img style='vertical-align:center; align:center' src=img/fixation3.jpg></div><div class='cl'><div class='vertical-center'>$25<br><br>now</div></div><div class='cr'><div class='vertical-center'>$60<br>in<br>3 weeks</div></div><div class='respDivL'><div class='vertical-center'>(E)</div></div><div class='respDivR'><div class='vertical-center'>(I)</div></div></div>","I","$25<br><br>now","$60<br>in<br>3 weeks","0","25","60","3","THEN"
"html-keyboard-response","6","29573","0.0-5.0-3.0","5f5691fb24d1090e6bcdf1ec","bdp_td","Sat Mar 25 2023 09:40:48 GMT-0500 (Central Daylight Time)","121856","","null","","","","offerFB","","<div class='trialBorder'><div class='vertical-center'><img style='vertical-align:center; align:center' src=img/fixation3.jpg></div><div class='cl'><div class='vertical-center'>$25<br><br>now</div></div><div class='cr'><div class='vertical-center'><font style='color:orange'>$60<br>in<br>3 weeks</font></div></div><div class='respDivL'><div class='vertical-center'>(E)</div></div><div class='respDivR'><div class='vertical-center'><font style='color:orange'>(I)</font></div></div></div>","null","$25<br><br>now","$60<br>in<br>3 weeks","0","25","60","3",""
"html-keyboard-response","7","30076","0.0-5.0-1.1","5f5691fb24d1090e6bcdf1ec","bdp_td","Sat Mar 25 2023 09:40:48 GMT-0500 (Central Daylight Time)","121856","","null","","","","FIX","","<div class='trialBorder'><div class='vertical-center'><img style='vertical-align:center; align:center' src=img/fixation3.jpg></div></div>","null","","","","","","",""
"html-keyboard-response","8","34792","0.0-5.0-2.1","5f5691fb24d1090e6bcdf1ec","bdp_td","Sat Mar 25 2023 09:40:48 GMT-0500 (Central Daylight Time)","121856","","4713","","","","offer","","<div class='trialBorder'><div class='vertical-center'><img style='vertical-align:center; align:center' src=img/fixation3.jpg></div><div class='cl'><div class='vertical-center'>$85<br>in<br>12 weeks</div></div><div class='cr'><div class='vertical-center'>$80<br><br>now</div></div><div class='respDivL'><div class='vertical-center'>(E)</div></div><div class='respDivR'><div class='vertical-center'>(I)</div></div></div>","I","$80<br><br>now","$85<br>in<br>12 weeks","1","80","85","12","NOW"
"html-keyboard-response","9","35045","0.0-5.0-3.1","5f5691fb24d1090e6bcdf1ec","bdp_td","Sat Mar 25 2023 09:40:48 GMT-0500 (Central Daylight Time)","121856","","null","","","","offerFB","","<div class='trialBorder'><div class='vertical-center'><img style='vertical-align:center; align:center' src=img/fixation3.jpg></div><div class='cl'><div class='vertical-center'>$85<br>in<br>12 weeks</div></div><div class='cr'><div class='vertical-center'><font style='color:orange'>$80<br><br>now</font></div></div><div class='respDivL'><div class='vertical-center'>(E)</div></div><div class='respDivR'><div class='vertical-center'><font style='color:orange'>(I)</font></div></div></div>","null","$80<br><br>now","$85<br>in<br>12 weeks","1","80","85","12",""
"html-keyboard-response","10","35551","0.0-5.0-1.2","5f5691fb24d1090e6bcdf1ec","bdp_td","Sat Mar 25 2023 09:40:48 GMT-0500 (Central Daylight Time)","121856","","null","","","","FIX","","<div class='trialBorder'><div class='vertical-center'><img style='vertical-align:center; align:center' src=img/fixation3.jpg></div></div>","null","","","","","","",""
"html-keyboard-response","11","37745","0.0-5.0-2.2","5f5691fb24d1090e6bcdf1ec","bdp_td","Sat Mar 25 2023 09:40:48 GMT-0500 (Central Daylight Time)","121856","","2191","","","","offer","","<div class='trialBorder'><div class='vertical-center'><img style='vertical-align:center; align:center' src=img/fixation3.jpg></div><div class='cl'><div class='vertical-center'>$25<br>in<br>3 weeks</div></div><div class='cr'><div class='vertical-center'>$14<br><br>now</div></div><div class='respDivL'><div class='vertical-center'>(E)</div></div><div class='respDivR'><div class='vertical-center'>(I)</div></div></div>","E","$14<br><br>now","$25<br>in<br>3 weeks","1","14","25","3","THEN"
"html-keyboard-response","12","38000","0.0-5.0-3.2","5f5691fb24d1090e6bcdf1ec","bdp_td","Sat Mar 25 2023 09:40:48 GMT-0500 (Central Daylight Time)","121856","","null","","","","offerFB","","<div class='trialBorder'><div class='vertical-center'><img style='vertical-align:center; align:center' src=img/fixation3.jpg></div><div class='cl'><div class='vertical-center'><font style='color:orange'>$25<br>in<br>3 weeks</font></div></div><div class='cr'><div class='vertical-center'>$14<br><br>now</div></div><div class='respDivL'><div class='vertical-center'><font style='color:orange'>(E)</font></div></div><div class='respDivR'><div class='vertical-center'>(I)</div></div></div>","null","$14<br><br>now","$25<br>in<br>3 weeks","1","14","25","3",""
"html-keyboard-response","13","38502","0.0-5.0-1.3","5f5691fb24d1090e6bcdf1ec","bdp_td","Sat Mar 25 2023 09:40:48 GMT-0500 (Central Daylight Time)","121856","","null","","","","FIX","","<div class='trialBorder'><div class='vertical-center'><img style='vertical-align:center; align:center' src=img/fixation3.jpg></div></div>","null","","","","","","",""
"html-keyboard-response","14","40456","0.0-5.0-2.3","5f5691fb24d1090e6bcdf1ec","bdp_td","Sat Mar 25 2023 09:40:48 GMT-0500 (Central Daylight Time)","121856","","1952","","","","offer","","<div class='trialBorder'><div class='vertical-center'><img style='vertical-align:center; align:center' src=img/fixation3.jpg></div><div class='cl'><div class='vertical-center'>$80<br>in<br>12 weeks</div></div><div class='cr'><div class='vertical-center'>$78<br><br>now</div></div><div class='respDivL'><div class='vertical-center'>(E)</div></div><div class='respDivR'><div class='vertical-center'>(I)</div></div></div>","I","$78<br><br>now","$80<br>in<br>12 weeks","1","78","80","12","NOW"
"html-keyboard-response","15","40713","0.0-5.0-3.3","5f5691fb24d1090e6bcdf1ec","bdp_td","Sat Mar 25 2023 09:40:48 GMT-0500 (Central Daylight Time)","121856","","null","","","","offerFB","","<div class='trialBorder'><div class='vertical-center'><img style='vertical-align:center; align:center' src=img/fixation3.jpg></div><div class='cl'><div class='vertical-center'>$80<br>in<br>12 weeks</div></div><div class='cr'><div class='vertical-center'><font style='color:orange'>$78<br><br>now</font></div></div><div class='respDivL'><div class='vertical-center'>(E)</div></div><div class='respDivR'><div class='vertical-center'><font style='color:orange'>(I)</font></div></div></div>","null","$78<br><br>now","$80<br>in<br>12 weeks","1","78","80","12",""
"html-keyboard-response","16","41217","0.0-5.0-1.4","5f5691fb24d1090e6bcdf1ec","bdp_td","Sat Mar 25 2023 09:40:48 GMT-0500 (Central Daylight Time)","121856","","null","","","","FIX","","<div class='trialBorder'><div class='vertical-center'><img style='vertical-align:center; align:center' src=img/fixation3.jpg></div></div>","null","","","","","","",""
"html-keyboard-response","17","42759","0.0-5.0-2.4","5f5691fb24d1090e6bcdf1ec","bdp_td","Sat Mar 25 2023 09:40:48 GMT-0500 (Central Daylight Time)","121856","","1539","","","","offer","","<div class='trialBorder'><div class='vertical-center'><img style='vertical-align:center; align:center' src=img/fixation3.jpg></div><div class='cl'><div class='vertical-center'>$80<br>in<br>3 weeks</div></div><div class='cr'><div class='vertical-center'>$54<br><br>now</div></div><div class='respDivL'><div class='vertical-center'>(E)</div></div><div class='respDivR'><div class='vertical-center'>(I)</div></div></div>","E","$54<br><br>now","$80<br>in<br>3 weeks","1","54","80","3","THEN"
"html-keyboard-response","18","43013","0.0-5.0-3.4","5f5691fb24d1090e6bcdf1ec","bdp_td","Sat Mar 25 2023 09:40:48 GMT-0500 (Central Daylight Time)","121856","","null","","","","offerFB","","<div class='trialBorder'><div class='vertical-center'><img style='vertical-align:center; align:center' src=img/fixation3.jpg></div><div class='cl'><div class='vertical-center'><font style='color:orange'>$80<br>in<br>3 weeks</font></div></div><div class='cr'><div class='vertical-center'>$54<br><br>now</div></div><div class='respDivL'><div class='vertical-center'><font style='color:orange'>(E)</font></div></div><div class='respDivR'><div class='vertical-center'>(I)</div></div></div>","null","$54<br><br>now","$80<br>in<br>3 weeks","1","54","80","3",""
"html-keyboard-response","19","43516","0.0-5.0-1.5","5f5691fb24d1090e6bcdf1ec","bdp_td","Sat Mar 25 2023 09:40:48 GMT-0500 (Central Daylight Time)","121856","","null","","","","FIX","","<div class='trialBorder'><div class='vertical-center'><img style='vertical-align:center; align:center' src=img/fixation3.jpg></div></div>","null","","","","","","",""
"html-keyboard-response","20","46052","0.0-5.0-2.5","5f5691fb24d1090e6bcdf1ec","bdp_td","Sat Mar 25 2023 09:40:48 GMT-0500 (Central Daylight Time)","121856","","2535","","","","offer","","<div class='trialBorder'><div class='vertical-center'><img style='vertical-align:center; align:center' src=img/fixation3.jpg></div><div class='cl'><div class='vertical-center'>$47<br><br>now</div></div><div class='cr'><div class='vertical-center'>$50<br>in<br>12 weeks</div></div><div class='respDivL'><div class='vertical-center'>(E)</div></div><div class='respDivR'><div class='vertical-center'>(I)</div></div></div>","E","$47<br><br>now","$50<br>in<br>12 weeks","0","47","50","12","NOW"
"html-keyboard-response","21","46305","0.0-5.0-3.5","5f5691fb24d1090e6bcdf1ec","bdp_td","Sat Mar 25 2023 09:40:48 GMT-0500 (Central Daylight Time)","121856","","null","","","","offerFB","","<div class='trialBorder'><div class='vertical-center'><img style='vertical-align:center; align:center' src=img/fixation3.jpg></div><div class='cl'><div class='vertical-center'><font style='color:orange'>$47<br><br>now</font></div></div><div class='cr'><div class='vertical-center'>$50<br>in<br>12 weeks</div></div><div class='respDivL'><div class='vertical-center'><font style='color:orange'>(E)</font></div></div><div class='respDivR'><div class='vertical-center'>(I)</div></div></div>","null","$47<br><br>now","$50<br>in<br>12 weeks","0","47","50","12",""
"html-keyboard-response","22","46810","0.0-5.0-1.6","5f5691fb24d1090e6bcdf1ec","bdp_td","Sat Mar 25 2023 09:40:48 GMT-0500 (Central Daylight Time)","121856","","null","","","","FIX","","<div class='trialBorder'><div class='vertical-center'><img style='vertical-align:center; align:center' src=img/fixation3.jpg></div></div>","null","","","","","","",""
"html-keyboard-response","23","48879","0.0-5.0-2.6","5f5691fb24d1090e6bcdf1ec","bdp_td","Sat Mar 25 2023 09:40:48 GMT-0500 (Central Daylight Time)","121856","","2067","","","","offer","","<div class='trialBorder'><div class='vertical-center'><img style='vertical-align:center; align:center' src=img/fixation3.jpg></div><div class='cl'><div class='vertical-center'>$30<br>in<br>2 weeks</div></div><div class='cr'><div class='vertical-center'>$11<br><br>now</div></div><div class='respDivL'><div class='vertical-center'>(E)</div></div><div class='respDivR'><div class='vertical-center'>(I)</div></div></div>","E","$11<br><br>now","$30<br>in<br>2 weeks","1","11","30","2","THEN"
"html-keyboard-response","24","49132","0.0-5.0-3.6","5f5691fb24d1090e6bcdf1ec","bdp_td","Sat Mar 25 2023 09:40:48 GMT-0500 (Central Daylight Time)","121856","","null","","","","offerFB","","<div class='trialBorder'><div class='vertical-center'><img style='vertical-align:center; align:center' src=img/fixation3.jpg></div><div class='cl'><div class='vertical-center'><font style='color:orange'>$30<br>in<br>2 weeks</font></div></div><div class='cr'><div class='vertical-center'>$11<br><br>now</div></div><div class='respDivL'><div class='vertical-center'><font style='color:orange'>(E)</font></div></div><div class='respDivR'><div class='vertical-center'>(I)</div></div></div>","null","$11<br><br>now","$30<br>in<br>2 weeks","1","11","30","2",""
"html-keyboard-response","25","49637","0.0-5.0-1.7","5f5691fb24d1090e6bcdf1ec","bdp_td","Sat Mar 25 2023 09:40:48 GMT-0500 (Central Daylight Time)","121856","","null","","","","FIX","","<div class='trialBorder'><div class='vertical-center'><img style='vertical-align:center; align:center' src=img/fixation3.jpg></div></div>","null","","","","","","",""
"html-keyboard-response","26","51086","0.0-5.0-2.7","5f5691fb24d1090e6bcdf1ec","bdp_td","Sat Mar 25 2023 09:40:48 GMT-0500 (Central Daylight Time)","121856","","1446","","","","offer","","<div class='trialBorder'><div class='vertical-center'><img style='vertical-align:center; align:center' src=img/fixation3.jpg></div><div class='cl'><div class='vertical-center'>$20<br><br>now</div></div><div class='cr'><div class='vertical-center'>$55<br>in<br>1 week</div></div><div class='respDivL'><div class='vertical-center'>(E)</div></div><div class='respDivR'><div class='vertical-center'>(I)</div></div></div>","I","$20<br><br>now","$55<br>in<br>1 week","0","20","55","1","THEN"
"html-keyboard-response","27","51339","0.0-5.0-3.7","5f5691fb24d1090e6bcdf1ec","bdp_td","Sat Mar 25 2023 09:40:48 GMT-0500 (Central Daylight Time)","121856","","null","","","","offerFB","","<div class='trialBorder'><div class='vertical-center'><img style='vertical-align:center; align:center' src=img/fixation3.jpg></div><div class='cl'><div class='vertical-center'>$20<br><br>now</div></div><div class='cr'><div class='vertical-center'><font style='color:orange'>$55<br>in<br>1 week</font></div></div><div class='respDivL'><div class='vertical-center'>(E)</div></div><div class='respDivR'><div class='vertical-center'><font style='color:orange'>(I)</font></div></div></div>","null","$20<br><br>now","$55<br>in<br>1 week","0","20","55","1",""
"html-keyboard-response","28","51845","0.0-5.0-1.8","5f5691fb24d1090e6bcdf1ec","bdp_td","Sat Mar 25 2023 09:40:48 GMT-0500 (Central Daylight Time)","121856","","null","","","","FIX","","<div class='trialBorder'><div class='vertical-center'><img style='vertical-align:center; align:center' src=img/fixation3.jpg></div></div>","null","","","","","","",""
"html-keyboard-response","29","56141","0.0-5.0-2.8","5f5691fb24d1090e6bcdf1ec","bdp_td","Sat Mar 25 2023 09:40:48 GMT-0500 (Central Daylight Time)","121856","","4294","","","","offer","","<div class='trialBorder'><div class='vertical-center'><img style='vertical-align:center; align:center' src=img/fixation3.jpg></div><div class='cl'><div class='vertical-center'>$49<br><br>now</div></div><div class='cr'><div class='vertical-center'>$60<br>in<br>6 weeks</div></div><div class='respDivL'><div class='vertical-center'>(E)</div></div><div class='respDivR'><div class='vertical-center'>(I)</div></div></div>","I","$49<br><br>now","$60<br>in<br>6 weeks","0","49","60","6","THEN"
"html-keyboard-response","30","56394","0.0-5.0-3.8","5f5691fb24d1090e6bcdf1ec","bdp_td","Sat Mar 25 2023 09:40:48 GMT-0500 (Central Daylight Time)","121856","","null","","","","offerFB","","<div class='trialBorder'><div class='vertical-center'><img style='vertical-align:center; align:center' src=img/fixation3.jpg></div><div class='cl'><div class='vertical-center'>$49<br><br>now</div></div><div class='cr'><div class='vertical-center'><font style='color:orange'>$60<br>in<br>6 weeks</font></div></div><div class='respDivL'><div class='vertical-center'>(E)</div></div><div class='respDivR'><div class='vertical-center'><font style='color:orange'>(I)</font></div></div></div>","null","$49<br><br>now","$60<br>in<br>6 weeks","0","49","60","6",""
"html-keyboard-response","31","56897","0.0-5.0-1.9","5f5691fb24d1090e6bcdf1ec","bdp_td","Sat Mar 25 2023 09:40:48 GMT-0500 (Central Daylight Time)","121856","","null","","","","FIX","","<div class='trialBorder'><div class='vertical-center'><img style='vertical-align:center; align:center' src=img/fixation3.jpg></div></div>","null","","","","","","",""
"html-keyboard-response","32","60291","0.0-5.0-2.9","5f5691fb24d1090e6bcdf1ec","bdp_td","Sat Mar 25 2023 09:40:48 GMT-0500 (Central Daylight Time)","121856","","3392","","","","offer","","<div class='trialBorder'><div class='vertical-center'><img style='vertical-align:center; align:center' src=img/fixation3.jpg></div><div class='cl'><div class='vertical-center'>$30<br>in<br>12 weeks</div></div><div class='cr'><div class='vertical-center'>$28<br><br>now</div></div><div class='respDivL'><div class='vertical-center'>(E)</div></div><div class='respDivR'><div class='vertical-center'>(I)</div></div></div>","I","$28<br><br>now","$30<br>in<br>12 weeks","1","28","30","12","NOW"
"html-keyboard-response","33","60543","0.0-5.0-3.9","5f5691fb24d1090e6bcdf1ec","bdp_td","Sat Mar 25 2023 09:40:48 GMT-0500 (Central Daylight Time)","121856","","null","","","","offerFB","","<div class='trialBorder'><div class='vertical-center'><img style='vertical-align:center; align:center' src=img/fixation3.jpg></div><div class='cl'><div class='vertical-center'>$30<br>in<br>12 weeks</div></div><div class='cr'><div class='vertical-center'><font style='color:orange'>$28<br><br>now</font></div></div><div class='respDivL'><div class='vertical-center'>(E)</div></div><div class='respDivR'><div class='vertical-center'><font style='color:orange'>(I)</font></div></div></div>","null","$28<br><br>now","$30<br>in<br>12 weeks","1","28","30","12",""
"html-keyboard-response","34","61046","0.0-5.0-1.10","5f5691fb24d1090e6bcdf1ec","bdp_td","Sat Mar 25 2023 09:40:48 GMT-0500 (Central Daylight Time)","121856","","null","","","","FIX","","<div class='trialBorder'><div class='vertical-center'><img style='vertical-align:center; align:center' src=img/fixation3.jpg></div></div>","null","","","","","","",""
"html-keyboard-response","35","62820","0.0-5.0-2.10","5f5691fb24d1090e6bcdf1ec","bdp_td","Sat Mar 25 2023 09:40:48 GMT-0500 (Central Daylight Time)","121856","","1772","","","","offer","","<div class='trialBorder'><div class='vertical-center'><img style='vertical-align:center; align:center' src=img/fixation3.jpg></div><div class='cl'><div class='vertical-center'>$34<br><br>now</div></div><div class='cr'><div class='vertical-center'>$35<br>in<br>12 weeks</div></div><div class='respDivL'><div class='vertical-center'>(E)</div></div><div class='respDivR'><div class='vertical-center'>(I)</div></div></div>","E","$34<br><br>now","$35<br>in<br>12 weeks","0","34","35","12","NOW"
"html-keyboard-response","36","63073","0.0-5.0-3.10","5f5691fb24d1090e6bcdf1ec","bdp_td","Sat Mar 25 2023 09:40:48 GMT-0500 (Central Daylight Time)","121856","","null","","","","offerFB","","<div class='trialBorder'><div class='vertical-center'><img style='vertical-align:center; align:center' src=img/fixation3.jpg></div><div class='cl'><div class='vertical-center'><font style='color:orange'>$34<br><br>now</font></div></div><div class='cr'><div class='vertical-center'>$35<br>in<br>12 weeks</div></div><div class='respDivL'><div class='vertical-center'><font style='color:orange'>(E)</font></div></div><div class='respDivR'><div class='vertical-center'>(I)</div></div></div>","null","$34<br><br>now","$35<br>in<br>12 weeks","0","34","35","12",""
"html-keyboard-response","37","63578","0.0-5.0-1.11","5f5691fb24d1090e6bcdf1ec","bdp_td","Sat Mar 25 2023 09:40:48 GMT-0500 (Central Daylight Time)","121856","","null","","","","FIX","","<div class='trialBorder'><div class='vertical-center'><img style='vertical-align:center; align:center' src=img/fixation3.jpg></div></div>","null","","","","","","",""
"html-keyboard-response","38","66587","0.0-5.0-2.11","5f5691fb24d1090e6bcdf1ec","bdp_td","Sat Mar 25 2023 09:40:48 GMT-0500 (Central Daylight Time)","121856","","3008","","","","offer","","<div class='trialBorder'><div class='vertical-center'><img style='vertical-align:center; align:center' src=img/fixation3.jpg></div><div class='cl'><div class='vertical-center'>$69<br><br>now</div></div><div class='cr'><div class='vertical-center'>$85<br>in<br>6 weeks</div></div><div class='respDivL'><div class='vertical-center'>(E)</div></div><div class='respDivR'><div class='vertical-center'>(I)</div></div></div>","I","$69<br><br>now","$85<br>in<br>6 weeks","0","69","85","6","THEN"
"html-keyboard-response","39","66842","0.0-5.0-3.11","5f5691fb24d1090e6bcdf1ec","bdp_td","Sat Mar 25 2023 09:40:48 GMT-0500 (Central Daylight Time)","121856","","null","","","","offerFB","","<div class='trialBorder'><div class='vertical-center'><img style='vertical-align:center; align:center' src=img/fixation3.jpg></div><div class='cl'><div class='vertical-center'>$69<br><br>now</div></div><div class='cr'><div class='vertical-center'><font style='color:orange'>$85<br>in<br>6 weeks</font></div></div><div class='respDivL'><div class='vertical-center'>(E)</div></div><div class='respDivR'><div class='vertical-center'><font style='color:orange'>(I)</font></div></div></div>","null","$69<br><br>now","$85<br>in<br>6 weeks","0","69","85","6",""
"html-keyboard-response","40","67349","0.0-5.0-1.12","5f5691fb24d1090e6bcdf1ec","bdp_td","Sat Mar 25 2023 09:40:48 GMT-0500 (Central Daylight Time)","121856","","null","","","","FIX","","<div class='trialBorder'><div class='vertical-center'><img style='vertical-align:center; align:center' src=img/fixation3.jpg></div></div>","null","","","","","","",""
"html-keyboard-response","41","70550","0.0-5.0-2.12","5f5691fb24d1090e6bcdf1ec","bdp_td","Sat Mar 25 2023 09:40:48 GMT-0500 (Central Daylight Time)","121856","","3199","","","","offer","","<div class='trialBorder'><div class='vertical-center'><img style='vertical-align:center; align:center' src=img/fixation3.jpg></div><div class='cl'><div class='vertical-center'>$31<br><br>now</div></div><div class='cr'><div class='vertical-center'>$85<br>in<br>1 week</div></div><div class='respDivL'><div class='vertical-center'>(E)</div></div><div class='respDivR'><div class='vertical-center'>(I)</div></div></div>","I","$31<br><br>now","$85<br>in<br>1 week","0","31","85","1","THEN"
"html-keyboard-response","42","70803","0.0-5.0-3.12","5f5691fb24d1090e6bcdf1ec","bdp_td","Sat Mar 25 2023 09:40:48 GMT-0500 (Central Daylight Time)","121856","","null","","","","offerFB","","<div class='trialBorder'><div class='vertical-center'><img style='vertical-align:center; align:center' src=img/fixation3.jpg></div><div class='cl'><div class='vertical-center'>$31<br><br>now</div></div><div class='cr'><div class='vertical-center'><font style='color:orange'>$85<br>in<br>1 week</font></div></div><div class='respDivL'><div class='vertical-center'>(E)</div></div><div class='respDivR'><div class='vertical-center'><font style='color:orange'>(I)</font></div></div></div>","null","$31<br><br>now","$85<br>in<br>1 week","0","31","85","1",""
"html-keyboard-response","43","71306","0.0-5.0-1.13","5f5691fb24d1090e6bcdf1ec","bdp_td","Sat Mar 25 2023 09:40:48 GMT-0500 (Central Daylight Time)","121856","","null","","","","FIX","","<div class='trialBorder'><div class='vertical-center'><img style='vertical-align:center; align:center' src=img/fixation3.jpg></div></div>","null","","","","","","",""
"html-keyboard-response","44","80240","0.0-5.0-2.13","5f5691fb24d1090e6bcdf1ec","bdp_td","Sat Mar 25 2023 09:40:48 GMT-0500 (Central Daylight Time)","121856","","8931","","","","offer","","<div class='trialBorder'><div class='vertical-center'><img style='vertical-align:center; align:center' src=img/fixation3.jpg></div><div class='cl'><div class='vertical-center'>$67<br><br>now</div></div><div class='cr'><div class='vertical-center'>$75<br>in<br>12 weeks</div></div><div class='respDivL'><div class='vertical-center'>(E)</div></div><div class='respDivR'><div class='vertical-center'>(I)</div></div></div>","E","$67<br><br>now","$75<br>in<br>12 weeks","0","67","75","12","NOW"
"html-keyboard-response","45","80495","0.0-5.0-3.13","5f5691fb24d1090e6bcdf1ec","bdp_td","Sat Mar 25 2023 09:40:48 GMT-0500 (Central Daylight Time)","121856","","null","","","","offerFB","","<div class='trialBorder'><div class='vertical-center'><img style='vertical-align:center; align:center' src=img/fixation3.jpg></div><div class='cl'><div class='vertical-center'><font style='color:orange'>$67<br><br>now</font></div></div><div class='cr'><div class='vertical-center'>$75<br>in<br>12 weeks</div></div><div class='respDivL'><div class='vertical-center'><font style='color:orange'>(E)</font></div></div><div class='respDivR'><div class='vertical-center'>(I)</div></div></div>","null","$67<br><br>now","$75<br>in<br>12 weeks","0","67","75","12",""
"html-keyboard-response","46","81002","0.0-5.0-1.14","5f5691fb24d1090e6bcdf1ec","bdp_td","Sat Mar 25 2023 09:40:48 GMT-0500 (Central Daylight Time)","121856","","null","","","","FIX","","<div class='trialBorder'><div class='vertical-center'><img style='vertical-align:center; align:center' src=img/fixation3.jpg></div></div>","null","","","","","","",""
"html-keyboard-response","47","84261","0.0-5.0-2.14","5f5691fb24d1090e6bcdf1ec","bdp_td","Sat Mar 25 2023 09:40:48 GMT-0500 (Central Daylight Time)","121856","","3257","","","","offer","","<div class='trialBorder'><div class='vertical-center'><img style='vertical-align:center; align:center' src=img/fixation3.jpg></div><div class='cl'><div class='vertical-center'>$50<br>in<br>6 weeks</div></div><div class='cr'><div class='vertical-center'>$34<br><br>now</div></div><div class='respDivL'><div class='vertical-center'>(E)</div></div><div class='respDivR'><div class='vertical-center'>(I)</div></div></div>","E","$34<br><br>now","$50<br>in<br>6 weeks","1","34","50","6","THEN"
"html-keyboard-response","48","84513","0.0-5.0-3.14","5f5691fb24d1090e6bcdf1ec","bdp_td","Sat Mar 25 2023 09:40:48 GMT-0500 (Central Daylight Time)","121856","","null","","","","offerFB","","<div class='trialBorder'><div class='vertical-center'><img style='vertical-align:center; align:center' src=img/fixation3.jpg></div><div class='cl'><div class='vertical-center'><font style='color:orange'>$50<br>in<br>6 weeks</font></div></div><div class='cr'><div class='vertical-center'>$34<br><br>now</div></div><div class='respDivL'><div class='vertical-center'><font style='color:orange'>(E)</font></div></div><div class='respDivR'><div class='vertical-center'>(I)</div></div></div>","null","$34<br><br>now","$50<br>in<br>6 weeks","1","34","50","6",""
"html-keyboard-response","49","85018","0.0-5.0-1.15","5f5691fb24d1090e6bcdf1ec","bdp_td","Sat Mar 25 2023 09:40:48 GMT-0500 (Central Daylight Time)","121856","","null","","","","FIX","","<div class='trialBorder'><div class='vertical-center'><img style='vertical-align:center; align:center' src=img/fixation3.jpg></div></div>","null","","","","","","",""
"html-keyboard-response","50","86399","0.0-5.0-2.15","5f5691fb24d1090e6bcdf1ec","bdp_td","Sat Mar 25 2023 09:40:48 GMT-0500 (Central Daylight Time)","121856","","1378","","","","offer","","<div class='trialBorder'><div class='vertical-center'><img style='vertical-align:center; align:center' src=img/fixation3.jpg></div><div class='cl'><div class='vertical-center'>$54<br><br>now</div></div><div class='cr'><div class='vertical-center'>$60<br>in<br>12 weeks</div></div><div class='respDivL'><div class='vertical-center'>(E)</div></div><div class='respDivR'><div class='vertical-center'>(I)</div></div></div>","E","$54<br><br>now","$60<br>in<br>12 weeks","0","54","60","12","NOW"
"html-keyboard-response","51","86651","0.0-5.0-3.15","5f5691fb24d1090e6bcdf1ec","bdp_td","Sat Mar 25 2023 09:40:48 GMT-0500 (Central Daylight Time)","121856","","null","","","","offerFB","","<div class='trialBorder'><div class='vertical-center'><img style='vertical-align:center; align:center' src=img/fixation3.jpg></div><div class='cl'><div class='vertical-center'><font style='color:orange'>$54<br><br>now</font></div></div><div class='cr'><div class='vertical-center'>$60<br>in<br>12 weeks</div></div><div class='respDivL'><div class='vertical-center'><font style='color:orange'>(E)</font></div></div><div class='respDivR'><div class='vertical-center'>(I)</div></div></div>","null","$54<br><br>now","$60<br>in<br>12 weeks","0","54","60","12",""
"html-keyboard-response","52","87156","0.0-5.0-1.16","5f5691fb24d1090e6bcdf1ec","bdp_td","Sat Mar 25 2023 09:40:48 GMT-0500 (Central Daylight Time)","121856","","null","","","","FIX","","<div class='trialBorder'><div class='vertical-center'><img style='vertical-align:center; align:center' src=img/fixation3.jpg></div></div>","null","","","","","","",""
"html-keyboard-response","53","89145","0.0-5.0-2.16","5f5691fb24d1090e6bcdf1ec","bdp_td","Sat Mar 25 2023 09:40:48 GMT-0500 (Central Daylight Time)","121856","","1986","","","","offer","","<div class='trialBorder'><div class='vertical-center'><img style='vertical-align:center; align:center' src=img/fixation3.jpg></div><div class='cl'><div class='vertical-center'>$75<br>in<br>6 weeks</div></div><div class='cr'><div class='vertical-center'>$55<br><br>now</div></div><div class='respDivL'><div class='vertical-center'>(E)</div></div><div class='respDivR'><div class='vertical-center'>(I)</div></div></div>","E","$55<br><br>now","$75<br>in<br>6 weeks","1","55","75","6","THEN"
"html-keyboard-response","54","89402","0.0-5.0-3.16","5f5691fb24d1090e6bcdf1ec","bdp_td","Sat Mar 25 2023 09:40:48 GMT-0500 (Central Daylight Time)","121856","","null","","","","offerFB","","<div class='trialBorder'><div class='vertical-center'><img style='vertical-align:center; align:center' src=img/fixation3.jpg></div><div class='cl'><div class='vertical-center'><font style='color:orange'>$75<br>in<br>6 weeks</font></div></div><div class='cr'><div class='vertical-center'>$55<br><br>now</div></div><div class='respDivL'><div class='vertical-center'><font style='color:orange'>(E)</font></div></div><div class='respDivR'><div class='vertical-center'>(I)</div></div></div>","null","$55<br><br>now","$75<br>in<br>6 weeks","1","55","75","6",""
"html-keyboard-response","55","89905","0.0-5.0-1.17","5f5691fb24d1090e6bcdf1ec","bdp_td","Sat Mar 25 2023 09:40:48 GMT-0500 (Central Daylight Time)","121856","","null","","","","FIX","","<div class='trialBorder'><div class='vertical-center'><img style='vertical-align:center; align:center' src=img/fixation3.jpg></div></div>","null","","","","","","",""
"html-keyboard-response","56","93006","0.0-5.0-2.17","5f5691fb24d1090e6bcdf1ec","bdp_td","Sat Mar 25 2023 09:40:48 GMT-0500 (Central Daylight Time)","121856","","3100","","","","offer","","<div class='trialBorder'><div class='vertical-center'><img style='vertical-align:center; align:center' src=img/fixation3.jpg></div><div class='cl'><div class='vertical-center'>$25<br>in<br>12 weeks</div></div><div class='cr'><div class='vertical-center'>$22<br><br>now</div></div><div class='respDivL'><div class='vertical-center'>(E)</div></div><div class='respDivR'><div class='vertical-center'>(I)</div></div></div>","I","$22<br><br>now","$25<br>in<br>12 weeks","1","22","25","12","NOW"
"html-keyboard-response","57","93259","0.0-5.0-3.17","5f5691fb24d1090e6bcdf1ec","bdp_td","Sat Mar 25 2023 09:40:48 GMT-0500 (Central Daylight Time)","121856","","null","","","","offerFB","","<div class='trialBorder'><div class='vertical-center'><img style='vertical-align:center; align:center' src=img/fixation3.jpg></div><div class='cl'><div class='vertical-center'>$25<br>in<br>12 weeks</div></div><div class='cr'><div class='vertical-center'><font style='color:orange'>$22<br><br>now</font></div></div><div class='respDivL'><div class='vertical-center'>(E)</div></div><div class='respDivR'><div class='vertical-center'><font style='color:orange'>(I)</font></div></div></div>","null","$22<br><br>now","$25<br>in<br>12 weeks","1","22","25","12",""
"html-keyboard-response","58","93761","0.0-5.0-1.18","5f5691fb24d1090e6bcdf1ec","bdp_td","Sat Mar 25 2023 09:40:48 GMT-0500 (Central Daylight Time)","121856","","null","","","","FIX","","<div class='trialBorder'><div class='vertical-center'><img style='vertical-align:center; align:center' src=img/fixation3.jpg></div></div>","null","","","","","","",""
"html-keyboard-response","59","95619","0.0-5.0-2.18","5f5691fb24d1090e6bcdf1ec","bdp_td","Sat Mar 25 2023 09:40:48 GMT-0500 (Central Daylight Time)","121856","","1856","","","","offer","","<div class='trialBorder'><div class='vertical-center'><img style='vertical-align:center; align:center' src=img/fixation3.jpg></div><div class='cl'><div class='vertical-center'>$15<br><br>now</div></div><div class='cr'><div class='vertical-center'>$35<br>in<br>2 weeks</div></div><div class='respDivL'><div class='vertical-center'>(E)</div></div><div class='respDivR'><div class='vertical-center'>(I)</div></div></div>","I","$15<br><br>now","$35<br>in<br>2 weeks","0","15","35","2","THEN"
"html-keyboard-response","60","95871","0.0-5.0-3.18","5f5691fb24d1090e6bcdf1ec","bdp_td","Sat Mar 25 2023 09:40:48 GMT-0500 (Central Daylight Time)","121856","","null","","","","offerFB","","<div class='trialBorder'><div class='vertical-center'><img style='vertical-align:center; align:center' src=img/fixation3.jpg></div><div class='cl'><div class='vertical-center'>$15<br><br>now</div></div><div class='cr'><div class='vertical-center'><font style='color:orange'>$35<br>in<br>2 weeks</font></div></div><div class='respDivL'><div class='vertical-center'>(E)</div></div><div class='respDivR'><div class='vertical-center'><font style='color:orange'>(I)</font></div></div></div>","null","$15<br><br>now","$35<br>in<br>2 weeks","0","15","35","2",""
"html-keyboard-response","61","96372","0.0-5.0-1.19","5f5691fb24d1090e6bcdf1ec","bdp_td","Sat Mar 25 2023 09:40:48 GMT-0500 (Central Daylight Time)","121856","","null","","","","FIX","","<div class='trialBorder'><div class='vertical-center'><img style='vertical-align:center; align:center' src=img/fixation3.jpg></div></div>","null","","","","","","",""
"html-keyboard-response","62","98240","0.0-5.0-2.19","5f5691fb24d1090e6bcdf1ec","bdp_td","Sat Mar 25 2023 09:40:48 GMT-0500 (Central Daylight Time)","121856","","1865","","","","offer","","<div class='trialBorder'><div class='vertical-center'><img style='vertical-align:center; align:center' src=img/fixation3.jpg></div><div class='cl'><div class='vertical-center'>$19<br><br>now</div></div><div class='cr'><div class='vertical-center'>$25<br>in<br>6 weeks</div></div><div class='respDivL'><div class='vertical-center'>(E)</div></div><div class='respDivR'><div class='vertical-center'>(I)</div></div></div>","I","$19<br><br>now","$25<br>in<br>6 weeks","0","19","25","6","THEN"
"html-keyboard-response","63","98495","0.0-5.0-3.19","5f5691fb24d1090e6bcdf1ec","bdp_td","Sat Mar 25 2023 09:40:48 GMT-0500 (Central Daylight Time)","121856","","null","","","","offerFB","","<div class='trialBorder'><div class='vertical-center'><img style='vertical-align:center; align:center' src=img/fixation3.jpg></div><div class='cl'><div class='vertical-center'>$19<br><br>now</div></div><div class='cr'><div class='vertical-center'><font style='color:orange'>$25<br>in<br>6 weeks</font></div></div><div class='respDivL'><div class='vertical-center'>(E)</div></div><div class='respDivR'><div class='vertical-center'><font style='color:orange'>(I)</font></div></div></div>","null","$19<br><br>now","$25<br>in<br>6 weeks","0","19","25","6",""
"html-keyboard-response","64","99002","0.0-5.0-1.20","5f5691fb24d1090e6bcdf1ec","bdp_td","Sat Mar 25 2023 09:40:48 GMT-0500 (Central Daylight Time)","121856","","null","","","","FIX","","<div class='trialBorder'><div class='vertical-center'><img style='vertical-align:center; align:center' src=img/fixation3.jpg></div></div>","null","","","","","","",""
"html-keyboard-response","65","100908","0.0-5.0-2.20","5f5691fb24d1090e6bcdf1ec","bdp_td","Sat Mar 25 2023 09:40:48 GMT-0500 (Central Daylight Time)","121856","","1903","","","","offer","","<div class='trialBorder'><div class='vertical-center'><img style='vertical-align:center; align:center' src=img/fixation3.jpg></div><div class='cl'><div class='vertical-center'>$24<br><br>now</div></div><div class='cr'><div class='vertical-center'>$35<br>in<br>3 weeks</div></div><div class='respDivL'><div class='vertical-center'>(E)</div></div><div class='respDivR'><div class='vertical-center'>(I)</div></div></div>","I","$24<br><br>now","$35<br>in<br>3 weeks","0","24","35","3","THEN"
"html-keyboard-response","66","101162","0.0-5.0-3.20","5f5691fb24d1090e6bcdf1ec","bdp_td","Sat Mar 25 2023 09:40:48 GMT-0500 (Central Daylight Time)","121856","","null","","","","offerFB","","<div class='trialBorder'><div class='vertical-center'><img style='vertical-align:center; align:center' src=img/fixation3.jpg></div><div class='cl'><div class='vertical-center'>$24<br><br>now</div></div><div class='cr'><div class='vertical-center'><font style='color:orange'>$35<br>in<br>3 weeks</font></div></div><div class='respDivL'><div class='vertical-center'>(E)</div></div><div class='respDivR'><div class='vertical-center'><font style='color:orange'>(I)</font></div></div></div>","null","$24<br><br>now","$35<br>in<br>3 weeks","0","24","35","3",""
"html-keyboard-response","67","101664","0.0-5.0-1.21","5f5691fb24d1090e6bcdf1ec","bdp_td","Sat Mar 25 2023 09:40:48 GMT-0500 (Central Daylight Time)","121856","","null","","","","FIX","","<div class='trialBorder'><div class='vertical-center'><img style='vertical-align:center; align:center' src=img/fixation3.jpg></div></div>","null","","","","","","",""
"html-keyboard-response","68","102734","0.0-5.0-2.21","5f5691fb24d1090e6bcdf1ec","bdp_td","Sat Mar 25 2023 09:40:48 GMT-0500 (Central Daylight Time)","121856","","1069","","","","offer","","<div class='trialBorder'><div class='vertical-center'><img style='vertical-align:center; align:center' src=img/fixation3.jpg></div><div class='cl'><div class='vertical-center'>$50<br>in<br>3 weeks</div></div><div class='cr'><div class='vertical-center'>$27<br><br>now</div></div><div class='respDivL'><div class='vertical-center'>(E)</div></div><div class='respDivR'><div class='vertical-center'>(I)</div></div></div>","E","$27<br><br>now","$50<br>in<br>3 weeks","1","27","50","3","THEN"
"html-keyboard-response","69","102986","0.0-5.0-3.21","5f5691fb24d1090e6bcdf1ec","bdp_td","Sat Mar 25 2023 09:40:48 GMT-0500 (Central Daylight Time)","121856","","null","","","","offerFB","","<div class='trialBorder'><div class='vertical-center'><img style='vertical-align:center; align:center' src=img/fixation3.jpg></div><div class='cl'><div class='vertical-center'><font style='color:orange'>$50<br>in<br>3 weeks</font></div></div><div class='cr'><div class='vertical-center'>$27<br><br>now</div></div><div class='respDivL'><div class='vertical-center'><font style='color:orange'>(E)</font></div></div><div class='respDivR'><div class='vertical-center'>(I)</div></div></div>","null","$27<br><br>now","$50<br>in<br>3 weeks","1","27","50","3",""
"html-keyboard-response","70","103489","0.0-5.0-1.22","5f5691fb24d1090e6bcdf1ec","bdp_td","Sat Mar 25 2023 09:40:48 GMT-0500 (Central Daylight Time)","121856","","null","","","","FIX","","<div class='trialBorder'><div class='vertical-center'><img style='vertical-align:center; align:center' src=img/fixation3.jpg></div></div>","null","","","","","","",""
"html-keyboard-response","71","104597","0.0-5.0-2.22","5f5691fb24d1090e6bcdf1ec","bdp_td","Sat Mar 25 2023 09:40:48 GMT-0500 (Central Daylight Time)","121856","","1105","","","","offer","","<div class='trialBorder'><div class='vertical-center'><img style='vertical-align:center; align:center' src=img/fixation3.jpg></div><div class='cl'><div class='vertical-center'>$33<br><br>now</div></div><div class='cr'><div class='vertical-center'>$80<br>in<br>2 weeks</div></div><div class='respDivL'><div class='vertical-center'>(E)</div></div><div class='respDivR'><div class='vertical-center'>(I)</div></div></div>","I","$33<br><br>now","$80<br>in<br>2 weeks","0","33","80","2","THEN"
"html-keyboard-response","72","104852","0.0-5.0-3.22","5f5691fb24d1090e6bcdf1ec","bdp_td","Sat Mar 25 2023 09:40:48 GMT-0500 (Central Daylight Time)","121856","","null","","","","offerFB","","<div class='trialBorder'><div class='vertical-center'><img style='vertical-align:center; align:center' src=img/fixation3.jpg></div><div class='cl'><div class='vertical-center'>$33<br><br>now</div></div><div class='cr'><div class='vertical-center'><font style='color:orange'>$80<br>in<br>2 weeks</font></div></div><div class='respDivL'><div class='vertical-center'>(E)</div></div><div class='respDivR'><div class='vertical-center'><font style='color:orange'>(I)</font></div></div></div>","null","$33<br><br>now","$80<br>in<br>2 weeks","0","33","80","2",""
"html-keyboard-response","73","105355","0.0-5.0-1.23","5f5691fb24d1090e6bcdf1ec","bdp_td","Sat Mar 25 2023 09:40:48 GMT-0500 (Central Daylight Time)","121856","","null","","","","FIX","","<div class='trialBorder'><div class='vertical-center'><img style='vertical-align:center; align:center' src=img/fixation3.jpg></div></div>","null","","","","","","",""
"html-keyboard-response","74","106768","0.0-5.0-2.23","5f5691fb24d1090e6bcdf1ec","bdp_td","Sat Mar 25 2023 09:40:48 GMT-0500 (Central Daylight Time)","121856","","1411","","","","offer","","<div class='trialBorder'><div class='vertical-center'><img style='vertical-align:center; align:center' src=img/fixation3.jpg></div><div class='cl'><div class='vertical-center'>$55<br>in<br>12 weeks</div></div><div class='cr'><div class='vertical-center'>$54<br><br>now</div></div><div class='respDivL'><div class='vertical-center'>(E)</div></div><div class='respDivR'><div class='vertical-center'>(I)</div></div></div>","I","$54<br><br>now","$55<br>in<br>12 weeks","1","54","55","12","NOW"
"html-keyboard-response","75","107023","0.0-5.0-3.23","5f5691fb24d1090e6bcdf1ec","bdp_td","Sat Mar 25 2023 09:40:48 GMT-0500 (Central Daylight Time)","121856","","null","","","","offerFB","","<div class='trialBorder'><div class='vertical-center'><img style='vertical-align:center; align:center' src=img/fixation3.jpg></div><div class='cl'><div class='vertical-center'>$55<br>in<br>12 weeks</div></div><div class='cr'><div class='vertical-center'><font style='color:orange'>$54<br><br>now</font></div></div><div class='respDivL'><div class='vertical-center'>(E)</div></div><div class='respDivR'><div class='vertical-center'><font style='color:orange'>(I)</font></div></div></div>","null","$54<br><br>now","$55<br>in<br>12 weeks","1","54","55","12",""
"html-keyboard-response","76","107526","0.0-5.0-1.24","5f5691fb24d1090e6bcdf1ec","bdp_td","Sat Mar 25 2023 09:40:48 GMT-0500 (Central Daylight Time)","121856","","null","","","","FIX","","<div class='trialBorder'><div class='vertical-center'><img style='vertical-align:center; align:center' src=img/fixation3.jpg></div></div>","null","","","","","","",""
"html-keyboard-response","77","109712","0.0-5.0-2.24","5f5691fb24d1090e6bcdf1ec","bdp_td","Sat Mar 25 2023 09:40:48 GMT-0500 (Central Daylight Time)","121856","","2183","","","","offer","","<div class='trialBorder'><div class='vertical-center'><img style='vertical-align:center; align:center' src=img/fixation3.jpg></div><div class='cl'><div class='vertical-center'>$40<br><br>now</div></div><div class='cr'><div class='vertical-center'>$55<br>in<br>6 weeks</div></div><div class='respDivL'><div class='vertical-center'>(E)</div></div><div class='respDivR'><div class='vertical-center'>(I)</div></div></div>","I","$40<br><br>now","$55<br>in<br>6 weeks","0","40","55","6","THEN"
"html-keyboard-response","78","109963","0.0-5.0-3.24","5f5691fb24d1090e6bcdf1ec","bdp_td","Sat Mar 25 2023 09:40:48 GMT-0500 (Central Daylight Time)","121856","","null","","","","offerFB","","<div class='trialBorder'><div class='vertical-center'><img style='vertical-align:center; align:center' src=img/fixation3.jpg></div><div class='cl'><div class='vertical-center'>$40<br><br>now</div></div><div class='cr'><div class='vertical-center'><font style='color:orange'>$55<br>in<br>6 weeks</font></div></div><div class='respDivL'><div class='vertical-center'>(E)</div></div><div class='respDivR'><div class='vertical-center'><font style='color:orange'>(I)</font></div></div></div>","null","$40<br><br>now","$55<br>in<br>6 weeks","0","40","55","6",""
"html-keyboard-response","79","110468","0.0-5.0-1.25","5f5691fb24d1090e6bcdf1ec","bdp_td","Sat Mar 25 2023 09:40:48 GMT-0500 (Central Daylight Time)","121856","","null","","","","FIX","","<div class='trialBorder'><div class='vertical-center'><img style='vertical-align:center; align:center' src=img/fixation3.jpg></div></div>","null","","","","","","",""
"html-keyboard-response","80","111536","0.0-5.0-2.25","5f5691fb24d1090e6bcdf1ec","bdp_td","Sat Mar 25 2023 09:40:48 GMT-0500 (Central Daylight Time)","121856","","1065","","","","offer","","<div class='trialBorder'><div class='vertical-center'><img style='vertical-align:center; align:center' src=img/fixation3.jpg></div><div class='cl'><div class='vertical-center'>$75<br>in<br>3 weeks</div></div><div class='cr'><div class='vertical-center'>$41<br><br>now</div></div><div class='respDivL'><div class='vertical-center'>(E)</div></div><div class='respDivR'><div class='vertical-center'>(I)</div></div></div>","E","$41<br><br>now","$75<br>in<br>3 weeks","1","41","75","3","THEN"
"html-keyboard-response","81","111791","0.0-5.0-3.25","5f5691fb24d1090e6bcdf1ec","bdp_td","Sat Mar 25 2023 09:40:48 GMT-0500 (Central Daylight Time)","121856","","null","","","","offerFB","","<div class='trialBorder'><div class='vertical-center'><img style='vertical-align:center; align:center' src=img/fixation3.jpg></div><div class='cl'><div class='vertical-center'><font style='color:orange'>$75<br>in<br>3 weeks</font></div></div><div class='cr'><div class='vertical-center'>$41<br><br>now</div></div><div class='respDivL'><div class='vertical-center'><font style='color:orange'>(E)</font></div></div><div class='respDivR'><div class='vertical-center'>(I)</div></div></div>","null","$41<br><br>now","$75<br>in<br>3 weeks","1","41","75","3",""
"html-keyboard-response","82","112294","0.0-5.0-1.26","5f5691fb24d1090e6bcdf1ec","bdp_td","Sat Mar 25 2023 09:40:48 GMT-0500 (Central Daylight Time)","121856","","null","","","","FIX","","<div class='trialBorder'><div class='vertical-center'><img style='vertical-align:center; align:center' src=img/fixation3.jpg></div></div>","null","","","","","","",""
"html-keyboard-response","83","120597","0.0-5.0-2.26","5f5691fb24d1090e6bcdf1ec","bdp_td","Sat Mar 25 2023 09:40:48 GMT-0500 (Central Daylight Time)","121856","","8300","","","","offer","","<div class='trialBorder'><div class='vertical-center'><img style='vertical-align:center; align:center' src=img/fixation3.jpg></div><div class='cl'><div class='vertical-center'>$30<br>in<br>6 weeks</div></div><div class='cr'><div class='vertical-center'>$25<br><br>now</div></div><div class='respDivL'><div class='vertical-center'>(E)</div></div><div class='respDivR'><div class='vertical-center'>(I)</div></div></div>","I","$25<br><br>now","$30<br>in<br>6 weeks","1","25","30","6","NOW"
"html-keyboard-response","84","120853","0.0-5.0-3.26","5f5691fb24d1090e6bcdf1ec","bdp_td","Sat Mar 25 2023 09:40:48 GMT-0500 (Central Daylight Time)","121856","","null","","","","offerFB","","<div class='trialBorder'><div class='vertical-center'><img style='vertical-align:center; align:center' src=img/fixation3.jpg></div><div class='cl'><div class='vertical-center'>$30<br>in<br>6 weeks</div></div><div class='cr'><div class='vertical-center'><font style='color:orange'>$25<br><br>now</font></div></div><div class='respDivL'><div class='vertical-center'>(E)</div></div><div class='respDivR'><div class='vertical-center'><font style='color:orange'>(I)</font></div></div></div>","null","$25<br><br>now","$30<br>in<br>6 weeks","1","25","30","6",""
"","","","","5f5691fb24d1090e6bcdf1ec","bdp_td","Sat Mar 25 2023 09:40:48 GMT-0500 (Central Daylight Time)","121856","","","fullscreenexit","85","120863","fullscreenexit","","","","","","","","","",""
"fullscreen","85","121855","0.0-6.0","5f5691fb24d1090e6bcdf1ec","bdp_td","Sat Mar 25 2023 09:40:48 GMT-0500 (Central Daylight Time)","121856","","","","","","","true","","","","","","","","",""
"html-keyboard-response","86","122358","0.0-7.0","","","","","","null","","","","","","","null","","","","","","",""
