"trial_type","trial_index","time_elapsed","internal_node_id","subject_id","task","startTime","totalTime","view_history","rt","event","trial","time","trialtype","success","stimulus","key_press","nowOffer","thenOffer","thenLeft","nowAmt","thenAmt","thenWeeks","chosen"
"pavlovia","0","2","0.0-0.0","63bd8be8f8c532da7bb5431e","bdp_td","Sun Mar 26 2023 03:47:39 GMT-0400 (Eastern Daylight Time)","175548","","","","","","","","","","","","","","","",""
"instructions","1","7817","0.0-1.0","63bd8be8f8c532da7bb5431e","bdp_td","Sun Mar 26 2023 03:47:39 GMT-0400 (Eastern Daylight Time)","175548","[{""page_index"":0,""viewing_time"":7814}]","7815","","","","","","","","","","","","","",""
"","","","","63bd8be8f8c532da7bb5431e","bdp_td","Sun Mar 26 2023 03:47:39 GMT-0400 (Eastern Daylight Time)","175548","","","fullscreenenter","2","11242","fullscreenenter","","","","","","","","","",""
"fullscreen","2","12235","0.0-2.0","63bd8be8f8c532da7bb5431e","bdp_td","Sun Mar 26 2023 03:47:39 GMT-0400 (Eastern Daylight Time)","175548","","","","","","","true","","","","","","","","",""
"instructions","3","74148","0.0-4.0","63bd8be8f8c532da7bb5431e","bdp_td","Sun Mar 26 2023 03:47:39 GMT-0400 (Eastern Daylight Time)","175548","[{""page_index"":0,""viewing_time"":16178},{""page_index"":1,""viewing_time"":25288},{""page_index"":2,""viewing_time"":20445}]","61911","","","","","","","","","","","","","",""
"html-keyboard-response","4","74652","0.0-5.0-1.0","63bd8be8f8c532da7bb5431e","bdp_td","Sun Mar 26 2023 03:47:39 GMT-0400 (Eastern Daylight Time)","175548","","null","","","","FIX","","<div class='trialBorder'><div class='vertical-center'><img style='vertical-align:center; align:center' src=img/fixation3.jpg></div></div>","null","","","","","","",""
"html-keyboard-response","5","78101","0.0-5.0-2.0","63bd8be8f8c532da7bb5431e","bdp_td","Sun Mar 26 2023 03:47:39 GMT-0400 (Eastern Daylight Time)","175548","","3447","","","","offer","","<div class='trialBorder'><div class='vertical-center'><img style='vertical-align:center; align:center' src=img/fixation3.jpg></div><div class='cl'><div class='vertical-center'>$20<br><br>now</div></div><div class='cr'><div class='vertical-center'>$55<br>in<br>1 week</div></div><div class='respDivL'><div class='vertical-center'>(E)</div></div><div class='respDivR'><div class='vertical-center'>(I)</div></div></div>","I","$20<br><br>now","$55<br>in<br>1 week","0","20","55","1","THEN"
"html-keyboard-response","6","78353","0.0-5.0-3.0","63bd8be8f8c532da7bb5431e","bdp_td","Sun Mar 26 2023 03:47:39 GMT-0400 (Eastern Daylight Time)","175548","","null","","","","offerFB","","<div class='trialBorder'><div class='vertical-center'><img style='vertical-align:center; align:center' src=img/fixation3.jpg></div><div class='cl'><div class='vertical-center'>$20<br><br>now</div></div><div class='cr'><div class='vertical-center'><font style='color:orange'>$55<br>in<br>1 week</font></div></div><div class='respDivL'><div class='vertical-center'>(E)</div></div><div class='respDivR'><div class='vertical-center'><font style='color:orange'>(I)</font></div></div></div>","null","$20<br><br>now","$55<br>in<br>1 week","0","20","55","1",""
"html-keyboard-response","7","78855","0.0-5.0-1.1","63bd8be8f8c532da7bb5431e","bdp_td","Sun Mar 26 2023 03:47:39 GMT-0400 (Eastern Daylight Time)","175548","","null","","","","FIX","","<div class='trialBorder'><div class='vertical-center'><img style='vertical-align:center; align:center' src=img/fixation3.jpg></div></div>","null","","","","","","",""
"html-keyboard-response","8","82153","0.0-5.0-2.1","63bd8be8f8c532da7bb5431e","bdp_td","Sun Mar 26 2023 03:47:39 GMT-0400 (Eastern Daylight Time)","175548","","3297","","","","offer","","<div class='trialBorder'><div class='vertical-center'><img style='vertical-align:center; align:center' src=img/fixation3.jpg></div><div class='cl'><div class='vertical-center'>$55<br><br>now</div></div><div class='cr'><div class='vertical-center'>$75<br>in<br>6 weeks</div></div><div class='respDivL'><div class='vertical-center'>(E)</div></div><div class='respDivR'><div class='vertical-center'>(I)</div></div></div>","E","$55<br><br>now","$75<br>in<br>6 weeks","0","55","75","6","NOW"
"html-keyboard-response","9","82407","0.0-5.0-3.1","63bd8be8f8c532da7bb5431e","bdp_td","Sun Mar 26 2023 03:47:39 GMT-0400 (Eastern Daylight Time)","175548","","null","","","","offerFB","","<div class='trialBorder'><div class='vertical-center'><img style='vertical-align:center; align:center' src=img/fixation3.jpg></div><div class='cl'><div class='vertical-center'><font style='color:orange'>$55<br><br>now</font></div></div><div class='cr'><div class='vertical-center'>$75<br>in<br>6 weeks</div></div><div class='respDivL'><div class='vertical-center'><font style='color:orange'>(E)</font></div></div><div class='respDivR'><div class='vertical-center'>(I)</div></div></div>","null","$55<br><br>now","$75<br>in<br>6 weeks","0","55","75","6",""
"html-keyboard-response","10","82908","0.0-5.0-1.2","63bd8be8f8c532da7bb5431e","bdp_td","Sun Mar 26 2023 03:47:39 GMT-0400 (Eastern Daylight Time)","175548","","null","","","","FIX","","<div class='trialBorder'><div class='vertical-center'><img style='vertical-align:center; align:center' src=img/fixation3.jpg></div></div>","null","","","","","","",""
"html-keyboard-response","11","89278","0.0-5.0-2.2","63bd8be8f8c532da7bb5431e","bdp_td","Sun Mar 26 2023 03:47:39 GMT-0400 (Eastern Daylight Time)","175548","","6369","","","","offer","","<div class='trialBorder'><div class='vertical-center'><img style='vertical-align:center; align:center' src=img/fixation3.jpg></div><div class='cl'><div class='vertical-center'>$35<br>in<br>2 weeks</div></div><div class='cr'><div class='vertical-center'>$15<br><br>now</div></div><div class='respDivL'><div class='vertical-center'>(E)</div></div><div class='respDivR'><div class='vertical-center'>(I)</div></div></div>","E","$15<br><br>now","$35<br>in<br>2 weeks","1","15","35","2","THEN"
"html-keyboard-response","12","89531","0.0-5.0-3.2","63bd8be8f8c532da7bb5431e","bdp_td","Sun Mar 26 2023 03:47:39 GMT-0400 (Eastern Daylight Time)","175548","","null","","","","offerFB","","<div class='trialBorder'><div class='vertical-center'><img style='vertical-align:center; align:center' src=img/fixation3.jpg></div><div class='cl'><div class='vertical-center'><font style='color:orange'>$35<br>in<br>2 weeks</font></div></div><div class='cr'><div class='vertical-center'>$15<br><br>now</div></div><div class='respDivL'><div class='vertical-center'><font style='color:orange'>(E)</font></div></div><div class='respDivR'><div class='vertical-center'>(I)</div></div></div>","null","$15<br><br>now","$35<br>in<br>2 weeks","1","15","35","2",""
"html-keyboard-response","13","90033","0.0-5.0-1.3","63bd8be8f8c532da7bb5431e","bdp_td","Sun Mar 26 2023 03:47:39 GMT-0400 (Eastern Daylight Time)","175548","","null","","","","FIX","","<div class='trialBorder'><div class='vertical-center'><img style='vertical-align:center; align:center' src=img/fixation3.jpg></div></div>","null","","","","","","",""
"html-keyboard-response","14","92240","0.0-5.0-2.3","63bd8be8f8c532da7bb5431e","bdp_td","Sun Mar 26 2023 03:47:39 GMT-0400 (Eastern Daylight Time)","175548","","2206","","","","offer","","<div class='trialBorder'><div class='vertical-center'><img style='vertical-align:center; align:center' src=img/fixation3.jpg></div><div class='cl'><div class='vertical-center'>$60<br>in<br>6 weeks</div></div><div class='cr'><div class='vertical-center'>$49<br><br>now</div></div><div class='respDivL'><div class='vertical-center'>(E)</div></div><div class='respDivR'><div class='vertical-center'>(I)</div></div></div>","I","$49<br><br>now","$60<br>in<br>6 weeks","1","49","60","6","NOW"
"html-keyboard-response","15","92493","0.0-5.0-3.3","63bd8be8f8c532da7bb5431e","bdp_td","Sun Mar 26 2023 03:47:39 GMT-0400 (Eastern Daylight Time)","175548","","null","","","","offerFB","","<div class='trialBorder'><div class='vertical-center'><img style='vertical-align:center; align:center' src=img/fixation3.jpg></div><div class='cl'><div class='vertical-center'>$60<br>in<br>6 weeks</div></div><div class='cr'><div class='vertical-center'><font style='color:orange'>$49<br><br>now</font></div></div><div class='respDivL'><div class='vertical-center'>(E)</div></div><div class='respDivR'><div class='vertical-center'><font style='color:orange'>(I)</font></div></div></div>","null","$49<br><br>now","$60<br>in<br>6 weeks","1","49","60","6",""
"html-keyboard-response","16","92995","0.0-5.0-1.4","63bd8be8f8c532da7bb5431e","bdp_td","Sun Mar 26 2023 03:47:39 GMT-0400 (Eastern Daylight Time)","175548","","null","","","","FIX","","<div class='trialBorder'><div class='vertical-center'><img style='vertical-align:center; align:center' src=img/fixation3.jpg></div></div>","null","","","","","","",""
"html-keyboard-response","17","95863","0.0-5.0-2.4","63bd8be8f8c532da7bb5431e","bdp_td","Sun Mar 26 2023 03:47:39 GMT-0400 (Eastern Daylight Time)","175548","","2867","","","","offer","","<div class='trialBorder'><div class='vertical-center'><img style='vertical-align:center; align:center' src=img/fixation3.jpg></div><div class='cl'><div class='vertical-center'>$33<br><br>now</div></div><div class='cr'><div class='vertical-center'>$80<br>in<br>2 weeks</div></div><div class='respDivL'><div class='vertical-center'>(E)</div></div><div class='respDivR'><div class='vertical-center'>(I)</div></div></div>","I","$33<br><br>now","$80<br>in<br>2 weeks","0","33","80","2","THEN"
"html-keyboard-response","18","96115","0.0-5.0-3.4","63bd8be8f8c532da7bb5431e","bdp_td","Sun Mar 26 2023 03:47:39 GMT-0400 (Eastern Daylight Time)","175548","","null","","","","offerFB","","<div class='trialBorder'><div class='vertical-center'><img style='vertical-align:center; align:center' src=img/fixation3.jpg></div><div class='cl'><div class='vertical-center'>$33<br><br>now</div></div><div class='cr'><div class='vertical-center'><font style='color:orange'>$80<br>in<br>2 weeks</font></div></div><div class='respDivL'><div class='vertical-center'>(E)</div></div><div class='respDivR'><div class='vertical-center'><font style='color:orange'>(I)</font></div></div></div>","null","$33<br><br>now","$80<br>in<br>2 weeks","0","33","80","2",""
"html-keyboard-response","19","96617","0.0-5.0-1.5","63bd8be8f8c532da7bb5431e","bdp_td","Sun Mar 26 2023 03:47:39 GMT-0400 (Eastern Daylight Time)","175548","","null","","","","FIX","","<div class='trialBorder'><div class='vertical-center'><img style='vertical-align:center; align:center' src=img/fixation3.jpg></div></div>","null","","","","","","",""
"html-keyboard-response","20","98919","0.0-5.0-2.5","63bd8be8f8c532da7bb5431e","bdp_td","Sun Mar 26 2023 03:47:39 GMT-0400 (Eastern Daylight Time)","175548","","2301","","","","offer","","<div class='trialBorder'><div class='vertical-center'><img style='vertical-align:center; align:center' src=img/fixation3.jpg></div><div class='cl'><div class='vertical-center'>$69<br><br>now</div></div><div class='cr'><div class='vertical-center'>$85<br>in<br>6 weeks</div></div><div class='respDivL'><div class='vertical-center'>(E)</div></div><div class='respDivR'><div class='vertical-center'>(I)</div></div></div>","E","$69<br><br>now","$85<br>in<br>6 weeks","0","69","85","6","NOW"
"html-keyboard-response","21","99172","0.0-5.0-3.5","63bd8be8f8c532da7bb5431e","bdp_td","Sun Mar 26 2023 03:47:39 GMT-0400 (Eastern Daylight Time)","175548","","null","","","","offerFB","","<div class='trialBorder'><div class='vertical-center'><img style='vertical-align:center; align:center' src=img/fixation3.jpg></div><div class='cl'><div class='vertical-center'><font style='color:orange'>$69<br><br>now</font></div></div><div class='cr'><div class='vertical-center'>$85<br>in<br>6 weeks</div></div><div class='respDivL'><div class='vertical-center'><font style='color:orange'>(E)</font></div></div><div class='respDivR'><div class='vertical-center'>(I)</div></div></div>","null","$69<br><br>now","$85<br>in<br>6 weeks","0","69","85","6",""
"html-keyboard-response","22","99673","0.0-5.0-1.6","63bd8be8f8c532da7bb5431e","bdp_td","Sun Mar 26 2023 03:47:39 GMT-0400 (Eastern Daylight Time)","175548","","null","","","","FIX","","<div class='trialBorder'><div class='vertical-center'><img style='vertical-align:center; align:center' src=img/fixation3.jpg></div></div>","null","","","","","","",""
"html-keyboard-response","23","106312","0.0-5.0-2.6","63bd8be8f8c532da7bb5431e","bdp_td","Sun Mar 26 2023 03:47:39 GMT-0400 (Eastern Daylight Time)","175548","","6638","","","","offer","","<div class='trialBorder'><div class='vertical-center'><img style='vertical-align:center; align:center' src=img/fixation3.jpg></div><div class='cl'><div class='vertical-center'>$50<br>in<br>3 weeks</div></div><div class='cr'><div class='vertical-center'>$27<br><br>now</div></div><div class='respDivL'><div class='vertical-center'>(E)</div></div><div class='respDivR'><div class='vertical-center'>(I)</div></div></div>","E","$27<br><br>now","$50<br>in<br>3 weeks","1","27","50","3","THEN"
"html-keyboard-response","24","106564","0.0-5.0-3.6","63bd8be8f8c532da7bb5431e","bdp_td","Sun Mar 26 2023 03:47:39 GMT-0400 (Eastern Daylight Time)","175548","","null","","","","offerFB","","<div class='trialBorder'><div class='vertical-center'><img style='vertical-align:center; align:center' src=img/fixation3.jpg></div><div class='cl'><div class='vertical-center'><font style='color:orange'>$50<br>in<br>3 weeks</font></div></div><div class='cr'><div class='vertical-center'>$27<br><br>now</div></div><div class='respDivL'><div class='vertical-center'><font style='color:orange'>(E)</font></div></div><div class='respDivR'><div class='vertical-center'>(I)</div></div></div>","null","$27<br><br>now","$50<br>in<br>3 weeks","1","27","50","3",""
"html-keyboard-response","25","107066","0.0-5.0-1.7","63bd8be8f8c532da7bb5431e","bdp_td","Sun Mar 26 2023 03:47:39 GMT-0400 (Eastern Daylight Time)","175548","","null","","","","FIX","","<div class='trialBorder'><div class='vertical-center'><img style='vertical-align:center; align:center' src=img/fixation3.jpg></div></div>","null","","","","","","",""
"html-keyboard-response","26","108827","0.0-5.0-2.7","63bd8be8f8c532da7bb5431e","bdp_td","Sun Mar 26 2023 03:47:39 GMT-0400 (Eastern Daylight Time)","175548","","1760","","","","offer","","<div class='trialBorder'><div class='vertical-center'><img style='vertical-align:center; align:center' src=img/fixation3.jpg></div><div class='cl'><div class='vertical-center'>$35<br>in<br>12 weeks</div></div><div class='cr'><div class='vertical-center'>$34<br><br>now</div></div><div class='respDivL'><div class='vertical-center'>(E)</div></div><div class='respDivR'><div class='vertical-center'>(I)</div></div></div>","I","$34<br><br>now","$35<br>in<br>12 weeks","1","34","35","12","NOW"
"html-keyboard-response","27","109079","0.0-5.0-3.7","63bd8be8f8c532da7bb5431e","bdp_td","Sun Mar 26 2023 03:47:39 GMT-0400 (Eastern Daylight Time)","175548","","null","","","","offerFB","","<div class='trialBorder'><div class='vertical-center'><img style='vertical-align:center; align:center' src=img/fixation3.jpg></div><div class='cl'><div class='vertical-center'>$35<br>in<br>12 weeks</div></div><div class='cr'><div class='vertical-center'><font style='color:orange'>$34<br><br>now</font></div></div><div class='respDivL'><div class='vertical-center'>(E)</div></div><div class='respDivR'><div class='vertical-center'><font style='color:orange'>(I)</font></div></div></div>","null","$34<br><br>now","$35<br>in<br>12 weeks","1","34","35","12",""
"html-keyboard-response","28","109580","0.0-5.0-1.8","63bd8be8f8c532da7bb5431e","bdp_td","Sun Mar 26 2023 03:47:39 GMT-0400 (Eastern Daylight Time)","175548","","null","","","","FIX","","<div class='trialBorder'><div class='vertical-center'><img style='vertical-align:center; align:center' src=img/fixation3.jpg></div></div>","null","","","","","","",""
"html-keyboard-response","29","111664","0.0-5.0-2.8","63bd8be8f8c532da7bb5431e","bdp_td","Sun Mar 26 2023 03:47:39 GMT-0400 (Eastern Daylight Time)","175548","","2082","","","","offer","","<div class='trialBorder'><div class='vertical-center'><img style='vertical-align:center; align:center' src=img/fixation3.jpg></div><div class='cl'><div class='vertical-center'>$50<br>in<br>12 weeks</div></div><div class='cr'><div class='vertical-center'>$47<br><br>now</div></div><div class='respDivL'><div class='vertical-center'>(E)</div></div><div class='respDivR'><div class='vertical-center'>(I)</div></div></div>","I","$47<br><br>now","$50<br>in<br>12 weeks","1","47","50","12","NOW"
"html-keyboard-response","30","111915","0.0-5.0-3.8","63bd8be8f8c532da7bb5431e","bdp_td","Sun Mar 26 2023 03:47:39 GMT-0400 (Eastern Daylight Time)","175548","","null","","","","offerFB","","<div class='trialBorder'><div class='vertical-center'><img style='vertical-align:center; align:center' src=img/fixation3.jpg></div><div class='cl'><div class='vertical-center'>$50<br>in<br>12 weeks</div></div><div class='cr'><div class='vertical-center'><font style='color:orange'>$47<br><br>now</font></div></div><div class='respDivL'><div class='vertical-center'>(E)</div></div><div class='respDivR'><div class='vertical-center'><font style='color:orange'>(I)</font></div></div></div>","null","$47<br><br>now","$50<br>in<br>12 weeks","1","47","50","12",""
"html-keyboard-response","31","112417","0.0-5.0-1.9","63bd8be8f8c532da7bb5431e","bdp_td","Sun Mar 26 2023 03:47:39 GMT-0400 (Eastern Daylight Time)","175548","","null","","","","FIX","","<div class='trialBorder'><div class='vertical-center'><img style='vertical-align:center; align:center' src=img/fixation3.jpg></div></div>","null","","","","","","",""
"html-keyboard-response","32","115878","0.0-5.0-2.9","63bd8be8f8c532da7bb5431e","bdp_td","Sun Mar 26 2023 03:47:39 GMT-0400 (Eastern Daylight Time)","175548","","3460","","","","offer","","<div class='trialBorder'><div class='vertical-center'><img style='vertical-align:center; align:center' src=img/fixation3.jpg></div><div class='cl'><div class='vertical-center'>$75<br>in<br>3 weeks</div></div><div class='cr'><div class='vertical-center'>$41<br><br>now</div></div><div class='respDivL'><div class='vertical-center'>(E)</div></div><div class='respDivR'><div class='vertical-center'>(I)</div></div></div>","E","$41<br><br>now","$75<br>in<br>3 weeks","1","41","75","3","THEN"
"html-keyboard-response","33","116130","0.0-5.0-3.9","63bd8be8f8c532da7bb5431e","bdp_td","Sun Mar 26 2023 03:47:39 GMT-0400 (Eastern Daylight Time)","175548","","null","","","","offerFB","","<div class='trialBorder'><div class='vertical-center'><img style='vertical-align:center; align:center' src=img/fixation3.jpg></div><div class='cl'><div class='vertical-center'><font style='color:orange'>$75<br>in<br>3 weeks</font></div></div><div class='cr'><div class='vertical-center'>$41<br><br>now</div></div><div class='respDivL'><div class='vertical-center'><font style='color:orange'>(E)</font></div></div><div class='respDivR'><div class='vertical-center'>(I)</div></div></div>","null","$41<br><br>now","$75<br>in<br>3 weeks","1","41","75","3",""
"html-keyboard-response","34","116631","0.0-5.0-1.10","63bd8be8f8c532da7bb5431e","bdp_td","Sun Mar 26 2023 03:47:39 GMT-0400 (Eastern Daylight Time)","175548","","null","","","","FIX","","<div class='trialBorder'><div class='vertical-center'><img style='vertical-align:center; align:center' src=img/fixation3.jpg></div></div>","null","","","","","","",""
"html-keyboard-response","35","118907","0.0-5.0-2.10","63bd8be8f8c532da7bb5431e","bdp_td","Sun Mar 26 2023 03:47:39 GMT-0400 (Eastern Daylight Time)","175548","","2275","","","","offer","","<div class='trialBorder'><div class='vertical-center'><img style='vertical-align:center; align:center' src=img/fixation3.jpg></div><div class='cl'><div class='vertical-center'>$25<br><br>now</div></div><div class='cr'><div class='vertical-center'>$30<br>in<br>6 weeks</div></div><div class='respDivL'><div class='vertical-center'>(E)</div></div><div class='respDivR'><div class='vertical-center'>(I)</div></div></div>","E","$25<br><br>now","$30<br>in<br>6 weeks","0","25","30","6","NOW"
"html-keyboard-response","36","119159","0.0-5.0-3.10","63bd8be8f8c532da7bb5431e","bdp_td","Sun Mar 26 2023 03:47:39 GMT-0400 (Eastern Daylight Time)","175548","","null","","","","offerFB","","<div class='trialBorder'><div class='vertical-center'><img style='vertical-align:center; align:center' src=img/fixation3.jpg></div><div class='cl'><div class='vertical-center'><font style='color:orange'>$25<br><br>now</font></div></div><div class='cr'><div class='vertical-center'>$30<br>in<br>6 weeks</div></div><div class='respDivL'><div class='vertical-center'><font style='color:orange'>(E)</font></div></div><div class='respDivR'><div class='vertical-center'>(I)</div></div></div>","null","$25<br><br>now","$30<br>in<br>6 weeks","0","25","30","6",""
"html-keyboard-response","37","119661","0.0-5.0-1.11","63bd8be8f8c532da7bb5431e","bdp_td","Sun Mar 26 2023 03:47:39 GMT-0400 (Eastern Daylight Time)","175548","","null","","","","FIX","","<div class='trialBorder'><div class='vertical-center'><img style='vertical-align:center; align:center' src=img/fixation3.jpg></div></div>","null","","","","","","",""
"html-keyboard-response","38","123563","0.0-5.0-2.11","63bd8be8f8c532da7bb5431e","bdp_td","Sun Mar 26 2023 03:47:39 GMT-0400 (Eastern Daylight Time)","175548","","3902","","","","offer","","<div class='trialBorder'><div class='vertical-center'><img style='vertical-align:center; align:center' src=img/fixation3.jpg></div><div class='cl'><div class='vertical-center'>$54<br><br>now</div></div><div class='cr'><div class='vertical-center'>$80<br>in<br>3 weeks</div></div><div class='respDivL'><div class='vertical-center'>(E)</div></div><div class='respDivR'><div class='vertical-center'>(I)</div></div></div>","I","$54<br><br>now","$80<br>in<br>3 weeks","0","54","80","3","THEN"
"html-keyboard-response","39","123816","0.0-5.0-3.11","63bd8be8f8c532da7bb5431e","bdp_td","Sun Mar 26 2023 03:47:39 GMT-0400 (Eastern Daylight Time)","175548","","null","","","","offerFB","","<div class='trialBorder'><div class='vertical-center'><img style='vertical-align:center; align:center' src=img/fixation3.jpg></div><div class='cl'><div class='vertical-center'>$54<br><br>now</div></div><div class='cr'><div class='vertical-center'><font style='color:orange'>$80<br>in<br>3 weeks</font></div></div><div class='respDivL'><div class='vertical-center'>(E)</div></div><div class='respDivR'><div class='vertical-center'><font style='color:orange'>(I)</font></div></div></div>","null","$54<br><br>now","$80<br>in<br>3 weeks","0","54","80","3",""
"html-keyboard-response","40","124318","0.0-5.0-1.12","63bd8be8f8c532da7bb5431e","bdp_td","Sun Mar 26 2023 03:47:39 GMT-0400 (Eastern Daylight Time)","175548","","null","","","","FIX","","<div class='trialBorder'><div class='vertical-center'><img style='vertical-align:center; align:center' src=img/fixation3.jpg></div></div>","null","","","","","","",""
"html-keyboard-response","41","127304","0.0-5.0-2.12","63bd8be8f8c532da7bb5431e","bdp_td","Sun Mar 26 2023 03:47:39 GMT-0400 (Eastern Daylight Time)","175548","","2985","","","","offer","","<div class='trialBorder'><div class='vertical-center'><img style='vertical-align:center; align:center' src=img/fixation3.jpg></div><div class='cl'><div class='vertical-center'>$55<br>in<br>12 weeks</div></div><div class='cr'><div class='vertical-center'>$54<br><br>now</div></div><div class='respDivL'><div class='vertical-center'>(E)</div></div><div class='respDivR'><div class='vertical-center'>(I)</div></div></div>","I","$54<br><br>now","$55<br>in<br>12 weeks","1","54","55","12","NOW"
"html-keyboard-response","42","127557","0.0-5.0-3.12","63bd8be8f8c532da7bb5431e","bdp_td","Sun Mar 26 2023 03:47:39 GMT-0400 (Eastern Daylight Time)","175548","","null","","","","offerFB","","<div class='trialBorder'><div class='vertical-center'><img style='vertical-align:center; align:center' src=img/fixation3.jpg></div><div class='cl'><div class='vertical-center'>$55<br>in<br>12 weeks</div></div><div class='cr'><div class='vertical-center'><font style='color:orange'>$54<br><br>now</font></div></div><div class='respDivL'><div class='vertical-center'>(E)</div></div><div class='respDivR'><div class='vertical-center'><font style='color:orange'>(I)</font></div></div></div>","null","$54<br><br>now","$55<br>in<br>12 weeks","1","54","55","12",""
"html-keyboard-response","43","128058","0.0-5.0-1.13","63bd8be8f8c532da7bb5431e","bdp_td","Sun Mar 26 2023 03:47:39 GMT-0400 (Eastern Daylight Time)","175548","","null","","","","FIX","","<div class='trialBorder'><div class='vertical-center'><img style='vertical-align:center; align:center' src=img/fixation3.jpg></div></div>","null","","","","","","",""
"html-keyboard-response","44","130340","0.0-5.0-2.13","63bd8be8f8c532da7bb5431e","bdp_td","Sun Mar 26 2023 03:47:39 GMT-0400 (Eastern Daylight Time)","175548","","2280","","","","offer","","<div class='trialBorder'><div class='vertical-center'><img style='vertical-align:center; align:center' src=img/fixation3.jpg></div><div class='cl'><div class='vertical-center'>$25<br>in<br>12 weeks</div></div><div class='cr'><div class='vertical-center'>$22<br><br>now</div></div><div class='respDivL'><div class='vertical-center'>(E)</div></div><div class='respDivR'><div class='vertical-center'>(I)</div></div></div>","I","$22<br><br>now","$25<br>in<br>12 weeks","1","22","25","12","NOW"
"html-keyboard-response","45","130591","0.0-5.0-3.13","63bd8be8f8c532da7bb5431e","bdp_td","Sun Mar 26 2023 03:47:39 GMT-0400 (Eastern Daylight Time)","175548","","null","","","","offerFB","","<div class='trialBorder'><div class='vertical-center'><img style='vertical-align:center; align:center' src=img/fixation3.jpg></div><div class='cl'><div class='vertical-center'>$25<br>in<br>12 weeks</div></div><div class='cr'><div class='vertical-center'><font style='color:orange'>$22<br><br>now</font></div></div><div class='respDivL'><div class='vertical-center'>(E)</div></div><div class='respDivR'><div class='vertical-center'><font style='color:orange'>(I)</font></div></div></div>","null","$22<br><br>now","$25<br>in<br>12 weeks","1","22","25","12",""
"html-keyboard-response","46","131093","0.0-5.0-1.14","63bd8be8f8c532da7bb5431e","bdp_td","Sun Mar 26 2023 03:47:39 GMT-0400 (Eastern Daylight Time)","175548","","null","","","","FIX","","<div class='trialBorder'><div class='vertical-center'><img style='vertical-align:center; align:center' src=img/fixation3.jpg></div></div>","null","","","","","","",""
"html-keyboard-response","47","133077","0.0-5.0-2.14","63bd8be8f8c532da7bb5431e","bdp_td","Sun Mar 26 2023 03:47:39 GMT-0400 (Eastern Daylight Time)","175548","","1983","","","","offer","","<div class='trialBorder'><div class='vertical-center'><img style='vertical-align:center; align:center' src=img/fixation3.jpg></div><div class='cl'><div class='vertical-center'>$80<br>in<br>12 weeks</div></div><div class='cr'><div class='vertical-center'>$78<br><br>now</div></div><div class='respDivL'><div class='vertical-center'>(E)</div></div><div class='respDivR'><div class='vertical-center'>(I)</div></div></div>","I","$78<br><br>now","$80<br>in<br>12 weeks","1","78","80","12","NOW"
"html-keyboard-response","48","133329","0.0-5.0-3.14","63bd8be8f8c532da7bb5431e","bdp_td","Sun Mar 26 2023 03:47:39 GMT-0400 (Eastern Daylight Time)","175548","","null","","","","offerFB","","<div class='trialBorder'><div class='vertical-center'><img style='vertical-align:center; align:center' src=img/fixation3.jpg></div><div class='cl'><div class='vertical-center'>$80<br>in<br>12 weeks</div></div><div class='cr'><div class='vertical-center'><font style='color:orange'>$78<br><br>now</font></div></div><div class='respDivL'><div class='vertical-center'>(E)</div></div><div class='respDivR'><div class='vertical-center'><font style='color:orange'>(I)</font></div></div></div>","null","$78<br><br>now","$80<br>in<br>12 weeks","1","78","80","12",""
"html-keyboard-response","49","133830","0.0-5.0-1.15","63bd8be8f8c532da7bb5431e","bdp_td","Sun Mar 26 2023 03:47:39 GMT-0400 (Eastern Daylight Time)","175548","","null","","","","FIX","","<div class='trialBorder'><div class='vertical-center'><img style='vertical-align:center; align:center' src=img/fixation3.jpg></div></div>","null","","","","","","",""
"html-keyboard-response","50","136726","0.0-5.0-2.15","63bd8be8f8c532da7bb5431e","bdp_td","Sun Mar 26 2023 03:47:39 GMT-0400 (Eastern Daylight Time)","175548","","2894","","","","offer","","<div class='trialBorder'><div class='vertical-center'><img style='vertical-align:center; align:center' src=img/fixation3.jpg></div><div class='cl'><div class='vertical-center'>$25<br>in<br>3 weeks</div></div><div class='cr'><div class='vertical-center'>$14<br><br>now</div></div><div class='respDivL'><div class='vertical-center'>(E)</div></div><div class='respDivR'><div class='vertical-center'>(I)</div></div></div>","E","$14<br><br>now","$25<br>in<br>3 weeks","1","14","25","3","THEN"
"html-keyboard-response","51","136979","0.0-5.0-3.15","63bd8be8f8c532da7bb5431e","bdp_td","Sun Mar 26 2023 03:47:39 GMT-0400 (Eastern Daylight Time)","175548","","null","","","","offerFB","","<div class='trialBorder'><div class='vertical-center'><img style='vertical-align:center; align:center' src=img/fixation3.jpg></div><div class='cl'><div class='vertical-center'><font style='color:orange'>$25<br>in<br>3 weeks</font></div></div><div class='cr'><div class='vertical-center'>$14<br><br>now</div></div><div class='respDivL'><div class='vertical-center'><font style='color:orange'>(E)</font></div></div><div class='respDivR'><div class='vertical-center'>(I)</div></div></div>","null","$14<br><br>now","$25<br>in<br>3 weeks","1","14","25","3",""
"html-keyboard-response","52","137481","0.0-5.0-1.16","63bd8be8f8c532da7bb5431e","bdp_td","Sun Mar 26 2023 03:47:39 GMT-0400 (Eastern Daylight Time)","175548","","null","","","","FIX","","<div class='trialBorder'><div class='vertical-center'><img style='vertical-align:center; align:center' src=img/fixation3.jpg></div></div>","null","","","","","","",""
"html-keyboard-response","53","139787","0.0-5.0-2.16","63bd8be8f8c532da7bb5431e","bdp_td","Sun Mar 26 2023 03:47:39 GMT-0400 (Eastern Daylight Time)","175548","","2305","","","","offer","","<div class='trialBorder'><div class='vertical-center'><img style='vertical-align:center; align:center' src=img/fixation3.jpg></div><div class='cl'><div class='vertical-center'>$30<br>in<br>2 weeks</div></div><div class='cr'><div class='vertical-center'>$11<br><br>now</div></div><div class='respDivL'><div class='vertical-center'>(E)</div></div><div class='respDivR'><div class='vertical-center'>(I)</div></div></div>","E","$11<br><br>now","$30<br>in<br>2 weeks","1","11","30","2","THEN"
"html-keyboard-response","54","140039","0.0-5.0-3.16","63bd8be8f8c532da7bb5431e","bdp_td","Sun Mar 26 2023 03:47:39 GMT-0400 (Eastern Daylight Time)","175548","","null","","","","offerFB","","<div class='trialBorder'><div class='vertical-center'><img style='vertical-align:center; align:center' src=img/fixation3.jpg></div><div class='cl'><div class='vertical-center'><font style='color:orange'>$30<br>in<br>2 weeks</font></div></div><div class='cr'><div class='vertical-center'>$11<br><br>now</div></div><div class='respDivL'><div class='vertical-center'><font style='color:orange'>(E)</font></div></div><div class='respDivR'><div class='vertical-center'>(I)</div></div></div>","null","$11<br><br>now","$30<br>in<br>2 weeks","1","11","30","2",""
"html-keyboard-response","55","140540","0.0-5.0-1.17","63bd8be8f8c532da7bb5431e","bdp_td","Sun Mar 26 2023 03:47:39 GMT-0400 (Eastern Daylight Time)","175548","","null","","","","FIX","","<div class='trialBorder'><div class='vertical-center'><img style='vertical-align:center; align:center' src=img/fixation3.jpg></div></div>","null","","","","","","",""
"html-keyboard-response","56","144278","0.0-5.0-2.17","63bd8be8f8c532da7bb5431e","bdp_td","Sun Mar 26 2023 03:47:39 GMT-0400 (Eastern Daylight Time)","175548","","3736","","","","offer","","<div class='trialBorder'><div class='vertical-center'><img style='vertical-align:center; align:center' src=img/fixation3.jpg></div><div class='cl'><div class='vertical-center'>$75<br>in<br>12 weeks</div></div><div class='cr'><div class='vertical-center'>$67<br><br>now</div></div><div class='respDivL'><div class='vertical-center'>(E)</div></div><div class='respDivR'><div class='vertical-center'>(I)</div></div></div>","I","$67<br><br>now","$75<br>in<br>12 weeks","1","67","75","12","NOW"
"html-keyboard-response","57","144530","0.0-5.0-3.17","63bd8be8f8c532da7bb5431e","bdp_td","Sun Mar 26 2023 03:47:39 GMT-0400 (Eastern Daylight Time)","175548","","null","","","","offerFB","","<div class='trialBorder'><div class='vertical-center'><img style='vertical-align:center; align:center' src=img/fixation3.jpg></div><div class='cl'><div class='vertical-center'>$75<br>in<br>12 weeks</div></div><div class='cr'><div class='vertical-center'><font style='color:orange'>$67<br><br>now</font></div></div><div class='respDivL'><div class='vertical-center'>(E)</div></div><div class='respDivR'><div class='vertical-center'><font style='color:orange'>(I)</font></div></div></div>","null","$67<br><br>now","$75<br>in<br>12 weeks","1","67","75","12",""
"html-keyboard-response","58","145032","0.0-5.0-1.18","63bd8be8f8c532da7bb5431e","bdp_td","Sun Mar 26 2023 03:47:39 GMT-0400 (Eastern Daylight Time)","175548","","null","","","","FIX","","<div class='trialBorder'><div class='vertical-center'><img style='vertical-align:center; align:center' src=img/fixation3.jpg></div></div>","null","","","","","","",""
"html-keyboard-response","59","147304","0.0-5.0-2.18","63bd8be8f8c532da7bb5431e","bdp_td","Sun Mar 26 2023 03:47:39 GMT-0400 (Eastern Daylight Time)","175548","","2271","","","","offer","","<div class='trialBorder'><div class='vertical-center'><img style='vertical-align:center; align:center' src=img/fixation3.jpg></div><div class='cl'><div class='vertical-center'>$34<br><br>now</div></div><div class='cr'><div class='vertical-center'>$50<br>in<br>6 weeks</div></div><div class='respDivL'><div class='vertical-center'>(E)</div></div><div class='respDivR'><div class='vertical-center'>(I)</div></div></div>","E","$34<br><br>now","$50<br>in<br>6 weeks","0","34","50","6","NOW"
"html-keyboard-response","60","147557","0.0-5.0-3.18","63bd8be8f8c532da7bb5431e","bdp_td","Sun Mar 26 2023 03:47:39 GMT-0400 (Eastern Daylight Time)","175548","","null","","","","offerFB","","<div class='trialBorder'><div class='vertical-center'><img style='vertical-align:center; align:center' src=img/fixation3.jpg></div><div class='cl'><div class='vertical-center'><font style='color:orange'>$34<br><br>now</font></div></div><div class='cr'><div class='vertical-center'>$50<br>in<br>6 weeks</div></div><div class='respDivL'><div class='vertical-center'><font style='color:orange'>(E)</font></div></div><div class='respDivR'><div class='vertical-center'>(I)</div></div></div>","null","$34<br><br>now","$50<br>in<br>6 weeks","0","34","50","6",""
"html-keyboard-response","61","148059","0.0-5.0-1.19","63bd8be8f8c532da7bb5431e","bdp_td","Sun Mar 26 2023 03:47:39 GMT-0400 (Eastern Daylight Time)","175548","","null","","","","FIX","","<div class='trialBorder'><div class='vertical-center'><img style='vertical-align:center; align:center' src=img/fixation3.jpg></div></div>","null","","","","","","",""
"html-keyboard-response","62","150436","0.0-5.0-2.19","63bd8be8f8c532da7bb5431e","bdp_td","Sun Mar 26 2023 03:47:39 GMT-0400 (Eastern Daylight Time)","175548","","2376","","","","offer","","<div class='trialBorder'><div class='vertical-center'><img style='vertical-align:center; align:center' src=img/fixation3.jpg></div><div class='cl'><div class='vertical-center'>$40<br><br>now</div></div><div class='cr'><div class='vertical-center'>$55<br>in<br>6 weeks</div></div><div class='respDivL'><div class='vertical-center'>(E)</div></div><div class='respDivR'><div class='vertical-center'>(I)</div></div></div>","E","$40<br><br>now","$55<br>in<br>6 weeks","0","40","55","6","NOW"
"html-keyboard-response","63","150690","0.0-5.0-3.19","63bd8be8f8c532da7bb5431e","bdp_td","Sun Mar 26 2023 03:47:39 GMT-0400 (Eastern Daylight Time)","175548","","null","","","","offerFB","","<div class='trialBorder'><div class='vertical-center'><img style='vertical-align:center; align:center' src=img/fixation3.jpg></div><div class='cl'><div class='vertical-center'><font style='color:orange'>$40<br><br>now</font></div></div><div class='cr'><div class='vertical-center'>$55<br>in<br>6 weeks</div></div><div class='respDivL'><div class='vertical-center'><font style='color:orange'>(E)</font></div></div><div class='respDivR'><div class='vertical-center'>(I)</div></div></div>","null","$40<br><br>now","$55<br>in<br>6 weeks","0","40","55","6",""
"html-keyboard-response","64","151191","0.0-5.0-1.20","63bd8be8f8c532da7bb5431e","bdp_td","Sun Mar 26 2023 03:47:39 GMT-0400 (Eastern Daylight Time)","175548","","null","","","","FIX","","<div class='trialBorder'><div class='vertical-center'><img style='vertical-align:center; align:center' src=img/fixation3.jpg></div></div>","null","","","","","","",""
"html-keyboard-response","65","154904","0.0-5.0-2.20","63bd8be8f8c532da7bb5431e","bdp_td","Sun Mar 26 2023 03:47:39 GMT-0400 (Eastern Daylight Time)","175548","","3710","","","","offer","","<div class='trialBorder'><div class='vertical-center'><img style='vertical-align:center; align:center' src=img/fixation3.jpg></div><div class='cl'><div class='vertical-center'>$35<br>in<br>3 weeks</div></div><div class='cr'><div class='vertical-center'>$24<br><br>now</div></div><div class='respDivL'><div class='vertical-center'>(E)</div></div><div class='respDivR'><div class='vertical-center'>(I)</div></div></div>","I","$24<br><br>now","$35<br>in<br>3 weeks","1","24","35","3","NOW"
"html-keyboard-response","66","155157","0.0-5.0-3.20","63bd8be8f8c532da7bb5431e","bdp_td","Sun Mar 26 2023 03:47:39 GMT-0400 (Eastern Daylight Time)","175548","","null","","","","offerFB","","<div class='trialBorder'><div class='vertical-center'><img style='vertical-align:center; align:center' src=img/fixation3.jpg></div><div class='cl'><div class='vertical-center'>$35<br>in<br>3 weeks</div></div><div class='cr'><div class='vertical-center'><font style='color:orange'>$24<br><br>now</font></div></div><div class='respDivL'><div class='vertical-center'>(E)</div></div><div class='respDivR'><div class='vertical-center'><font style='color:orange'>(I)</font></div></div></div>","null","$24<br><br>now","$35<br>in<br>3 weeks","1","24","35","3",""
"html-keyboard-response","67","155659","0.0-5.0-1.21","63bd8be8f8c532da7bb5431e","bdp_td","Sun Mar 26 2023 03:47:39 GMT-0400 (Eastern Daylight Time)","175548","","null","","","","FIX","","<div class='trialBorder'><div class='vertical-center'><img style='vertical-align:center; align:center' src=img/fixation3.jpg></div></div>","null","","","","","","",""
"html-keyboard-response","68","157508","0.0-5.0-2.21","63bd8be8f8c532da7bb5431e","bdp_td","Sun Mar 26 2023 03:47:39 GMT-0400 (Eastern Daylight Time)","175548","","1848","","","","offer","","<div class='trialBorder'><div class='vertical-center'><img style='vertical-align:center; align:center' src=img/fixation3.jpg></div><div class='cl'><div class='vertical-center'>$80<br><br>now</div></div><div class='cr'><div class='vertical-center'>$85<br>in<br>12 weeks</div></div><div class='respDivL'><div class='vertical-center'>(E)</div></div><div class='respDivR'><div class='vertical-center'>(I)</div></div></div>","E","$80<br><br>now","$85<br>in<br>12 weeks","0","80","85","12","NOW"
"html-keyboard-response","69","157760","0.0-5.0-3.21","63bd8be8f8c532da7bb5431e","bdp_td","Sun Mar 26 2023 03:47:39 GMT-0400 (Eastern Daylight Time)","175548","","null","","","","offerFB","","<div class='trialBorder'><div class='vertical-center'><img style='vertical-align:center; align:center' src=img/fixation3.jpg></div><div class='cl'><div class='vertical-center'><font style='color:orange'>$80<br><br>now</font></div></div><div class='cr'><div class='vertical-center'>$85<br>in<br>12 weeks</div></div><div class='respDivL'><div class='vertical-center'><font style='color:orange'>(E)</font></div></div><div class='respDivR'><div class='vertical-center'>(I)</div></div></div>","null","$80<br><br>now","$85<br>in<br>12 weeks","0","80","85","12",""
"html-keyboard-response","70","158261","0.0-5.0-1.22","63bd8be8f8c532da7bb5431e","bdp_td","Sun Mar 26 2023 03:47:39 GMT-0400 (Eastern Daylight Time)","175548","","null","","","","FIX","","<div class='trialBorder'><div class='vertical-center'><img style='vertical-align:center; align:center' src=img/fixation3.jpg></div></div>","null","","","","","","",""
"html-keyboard-response","71","160835","0.0-5.0-2.22","63bd8be8f8c532da7bb5431e","bdp_td","Sun Mar 26 2023 03:47:39 GMT-0400 (Eastern Daylight Time)","175548","","2573","","","","offer","","<div class='trialBorder'><div class='vertical-center'><img style='vertical-align:center; align:center' src=img/fixation3.jpg></div><div class='cl'><div class='vertical-center'>$60<br>in<br>3 weeks</div></div><div class='cr'><div class='vertical-center'>$25<br><br>now</div></div><div class='respDivL'><div class='vertical-center'>(E)</div></div><div class='respDivR'><div class='vertical-center'>(I)</div></div></div>","E","$25<br><br>now","$60<br>in<br>3 weeks","1","25","60","3","THEN"
"html-keyboard-response","72","161087","0.0-5.0-3.22","63bd8be8f8c532da7bb5431e","bdp_td","Sun Mar 26 2023 03:47:39 GMT-0400 (Eastern Daylight Time)","175548","","null","","","","offerFB","","<div class='trialBorder'><div class='vertical-center'><img style='vertical-align:center; align:center' src=img/fixation3.jpg></div><div class='cl'><div class='vertical-center'><font style='color:orange'>$60<br>in<br>3 weeks</font></div></div><div class='cr'><div class='vertical-center'>$25<br><br>now</div></div><div class='respDivL'><div class='vertical-center'><font style='color:orange'>(E)</font></div></div><div class='respDivR'><div class='vertical-center'>(I)</div></div></div>","null","$25<br><br>now","$60<br>in<br>3 weeks","1","25","60","3",""
"html-keyboard-response","73","161589","0.0-5.0-1.23","63bd8be8f8c532da7bb5431e","bdp_td","Sun Mar 26 2023 03:47:39 GMT-0400 (Eastern Daylight Time)","175548","","null","","","","FIX","","<div class='trialBorder'><div class='vertical-center'><img style='vertical-align:center; align:center' src=img/fixation3.jpg></div></div>","null","","","","","","",""
"html-keyboard-response","74","164248","0.0-5.0-2.23","63bd8be8f8c532da7bb5431e","bdp_td","Sun Mar 26 2023 03:47:39 GMT-0400 (Eastern Daylight Time)","175548","","2658","","","","offer","","<div class='trialBorder'><div class='vertical-center'><img style='vertical-align:center; align:center' src=img/fixation3.jpg></div><div class='cl'><div class='vertical-center'>$19<br><br>now</div></div><div class='cr'><div class='vertical-center'>$25<br>in<br>6 weeks</div></div><div class='respDivL'><div class='vertical-center'>(E)</div></div><div class='respDivR'><div class='vertical-center'>(I)</div></div></div>","E","$19<br><br>now","$25<br>in<br>6 weeks","0","19","25","6","NOW"
"html-keyboard-response","75","164500","0.0-5.0-3.23","63bd8be8f8c532da7bb5431e","bdp_td","Sun Mar 26 2023 03:47:39 GMT-0400 (Eastern Daylight Time)","175548","","null","","","","offerFB","","<div class='trialBorder'><div class='vertical-center'><img style='vertical-align:center; align:center' src=img/fixation3.jpg></div><div class='cl'><div class='vertical-center'><font style='color:orange'>$19<br><br>now</font></div></div><div class='cr'><div class='vertical-center'>$25<br>in<br>6 weeks</div></div><div class='respDivL'><div class='vertical-center'><font style='color:orange'>(E)</font></div></div><div class='respDivR'><div class='vertical-center'>(I)</div></div></div>","null","$19<br><br>now","$25<br>in<br>6 weeks","0","19","25","6",""
"html-keyboard-response","76","165002","0.0-5.0-1.24","63bd8be8f8c532da7bb5431e","bdp_td","Sun Mar 26 2023 03:47:39 GMT-0400 (Eastern Daylight Time)","175548","","null","","","","FIX","","<div class='trialBorder'><div class='vertical-center'><img style='vertical-align:center; align:center' src=img/fixation3.jpg></div></div>","null","","","","","","",""
"html-keyboard-response","77","167193","0.0-5.0-2.24","63bd8be8f8c532da7bb5431e","bdp_td","Sun Mar 26 2023 03:47:39 GMT-0400 (Eastern Daylight Time)","175548","","2190","","","","offer","","<div class='trialBorder'><div class='vertical-center'><img style='vertical-align:center; align:center' src=img/fixation3.jpg></div><div class='cl'><div class='vertical-center'>$54<br><br>now</div></div><div class='cr'><div class='vertical-center'>$60<br>in<br>12 weeks</div></div><div class='respDivL'><div class='vertical-center'>(E)</div></div><div class='respDivR'><div class='vertical-center'>(I)</div></div></div>","E","$54<br><br>now","$60<br>in<br>12 weeks","0","54","60","12","NOW"
"html-keyboard-response","78","167445","0.0-5.0-3.24","63bd8be8f8c532da7bb5431e","bdp_td","Sun Mar 26 2023 03:47:39 GMT-0400 (Eastern Daylight Time)","175548","","null","","","","offerFB","","<div class='trialBorder'><div class='vertical-center'><img style='vertical-align:center; align:center' src=img/fixation3.jpg></div><div class='cl'><div class='vertical-center'><font style='color:orange'>$54<br><br>now</font></div></div><div class='cr'><div class='vertical-center'>$60<br>in<br>12 weeks</div></div><div class='respDivL'><div class='vertical-center'><font style='color:orange'>(E)</font></div></div><div class='respDivR'><div class='vertical-center'>(I)</div></div></div>","null","$54<br><br>now","$60<br>in<br>12 weeks","0","54","60","12",""
"html-keyboard-response","79","167947","0.0-5.0-1.25","63bd8be8f8c532da7bb5431e","bdp_td","Sun Mar 26 2023 03:47:39 GMT-0400 (Eastern Daylight Time)","175548","","null","","","","FIX","","<div class='trialBorder'><div class='vertical-center'><img style='vertical-align:center; align:center' src=img/fixation3.jpg></div></div>","null","","","","","","",""
"html-keyboard-response","80","170855","0.0-5.0-2.25","63bd8be8f8c532da7bb5431e","bdp_td","Sun Mar 26 2023 03:47:39 GMT-0400 (Eastern Daylight Time)","175548","","2907","","","","offer","","<div class='trialBorder'><div class='vertical-center'><img style='vertical-align:center; align:center' src=img/fixation3.jpg></div><div class='cl'><div class='vertical-center'>$28<br><br>now</div></div><div class='cr'><div class='vertical-center'>$30<br>in<br>12 weeks</div></div><div class='respDivL'><div class='vertical-center'>(E)</div></div><div class='respDivR'><div class='vertical-center'>(I)</div></div></div>","E","$28<br><br>now","$30<br>in<br>12 weeks","0","28","30","12","NOW"
"html-keyboard-response","81","171108","0.0-5.0-3.25","63bd8be8f8c532da7bb5431e","bdp_td","Sun Mar 26 2023 03:47:39 GMT-0400 (Eastern Daylight Time)","175548","","null","","","","offerFB","","<div class='trialBorder'><div class='vertical-center'><img style='vertical-align:center; align:center' src=img/fixation3.jpg></div><div class='cl'><div class='vertical-center'><font style='color:orange'>$28<br><br>now</font></div></div><div class='cr'><div class='vertical-center'>$30<br>in<br>12 weeks</div></div><div class='respDivL'><div class='vertical-center'><font style='color:orange'>(E)</font></div></div><div class='respDivR'><div class='vertical-center'>(I)</div></div></div>","null","$28<br><br>now","$30<br>in<br>12 weeks","0","28","30","12",""
"html-keyboard-response","82","171609","0.0-5.0-1.26","63bd8be8f8c532da7bb5431e","bdp_td","Sun Mar 26 2023 03:47:39 GMT-0400 (Eastern Daylight Time)","175548","","null","","","","FIX","","<div class='trialBorder'><div class='vertical-center'><img style='vertical-align:center; align:center' src=img/fixation3.jpg></div></div>","null","","","","","","",""
"html-keyboard-response","83","174294","0.0-5.0-2.26","63bd8be8f8c532da7bb5431e","bdp_td","Sun Mar 26 2023 03:47:39 GMT-0400 (Eastern Daylight Time)","175548","","2684","","","","offer","","<div class='trialBorder'><div class='vertical-center'><img style='vertical-align:center; align:center' src=img/fixation3.jpg></div><div class='cl'><div class='vertical-center'>$31<br><br>now</div></div><div class='cr'><div class='vertical-center'>$85<br>in<br>1 week</div></div><div class='respDivL'><div class='vertical-center'>(E)</div></div><div class='respDivR'><div class='vertical-center'>(I)</div></div></div>","I","$31<br><br>now","$85<br>in<br>1 week","0","31","85","1","THEN"
"html-keyboard-response","84","174547","0.0-5.0-3.26","63bd8be8f8c532da7bb5431e","bdp_td","Sun Mar 26 2023 03:47:39 GMT-0400 (Eastern Daylight Time)","175548","","null","","","","offerFB","","<div class='trialBorder'><div class='vertical-center'><img style='vertical-align:center; align:center' src=img/fixation3.jpg></div><div class='cl'><div class='vertical-center'>$31<br><br>now</div></div><div class='cr'><div class='vertical-center'><font style='color:orange'>$85<br>in<br>1 week</font></div></div><div class='respDivL'><div class='vertical-center'>(E)</div></div><div class='respDivR'><div class='vertical-center'><font style='color:orange'>(I)</font></div></div></div>","null","$31<br><br>now","$85<br>in<br>1 week","0","31","85","1",""
"","","","","63bd8be8f8c532da7bb5431e","bdp_td","Sun Mar 26 2023 03:47:39 GMT-0400 (Eastern Daylight Time)","175548","","","fullscreenexit","85","174556","fullscreenexit","","","","","","","","","",""
"fullscreen","85","175547","0.0-6.0","63bd8be8f8c532da7bb5431e","bdp_td","Sun Mar 26 2023 03:47:39 GMT-0400 (Eastern Daylight Time)","175548","","","","","","","true","","","","","","","","",""
"html-keyboard-response","86","176049","0.0-7.0","","","","","","null","","","","","","","null","","","","","","",""
