"trial_type","trial_index","time_elapsed","internal_node_id","subject_id","task","startTime","totalTime","view_history","rt","event","trial","time","trialtype","success","stimulus","key_press","nowOffer","thenOffer","thenLeft","nowAmt","thenAmt","thenWeeks","chosen"
"pavlovia","0","2","0.0-0.0","63d83eafdd418ada3528719e","bdp_td","Mon Mar 27 2023 17:05:29 GMT-0400 (Eastern Daylight Time)","116876","","","","","","","","","","","","","","","",""
"instructions","1","5521","0.0-1.0","63d83eafdd418ada3528719e","bdp_td","Mon Mar 27 2023 17:05:29 GMT-0400 (Eastern Daylight Time)","116876","[{""page_index"":0,""viewing_time"":5518}]","5518","","","","","","","","","","","","","",""
"","","","","63d83eafdd418ada3528719e","bdp_td","Mon Mar 27 2023 17:05:29 GMT-0400 (Eastern Daylight Time)","116876","","","fullscreenenter","2","8299","fullscreenenter","","","","","","","","","",""
"fullscreen","2","9304","0.0-2.0","63d83eafdd418ada3528719e","bdp_td","Mon Mar 27 2023 17:05:29 GMT-0400 (Eastern Daylight Time)","116876","","","","","","","true","","","","","","","","",""
"instructions","3","32877","0.0-4.0","63d83eafdd418ada3528719e","bdp_td","Mon Mar 27 2023 17:05:29 GMT-0400 (Eastern Daylight Time)","116876","[{""page_index"":0,""viewing_time"":8237},{""page_index"":1,""viewing_time"":9790},{""page_index"":2,""viewing_time"":5545}]","23572","","","","","","","","","","","","","",""
"html-keyboard-response","4","33382","0.0-5.0-1.0","63d83eafdd418ada3528719e","bdp_td","Mon Mar 27 2023 17:05:29 GMT-0400 (Eastern Daylight Time)","116876","","null","","","","FIX","","<div class='trialBorder'><div class='vertical-center'><img style='vertical-align:center; align:center' src=img/fixation3.jpg></div></div>","null","","","","","","",""
"html-keyboard-response","5","35704","0.0-5.0-2.0","63d83eafdd418ada3528719e","bdp_td","Mon Mar 27 2023 17:05:29 GMT-0400 (Eastern Daylight Time)","116876","","2320","","","","offer","","<div class='trialBorder'><div class='vertical-center'><img style='vertical-align:center; align:center' src=img/fixation3.jpg></div><div class='cl'><div class='vertical-center'>$60<br>in<br>12 weeks</div></div><div class='cr'><div class='vertical-center'>$54<br><br>now</div></div><div class='respDivL'><div class='vertical-center'>(E)</div></div><div class='respDivR'><div class='vertical-center'>(I)</div></div></div>","I","$54<br><br>now","$60<br>in<br>12 weeks","1","54","60","12","NOW"
"html-keyboard-response","6","35961","0.0-5.0-3.0","63d83eafdd418ada3528719e","bdp_td","Mon Mar 27 2023 17:05:29 GMT-0400 (Eastern Daylight Time)","116876","","null","","","","offerFB","","<div class='trialBorder'><div class='vertical-center'><img style='vertical-align:center; align:center' src=img/fixation3.jpg></div><div class='cl'><div class='vertical-center'>$60<br>in<br>12 weeks</div></div><div class='cr'><div class='vertical-center'><font style='color:orange'>$54<br><br>now</font></div></div><div class='respDivL'><div class='vertical-center'>(E)</div></div><div class='respDivR'><div class='vertical-center'><font style='color:orange'>(I)</font></div></div></div>","null","$54<br><br>now","$60<br>in<br>12 weeks","1","54","60","12",""
"html-keyboard-response","7","36470","0.0-5.0-1.1","63d83eafdd418ada3528719e","bdp_td","Mon Mar 27 2023 17:05:29 GMT-0400 (Eastern Daylight Time)","116876","","null","","","","FIX","","<div class='trialBorder'><div class='vertical-center'><img style='vertical-align:center; align:center' src=img/fixation3.jpg></div></div>","null","","","","","","",""
"html-keyboard-response","8","38158","0.0-5.0-2.1","63d83eafdd418ada3528719e","bdp_td","Mon Mar 27 2023 17:05:29 GMT-0400 (Eastern Daylight Time)","116876","","1686","","","","offer","","<div class='trialBorder'><div class='vertical-center'><img style='vertical-align:center; align:center' src=img/fixation3.jpg></div><div class='cl'><div class='vertical-center'>$80<br>in<br>12 weeks</div></div><div class='cr'><div class='vertical-center'>$78<br><br>now</div></div><div class='respDivL'><div class='vertical-center'>(E)</div></div><div class='respDivR'><div class='vertical-center'>(I)</div></div></div>","I","$78<br><br>now","$80<br>in<br>12 weeks","1","78","80","12","NOW"
"html-keyboard-response","9","38412","0.0-5.0-3.1","63d83eafdd418ada3528719e","bdp_td","Mon Mar 27 2023 17:05:29 GMT-0400 (Eastern Daylight Time)","116876","","null","","","","offerFB","","<div class='trialBorder'><div class='vertical-center'><img style='vertical-align:center; align:center' src=img/fixation3.jpg></div><div class='cl'><div class='vertical-center'>$80<br>in<br>12 weeks</div></div><div class='cr'><div class='vertical-center'><font style='color:orange'>$78<br><br>now</font></div></div><div class='respDivL'><div class='vertical-center'>(E)</div></div><div class='respDivR'><div class='vertical-center'><font style='color:orange'>(I)</font></div></div></div>","null","$78<br><br>now","$80<br>in<br>12 weeks","1","78","80","12",""
"html-keyboard-response","10","38927","0.0-5.0-1.2","63d83eafdd418ada3528719e","bdp_td","Mon Mar 27 2023 17:05:29 GMT-0400 (Eastern Daylight Time)","116876","","null","","","","FIX","","<div class='trialBorder'><div class='vertical-center'><img style='vertical-align:center; align:center' src=img/fixation3.jpg></div></div>","null","","","","","","",""
"html-keyboard-response","11","40978","0.0-5.0-2.2","63d83eafdd418ada3528719e","bdp_td","Mon Mar 27 2023 17:05:29 GMT-0400 (Eastern Daylight Time)","116876","","2050","","","","offer","","<div class='trialBorder'><div class='vertical-center'><img style='vertical-align:center; align:center' src=img/fixation3.jpg></div><div class='cl'><div class='vertical-center'>$67<br><br>now</div></div><div class='cr'><div class='vertical-center'>$75<br>in<br>12 weeks</div></div><div class='respDivL'><div class='vertical-center'>(E)</div></div><div class='respDivR'><div class='vertical-center'>(I)</div></div></div>","E","$67<br><br>now","$75<br>in<br>12 weeks","0","67","75","12","NOW"
"html-keyboard-response","12","41241","0.0-5.0-3.2","63d83eafdd418ada3528719e","bdp_td","Mon Mar 27 2023 17:05:29 GMT-0400 (Eastern Daylight Time)","116876","","null","","","","offerFB","","<div class='trialBorder'><div class='vertical-center'><img style='vertical-align:center; align:center' src=img/fixation3.jpg></div><div class='cl'><div class='vertical-center'><font style='color:orange'>$67<br><br>now</font></div></div><div class='cr'><div class='vertical-center'>$75<br>in<br>12 weeks</div></div><div class='respDivL'><div class='vertical-center'><font style='color:orange'>(E)</font></div></div><div class='respDivR'><div class='vertical-center'>(I)</div></div></div>","null","$67<br><br>now","$75<br>in<br>12 weeks","0","67","75","12",""
"html-keyboard-response","13","41754","0.0-5.0-1.3","63d83eafdd418ada3528719e","bdp_td","Mon Mar 27 2023 17:05:29 GMT-0400 (Eastern Daylight Time)","116876","","null","","","","FIX","","<div class='trialBorder'><div class='vertical-center'><img style='vertical-align:center; align:center' src=img/fixation3.jpg></div></div>","null","","","","","","",""
"html-keyboard-response","14","43548","0.0-5.0-2.3","63d83eafdd418ada3528719e","bdp_td","Mon Mar 27 2023 17:05:29 GMT-0400 (Eastern Daylight Time)","116876","","1793","","","","offer","","<div class='trialBorder'><div class='vertical-center'><img style='vertical-align:center; align:center' src=img/fixation3.jpg></div><div class='cl'><div class='vertical-center'>$85<br>in<br>12 weeks</div></div><div class='cr'><div class='vertical-center'>$80<br><br>now</div></div><div class='respDivL'><div class='vertical-center'>(E)</div></div><div class='respDivR'><div class='vertical-center'>(I)</div></div></div>","I","$80<br><br>now","$85<br>in<br>12 weeks","1","80","85","12","NOW"
"html-keyboard-response","15","43810","0.0-5.0-3.3","63d83eafdd418ada3528719e","bdp_td","Mon Mar 27 2023 17:05:29 GMT-0400 (Eastern Daylight Time)","116876","","null","","","","offerFB","","<div class='trialBorder'><div class='vertical-center'><img style='vertical-align:center; align:center' src=img/fixation3.jpg></div><div class='cl'><div class='vertical-center'>$85<br>in<br>12 weeks</div></div><div class='cr'><div class='vertical-center'><font style='color:orange'>$80<br><br>now</font></div></div><div class='respDivL'><div class='vertical-center'>(E)</div></div><div class='respDivR'><div class='vertical-center'><font style='color:orange'>(I)</font></div></div></div>","null","$80<br><br>now","$85<br>in<br>12 weeks","1","80","85","12",""
"html-keyboard-response","16","44323","0.0-5.0-1.4","63d83eafdd418ada3528719e","bdp_td","Mon Mar 27 2023 17:05:29 GMT-0400 (Eastern Daylight Time)","116876","","null","","","","FIX","","<div class='trialBorder'><div class='vertical-center'><img style='vertical-align:center; align:center' src=img/fixation3.jpg></div></div>","null","","","","","","",""
"html-keyboard-response","17","46251","0.0-5.0-2.4","63d83eafdd418ada3528719e","bdp_td","Mon Mar 27 2023 17:05:29 GMT-0400 (Eastern Daylight Time)","116876","","1927","","","","offer","","<div class='trialBorder'><div class='vertical-center'><img style='vertical-align:center; align:center' src=img/fixation3.jpg></div><div class='cl'><div class='vertical-center'>$25<br><br>now</div></div><div class='cr'><div class='vertical-center'>$30<br>in<br>6 weeks</div></div><div class='respDivL'><div class='vertical-center'>(E)</div></div><div class='respDivR'><div class='vertical-center'>(I)</div></div></div>","E","$25<br><br>now","$30<br>in<br>6 weeks","0","25","30","6","NOW"
"html-keyboard-response","18","46516","0.0-5.0-3.4","63d83eafdd418ada3528719e","bdp_td","Mon Mar 27 2023 17:05:29 GMT-0400 (Eastern Daylight Time)","116876","","null","","","","offerFB","","<div class='trialBorder'><div class='vertical-center'><img style='vertical-align:center; align:center' src=img/fixation3.jpg></div><div class='cl'><div class='vertical-center'><font style='color:orange'>$25<br><br>now</font></div></div><div class='cr'><div class='vertical-center'>$30<br>in<br>6 weeks</div></div><div class='respDivL'><div class='vertical-center'><font style='color:orange'>(E)</font></div></div><div class='respDivR'><div class='vertical-center'>(I)</div></div></div>","null","$25<br><br>now","$30<br>in<br>6 weeks","0","25","30","6",""
"html-keyboard-response","19","47027","0.0-5.0-1.5","63d83eafdd418ada3528719e","bdp_td","Mon Mar 27 2023 17:05:29 GMT-0400 (Eastern Daylight Time)","116876","","null","","","","FIX","","<div class='trialBorder'><div class='vertical-center'><img style='vertical-align:center; align:center' src=img/fixation3.jpg></div></div>","null","","","","","","",""
"html-keyboard-response","20","49509","0.0-5.0-2.5","63d83eafdd418ada3528719e","bdp_td","Mon Mar 27 2023 17:05:29 GMT-0400 (Eastern Daylight Time)","116876","","2481","","","","offer","","<div class='trialBorder'><div class='vertical-center'><img style='vertical-align:center; align:center' src=img/fixation3.jpg></div><div class='cl'><div class='vertical-center'>$55<br>in<br>12 weeks</div></div><div class='cr'><div class='vertical-center'>$54<br><br>now</div></div><div class='respDivL'><div class='vertical-center'>(E)</div></div><div class='respDivR'><div class='vertical-center'>(I)</div></div></div>","I","$54<br><br>now","$55<br>in<br>12 weeks","1","54","55","12","NOW"
"html-keyboard-response","21","49763","0.0-5.0-3.5","63d83eafdd418ada3528719e","bdp_td","Mon Mar 27 2023 17:05:29 GMT-0400 (Eastern Daylight Time)","116876","","null","","","","offerFB","","<div class='trialBorder'><div class='vertical-center'><img style='vertical-align:center; align:center' src=img/fixation3.jpg></div><div class='cl'><div class='vertical-center'>$55<br>in<br>12 weeks</div></div><div class='cr'><div class='vertical-center'><font style='color:orange'>$54<br><br>now</font></div></div><div class='respDivL'><div class='vertical-center'>(E)</div></div><div class='respDivR'><div class='vertical-center'><font style='color:orange'>(I)</font></div></div></div>","null","$54<br><br>now","$55<br>in<br>12 weeks","1","54","55","12",""
"html-keyboard-response","22","50276","0.0-5.0-1.6","63d83eafdd418ada3528719e","bdp_td","Mon Mar 27 2023 17:05:29 GMT-0400 (Eastern Daylight Time)","116876","","null","","","","FIX","","<div class='trialBorder'><div class='vertical-center'><img style='vertical-align:center; align:center' src=img/fixation3.jpg></div></div>","null","","","","","","",""
"html-keyboard-response","23","52228","0.0-5.0-2.6","63d83eafdd418ada3528719e","bdp_td","Mon Mar 27 2023 17:05:29 GMT-0400 (Eastern Daylight Time)","116876","","1951","","","","offer","","<div class='trialBorder'><div class='vertical-center'><img style='vertical-align:center; align:center' src=img/fixation3.jpg></div><div class='cl'><div class='vertical-center'>$49<br><br>now</div></div><div class='cr'><div class='vertical-center'>$60<br>in<br>6 weeks</div></div><div class='respDivL'><div class='vertical-center'>(E)</div></div><div class='respDivR'><div class='vertical-center'>(I)</div></div></div>","E","$49<br><br>now","$60<br>in<br>6 weeks","0","49","60","6","NOW"
"html-keyboard-response","24","52484","0.0-5.0-3.6","63d83eafdd418ada3528719e","bdp_td","Mon Mar 27 2023 17:05:29 GMT-0400 (Eastern Daylight Time)","116876","","null","","","","offerFB","","<div class='trialBorder'><div class='vertical-center'><img style='vertical-align:center; align:center' src=img/fixation3.jpg></div><div class='cl'><div class='vertical-center'><font style='color:orange'>$49<br><br>now</font></div></div><div class='cr'><div class='vertical-center'>$60<br>in<br>6 weeks</div></div><div class='respDivL'><div class='vertical-center'><font style='color:orange'>(E)</font></div></div><div class='respDivR'><div class='vertical-center'>(I)</div></div></div>","null","$49<br><br>now","$60<br>in<br>6 weeks","0","49","60","6",""
"html-keyboard-response","25","52998","0.0-5.0-1.7","63d83eafdd418ada3528719e","bdp_td","Mon Mar 27 2023 17:05:29 GMT-0400 (Eastern Daylight Time)","116876","","null","","","","FIX","","<div class='trialBorder'><div class='vertical-center'><img style='vertical-align:center; align:center' src=img/fixation3.jpg></div></div>","null","","","","","","",""
"html-keyboard-response","26","55659","0.0-5.0-2.7","63d83eafdd418ada3528719e","bdp_td","Mon Mar 27 2023 17:05:29 GMT-0400 (Eastern Daylight Time)","116876","","2659","","","","offer","","<div class='trialBorder'><div class='vertical-center'><img style='vertical-align:center; align:center' src=img/fixation3.jpg></div><div class='cl'><div class='vertical-center'>$24<br><br>now</div></div><div class='cr'><div class='vertical-center'>$35<br>in<br>3 weeks</div></div><div class='respDivL'><div class='vertical-center'>(E)</div></div><div class='respDivR'><div class='vertical-center'>(I)</div></div></div>","I","$24<br><br>now","$35<br>in<br>3 weeks","0","24","35","3","THEN"
"html-keyboard-response","27","55912","0.0-5.0-3.7","63d83eafdd418ada3528719e","bdp_td","Mon Mar 27 2023 17:05:29 GMT-0400 (Eastern Daylight Time)","116876","","null","","","","offerFB","","<div class='trialBorder'><div class='vertical-center'><img style='vertical-align:center; align:center' src=img/fixation3.jpg></div><div class='cl'><div class='vertical-center'>$24<br><br>now</div></div><div class='cr'><div class='vertical-center'><font style='color:orange'>$35<br>in<br>3 weeks</font></div></div><div class='respDivL'><div class='vertical-center'>(E)</div></div><div class='respDivR'><div class='vertical-center'><font style='color:orange'>(I)</font></div></div></div>","null","$24<br><br>now","$35<br>in<br>3 weeks","0","24","35","3",""
"html-keyboard-response","28","56422","0.0-5.0-1.8","63d83eafdd418ada3528719e","bdp_td","Mon Mar 27 2023 17:05:29 GMT-0400 (Eastern Daylight Time)","116876","","null","","","","FIX","","<div class='trialBorder'><div class='vertical-center'><img style='vertical-align:center; align:center' src=img/fixation3.jpg></div></div>","null","","","","","","",""
"html-keyboard-response","29","58827","0.0-5.0-2.8","63d83eafdd418ada3528719e","bdp_td","Mon Mar 27 2023 17:05:29 GMT-0400 (Eastern Daylight Time)","116876","","2404","","","","offer","","<div class='trialBorder'><div class='vertical-center'><img style='vertical-align:center; align:center' src=img/fixation3.jpg></div><div class='cl'><div class='vertical-center'>$50<br>in<br>6 weeks</div></div><div class='cr'><div class='vertical-center'>$34<br><br>now</div></div><div class='respDivL'><div class='vertical-center'>(E)</div></div><div class='respDivR'><div class='vertical-center'>(I)</div></div></div>","E","$34<br><br>now","$50<br>in<br>6 weeks","1","34","50","6","THEN"
"html-keyboard-response","30","59085","0.0-5.0-3.8","63d83eafdd418ada3528719e","bdp_td","Mon Mar 27 2023 17:05:29 GMT-0400 (Eastern Daylight Time)","116876","","null","","","","offerFB","","<div class='trialBorder'><div class='vertical-center'><img style='vertical-align:center; align:center' src=img/fixation3.jpg></div><div class='cl'><div class='vertical-center'><font style='color:orange'>$50<br>in<br>6 weeks</font></div></div><div class='cr'><div class='vertical-center'>$34<br><br>now</div></div><div class='respDivL'><div class='vertical-center'><font style='color:orange'>(E)</font></div></div><div class='respDivR'><div class='vertical-center'>(I)</div></div></div>","null","$34<br><br>now","$50<br>in<br>6 weeks","1","34","50","6",""
"html-keyboard-response","31","59598","0.0-5.0-1.9","63d83eafdd418ada3528719e","bdp_td","Mon Mar 27 2023 17:05:29 GMT-0400 (Eastern Daylight Time)","116876","","null","","","","FIX","","<div class='trialBorder'><div class='vertical-center'><img style='vertical-align:center; align:center' src=img/fixation3.jpg></div></div>","null","","","","","","",""
"html-keyboard-response","32","62593","0.0-5.0-2.9","63d83eafdd418ada3528719e","bdp_td","Mon Mar 27 2023 17:05:29 GMT-0400 (Eastern Daylight Time)","116876","","2994","","","","offer","","<div class='trialBorder'><div class='vertical-center'><img style='vertical-align:center; align:center' src=img/fixation3.jpg></div><div class='cl'><div class='vertical-center'>$19<br><br>now</div></div><div class='cr'><div class='vertical-center'>$25<br>in<br>6 weeks</div></div><div class='respDivL'><div class='vertical-center'>(E)</div></div><div class='respDivR'><div class='vertical-center'>(I)</div></div></div>","E","$19<br><br>now","$25<br>in<br>6 weeks","0","19","25","6","NOW"
"html-keyboard-response","33","62856","0.0-5.0-3.9","63d83eafdd418ada3528719e","bdp_td","Mon Mar 27 2023 17:05:29 GMT-0400 (Eastern Daylight Time)","116876","","null","","","","offerFB","","<div class='trialBorder'><div class='vertical-center'><img style='vertical-align:center; align:center' src=img/fixation3.jpg></div><div class='cl'><div class='vertical-center'><font style='color:orange'>$19<br><br>now</font></div></div><div class='cr'><div class='vertical-center'>$25<br>in<br>6 weeks</div></div><div class='respDivL'><div class='vertical-center'><font style='color:orange'>(E)</font></div></div><div class='respDivR'><div class='vertical-center'>(I)</div></div></div>","null","$19<br><br>now","$25<br>in<br>6 weeks","0","19","25","6",""
"html-keyboard-response","34","63361","0.0-5.0-1.10","63d83eafdd418ada3528719e","bdp_td","Mon Mar 27 2023 17:05:29 GMT-0400 (Eastern Daylight Time)","116876","","null","","","","FIX","","<div class='trialBorder'><div class='vertical-center'><img style='vertical-align:center; align:center' src=img/fixation3.jpg></div></div>","null","","","","","","",""
"html-keyboard-response","35","64976","0.0-5.0-2.10","63d83eafdd418ada3528719e","bdp_td","Mon Mar 27 2023 17:05:29 GMT-0400 (Eastern Daylight Time)","116876","","1614","","","","offer","","<div class='trialBorder'><div class='vertical-center'><img style='vertical-align:center; align:center' src=img/fixation3.jpg></div><div class='cl'><div class='vertical-center'>$54<br><br>now</div></div><div class='cr'><div class='vertical-center'>$80<br>in<br>3 weeks</div></div><div class='respDivL'><div class='vertical-center'>(E)</div></div><div class='respDivR'><div class='vertical-center'>(I)</div></div></div>","I","$54<br><br>now","$80<br>in<br>3 weeks","0","54","80","3","THEN"
"html-keyboard-response","36","65233","0.0-5.0-3.10","63d83eafdd418ada3528719e","bdp_td","Mon Mar 27 2023 17:05:29 GMT-0400 (Eastern Daylight Time)","116876","","null","","","","offerFB","","<div class='trialBorder'><div class='vertical-center'><img style='vertical-align:center; align:center' src=img/fixation3.jpg></div><div class='cl'><div class='vertical-center'>$54<br><br>now</div></div><div class='cr'><div class='vertical-center'><font style='color:orange'>$80<br>in<br>3 weeks</font></div></div><div class='respDivL'><div class='vertical-center'>(E)</div></div><div class='respDivR'><div class='vertical-center'><font style='color:orange'>(I)</font></div></div></div>","null","$54<br><br>now","$80<br>in<br>3 weeks","0","54","80","3",""
"html-keyboard-response","37","65747","0.0-5.0-1.11","63d83eafdd418ada3528719e","bdp_td","Mon Mar 27 2023 17:05:29 GMT-0400 (Eastern Daylight Time)","116876","","null","","","","FIX","","<div class='trialBorder'><div class='vertical-center'><img style='vertical-align:center; align:center' src=img/fixation3.jpg></div></div>","null","","","","","","",""
"html-keyboard-response","38","68237","0.0-5.0-2.11","63d83eafdd418ada3528719e","bdp_td","Mon Mar 27 2023 17:05:29 GMT-0400 (Eastern Daylight Time)","116876","","2489","","","","offer","","<div class='trialBorder'><div class='vertical-center'><img style='vertical-align:center; align:center' src=img/fixation3.jpg></div><div class='cl'><div class='vertical-center'>$75<br>in<br>6 weeks</div></div><div class='cr'><div class='vertical-center'>$55<br><br>now</div></div><div class='respDivL'><div class='vertical-center'>(E)</div></div><div class='respDivR'><div class='vertical-center'>(I)</div></div></div>","E","$55<br><br>now","$75<br>in<br>6 weeks","1","55","75","6","THEN"
"html-keyboard-response","39","68493","0.0-5.0-3.11","63d83eafdd418ada3528719e","bdp_td","Mon Mar 27 2023 17:05:29 GMT-0400 (Eastern Daylight Time)","116876","","null","","","","offerFB","","<div class='trialBorder'><div class='vertical-center'><img style='vertical-align:center; align:center' src=img/fixation3.jpg></div><div class='cl'><div class='vertical-center'><font style='color:orange'>$75<br>in<br>6 weeks</font></div></div><div class='cr'><div class='vertical-center'>$55<br><br>now</div></div><div class='respDivL'><div class='vertical-center'><font style='color:orange'>(E)</font></div></div><div class='respDivR'><div class='vertical-center'>(I)</div></div></div>","null","$55<br><br>now","$75<br>in<br>6 weeks","1","55","75","6",""
"html-keyboard-response","40","69005","0.0-5.0-1.12","63d83eafdd418ada3528719e","bdp_td","Mon Mar 27 2023 17:05:29 GMT-0400 (Eastern Daylight Time)","116876","","null","","","","FIX","","<div class='trialBorder'><div class='vertical-center'><img style='vertical-align:center; align:center' src=img/fixation3.jpg></div></div>","null","","","","","","",""
"html-keyboard-response","41","70575","0.0-5.0-2.12","63d83eafdd418ada3528719e","bdp_td","Mon Mar 27 2023 17:05:29 GMT-0400 (Eastern Daylight Time)","116876","","1569","","","","offer","","<div class='trialBorder'><div class='vertical-center'><img style='vertical-align:center; align:center' src=img/fixation3.jpg></div><div class='cl'><div class='vertical-center'>$27<br><br>now</div></div><div class='cr'><div class='vertical-center'>$50<br>in<br>3 weeks</div></div><div class='respDivL'><div class='vertical-center'>(E)</div></div><div class='respDivR'><div class='vertical-center'>(I)</div></div></div>","I","$27<br><br>now","$50<br>in<br>3 weeks","0","27","50","3","THEN"
"html-keyboard-response","42","70830","0.0-5.0-3.12","63d83eafdd418ada3528719e","bdp_td","Mon Mar 27 2023 17:05:29 GMT-0400 (Eastern Daylight Time)","116876","","null","","","","offerFB","","<div class='trialBorder'><div class='vertical-center'><img style='vertical-align:center; align:center' src=img/fixation3.jpg></div><div class='cl'><div class='vertical-center'>$27<br><br>now</div></div><div class='cr'><div class='vertical-center'><font style='color:orange'>$50<br>in<br>3 weeks</font></div></div><div class='respDivL'><div class='vertical-center'>(E)</div></div><div class='respDivR'><div class='vertical-center'><font style='color:orange'>(I)</font></div></div></div>","null","$27<br><br>now","$50<br>in<br>3 weeks","0","27","50","3",""
"html-keyboard-response","43","71346","0.0-5.0-1.13","63d83eafdd418ada3528719e","bdp_td","Mon Mar 27 2023 17:05:29 GMT-0400 (Eastern Daylight Time)","116876","","null","","","","FIX","","<div class='trialBorder'><div class='vertical-center'><img style='vertical-align:center; align:center' src=img/fixation3.jpg></div></div>","null","","","","","","",""
"html-keyboard-response","44","73325","0.0-5.0-2.13","63d83eafdd418ada3528719e","bdp_td","Mon Mar 27 2023 17:05:29 GMT-0400 (Eastern Daylight Time)","116876","","1978","","","","offer","","<div class='trialBorder'><div class='vertical-center'><img style='vertical-align:center; align:center' src=img/fixation3.jpg></div><div class='cl'><div class='vertical-center'>$15<br><br>now</div></div><div class='cr'><div class='vertical-center'>$35<br>in<br>2 weeks</div></div><div class='respDivL'><div class='vertical-center'>(E)</div></div><div class='respDivR'><div class='vertical-center'>(I)</div></div></div>","I","$15<br><br>now","$35<br>in<br>2 weeks","0","15","35","2","THEN"
"html-keyboard-response","45","73585","0.0-5.0-3.13","63d83eafdd418ada3528719e","bdp_td","Mon Mar 27 2023 17:05:29 GMT-0400 (Eastern Daylight Time)","116876","","null","","","","offerFB","","<div class='trialBorder'><div class='vertical-center'><img style='vertical-align:center; align:center' src=img/fixation3.jpg></div><div class='cl'><div class='vertical-center'>$15<br><br>now</div></div><div class='cr'><div class='vertical-center'><font style='color:orange'>$35<br>in<br>2 weeks</font></div></div><div class='respDivL'><div class='vertical-center'>(E)</div></div><div class='respDivR'><div class='vertical-center'><font style='color:orange'>(I)</font></div></div></div>","null","$15<br><br>now","$35<br>in<br>2 weeks","0","15","35","2",""
"html-keyboard-response","46","74095","0.0-5.0-1.14","63d83eafdd418ada3528719e","bdp_td","Mon Mar 27 2023 17:05:29 GMT-0400 (Eastern Daylight Time)","116876","","null","","","","FIX","","<div class='trialBorder'><div class='vertical-center'><img style='vertical-align:center; align:center' src=img/fixation3.jpg></div></div>","null","","","","","","",""
"html-keyboard-response","47","75557","0.0-5.0-2.14","63d83eafdd418ada3528719e","bdp_td","Mon Mar 27 2023 17:05:29 GMT-0400 (Eastern Daylight Time)","116876","","1461","","","","offer","","<div class='trialBorder'><div class='vertical-center'><img style='vertical-align:center; align:center' src=img/fixation3.jpg></div><div class='cl'><div class='vertical-center'>$30<br>in<br>2 weeks</div></div><div class='cr'><div class='vertical-center'>$11<br><br>now</div></div><div class='respDivL'><div class='vertical-center'>(E)</div></div><div class='respDivR'><div class='vertical-center'>(I)</div></div></div>","E","$11<br><br>now","$30<br>in<br>2 weeks","1","11","30","2","THEN"
"html-keyboard-response","48","75823","0.0-5.0-3.14","63d83eafdd418ada3528719e","bdp_td","Mon Mar 27 2023 17:05:29 GMT-0400 (Eastern Daylight Time)","116876","","null","","","","offerFB","","<div class='trialBorder'><div class='vertical-center'><img style='vertical-align:center; align:center' src=img/fixation3.jpg></div><div class='cl'><div class='vertical-center'><font style='color:orange'>$30<br>in<br>2 weeks</font></div></div><div class='cr'><div class='vertical-center'>$11<br><br>now</div></div><div class='respDivL'><div class='vertical-center'><font style='color:orange'>(E)</font></div></div><div class='respDivR'><div class='vertical-center'>(I)</div></div></div>","null","$11<br><br>now","$30<br>in<br>2 weeks","1","11","30","2",""
"html-keyboard-response","49","76336","0.0-5.0-1.15","63d83eafdd418ada3528719e","bdp_td","Mon Mar 27 2023 17:05:29 GMT-0400 (Eastern Daylight Time)","116876","","null","","","","FIX","","<div class='trialBorder'><div class='vertical-center'><img style='vertical-align:center; align:center' src=img/fixation3.jpg></div></div>","null","","","","","","",""
"html-keyboard-response","50","78532","0.0-5.0-2.15","63d83eafdd418ada3528719e","bdp_td","Mon Mar 27 2023 17:05:29 GMT-0400 (Eastern Daylight Time)","116876","","2195","","","","offer","","<div class='trialBorder'><div class='vertical-center'><img style='vertical-align:center; align:center' src=img/fixation3.jpg></div><div class='cl'><div class='vertical-center'>$25<br>in<br>12 weeks</div></div><div class='cr'><div class='vertical-center'>$22<br><br>now</div></div><div class='respDivL'><div class='vertical-center'>(E)</div></div><div class='respDivR'><div class='vertical-center'>(I)</div></div></div>","I","$22<br><br>now","$25<br>in<br>12 weeks","1","22","25","12","NOW"
"html-keyboard-response","51","78799","0.0-5.0-3.15","63d83eafdd418ada3528719e","bdp_td","Mon Mar 27 2023 17:05:29 GMT-0400 (Eastern Daylight Time)","116876","","null","","","","offerFB","","<div class='trialBorder'><div class='vertical-center'><img style='vertical-align:center; align:center' src=img/fixation3.jpg></div><div class='cl'><div class='vertical-center'>$25<br>in<br>12 weeks</div></div><div class='cr'><div class='vertical-center'><font style='color:orange'>$22<br><br>now</font></div></div><div class='respDivL'><div class='vertical-center'>(E)</div></div><div class='respDivR'><div class='vertical-center'><font style='color:orange'>(I)</font></div></div></div>","null","$22<br><br>now","$25<br>in<br>12 weeks","1","22","25","12",""
"html-keyboard-response","52","79313","0.0-5.0-1.16","63d83eafdd418ada3528719e","bdp_td","Mon Mar 27 2023 17:05:29 GMT-0400 (Eastern Daylight Time)","116876","","null","","","","FIX","","<div class='trialBorder'><div class='vertical-center'><img style='vertical-align:center; align:center' src=img/fixation3.jpg></div></div>","null","","","","","","",""
"html-keyboard-response","53","81442","0.0-5.0-2.16","63d83eafdd418ada3528719e","bdp_td","Mon Mar 27 2023 17:05:29 GMT-0400 (Eastern Daylight Time)","116876","","2128","","","","offer","","<div class='trialBorder'><div class='vertical-center'><img style='vertical-align:center; align:center' src=img/fixation3.jpg></div><div class='cl'><div class='vertical-center'>$35<br>in<br>12 weeks</div></div><div class='cr'><div class='vertical-center'>$34<br><br>now</div></div><div class='respDivL'><div class='vertical-center'>(E)</div></div><div class='respDivR'><div class='vertical-center'>(I)</div></div></div>","I","$34<br><br>now","$35<br>in<br>12 weeks","1","34","35","12","NOW"
"html-keyboard-response","54","81703","0.0-5.0-3.16","63d83eafdd418ada3528719e","bdp_td","Mon Mar 27 2023 17:05:29 GMT-0400 (Eastern Daylight Time)","116876","","null","","","","offerFB","","<div class='trialBorder'><div class='vertical-center'><img style='vertical-align:center; align:center' src=img/fixation3.jpg></div><div class='cl'><div class='vertical-center'>$35<br>in<br>12 weeks</div></div><div class='cr'><div class='vertical-center'><font style='color:orange'>$34<br><br>now</font></div></div><div class='respDivL'><div class='vertical-center'>(E)</div></div><div class='respDivR'><div class='vertical-center'><font style='color:orange'>(I)</font></div></div></div>","null","$34<br><br>now","$35<br>in<br>12 weeks","1","34","35","12",""
"html-keyboard-response","55","82216","0.0-5.0-1.17","63d83eafdd418ada3528719e","bdp_td","Mon Mar 27 2023 17:05:29 GMT-0400 (Eastern Daylight Time)","116876","","null","","","","FIX","","<div class='trialBorder'><div class='vertical-center'><img style='vertical-align:center; align:center' src=img/fixation3.jpg></div></div>","null","","","","","","",""
"html-keyboard-response","56","84580","0.0-5.0-2.17","63d83eafdd418ada3528719e","bdp_td","Mon Mar 27 2023 17:05:29 GMT-0400 (Eastern Daylight Time)","116876","","2363","","","","offer","","<div class='trialBorder'><div class='vertical-center'><img style='vertical-align:center; align:center' src=img/fixation3.jpg></div><div class='cl'><div class='vertical-center'>$41<br><br>now</div></div><div class='cr'><div class='vertical-center'>$75<br>in<br>3 weeks</div></div><div class='respDivL'><div class='vertical-center'>(E)</div></div><div class='respDivR'><div class='vertical-center'>(I)</div></div></div>","I","$41<br><br>now","$75<br>in<br>3 weeks","0","41","75","3","THEN"
"html-keyboard-response","57","84841","0.0-5.0-3.17","63d83eafdd418ada3528719e","bdp_td","Mon Mar 27 2023 17:05:29 GMT-0400 (Eastern Daylight Time)","116876","","null","","","","offerFB","","<div class='trialBorder'><div class='vertical-center'><img style='vertical-align:center; align:center' src=img/fixation3.jpg></div><div class='cl'><div class='vertical-center'>$41<br><br>now</div></div><div class='cr'><div class='vertical-center'><font style='color:orange'>$75<br>in<br>3 weeks</font></div></div><div class='respDivL'><div class='vertical-center'>(E)</div></div><div class='respDivR'><div class='vertical-center'><font style='color:orange'>(I)</font></div></div></div>","null","$41<br><br>now","$75<br>in<br>3 weeks","0","41","75","3",""
"html-keyboard-response","58","85352","0.0-5.0-1.18","63d83eafdd418ada3528719e","bdp_td","Mon Mar 27 2023 17:05:29 GMT-0400 (Eastern Daylight Time)","116876","","null","","","","FIX","","<div class='trialBorder'><div class='vertical-center'><img style='vertical-align:center; align:center' src=img/fixation3.jpg></div></div>","null","","","","","","",""
"html-keyboard-response","59","87455","0.0-5.0-2.18","63d83eafdd418ada3528719e","bdp_td","Mon Mar 27 2023 17:05:29 GMT-0400 (Eastern Daylight Time)","116876","","2101","","","","offer","","<div class='trialBorder'><div class='vertical-center'><img style='vertical-align:center; align:center' src=img/fixation3.jpg></div><div class='cl'><div class='vertical-center'>$25<br>in<br>3 weeks</div></div><div class='cr'><div class='vertical-center'>$14<br><br>now</div></div><div class='respDivL'><div class='vertical-center'>(E)</div></div><div class='respDivR'><div class='vertical-center'>(I)</div></div></div>","E","$14<br><br>now","$25<br>in<br>3 weeks","1","14","25","3","THEN"
"html-keyboard-response","60","87717","0.0-5.0-3.18","63d83eafdd418ada3528719e","bdp_td","Mon Mar 27 2023 17:05:29 GMT-0400 (Eastern Daylight Time)","116876","","null","","","","offerFB","","<div class='trialBorder'><div class='vertical-center'><img style='vertical-align:center; align:center' src=img/fixation3.jpg></div><div class='cl'><div class='vertical-center'><font style='color:orange'>$25<br>in<br>3 weeks</font></div></div><div class='cr'><div class='vertical-center'>$14<br><br>now</div></div><div class='respDivL'><div class='vertical-center'><font style='color:orange'>(E)</font></div></div><div class='respDivR'><div class='vertical-center'>(I)</div></div></div>","null","$14<br><br>now","$25<br>in<br>3 weeks","1","14","25","3",""
"html-keyboard-response","61","88232","0.0-5.0-1.19","63d83eafdd418ada3528719e","bdp_td","Mon Mar 27 2023 17:05:29 GMT-0400 (Eastern Daylight Time)","116876","","null","","","","FIX","","<div class='trialBorder'><div class='vertical-center'><img style='vertical-align:center; align:center' src=img/fixation3.jpg></div></div>","null","","","","","","",""
"html-keyboard-response","62","90822","0.0-5.0-2.19","63d83eafdd418ada3528719e","bdp_td","Mon Mar 27 2023 17:05:29 GMT-0400 (Eastern Daylight Time)","116876","","2588","","","","offer","","<div class='trialBorder'><div class='vertical-center'><img style='vertical-align:center; align:center' src=img/fixation3.jpg></div><div class='cl'><div class='vertical-center'>$28<br><br>now</div></div><div class='cr'><div class='vertical-center'>$30<br>in<br>12 weeks</div></div><div class='respDivL'><div class='vertical-center'>(E)</div></div><div class='respDivR'><div class='vertical-center'>(I)</div></div></div>","E","$28<br><br>now","$30<br>in<br>12 weeks","0","28","30","12","NOW"
"html-keyboard-response","63","91077","0.0-5.0-3.19","63d83eafdd418ada3528719e","bdp_td","Mon Mar 27 2023 17:05:29 GMT-0400 (Eastern Daylight Time)","116876","","null","","","","offerFB","","<div class='trialBorder'><div class='vertical-center'><img style='vertical-align:center; align:center' src=img/fixation3.jpg></div><div class='cl'><div class='vertical-center'><font style='color:orange'>$28<br><br>now</font></div></div><div class='cr'><div class='vertical-center'>$30<br>in<br>12 weeks</div></div><div class='respDivL'><div class='vertical-center'><font style='color:orange'>(E)</font></div></div><div class='respDivR'><div class='vertical-center'>(I)</div></div></div>","null","$28<br><br>now","$30<br>in<br>12 weeks","0","28","30","12",""
"html-keyboard-response","64","91593","0.0-5.0-1.20","63d83eafdd418ada3528719e","bdp_td","Mon Mar 27 2023 17:05:29 GMT-0400 (Eastern Daylight Time)","116876","","null","","","","FIX","","<div class='trialBorder'><div class='vertical-center'><img style='vertical-align:center; align:center' src=img/fixation3.jpg></div></div>","null","","","","","","",""
"html-keyboard-response","65","93581","0.0-5.0-2.20","63d83eafdd418ada3528719e","bdp_td","Mon Mar 27 2023 17:05:29 GMT-0400 (Eastern Daylight Time)","116876","","1987","","","","offer","","<div class='trialBorder'><div class='vertical-center'><img style='vertical-align:center; align:center' src=img/fixation3.jpg></div><div class='cl'><div class='vertical-center'>$25<br><br>now</div></div><div class='cr'><div class='vertical-center'>$60<br>in<br>3 weeks</div></div><div class='respDivL'><div class='vertical-center'>(E)</div></div><div class='respDivR'><div class='vertical-center'>(I)</div></div></div>","I","$25<br><br>now","$60<br>in<br>3 weeks","0","25","60","3","THEN"
"html-keyboard-response","66","93834","0.0-5.0-3.20","63d83eafdd418ada3528719e","bdp_td","Mon Mar 27 2023 17:05:29 GMT-0400 (Eastern Daylight Time)","116876","","null","","","","offerFB","","<div class='trialBorder'><div class='vertical-center'><img style='vertical-align:center; align:center' src=img/fixation3.jpg></div><div class='cl'><div class='vertical-center'>$25<br><br>now</div></div><div class='cr'><div class='vertical-center'><font style='color:orange'>$60<br>in<br>3 weeks</font></div></div><div class='respDivL'><div class='vertical-center'>(E)</div></div><div class='respDivR'><div class='vertical-center'><font style='color:orange'>(I)</font></div></div></div>","null","$25<br><br>now","$60<br>in<br>3 weeks","0","25","60","3",""
"html-keyboard-response","67","94346","0.0-5.0-1.21","63d83eafdd418ada3528719e","bdp_td","Mon Mar 27 2023 17:05:29 GMT-0400 (Eastern Daylight Time)","116876","","null","","","","FIX","","<div class='trialBorder'><div class='vertical-center'><img style='vertical-align:center; align:center' src=img/fixation3.jpg></div></div>","null","","","","","","",""
"html-keyboard-response","68","99570","0.0-5.0-2.21","63d83eafdd418ada3528719e","bdp_td","Mon Mar 27 2023 17:05:29 GMT-0400 (Eastern Daylight Time)","116876","","5222","","","","offer","","<div class='trialBorder'><div class='vertical-center'><img style='vertical-align:center; align:center' src=img/fixation3.jpg></div><div class='cl'><div class='vertical-center'>$40<br><br>now</div></div><div class='cr'><div class='vertical-center'>$55<br>in<br>6 weeks</div></div><div class='respDivL'><div class='vertical-center'>(E)</div></div><div class='respDivR'><div class='vertical-center'>(I)</div></div></div>","E","$40<br><br>now","$55<br>in<br>6 weeks","0","40","55","6","NOW"
"html-keyboard-response","69","99833","0.0-5.0-3.21","63d83eafdd418ada3528719e","bdp_td","Mon Mar 27 2023 17:05:29 GMT-0400 (Eastern Daylight Time)","116876","","null","","","","offerFB","","<div class='trialBorder'><div class='vertical-center'><img style='vertical-align:center; align:center' src=img/fixation3.jpg></div><div class='cl'><div class='vertical-center'><font style='color:orange'>$40<br><br>now</font></div></div><div class='cr'><div class='vertical-center'>$55<br>in<br>6 weeks</div></div><div class='respDivL'><div class='vertical-center'><font style='color:orange'>(E)</font></div></div><div class='respDivR'><div class='vertical-center'>(I)</div></div></div>","null","$40<br><br>now","$55<br>in<br>6 weeks","0","40","55","6",""
"html-keyboard-response","70","100348","0.0-5.0-1.22","63d83eafdd418ada3528719e","bdp_td","Mon Mar 27 2023 17:05:29 GMT-0400 (Eastern Daylight Time)","116876","","null","","","","FIX","","<div class='trialBorder'><div class='vertical-center'><img style='vertical-align:center; align:center' src=img/fixation3.jpg></div></div>","null","","","","","","",""
"html-keyboard-response","71","104404","0.0-5.0-2.22","63d83eafdd418ada3528719e","bdp_td","Mon Mar 27 2023 17:05:29 GMT-0400 (Eastern Daylight Time)","116876","","4054","","","","offer","","<div class='trialBorder'><div class='vertical-center'><img style='vertical-align:center; align:center' src=img/fixation3.jpg></div><div class='cl'><div class='vertical-center'>$85<br>in<br>6 weeks</div></div><div class='cr'><div class='vertical-center'>$69<br><br>now</div></div><div class='respDivL'><div class='vertical-center'>(E)</div></div><div class='respDivR'><div class='vertical-center'>(I)</div></div></div>","I","$69<br><br>now","$85<br>in<br>6 weeks","1","69","85","6","NOW"
"html-keyboard-response","72","104668","0.0-5.0-3.22","63d83eafdd418ada3528719e","bdp_td","Mon Mar 27 2023 17:05:29 GMT-0400 (Eastern Daylight Time)","116876","","null","","","","offerFB","","<div class='trialBorder'><div class='vertical-center'><img style='vertical-align:center; align:center' src=img/fixation3.jpg></div><div class='cl'><div class='vertical-center'>$85<br>in<br>6 weeks</div></div><div class='cr'><div class='vertical-center'><font style='color:orange'>$69<br><br>now</font></div></div><div class='respDivL'><div class='vertical-center'>(E)</div></div><div class='respDivR'><div class='vertical-center'><font style='color:orange'>(I)</font></div></div></div>","null","$69<br><br>now","$85<br>in<br>6 weeks","1","69","85","6",""
"html-keyboard-response","73","105183","0.0-5.0-1.23","63d83eafdd418ada3528719e","bdp_td","Mon Mar 27 2023 17:05:29 GMT-0400 (Eastern Daylight Time)","116876","","null","","","","FIX","","<div class='trialBorder'><div class='vertical-center'><img style='vertical-align:center; align:center' src=img/fixation3.jpg></div></div>","null","","","","","","",""
"html-keyboard-response","74","107136","0.0-5.0-2.23","63d83eafdd418ada3528719e","bdp_td","Mon Mar 27 2023 17:05:29 GMT-0400 (Eastern Daylight Time)","116876","","1951","","","","offer","","<div class='trialBorder'><div class='vertical-center'><img style='vertical-align:center; align:center' src=img/fixation3.jpg></div><div class='cl'><div class='vertical-center'>$80<br>in<br>2 weeks</div></div><div class='cr'><div class='vertical-center'>$33<br><br>now</div></div><div class='respDivL'><div class='vertical-center'>(E)</div></div><div class='respDivR'><div class='vertical-center'>(I)</div></div></div>","E","$33<br><br>now","$80<br>in<br>2 weeks","1","33","80","2","THEN"
"html-keyboard-response","75","107391","0.0-5.0-3.23","63d83eafdd418ada3528719e","bdp_td","Mon Mar 27 2023 17:05:29 GMT-0400 (Eastern Daylight Time)","116876","","null","","","","offerFB","","<div class='trialBorder'><div class='vertical-center'><img style='vertical-align:center; align:center' src=img/fixation3.jpg></div><div class='cl'><div class='vertical-center'><font style='color:orange'>$80<br>in<br>2 weeks</font></div></div><div class='cr'><div class='vertical-center'>$33<br><br>now</div></div><div class='respDivL'><div class='vertical-center'><font style='color:orange'>(E)</font></div></div><div class='respDivR'><div class='vertical-center'>(I)</div></div></div>","null","$33<br><br>now","$80<br>in<br>2 weeks","1","33","80","2",""
"html-keyboard-response","76","107905","0.0-5.0-1.24","63d83eafdd418ada3528719e","bdp_td","Mon Mar 27 2023 17:05:29 GMT-0400 (Eastern Daylight Time)","116876","","null","","","","FIX","","<div class='trialBorder'><div class='vertical-center'><img style='vertical-align:center; align:center' src=img/fixation3.jpg></div></div>","null","","","","","","",""
"html-keyboard-response","77","110229","0.0-5.0-2.24","63d83eafdd418ada3528719e","bdp_td","Mon Mar 27 2023 17:05:29 GMT-0400 (Eastern Daylight Time)","116876","","2323","","","","offer","","<div class='trialBorder'><div class='vertical-center'><img style='vertical-align:center; align:center' src=img/fixation3.jpg></div><div class='cl'><div class='vertical-center'>$47<br><br>now</div></div><div class='cr'><div class='vertical-center'>$50<br>in<br>12 weeks</div></div><div class='respDivL'><div class='vertical-center'>(E)</div></div><div class='respDivR'><div class='vertical-center'>(I)</div></div></div>","E","$47<br><br>now","$50<br>in<br>12 weeks","0","47","50","12","NOW"
"html-keyboard-response","78","110492","0.0-5.0-3.24","63d83eafdd418ada3528719e","bdp_td","Mon Mar 27 2023 17:05:29 GMT-0400 (Eastern Daylight Time)","116876","","null","","","","offerFB","","<div class='trialBorder'><div class='vertical-center'><img style='vertical-align:center; align:center' src=img/fixation3.jpg></div><div class='cl'><div class='vertical-center'><font style='color:orange'>$47<br><br>now</font></div></div><div class='cr'><div class='vertical-center'>$50<br>in<br>12 weeks</div></div><div class='respDivL'><div class='vertical-center'><font style='color:orange'>(E)</font></div></div><div class='respDivR'><div class='vertical-center'>(I)</div></div></div>","null","$47<br><br>now","$50<br>in<br>12 weeks","0","47","50","12",""
"html-keyboard-response","79","111003","0.0-5.0-1.25","63d83eafdd418ada3528719e","bdp_td","Mon Mar 27 2023 17:05:29 GMT-0400 (Eastern Daylight Time)","116876","","null","","","","FIX","","<div class='trialBorder'><div class='vertical-center'><img style='vertical-align:center; align:center' src=img/fixation3.jpg></div></div>","null","","","","","","",""
"html-keyboard-response","80","113041","0.0-5.0-2.25","63d83eafdd418ada3528719e","bdp_td","Mon Mar 27 2023 17:05:29 GMT-0400 (Eastern Daylight Time)","116876","","2037","","","","offer","","<div class='trialBorder'><div class='vertical-center'><img style='vertical-align:center; align:center' src=img/fixation3.jpg></div><div class='cl'><div class='vertical-center'>$55<br>in<br>1 week</div></div><div class='cr'><div class='vertical-center'>$20<br><br>now</div></div><div class='respDivL'><div class='vertical-center'>(E)</div></div><div class='respDivR'><div class='vertical-center'>(I)</div></div></div>","E","$20<br><br>now","$55<br>in<br>1 week","1","20","55","1","THEN"
"html-keyboard-response","81","113303","0.0-5.0-3.25","63d83eafdd418ada3528719e","bdp_td","Mon Mar 27 2023 17:05:29 GMT-0400 (Eastern Daylight Time)","116876","","null","","","","offerFB","","<div class='trialBorder'><div class='vertical-center'><img style='vertical-align:center; align:center' src=img/fixation3.jpg></div><div class='cl'><div class='vertical-center'><font style='color:orange'>$55<br>in<br>1 week</font></div></div><div class='cr'><div class='vertical-center'>$20<br><br>now</div></div><div class='respDivL'><div class='vertical-center'><font style='color:orange'>(E)</font></div></div><div class='respDivR'><div class='vertical-center'>(I)</div></div></div>","null","$20<br><br>now","$55<br>in<br>1 week","1","20","55","1",""
"html-keyboard-response","82","113815","0.0-5.0-1.26","63d83eafdd418ada3528719e","bdp_td","Mon Mar 27 2023 17:05:29 GMT-0400 (Eastern Daylight Time)","116876","","null","","","","FIX","","<div class='trialBorder'><div class='vertical-center'><img style='vertical-align:center; align:center' src=img/fixation3.jpg></div></div>","null","","","","","","",""
"html-keyboard-response","83","115604","0.0-5.0-2.26","63d83eafdd418ada3528719e","bdp_td","Mon Mar 27 2023 17:05:29 GMT-0400 (Eastern Daylight Time)","116876","","1787","","","","offer","","<div class='trialBorder'><div class='vertical-center'><img style='vertical-align:center; align:center' src=img/fixation3.jpg></div><div class='cl'><div class='vertical-center'>$85<br>in<br>1 week</div></div><div class='cr'><div class='vertical-center'>$31<br><br>now</div></div><div class='respDivL'><div class='vertical-center'>(E)</div></div><div class='respDivR'><div class='vertical-center'>(I)</div></div></div>","E","$31<br><br>now","$85<br>in<br>1 week","1","31","85","1","THEN"
"html-keyboard-response","84","115865","0.0-5.0-3.26","63d83eafdd418ada3528719e","bdp_td","Mon Mar 27 2023 17:05:29 GMT-0400 (Eastern Daylight Time)","116876","","null","","","","offerFB","","<div class='trialBorder'><div class='vertical-center'><img style='vertical-align:center; align:center' src=img/fixation3.jpg></div><div class='cl'><div class='vertical-center'><font style='color:orange'>$85<br>in<br>1 week</font></div></div><div class='cr'><div class='vertical-center'>$31<br><br>now</div></div><div class='respDivL'><div class='vertical-center'><font style='color:orange'>(E)</font></div></div><div class='respDivR'><div class='vertical-center'>(I)</div></div></div>","null","$31<br><br>now","$85<br>in<br>1 week","1","31","85","1",""
"","","","","63d83eafdd418ada3528719e","bdp_td","Mon Mar 27 2023 17:05:29 GMT-0400 (Eastern Daylight Time)","116876","","","fullscreenexit","85","115878","fullscreenexit","","","","","","","","","",""
"fullscreen","85","116875","0.0-6.0","63d83eafdd418ada3528719e","bdp_td","Mon Mar 27 2023 17:05:29 GMT-0400 (Eastern Daylight Time)","116876","","","","","","","true","","","","","","","","",""
"html-keyboard-response","86","117389","0.0-7.0","","","","","","null","","","","","","","null","","","","","","",""
