"trial_type","trial_index","time_elapsed","internal_node_id","subject_id","task","startTime","totalTime","view_history","rt","event","trial","time","trialtype","success","stimulus","key_press","nowOffer","thenOffer","thenLeft","nowAmt","thenAmt","thenWeeks","chosen"
"pavlovia","0","12","0.0-0.0","63f77d4f671167ec16eee15c","bdp_td","Mon Mar 27 2023 17:29:04 GMT-0500 (Central Daylight Time)","129070","","","","","","","","","","","","","","","",""
"instructions","1","3554","0.0-1.0","63f77d4f671167ec16eee15c","bdp_td","Mon Mar 27 2023 17:29:04 GMT-0500 (Central Daylight Time)","129070","[{""page_index"":0,""viewing_time"":3540}]","3540","","","","","","","","","","","","","",""
"","","","","63f77d4f671167ec16eee15c","bdp_td","Mon Mar 27 2023 17:29:04 GMT-0500 (Central Daylight Time)","129070","","","fullscreenenter","2","6080","fullscreenenter","","","","","","","","","",""
"fullscreen","2","7078","0.0-2.0","63f77d4f671167ec16eee15c","bdp_td","Mon Mar 27 2023 17:29:04 GMT-0500 (Central Daylight Time)","129070","","","","","","","true","","","","","","","","",""
"instructions","3","39829","0.0-4.0","63f77d4f671167ec16eee15c","bdp_td","Mon Mar 27 2023 17:29:04 GMT-0500 (Central Daylight Time)","129070","[{""page_index"":0,""viewing_time"":7901},{""page_index"":1,""viewing_time"":19819},{""page_index"":2,""viewing_time"":5028}]","32748","","","","","","","","","","","","","",""
"html-keyboard-response","4","40346","0.0-5.0-1.0","63f77d4f671167ec16eee15c","bdp_td","Mon Mar 27 2023 17:29:04 GMT-0500 (Central Daylight Time)","129070","","null","","","","FIX","","<div class='trialBorder'><div class='vertical-center'><img style='vertical-align:center; align:center' src=img/fixation3.jpg></div></div>","null","","","","","","",""
"html-keyboard-response","5","43862","0.0-5.0-2.0","63f77d4f671167ec16eee15c","bdp_td","Mon Mar 27 2023 17:29:04 GMT-0500 (Central Daylight Time)","129070","","3513","","","","offer","","<div class='trialBorder'><div class='vertical-center'><img style='vertical-align:center; align:center' src=img/fixation3.jpg></div><div class='cl'><div class='vertical-center'>$34<br><br>now</div></div><div class='cr'><div class='vertical-center'>$35<br>in<br>12 weeks</div></div><div class='respDivL'><div class='vertical-center'>(E)</div></div><div class='respDivR'><div class='vertical-center'>(I)</div></div></div>","E","$34<br><br>now","$35<br>in<br>12 weeks","0","34","35","12","NOW"
"html-keyboard-response","6","44124","0.0-5.0-3.0","63f77d4f671167ec16eee15c","bdp_td","Mon Mar 27 2023 17:29:04 GMT-0500 (Central Daylight Time)","129070","","null","","","","offerFB","","<div class='trialBorder'><div class='vertical-center'><img style='vertical-align:center; align:center' src=img/fixation3.jpg></div><div class='cl'><div class='vertical-center'><font style='color:orange'>$34<br><br>now</font></div></div><div class='cr'><div class='vertical-center'>$35<br>in<br>12 weeks</div></div><div class='respDivL'><div class='vertical-center'><font style='color:orange'>(E)</font></div></div><div class='respDivR'><div class='vertical-center'>(I)</div></div></div>","null","$34<br><br>now","$35<br>in<br>12 weeks","0","34","35","12",""
"html-keyboard-response","7","44632","0.0-5.0-1.1","63f77d4f671167ec16eee15c","bdp_td","Mon Mar 27 2023 17:29:04 GMT-0500 (Central Daylight Time)","129070","","null","","","","FIX","","<div class='trialBorder'><div class='vertical-center'><img style='vertical-align:center; align:center' src=img/fixation3.jpg></div></div>","null","","","","","","",""
"html-keyboard-response","8","47194","0.0-5.0-2.1","63f77d4f671167ec16eee15c","bdp_td","Mon Mar 27 2023 17:29:04 GMT-0500 (Central Daylight Time)","129070","","2559","","","","offer","","<div class='trialBorder'><div class='vertical-center'><img style='vertical-align:center; align:center' src=img/fixation3.jpg></div><div class='cl'><div class='vertical-center'>$55<br>in<br>1 week</div></div><div class='cr'><div class='vertical-center'>$20<br><br>now</div></div><div class='respDivL'><div class='vertical-center'>(E)</div></div><div class='respDivR'><div class='vertical-center'>(I)</div></div></div>","E","$20<br><br>now","$55<br>in<br>1 week","1","20","55","1","THEN"
"html-keyboard-response","9","47450","0.0-5.0-3.1","63f77d4f671167ec16eee15c","bdp_td","Mon Mar 27 2023 17:29:04 GMT-0500 (Central Daylight Time)","129070","","null","","","","offerFB","","<div class='trialBorder'><div class='vertical-center'><img style='vertical-align:center; align:center' src=img/fixation3.jpg></div><div class='cl'><div class='vertical-center'><font style='color:orange'>$55<br>in<br>1 week</font></div></div><div class='cr'><div class='vertical-center'>$20<br><br>now</div></div><div class='respDivL'><div class='vertical-center'><font style='color:orange'>(E)</font></div></div><div class='respDivR'><div class='vertical-center'>(I)</div></div></div>","null","$20<br><br>now","$55<br>in<br>1 week","1","20","55","1",""
"html-keyboard-response","10","47952","0.0-5.0-1.2","63f77d4f671167ec16eee15c","bdp_td","Mon Mar 27 2023 17:29:04 GMT-0500 (Central Daylight Time)","129070","","null","","","","FIX","","<div class='trialBorder'><div class='vertical-center'><img style='vertical-align:center; align:center' src=img/fixation3.jpg></div></div>","null","","","","","","",""
"html-keyboard-response","11","50169","0.0-5.0-2.2","63f77d4f671167ec16eee15c","bdp_td","Mon Mar 27 2023 17:29:04 GMT-0500 (Central Daylight Time)","129070","","2214","","","","offer","","<div class='trialBorder'><div class='vertical-center'><img style='vertical-align:center; align:center' src=img/fixation3.jpg></div><div class='cl'><div class='vertical-center'>$54<br><br>now</div></div><div class='cr'><div class='vertical-center'>$80<br>in<br>3 weeks</div></div><div class='respDivL'><div class='vertical-center'>(E)</div></div><div class='respDivR'><div class='vertical-center'>(I)</div></div></div>","I","$54<br><br>now","$80<br>in<br>3 weeks","0","54","80","3","THEN"
"html-keyboard-response","12","50426","0.0-5.0-3.2","63f77d4f671167ec16eee15c","bdp_td","Mon Mar 27 2023 17:29:04 GMT-0500 (Central Daylight Time)","129070","","null","","","","offerFB","","<div class='trialBorder'><div class='vertical-center'><img style='vertical-align:center; align:center' src=img/fixation3.jpg></div><div class='cl'><div class='vertical-center'>$54<br><br>now</div></div><div class='cr'><div class='vertical-center'><font style='color:orange'>$80<br>in<br>3 weeks</font></div></div><div class='respDivL'><div class='vertical-center'>(E)</div></div><div class='respDivR'><div class='vertical-center'><font style='color:orange'>(I)</font></div></div></div>","null","$54<br><br>now","$80<br>in<br>3 weeks","0","54","80","3",""
"html-keyboard-response","13","50930","0.0-5.0-1.3","63f77d4f671167ec16eee15c","bdp_td","Mon Mar 27 2023 17:29:04 GMT-0500 (Central Daylight Time)","129070","","null","","","","FIX","","<div class='trialBorder'><div class='vertical-center'><img style='vertical-align:center; align:center' src=img/fixation3.jpg></div></div>","null","","","","","","",""
"html-keyboard-response","14","53289","0.0-5.0-2.3","63f77d4f671167ec16eee15c","bdp_td","Mon Mar 27 2023 17:29:04 GMT-0500 (Central Daylight Time)","129070","","2356","","","","offer","","<div class='trialBorder'><div class='vertical-center'><img style='vertical-align:center; align:center' src=img/fixation3.jpg></div><div class='cl'><div class='vertical-center'>$60<br>in<br>12 weeks</div></div><div class='cr'><div class='vertical-center'>$54<br><br>now</div></div><div class='respDivL'><div class='vertical-center'>(E)</div></div><div class='respDivR'><div class='vertical-center'>(I)</div></div></div>","I","$54<br><br>now","$60<br>in<br>12 weeks","1","54","60","12","NOW"
"html-keyboard-response","15","53557","0.0-5.0-3.3","63f77d4f671167ec16eee15c","bdp_td","Mon Mar 27 2023 17:29:04 GMT-0500 (Central Daylight Time)","129070","","null","","","","offerFB","","<div class='trialBorder'><div class='vertical-center'><img style='vertical-align:center; align:center' src=img/fixation3.jpg></div><div class='cl'><div class='vertical-center'>$60<br>in<br>12 weeks</div></div><div class='cr'><div class='vertical-center'><font style='color:orange'>$54<br><br>now</font></div></div><div class='respDivL'><div class='vertical-center'>(E)</div></div><div class='respDivR'><div class='vertical-center'><font style='color:orange'>(I)</font></div></div></div>","null","$54<br><br>now","$60<br>in<br>12 weeks","1","54","60","12",""
"html-keyboard-response","16","54067","0.0-5.0-1.4","63f77d4f671167ec16eee15c","bdp_td","Mon Mar 27 2023 17:29:04 GMT-0500 (Central Daylight Time)","129070","","null","","","","FIX","","<div class='trialBorder'><div class='vertical-center'><img style='vertical-align:center; align:center' src=img/fixation3.jpg></div></div>","null","","","","","","",""
"html-keyboard-response","17","56234","0.0-5.0-2.4","63f77d4f671167ec16eee15c","bdp_td","Mon Mar 27 2023 17:29:04 GMT-0500 (Central Daylight Time)","129070","","2165","","","","offer","","<div class='trialBorder'><div class='vertical-center'><img style='vertical-align:center; align:center' src=img/fixation3.jpg></div><div class='cl'><div class='vertical-center'>$30<br>in<br>12 weeks</div></div><div class='cr'><div class='vertical-center'>$28<br><br>now</div></div><div class='respDivL'><div class='vertical-center'>(E)</div></div><div class='respDivR'><div class='vertical-center'>(I)</div></div></div>","I","$28<br><br>now","$30<br>in<br>12 weeks","1","28","30","12","NOW"
"html-keyboard-response","18","56489","0.0-5.0-3.4","63f77d4f671167ec16eee15c","bdp_td","Mon Mar 27 2023 17:29:04 GMT-0500 (Central Daylight Time)","129070","","null","","","","offerFB","","<div class='trialBorder'><div class='vertical-center'><img style='vertical-align:center; align:center' src=img/fixation3.jpg></div><div class='cl'><div class='vertical-center'>$30<br>in<br>12 weeks</div></div><div class='cr'><div class='vertical-center'><font style='color:orange'>$28<br><br>now</font></div></div><div class='respDivL'><div class='vertical-center'>(E)</div></div><div class='respDivR'><div class='vertical-center'><font style='color:orange'>(I)</font></div></div></div>","null","$28<br><br>now","$30<br>in<br>12 weeks","1","28","30","12",""
"html-keyboard-response","19","56999","0.0-5.0-1.5","63f77d4f671167ec16eee15c","bdp_td","Mon Mar 27 2023 17:29:04 GMT-0500 (Central Daylight Time)","129070","","null","","","","FIX","","<div class='trialBorder'><div class='vertical-center'><img style='vertical-align:center; align:center' src=img/fixation3.jpg></div></div>","null","","","","","","",""
"html-keyboard-response","20","58889","0.0-5.0-2.5","63f77d4f671167ec16eee15c","bdp_td","Mon Mar 27 2023 17:29:04 GMT-0500 (Central Daylight Time)","129070","","1887","","","","offer","","<div class='trialBorder'><div class='vertical-center'><img style='vertical-align:center; align:center' src=img/fixation3.jpg></div><div class='cl'><div class='vertical-center'>$25<br>in<br>12 weeks</div></div><div class='cr'><div class='vertical-center'>$22<br><br>now</div></div><div class='respDivL'><div class='vertical-center'>(E)</div></div><div class='respDivR'><div class='vertical-center'>(I)</div></div></div>","I","$22<br><br>now","$25<br>in<br>12 weeks","1","22","25","12","NOW"
"html-keyboard-response","21","59146","0.0-5.0-3.5","63f77d4f671167ec16eee15c","bdp_td","Mon Mar 27 2023 17:29:04 GMT-0500 (Central Daylight Time)","129070","","null","","","","offerFB","","<div class='trialBorder'><div class='vertical-center'><img style='vertical-align:center; align:center' src=img/fixation3.jpg></div><div class='cl'><div class='vertical-center'>$25<br>in<br>12 weeks</div></div><div class='cr'><div class='vertical-center'><font style='color:orange'>$22<br><br>now</font></div></div><div class='respDivL'><div class='vertical-center'>(E)</div></div><div class='respDivR'><div class='vertical-center'><font style='color:orange'>(I)</font></div></div></div>","null","$22<br><br>now","$25<br>in<br>12 weeks","1","22","25","12",""
"html-keyboard-response","22","59655","0.0-5.0-1.6","63f77d4f671167ec16eee15c","bdp_td","Mon Mar 27 2023 17:29:04 GMT-0500 (Central Daylight Time)","129070","","null","","","","FIX","","<div class='trialBorder'><div class='vertical-center'><img style='vertical-align:center; align:center' src=img/fixation3.jpg></div></div>","null","","","","","","",""
"html-keyboard-response","23","62396","0.0-5.0-2.6","63f77d4f671167ec16eee15c","bdp_td","Mon Mar 27 2023 17:29:04 GMT-0500 (Central Daylight Time)","129070","","2738","","","","offer","","<div class='trialBorder'><div class='vertical-center'><img style='vertical-align:center; align:center' src=img/fixation3.jpg></div><div class='cl'><div class='vertical-center'>$35<br>in<br>3 weeks</div></div><div class='cr'><div class='vertical-center'>$24<br><br>now</div></div><div class='respDivL'><div class='vertical-center'>(E)</div></div><div class='respDivR'><div class='vertical-center'>(I)</div></div></div>","E","$24<br><br>now","$35<br>in<br>3 weeks","1","24","35","3","THEN"
"html-keyboard-response","24","62659","0.0-5.0-3.6","63f77d4f671167ec16eee15c","bdp_td","Mon Mar 27 2023 17:29:04 GMT-0500 (Central Daylight Time)","129070","","null","","","","offerFB","","<div class='trialBorder'><div class='vertical-center'><img style='vertical-align:center; align:center' src=img/fixation3.jpg></div><div class='cl'><div class='vertical-center'><font style='color:orange'>$35<br>in<br>3 weeks</font></div></div><div class='cr'><div class='vertical-center'>$24<br><br>now</div></div><div class='respDivL'><div class='vertical-center'><font style='color:orange'>(E)</font></div></div><div class='respDivR'><div class='vertical-center'>(I)</div></div></div>","null","$24<br><br>now","$35<br>in<br>3 weeks","1","24","35","3",""
"html-keyboard-response","25","63163","0.0-5.0-1.7","63f77d4f671167ec16eee15c","bdp_td","Mon Mar 27 2023 17:29:04 GMT-0500 (Central Daylight Time)","129070","","null","","","","FIX","","<div class='trialBorder'><div class='vertical-center'><img style='vertical-align:center; align:center' src=img/fixation3.jpg></div></div>","null","","","","","","",""
"html-keyboard-response","26","64986","0.0-5.0-2.7","63f77d4f671167ec16eee15c","bdp_td","Mon Mar 27 2023 17:29:04 GMT-0500 (Central Daylight Time)","129070","","1819","","","","offer","","<div class='trialBorder'><div class='vertical-center'><img style='vertical-align:center; align:center' src=img/fixation3.jpg></div><div class='cl'><div class='vertical-center'>$30<br>in<br>2 weeks</div></div><div class='cr'><div class='vertical-center'>$11<br><br>now</div></div><div class='respDivL'><div class='vertical-center'>(E)</div></div><div class='respDivR'><div class='vertical-center'>(I)</div></div></div>","E","$11<br><br>now","$30<br>in<br>2 weeks","1","11","30","2","THEN"
"html-keyboard-response","27","65240","0.0-5.0-3.7","63f77d4f671167ec16eee15c","bdp_td","Mon Mar 27 2023 17:29:04 GMT-0500 (Central Daylight Time)","129070","","null","","","","offerFB","","<div class='trialBorder'><div class='vertical-center'><img style='vertical-align:center; align:center' src=img/fixation3.jpg></div><div class='cl'><div class='vertical-center'><font style='color:orange'>$30<br>in<br>2 weeks</font></div></div><div class='cr'><div class='vertical-center'>$11<br><br>now</div></div><div class='respDivL'><div class='vertical-center'><font style='color:orange'>(E)</font></div></div><div class='respDivR'><div class='vertical-center'>(I)</div></div></div>","null","$11<br><br>now","$30<br>in<br>2 weeks","1","11","30","2",""
"html-keyboard-response","28","65749","0.0-5.0-1.8","63f77d4f671167ec16eee15c","bdp_td","Mon Mar 27 2023 17:29:04 GMT-0500 (Central Daylight Time)","129070","","null","","","","FIX","","<div class='trialBorder'><div class='vertical-center'><img style='vertical-align:center; align:center' src=img/fixation3.jpg></div></div>","null","","","","","","",""
"html-keyboard-response","29","70343","0.0-5.0-2.8","63f77d4f671167ec16eee15c","bdp_td","Mon Mar 27 2023 17:29:04 GMT-0500 (Central Daylight Time)","129070","","4592","","","","offer","","<div class='trialBorder'><div class='vertical-center'><img style='vertical-align:center; align:center' src=img/fixation3.jpg></div><div class='cl'><div class='vertical-center'>$49<br><br>now</div></div><div class='cr'><div class='vertical-center'>$60<br>in<br>6 weeks</div></div><div class='respDivL'><div class='vertical-center'>(E)</div></div><div class='respDivR'><div class='vertical-center'>(I)</div></div></div>","I","$49<br><br>now","$60<br>in<br>6 weeks","0","49","60","6","THEN"
"html-keyboard-response","30","70614","0.0-5.0-3.8","63f77d4f671167ec16eee15c","bdp_td","Mon Mar 27 2023 17:29:04 GMT-0500 (Central Daylight Time)","129070","","null","","","","offerFB","","<div class='trialBorder'><div class='vertical-center'><img style='vertical-align:center; align:center' src=img/fixation3.jpg></div><div class='cl'><div class='vertical-center'>$49<br><br>now</div></div><div class='cr'><div class='vertical-center'><font style='color:orange'>$60<br>in<br>6 weeks</font></div></div><div class='respDivL'><div class='vertical-center'>(E)</div></div><div class='respDivR'><div class='vertical-center'><font style='color:orange'>(I)</font></div></div></div>","null","$49<br><br>now","$60<br>in<br>6 weeks","0","49","60","6",""
"html-keyboard-response","31","71124","0.0-5.0-1.9","63f77d4f671167ec16eee15c","bdp_td","Mon Mar 27 2023 17:29:04 GMT-0500 (Central Daylight Time)","129070","","null","","","","FIX","","<div class='trialBorder'><div class='vertical-center'><img style='vertical-align:center; align:center' src=img/fixation3.jpg></div></div>","null","","","","","","",""
"html-keyboard-response","32","73487","0.0-5.0-2.9","63f77d4f671167ec16eee15c","bdp_td","Mon Mar 27 2023 17:29:04 GMT-0500 (Central Daylight Time)","129070","","2359","","","","offer","","<div class='trialBorder'><div class='vertical-center'><img style='vertical-align:center; align:center' src=img/fixation3.jpg></div><div class='cl'><div class='vertical-center'>$67<br><br>now</div></div><div class='cr'><div class='vertical-center'>$75<br>in<br>12 weeks</div></div><div class='respDivL'><div class='vertical-center'>(E)</div></div><div class='respDivR'><div class='vertical-center'>(I)</div></div></div>","E","$67<br><br>now","$75<br>in<br>12 weeks","0","67","75","12","NOW"
"html-keyboard-response","33","73751","0.0-5.0-3.9","63f77d4f671167ec16eee15c","bdp_td","Mon Mar 27 2023 17:29:04 GMT-0500 (Central Daylight Time)","129070","","null","","","","offerFB","","<div class='trialBorder'><div class='vertical-center'><img style='vertical-align:center; align:center' src=img/fixation3.jpg></div><div class='cl'><div class='vertical-center'><font style='color:orange'>$67<br><br>now</font></div></div><div class='cr'><div class='vertical-center'>$75<br>in<br>12 weeks</div></div><div class='respDivL'><div class='vertical-center'><font style='color:orange'>(E)</font></div></div><div class='respDivR'><div class='vertical-center'>(I)</div></div></div>","null","$67<br><br>now","$75<br>in<br>12 weeks","0","67","75","12",""
"html-keyboard-response","34","74261","0.0-5.0-1.10","63f77d4f671167ec16eee15c","bdp_td","Mon Mar 27 2023 17:29:04 GMT-0500 (Central Daylight Time)","129070","","null","","","","FIX","","<div class='trialBorder'><div class='vertical-center'><img style='vertical-align:center; align:center' src=img/fixation3.jpg></div></div>","null","","","","","","",""
"html-keyboard-response","35","76933","0.0-5.0-2.10","63f77d4f671167ec16eee15c","bdp_td","Mon Mar 27 2023 17:29:04 GMT-0500 (Central Daylight Time)","129070","","2671","","","","offer","","<div class='trialBorder'><div class='vertical-center'><img style='vertical-align:center; align:center' src=img/fixation3.jpg></div><div class='cl'><div class='vertical-center'>$80<br>in<br>2 weeks</div></div><div class='cr'><div class='vertical-center'>$33<br><br>now</div></div><div class='respDivL'><div class='vertical-center'>(E)</div></div><div class='respDivR'><div class='vertical-center'>(I)</div></div></div>","E","$33<br><br>now","$80<br>in<br>2 weeks","1","33","80","2","THEN"
"html-keyboard-response","36","77193","0.0-5.0-3.10","63f77d4f671167ec16eee15c","bdp_td","Mon Mar 27 2023 17:29:04 GMT-0500 (Central Daylight Time)","129070","","null","","","","offerFB","","<div class='trialBorder'><div class='vertical-center'><img style='vertical-align:center; align:center' src=img/fixation3.jpg></div><div class='cl'><div class='vertical-center'><font style='color:orange'>$80<br>in<br>2 weeks</font></div></div><div class='cr'><div class='vertical-center'>$33<br><br>now</div></div><div class='respDivL'><div class='vertical-center'><font style='color:orange'>(E)</font></div></div><div class='respDivR'><div class='vertical-center'>(I)</div></div></div>","null","$33<br><br>now","$80<br>in<br>2 weeks","1","33","80","2",""
"html-keyboard-response","37","77701","0.0-5.0-1.11","63f77d4f671167ec16eee15c","bdp_td","Mon Mar 27 2023 17:29:04 GMT-0500 (Central Daylight Time)","129070","","null","","","","FIX","","<div class='trialBorder'><div class='vertical-center'><img style='vertical-align:center; align:center' src=img/fixation3.jpg></div></div>","null","","","","","","",""
"html-keyboard-response","38","80814","0.0-5.0-2.11","63f77d4f671167ec16eee15c","bdp_td","Mon Mar 27 2023 17:29:04 GMT-0500 (Central Daylight Time)","129070","","3111","","","","offer","","<div class='trialBorder'><div class='vertical-center'><img style='vertical-align:center; align:center' src=img/fixation3.jpg></div><div class='cl'><div class='vertical-center'>$55<br>in<br>6 weeks</div></div><div class='cr'><div class='vertical-center'>$40<br><br>now</div></div><div class='respDivL'><div class='vertical-center'>(E)</div></div><div class='respDivR'><div class='vertical-center'>(I)</div></div></div>","I","$40<br><br>now","$55<br>in<br>6 weeks","1","40","55","6","NOW"
"html-keyboard-response","39","81075","0.0-5.0-3.11","63f77d4f671167ec16eee15c","bdp_td","Mon Mar 27 2023 17:29:04 GMT-0500 (Central Daylight Time)","129070","","null","","","","offerFB","","<div class='trialBorder'><div class='vertical-center'><img style='vertical-align:center; align:center' src=img/fixation3.jpg></div><div class='cl'><div class='vertical-center'>$55<br>in<br>6 weeks</div></div><div class='cr'><div class='vertical-center'><font style='color:orange'>$40<br><br>now</font></div></div><div class='respDivL'><div class='vertical-center'>(E)</div></div><div class='respDivR'><div class='vertical-center'><font style='color:orange'>(I)</font></div></div></div>","null","$40<br><br>now","$55<br>in<br>6 weeks","1","40","55","6",""
"html-keyboard-response","40","81588","0.0-5.0-1.12","63f77d4f671167ec16eee15c","bdp_td","Mon Mar 27 2023 17:29:04 GMT-0500 (Central Daylight Time)","129070","","null","","","","FIX","","<div class='trialBorder'><div class='vertical-center'><img style='vertical-align:center; align:center' src=img/fixation3.jpg></div></div>","null","","","","","","",""
"html-keyboard-response","41","84540","0.0-5.0-2.12","63f77d4f671167ec16eee15c","bdp_td","Mon Mar 27 2023 17:29:04 GMT-0500 (Central Daylight Time)","129070","","2949","","","","offer","","<div class='trialBorder'><div class='vertical-center'><img style='vertical-align:center; align:center' src=img/fixation3.jpg></div><div class='cl'><div class='vertical-center'>$47<br><br>now</div></div><div class='cr'><div class='vertical-center'>$50<br>in<br>12 weeks</div></div><div class='respDivL'><div class='vertical-center'>(E)</div></div><div class='respDivR'><div class='vertical-center'>(I)</div></div></div>","E","$47<br><br>now","$50<br>in<br>12 weeks","0","47","50","12","NOW"
"html-keyboard-response","42","84809","0.0-5.0-3.12","63f77d4f671167ec16eee15c","bdp_td","Mon Mar 27 2023 17:29:04 GMT-0500 (Central Daylight Time)","129070","","null","","","","offerFB","","<div class='trialBorder'><div class='vertical-center'><img style='vertical-align:center; align:center' src=img/fixation3.jpg></div><div class='cl'><div class='vertical-center'><font style='color:orange'>$47<br><br>now</font></div></div><div class='cr'><div class='vertical-center'>$50<br>in<br>12 weeks</div></div><div class='respDivL'><div class='vertical-center'><font style='color:orange'>(E)</font></div></div><div class='respDivR'><div class='vertical-center'>(I)</div></div></div>","null","$47<br><br>now","$50<br>in<br>12 weeks","0","47","50","12",""
"html-keyboard-response","43","85318","0.0-5.0-1.13","63f77d4f671167ec16eee15c","bdp_td","Mon Mar 27 2023 17:29:04 GMT-0500 (Central Daylight Time)","129070","","null","","","","FIX","","<div class='trialBorder'><div class='vertical-center'><img style='vertical-align:center; align:center' src=img/fixation3.jpg></div></div>","null","","","","","","",""
"html-keyboard-response","44","86791","0.0-5.0-2.13","63f77d4f671167ec16eee15c","bdp_td","Mon Mar 27 2023 17:29:04 GMT-0500 (Central Daylight Time)","129070","","1470","","","","offer","","<div class='trialBorder'><div class='vertical-center'><img style='vertical-align:center; align:center' src=img/fixation3.jpg></div><div class='cl'><div class='vertical-center'>$85<br>in<br>12 weeks</div></div><div class='cr'><div class='vertical-center'>$80<br><br>now</div></div><div class='respDivL'><div class='vertical-center'>(E)</div></div><div class='respDivR'><div class='vertical-center'>(I)</div></div></div>","I","$80<br><br>now","$85<br>in<br>12 weeks","1","80","85","12","NOW"
"html-keyboard-response","45","87055","0.0-5.0-3.13","63f77d4f671167ec16eee15c","bdp_td","Mon Mar 27 2023 17:29:04 GMT-0500 (Central Daylight Time)","129070","","null","","","","offerFB","","<div class='trialBorder'><div class='vertical-center'><img style='vertical-align:center; align:center' src=img/fixation3.jpg></div><div class='cl'><div class='vertical-center'>$85<br>in<br>12 weeks</div></div><div class='cr'><div class='vertical-center'><font style='color:orange'>$80<br><br>now</font></div></div><div class='respDivL'><div class='vertical-center'>(E)</div></div><div class='respDivR'><div class='vertical-center'><font style='color:orange'>(I)</font></div></div></div>","null","$80<br><br>now","$85<br>in<br>12 weeks","1","80","85","12",""
"html-keyboard-response","46","87573","0.0-5.0-1.14","63f77d4f671167ec16eee15c","bdp_td","Mon Mar 27 2023 17:29:04 GMT-0500 (Central Daylight Time)","129070","","null","","","","FIX","","<div class='trialBorder'><div class='vertical-center'><img style='vertical-align:center; align:center' src=img/fixation3.jpg></div></div>","null","","","","","","",""
"html-keyboard-response","47","92447","0.0-5.0-2.14","63f77d4f671167ec16eee15c","bdp_td","Mon Mar 27 2023 17:29:04 GMT-0500 (Central Daylight Time)","129070","","4872","","","","offer","","<div class='trialBorder'><div class='vertical-center'><img style='vertical-align:center; align:center' src=img/fixation3.jpg></div><div class='cl'><div class='vertical-center'>$14<br><br>now</div></div><div class='cr'><div class='vertical-center'>$25<br>in<br>3 weeks</div></div><div class='respDivL'><div class='vertical-center'>(E)</div></div><div class='respDivR'><div class='vertical-center'>(I)</div></div></div>","I","$14<br><br>now","$25<br>in<br>3 weeks","0","14","25","3","THEN"
"html-keyboard-response","48","92711","0.0-5.0-3.14","63f77d4f671167ec16eee15c","bdp_td","Mon Mar 27 2023 17:29:04 GMT-0500 (Central Daylight Time)","129070","","null","","","","offerFB","","<div class='trialBorder'><div class='vertical-center'><img style='vertical-align:center; align:center' src=img/fixation3.jpg></div><div class='cl'><div class='vertical-center'>$14<br><br>now</div></div><div class='cr'><div class='vertical-center'><font style='color:orange'>$25<br>in<br>3 weeks</font></div></div><div class='respDivL'><div class='vertical-center'>(E)</div></div><div class='respDivR'><div class='vertical-center'><font style='color:orange'>(I)</font></div></div></div>","null","$14<br><br>now","$25<br>in<br>3 weeks","0","14","25","3",""
"html-keyboard-response","49","93221","0.0-5.0-1.15","63f77d4f671167ec16eee15c","bdp_td","Mon Mar 27 2023 17:29:04 GMT-0500 (Central Daylight Time)","129070","","null","","","","FIX","","<div class='trialBorder'><div class='vertical-center'><img style='vertical-align:center; align:center' src=img/fixation3.jpg></div></div>","null","","","","","","",""
"html-keyboard-response","50","95477","0.0-5.0-2.15","63f77d4f671167ec16eee15c","bdp_td","Mon Mar 27 2023 17:29:04 GMT-0500 (Central Daylight Time)","129070","","2252","","","","offer","","<div class='trialBorder'><div class='vertical-center'><img style='vertical-align:center; align:center' src=img/fixation3.jpg></div><div class='cl'><div class='vertical-center'>$78<br><br>now</div></div><div class='cr'><div class='vertical-center'>$80<br>in<br>12 weeks</div></div><div class='respDivL'><div class='vertical-center'>(E)</div></div><div class='respDivR'><div class='vertical-center'>(I)</div></div></div>","E","$78<br><br>now","$80<br>in<br>12 weeks","0","78","80","12","NOW"
"html-keyboard-response","51","95738","0.0-5.0-3.15","63f77d4f671167ec16eee15c","bdp_td","Mon Mar 27 2023 17:29:04 GMT-0500 (Central Daylight Time)","129070","","null","","","","offerFB","","<div class='trialBorder'><div class='vertical-center'><img style='vertical-align:center; align:center' src=img/fixation3.jpg></div><div class='cl'><div class='vertical-center'><font style='color:orange'>$78<br><br>now</font></div></div><div class='cr'><div class='vertical-center'>$80<br>in<br>12 weeks</div></div><div class='respDivL'><div class='vertical-center'><font style='color:orange'>(E)</font></div></div><div class='respDivR'><div class='vertical-center'>(I)</div></div></div>","null","$78<br><br>now","$80<br>in<br>12 weeks","0","78","80","12",""
"html-keyboard-response","52","96249","0.0-5.0-1.16","63f77d4f671167ec16eee15c","bdp_td","Mon Mar 27 2023 17:29:04 GMT-0500 (Central Daylight Time)","129070","","null","","","","FIX","","<div class='trialBorder'><div class='vertical-center'><img style='vertical-align:center; align:center' src=img/fixation3.jpg></div></div>","null","","","","","","",""
"html-keyboard-response","53","97573","0.0-5.0-2.16","63f77d4f671167ec16eee15c","bdp_td","Mon Mar 27 2023 17:29:04 GMT-0500 (Central Daylight Time)","129070","","1321","","","","offer","","<div class='trialBorder'><div class='vertical-center'><img style='vertical-align:center; align:center' src=img/fixation3.jpg></div><div class='cl'><div class='vertical-center'>$54<br><br>now</div></div><div class='cr'><div class='vertical-center'>$55<br>in<br>12 weeks</div></div><div class='respDivL'><div class='vertical-center'>(E)</div></div><div class='respDivR'><div class='vertical-center'>(I)</div></div></div>","E","$54<br><br>now","$55<br>in<br>12 weeks","0","54","55","12","NOW"
"html-keyboard-response","54","97835","0.0-5.0-3.16","63f77d4f671167ec16eee15c","bdp_td","Mon Mar 27 2023 17:29:04 GMT-0500 (Central Daylight Time)","129070","","null","","","","offerFB","","<div class='trialBorder'><div class='vertical-center'><img style='vertical-align:center; align:center' src=img/fixation3.jpg></div><div class='cl'><div class='vertical-center'><font style='color:orange'>$54<br><br>now</font></div></div><div class='cr'><div class='vertical-center'>$55<br>in<br>12 weeks</div></div><div class='respDivL'><div class='vertical-center'><font style='color:orange'>(E)</font></div></div><div class='respDivR'><div class='vertical-center'>(I)</div></div></div>","null","$54<br><br>now","$55<br>in<br>12 weeks","0","54","55","12",""
"html-keyboard-response","55","98344","0.0-5.0-1.17","63f77d4f671167ec16eee15c","bdp_td","Mon Mar 27 2023 17:29:04 GMT-0500 (Central Daylight Time)","129070","","null","","","","FIX","","<div class='trialBorder'><div class='vertical-center'><img style='vertical-align:center; align:center' src=img/fixation3.jpg></div></div>","null","","","","","","",""
"html-keyboard-response","56","100270","0.0-5.0-2.17","63f77d4f671167ec16eee15c","bdp_td","Mon Mar 27 2023 17:29:04 GMT-0500 (Central Daylight Time)","129070","","1924","","","","offer","","<div class='trialBorder'><div class='vertical-center'><img style='vertical-align:center; align:center' src=img/fixation3.jpg></div><div class='cl'><div class='vertical-center'>$60<br>in<br>3 weeks</div></div><div class='cr'><div class='vertical-center'>$25<br><br>now</div></div><div class='respDivL'><div class='vertical-center'>(E)</div></div><div class='respDivR'><div class='vertical-center'>(I)</div></div></div>","E","$25<br><br>now","$60<br>in<br>3 weeks","1","25","60","3","THEN"
"html-keyboard-response","57","100531","0.0-5.0-3.17","63f77d4f671167ec16eee15c","bdp_td","Mon Mar 27 2023 17:29:04 GMT-0500 (Central Daylight Time)","129070","","null","","","","offerFB","","<div class='trialBorder'><div class='vertical-center'><img style='vertical-align:center; align:center' src=img/fixation3.jpg></div><div class='cl'><div class='vertical-center'><font style='color:orange'>$60<br>in<br>3 weeks</font></div></div><div class='cr'><div class='vertical-center'>$25<br><br>now</div></div><div class='respDivL'><div class='vertical-center'><font style='color:orange'>(E)</font></div></div><div class='respDivR'><div class='vertical-center'>(I)</div></div></div>","null","$25<br><br>now","$60<br>in<br>3 weeks","1","25","60","3",""
"html-keyboard-response","58","101036","0.0-5.0-1.18","63f77d4f671167ec16eee15c","bdp_td","Mon Mar 27 2023 17:29:04 GMT-0500 (Central Daylight Time)","129070","","null","","","","FIX","","<div class='trialBorder'><div class='vertical-center'><img style='vertical-align:center; align:center' src=img/fixation3.jpg></div></div>","null","","","","","","",""
"html-keyboard-response","59","104573","0.0-5.0-2.18","63f77d4f671167ec16eee15c","bdp_td","Mon Mar 27 2023 17:29:04 GMT-0500 (Central Daylight Time)","129070","","3534","","","","offer","","<div class='trialBorder'><div class='vertical-center'><img style='vertical-align:center; align:center' src=img/fixation3.jpg></div><div class='cl'><div class='vertical-center'>$69<br><br>now</div></div><div class='cr'><div class='vertical-center'>$85<br>in<br>6 weeks</div></div><div class='respDivL'><div class='vertical-center'>(E)</div></div><div class='respDivR'><div class='vertical-center'>(I)</div></div></div>","E","$69<br><br>now","$85<br>in<br>6 weeks","0","69","85","6","NOW"
"html-keyboard-response","60","104836","0.0-5.0-3.18","63f77d4f671167ec16eee15c","bdp_td","Mon Mar 27 2023 17:29:04 GMT-0500 (Central Daylight Time)","129070","","null","","","","offerFB","","<div class='trialBorder'><div class='vertical-center'><img style='vertical-align:center; align:center' src=img/fixation3.jpg></div><div class='cl'><div class='vertical-center'><font style='color:orange'>$69<br><br>now</font></div></div><div class='cr'><div class='vertical-center'>$85<br>in<br>6 weeks</div></div><div class='respDivL'><div class='vertical-center'><font style='color:orange'>(E)</font></div></div><div class='respDivR'><div class='vertical-center'>(I)</div></div></div>","null","$69<br><br>now","$85<br>in<br>6 weeks","0","69","85","6",""
"html-keyboard-response","61","105348","0.0-5.0-1.19","63f77d4f671167ec16eee15c","bdp_td","Mon Mar 27 2023 17:29:04 GMT-0500 (Central Daylight Time)","129070","","null","","","","FIX","","<div class='trialBorder'><div class='vertical-center'><img style='vertical-align:center; align:center' src=img/fixation3.jpg></div></div>","null","","","","","","",""
"html-keyboard-response","62","107567","0.0-5.0-2.19","63f77d4f671167ec16eee15c","bdp_td","Mon Mar 27 2023 17:29:04 GMT-0500 (Central Daylight Time)","129070","","2216","","","","offer","","<div class='trialBorder'><div class='vertical-center'><img style='vertical-align:center; align:center' src=img/fixation3.jpg></div><div class='cl'><div class='vertical-center'>$75<br>in<br>3 weeks</div></div><div class='cr'><div class='vertical-center'>$41<br><br>now</div></div><div class='respDivL'><div class='vertical-center'>(E)</div></div><div class='respDivR'><div class='vertical-center'>(I)</div></div></div>","E","$41<br><br>now","$75<br>in<br>3 weeks","1","41","75","3","THEN"
"html-keyboard-response","63","107827","0.0-5.0-3.19","63f77d4f671167ec16eee15c","bdp_td","Mon Mar 27 2023 17:29:04 GMT-0500 (Central Daylight Time)","129070","","null","","","","offerFB","","<div class='trialBorder'><div class='vertical-center'><img style='vertical-align:center; align:center' src=img/fixation3.jpg></div><div class='cl'><div class='vertical-center'><font style='color:orange'>$75<br>in<br>3 weeks</font></div></div><div class='cr'><div class='vertical-center'>$41<br><br>now</div></div><div class='respDivL'><div class='vertical-center'><font style='color:orange'>(E)</font></div></div><div class='respDivR'><div class='vertical-center'>(I)</div></div></div>","null","$41<br><br>now","$75<br>in<br>3 weeks","1","41","75","3",""
"html-keyboard-response","64","108330","0.0-5.0-1.20","63f77d4f671167ec16eee15c","bdp_td","Mon Mar 27 2023 17:29:04 GMT-0500 (Central Daylight Time)","129070","","null","","","","FIX","","<div class='trialBorder'><div class='vertical-center'><img style='vertical-align:center; align:center' src=img/fixation3.jpg></div></div>","null","","","","","","",""
"html-keyboard-response","65","110008","0.0-5.0-2.20","63f77d4f671167ec16eee15c","bdp_td","Mon Mar 27 2023 17:29:04 GMT-0500 (Central Daylight Time)","129070","","1675","","","","offer","","<div class='trialBorder'><div class='vertical-center'><img style='vertical-align:center; align:center' src=img/fixation3.jpg></div><div class='cl'><div class='vertical-center'>$27<br><br>now</div></div><div class='cr'><div class='vertical-center'>$50<br>in<br>3 weeks</div></div><div class='respDivL'><div class='vertical-center'>(E)</div></div><div class='respDivR'><div class='vertical-center'>(I)</div></div></div>","I","$27<br><br>now","$50<br>in<br>3 weeks","0","27","50","3","THEN"
"html-keyboard-response","66","110277","0.0-5.0-3.20","63f77d4f671167ec16eee15c","bdp_td","Mon Mar 27 2023 17:29:04 GMT-0500 (Central Daylight Time)","129070","","null","","","","offerFB","","<div class='trialBorder'><div class='vertical-center'><img style='vertical-align:center; align:center' src=img/fixation3.jpg></div><div class='cl'><div class='vertical-center'>$27<br><br>now</div></div><div class='cr'><div class='vertical-center'><font style='color:orange'>$50<br>in<br>3 weeks</font></div></div><div class='respDivL'><div class='vertical-center'>(E)</div></div><div class='respDivR'><div class='vertical-center'><font style='color:orange'>(I)</font></div></div></div>","null","$27<br><br>now","$50<br>in<br>3 weeks","0","27","50","3",""
"html-keyboard-response","67","110788","0.0-5.0-1.21","63f77d4f671167ec16eee15c","bdp_td","Mon Mar 27 2023 17:29:04 GMT-0500 (Central Daylight Time)","129070","","null","","","","FIX","","<div class='trialBorder'><div class='vertical-center'><img style='vertical-align:center; align:center' src=img/fixation3.jpg></div></div>","null","","","","","","",""
"html-keyboard-response","68","113415","0.0-5.0-2.21","63f77d4f671167ec16eee15c","bdp_td","Mon Mar 27 2023 17:29:04 GMT-0500 (Central Daylight Time)","129070","","2624","","","","offer","","<div class='trialBorder'><div class='vertical-center'><img style='vertical-align:center; align:center' src=img/fixation3.jpg></div><div class='cl'><div class='vertical-center'>$15<br><br>now</div></div><div class='cr'><div class='vertical-center'>$35<br>in<br>2 weeks</div></div><div class='respDivL'><div class='vertical-center'>(E)</div></div><div class='respDivR'><div class='vertical-center'>(I)</div></div></div>","I","$15<br><br>now","$35<br>in<br>2 weeks","0","15","35","2","THEN"
"html-keyboard-response","69","113671","0.0-5.0-3.21","63f77d4f671167ec16eee15c","bdp_td","Mon Mar 27 2023 17:29:04 GMT-0500 (Central Daylight Time)","129070","","null","","","","offerFB","","<div class='trialBorder'><div class='vertical-center'><img style='vertical-align:center; align:center' src=img/fixation3.jpg></div><div class='cl'><div class='vertical-center'>$15<br><br>now</div></div><div class='cr'><div class='vertical-center'><font style='color:orange'>$35<br>in<br>2 weeks</font></div></div><div class='respDivL'><div class='vertical-center'>(E)</div></div><div class='respDivR'><div class='vertical-center'><font style='color:orange'>(I)</font></div></div></div>","null","$15<br><br>now","$35<br>in<br>2 weeks","0","15","35","2",""
"html-keyboard-response","70","114183","0.0-5.0-1.22","63f77d4f671167ec16eee15c","bdp_td","Mon Mar 27 2023 17:29:04 GMT-0500 (Central Daylight Time)","129070","","null","","","","FIX","","<div class='trialBorder'><div class='vertical-center'><img style='vertical-align:center; align:center' src=img/fixation3.jpg></div></div>","null","","","","","","",""
"html-keyboard-response","71","116342","0.0-5.0-2.22","63f77d4f671167ec16eee15c","bdp_td","Mon Mar 27 2023 17:29:04 GMT-0500 (Central Daylight Time)","129070","","2158","","","","offer","","<div class='trialBorder'><div class='vertical-center'><img style='vertical-align:center; align:center' src=img/fixation3.jpg></div><div class='cl'><div class='vertical-center'>$31<br><br>now</div></div><div class='cr'><div class='vertical-center'>$85<br>in<br>1 week</div></div><div class='respDivL'><div class='vertical-center'>(E)</div></div><div class='respDivR'><div class='vertical-center'>(I)</div></div></div>","I","$31<br><br>now","$85<br>in<br>1 week","0","31","85","1","THEN"
"html-keyboard-response","72","116610","0.0-5.0-3.22","63f77d4f671167ec16eee15c","bdp_td","Mon Mar 27 2023 17:29:04 GMT-0500 (Central Daylight Time)","129070","","null","","","","offerFB","","<div class='trialBorder'><div class='vertical-center'><img style='vertical-align:center; align:center' src=img/fixation3.jpg></div><div class='cl'><div class='vertical-center'>$31<br><br>now</div></div><div class='cr'><div class='vertical-center'><font style='color:orange'>$85<br>in<br>1 week</font></div></div><div class='respDivL'><div class='vertical-center'>(E)</div></div><div class='respDivR'><div class='vertical-center'><font style='color:orange'>(I)</font></div></div></div>","null","$31<br><br>now","$85<br>in<br>1 week","0","31","85","1",""
"html-keyboard-response","73","117121","0.0-5.0-1.23","63f77d4f671167ec16eee15c","bdp_td","Mon Mar 27 2023 17:29:04 GMT-0500 (Central Daylight Time)","129070","","null","","","","FIX","","<div class='trialBorder'><div class='vertical-center'><img style='vertical-align:center; align:center' src=img/fixation3.jpg></div></div>","null","","","","","","",""
"html-keyboard-response","74","118761","0.0-5.0-2.23","63f77d4f671167ec16eee15c","bdp_td","Mon Mar 27 2023 17:29:04 GMT-0500 (Central Daylight Time)","129070","","1639","","","","offer","","<div class='trialBorder'><div class='vertical-center'><img style='vertical-align:center; align:center' src=img/fixation3.jpg></div><div class='cl'><div class='vertical-center'>$19<br><br>now</div></div><div class='cr'><div class='vertical-center'>$25<br>in<br>6 weeks</div></div><div class='respDivL'><div class='vertical-center'>(E)</div></div><div class='respDivR'><div class='vertical-center'>(I)</div></div></div>","E","$19<br><br>now","$25<br>in<br>6 weeks","0","19","25","6","NOW"
"html-keyboard-response","75","119023","0.0-5.0-3.23","63f77d4f671167ec16eee15c","bdp_td","Mon Mar 27 2023 17:29:04 GMT-0500 (Central Daylight Time)","129070","","null","","","","offerFB","","<div class='trialBorder'><div class='vertical-center'><img style='vertical-align:center; align:center' src=img/fixation3.jpg></div><div class='cl'><div class='vertical-center'><font style='color:orange'>$19<br><br>now</font></div></div><div class='cr'><div class='vertical-center'>$25<br>in<br>6 weeks</div></div><div class='respDivL'><div class='vertical-center'><font style='color:orange'>(E)</font></div></div><div class='respDivR'><div class='vertical-center'>(I)</div></div></div>","null","$19<br><br>now","$25<br>in<br>6 weeks","0","19","25","6",""
"html-keyboard-response","76","119527","0.0-5.0-1.24","63f77d4f671167ec16eee15c","bdp_td","Mon Mar 27 2023 17:29:04 GMT-0500 (Central Daylight Time)","129070","","null","","","","FIX","","<div class='trialBorder'><div class='vertical-center'><img style='vertical-align:center; align:center' src=img/fixation3.jpg></div></div>","null","","","","","","",""
"html-keyboard-response","77","121630","0.0-5.0-2.24","63f77d4f671167ec16eee15c","bdp_td","Mon Mar 27 2023 17:29:04 GMT-0500 (Central Daylight Time)","129070","","2100","","","","offer","","<div class='trialBorder'><div class='vertical-center'><img style='vertical-align:center; align:center' src=img/fixation3.jpg></div><div class='cl'><div class='vertical-center'>$75<br>in<br>6 weeks</div></div><div class='cr'><div class='vertical-center'>$55<br><br>now</div></div><div class='respDivL'><div class='vertical-center'>(E)</div></div><div class='respDivR'><div class='vertical-center'>(I)</div></div></div>","I","$55<br><br>now","$75<br>in<br>6 weeks","1","55","75","6","NOW"
"html-keyboard-response","78","121884","0.0-5.0-3.24","63f77d4f671167ec16eee15c","bdp_td","Mon Mar 27 2023 17:29:04 GMT-0500 (Central Daylight Time)","129070","","null","","","","offerFB","","<div class='trialBorder'><div class='vertical-center'><img style='vertical-align:center; align:center' src=img/fixation3.jpg></div><div class='cl'><div class='vertical-center'>$75<br>in<br>6 weeks</div></div><div class='cr'><div class='vertical-center'><font style='color:orange'>$55<br><br>now</font></div></div><div class='respDivL'><div class='vertical-center'>(E)</div></div><div class='respDivR'><div class='vertical-center'><font style='color:orange'>(I)</font></div></div></div>","null","$55<br><br>now","$75<br>in<br>6 weeks","1","55","75","6",""
"html-keyboard-response","79","122393","0.0-5.0-1.25","63f77d4f671167ec16eee15c","bdp_td","Mon Mar 27 2023 17:29:04 GMT-0500 (Central Daylight Time)","129070","","null","","","","FIX","","<div class='trialBorder'><div class='vertical-center'><img style='vertical-align:center; align:center' src=img/fixation3.jpg></div></div>","null","","","","","","",""
"html-keyboard-response","80","125143","0.0-5.0-2.25","63f77d4f671167ec16eee15c","bdp_td","Mon Mar 27 2023 17:29:04 GMT-0500 (Central Daylight Time)","129070","","2747","","","","offer","","<div class='trialBorder'><div class='vertical-center'><img style='vertical-align:center; align:center' src=img/fixation3.jpg></div><div class='cl'><div class='vertical-center'>$34<br><br>now</div></div><div class='cr'><div class='vertical-center'>$50<br>in<br>6 weeks</div></div><div class='respDivL'><div class='vertical-center'>(E)</div></div><div class='respDivR'><div class='vertical-center'>(I)</div></div></div>","E","$34<br><br>now","$50<br>in<br>6 weeks","0","34","50","6","NOW"
"html-keyboard-response","81","125405","0.0-5.0-3.25","63f77d4f671167ec16eee15c","bdp_td","Mon Mar 27 2023 17:29:04 GMT-0500 (Central Daylight Time)","129070","","null","","","","offerFB","","<div class='trialBorder'><div class='vertical-center'><img style='vertical-align:center; align:center' src=img/fixation3.jpg></div><div class='cl'><div class='vertical-center'><font style='color:orange'>$34<br><br>now</font></div></div><div class='cr'><div class='vertical-center'>$50<br>in<br>6 weeks</div></div><div class='respDivL'><div class='vertical-center'><font style='color:orange'>(E)</font></div></div><div class='respDivR'><div class='vertical-center'>(I)</div></div></div>","null","$34<br><br>now","$50<br>in<br>6 weeks","0","34","50","6",""
"html-keyboard-response","82","125917","0.0-5.0-1.26","63f77d4f671167ec16eee15c","bdp_td","Mon Mar 27 2023 17:29:04 GMT-0500 (Central Daylight Time)","129070","","null","","","","FIX","","<div class='trialBorder'><div class='vertical-center'><img style='vertical-align:center; align:center' src=img/fixation3.jpg></div></div>","null","","","","","","",""
"html-keyboard-response","83","127805","0.0-5.0-2.26","63f77d4f671167ec16eee15c","bdp_td","Mon Mar 27 2023 17:29:04 GMT-0500 (Central Daylight Time)","129070","","1885","","","","offer","","<div class='trialBorder'><div class='vertical-center'><img style='vertical-align:center; align:center' src=img/fixation3.jpg></div><div class='cl'><div class='vertical-center'>$30<br>in<br>6 weeks</div></div><div class='cr'><div class='vertical-center'>$25<br><br>now</div></div><div class='respDivL'><div class='vertical-center'>(E)</div></div><div class='respDivR'><div class='vertical-center'>(I)</div></div></div>","I","$25<br><br>now","$30<br>in<br>6 weeks","1","25","30","6","NOW"
"html-keyboard-response","84","128059","0.0-5.0-3.26","63f77d4f671167ec16eee15c","bdp_td","Mon Mar 27 2023 17:29:04 GMT-0500 (Central Daylight Time)","129070","","null","","","","offerFB","","<div class='trialBorder'><div class='vertical-center'><img style='vertical-align:center; align:center' src=img/fixation3.jpg></div><div class='cl'><div class='vertical-center'>$30<br>in<br>6 weeks</div></div><div class='cr'><div class='vertical-center'><font style='color:orange'>$25<br><br>now</font></div></div><div class='respDivL'><div class='vertical-center'>(E)</div></div><div class='respDivR'><div class='vertical-center'><font style='color:orange'>(I)</font></div></div></div>","null","$25<br><br>now","$30<br>in<br>6 weeks","1","25","30","6",""
"","","","","63f77d4f671167ec16eee15c","bdp_td","Mon Mar 27 2023 17:29:04 GMT-0500 (Central Daylight Time)","129070","","","fullscreenexit","85","128079","fullscreenexit","","","","","","","","","",""
"fullscreen","85","129069","0.0-6.0","63f77d4f671167ec16eee15c","bdp_td","Mon Mar 27 2023 17:29:04 GMT-0500 (Central Daylight Time)","129070","","","","","","","true","","","","","","","","",""
"html-keyboard-response","86","129580","0.0-7.0","","","","","","null","","","","","","","null","","","","","","",""
