"trial_type","trial_index","time_elapsed","internal_node_id","subject_id","task","startTime","totalTime","view_history","rt","event","trial","time","trialtype","success","stimulus","key_press","nowOffer","thenOffer","thenLeft","nowAmt","thenAmt","thenWeeks","chosen"
"pavlovia","0","2","0.0-0.0","60fc9ce95a59b3400b38e2a7","bdp_td","Mon Mar 27 2023 23:21:32 GMT-0400 (Eastern Daylight Time)","92254","","","","","","","","","","","","","","","",""
"instructions","1","1476","0.0-1.0","60fc9ce95a59b3400b38e2a7","bdp_td","Mon Mar 27 2023 23:21:32 GMT-0400 (Eastern Daylight Time)","92254","[{""page_index"":0,""viewing_time"":1473}]","1473","","","","","","","","","","","","","",""
"","","","","60fc9ce95a59b3400b38e2a7","bdp_td","Mon Mar 27 2023 23:21:32 GMT-0400 (Eastern Daylight Time)","92254","","","fullscreenenter","2","3434","fullscreenenter","","","","","","","","","",""
"fullscreen","2","4383","0.0-2.0","60fc9ce95a59b3400b38e2a7","bdp_td","Mon Mar 27 2023 23:21:32 GMT-0400 (Eastern Daylight Time)","92254","","","","","","","true","","","","","","","","",""
"instructions","3","28392","0.0-4.0","60fc9ce95a59b3400b38e2a7","bdp_td","Mon Mar 27 2023 23:21:32 GMT-0400 (Eastern Daylight Time)","92254","[{""page_index"":0,""viewing_time"":13383},{""page_index"":1,""viewing_time"":5746},{""page_index"":2,""viewing_time"":4876}]","24006","","","","","","","","","","","","","",""
"html-keyboard-response","4","28901","0.0-5.0-1.0","60fc9ce95a59b3400b38e2a7","bdp_td","Mon Mar 27 2023 23:21:32 GMT-0400 (Eastern Daylight Time)","92254","","null","","","","FIX","","<div class='trialBorder'><div class='vertical-center'><img style='vertical-align:center; align:center' src=img/fixation3.jpg></div></div>","null","","","","","","",""
"html-keyboard-response","5","31811","0.0-5.0-2.0","60fc9ce95a59b3400b38e2a7","bdp_td","Mon Mar 27 2023 23:21:32 GMT-0400 (Eastern Daylight Time)","92254","","2906","","","","offer","","<div class='trialBorder'><div class='vertical-center'><img style='vertical-align:center; align:center' src=img/fixation3.jpg></div><div class='cl'><div class='vertical-center'>$85<br>in<br>6 weeks</div></div><div class='cr'><div class='vertical-center'>$69<br><br>now</div></div><div class='respDivL'><div class='vertical-center'>(E)</div></div><div class='respDivR'><div class='vertical-center'>(I)</div></div></div>","I","$69<br><br>now","$85<br>in<br>6 weeks","1","69","85","6","NOW"
"html-keyboard-response","6","32068","0.0-5.0-3.0","60fc9ce95a59b3400b38e2a7","bdp_td","Mon Mar 27 2023 23:21:32 GMT-0400 (Eastern Daylight Time)","92254","","null","","","","offerFB","","<div class='trialBorder'><div class='vertical-center'><img style='vertical-align:center; align:center' src=img/fixation3.jpg></div><div class='cl'><div class='vertical-center'>$85<br>in<br>6 weeks</div></div><div class='cr'><div class='vertical-center'><font style='color:orange'>$69<br><br>now</font></div></div><div class='respDivL'><div class='vertical-center'>(E)</div></div><div class='respDivR'><div class='vertical-center'><font style='color:orange'>(I)</font></div></div></div>","null","$69<br><br>now","$85<br>in<br>6 weeks","1","69","85","6",""
"html-keyboard-response","7","32586","0.0-5.0-1.1","60fc9ce95a59b3400b38e2a7","bdp_td","Mon Mar 27 2023 23:21:32 GMT-0400 (Eastern Daylight Time)","92254","","null","","","","FIX","","<div class='trialBorder'><div class='vertical-center'><img style='vertical-align:center; align:center' src=img/fixation3.jpg></div></div>","null","","","","","","",""
"html-keyboard-response","8","34098","0.0-5.0-2.1","60fc9ce95a59b3400b38e2a7","bdp_td","Mon Mar 27 2023 23:21:32 GMT-0400 (Eastern Daylight Time)","92254","","1510","","","","offer","","<div class='trialBorder'><div class='vertical-center'><img style='vertical-align:center; align:center' src=img/fixation3.jpg></div><div class='cl'><div class='vertical-center'>$67<br><br>now</div></div><div class='cr'><div class='vertical-center'>$75<br>in<br>12 weeks</div></div><div class='respDivL'><div class='vertical-center'>(E)</div></div><div class='respDivR'><div class='vertical-center'>(I)</div></div></div>","E","$67<br><br>now","$75<br>in<br>12 weeks","0","67","75","12","NOW"
"html-keyboard-response","9","34352","0.0-5.0-3.1","60fc9ce95a59b3400b38e2a7","bdp_td","Mon Mar 27 2023 23:21:32 GMT-0400 (Eastern Daylight Time)","92254","","null","","","","offerFB","","<div class='trialBorder'><div class='vertical-center'><img style='vertical-align:center; align:center' src=img/fixation3.jpg></div><div class='cl'><div class='vertical-center'><font style='color:orange'>$67<br><br>now</font></div></div><div class='cr'><div class='vertical-center'>$75<br>in<br>12 weeks</div></div><div class='respDivL'><div class='vertical-center'><font style='color:orange'>(E)</font></div></div><div class='respDivR'><div class='vertical-center'>(I)</div></div></div>","null","$67<br><br>now","$75<br>in<br>12 weeks","0","67","75","12",""
"html-keyboard-response","10","34859","0.0-5.0-1.2","60fc9ce95a59b3400b38e2a7","bdp_td","Mon Mar 27 2023 23:21:32 GMT-0400 (Eastern Daylight Time)","92254","","null","","","","FIX","","<div class='trialBorder'><div class='vertical-center'><img style='vertical-align:center; align:center' src=img/fixation3.jpg></div></div>","null","","","","","","",""
"html-keyboard-response","11","36862","0.0-5.0-2.2","60fc9ce95a59b3400b38e2a7","bdp_td","Mon Mar 27 2023 23:21:32 GMT-0400 (Eastern Daylight Time)","92254","","1999","","","","offer","","<div class='trialBorder'><div class='vertical-center'><img style='vertical-align:center; align:center' src=img/fixation3.jpg></div><div class='cl'><div class='vertical-center'>$24<br><br>now</div></div><div class='cr'><div class='vertical-center'>$35<br>in<br>3 weeks</div></div><div class='respDivL'><div class='vertical-center'>(E)</div></div><div class='respDivR'><div class='vertical-center'>(I)</div></div></div>","E","$24<br><br>now","$35<br>in<br>3 weeks","0","24","35","3","NOW"
"html-keyboard-response","12","37119","0.0-5.0-3.2","60fc9ce95a59b3400b38e2a7","bdp_td","Mon Mar 27 2023 23:21:32 GMT-0400 (Eastern Daylight Time)","92254","","null","","","","offerFB","","<div class='trialBorder'><div class='vertical-center'><img style='vertical-align:center; align:center' src=img/fixation3.jpg></div><div class='cl'><div class='vertical-center'><font style='color:orange'>$24<br><br>now</font></div></div><div class='cr'><div class='vertical-center'>$35<br>in<br>3 weeks</div></div><div class='respDivL'><div class='vertical-center'><font style='color:orange'>(E)</font></div></div><div class='respDivR'><div class='vertical-center'>(I)</div></div></div>","null","$24<br><br>now","$35<br>in<br>3 weeks","0","24","35","3",""
"html-keyboard-response","13","37631","0.0-5.0-1.3","60fc9ce95a59b3400b38e2a7","bdp_td","Mon Mar 27 2023 23:21:32 GMT-0400 (Eastern Daylight Time)","92254","","null","","","","FIX","","<div class='trialBorder'><div class='vertical-center'><img style='vertical-align:center; align:center' src=img/fixation3.jpg></div></div>","null","","","","","","",""
"html-keyboard-response","14","38850","0.0-5.0-2.3","60fc9ce95a59b3400b38e2a7","bdp_td","Mon Mar 27 2023 23:21:32 GMT-0400 (Eastern Daylight Time)","92254","","1216","","","","offer","","<div class='trialBorder'><div class='vertical-center'><img style='vertical-align:center; align:center' src=img/fixation3.jpg></div><div class='cl'><div class='vertical-center'>$40<br><br>now</div></div><div class='cr'><div class='vertical-center'>$55<br>in<br>6 weeks</div></div><div class='respDivL'><div class='vertical-center'>(E)</div></div><div class='respDivR'><div class='vertical-center'>(I)</div></div></div>","E","$40<br><br>now","$55<br>in<br>6 weeks","0","40","55","6","NOW"
"html-keyboard-response","15","39107","0.0-5.0-3.3","60fc9ce95a59b3400b38e2a7","bdp_td","Mon Mar 27 2023 23:21:32 GMT-0400 (Eastern Daylight Time)","92254","","null","","","","offerFB","","<div class='trialBorder'><div class='vertical-center'><img style='vertical-align:center; align:center' src=img/fixation3.jpg></div><div class='cl'><div class='vertical-center'><font style='color:orange'>$40<br><br>now</font></div></div><div class='cr'><div class='vertical-center'>$55<br>in<br>6 weeks</div></div><div class='respDivL'><div class='vertical-center'><font style='color:orange'>(E)</font></div></div><div class='respDivR'><div class='vertical-center'>(I)</div></div></div>","null","$40<br><br>now","$55<br>in<br>6 weeks","0","40","55","6",""
"html-keyboard-response","16","39621","0.0-5.0-1.4","60fc9ce95a59b3400b38e2a7","bdp_td","Mon Mar 27 2023 23:21:32 GMT-0400 (Eastern Daylight Time)","92254","","null","","","","FIX","","<div class='trialBorder'><div class='vertical-center'><img style='vertical-align:center; align:center' src=img/fixation3.jpg></div></div>","null","","","","","","",""
"html-keyboard-response","17","40731","0.0-5.0-2.4","60fc9ce95a59b3400b38e2a7","bdp_td","Mon Mar 27 2023 23:21:32 GMT-0400 (Eastern Daylight Time)","92254","","1108","","","","offer","","<div class='trialBorder'><div class='vertical-center'><img style='vertical-align:center; align:center' src=img/fixation3.jpg></div><div class='cl'><div class='vertical-center'>$47<br><br>now</div></div><div class='cr'><div class='vertical-center'>$50<br>in<br>12 weeks</div></div><div class='respDivL'><div class='vertical-center'>(E)</div></div><div class='respDivR'><div class='vertical-center'>(I)</div></div></div>","E","$47<br><br>now","$50<br>in<br>12 weeks","0","47","50","12","NOW"
"html-keyboard-response","18","40992","0.0-5.0-3.4","60fc9ce95a59b3400b38e2a7","bdp_td","Mon Mar 27 2023 23:21:32 GMT-0400 (Eastern Daylight Time)","92254","","null","","","","offerFB","","<div class='trialBorder'><div class='vertical-center'><img style='vertical-align:center; align:center' src=img/fixation3.jpg></div><div class='cl'><div class='vertical-center'><font style='color:orange'>$47<br><br>now</font></div></div><div class='cr'><div class='vertical-center'>$50<br>in<br>12 weeks</div></div><div class='respDivL'><div class='vertical-center'><font style='color:orange'>(E)</font></div></div><div class='respDivR'><div class='vertical-center'>(I)</div></div></div>","null","$47<br><br>now","$50<br>in<br>12 weeks","0","47","50","12",""
"html-keyboard-response","19","41502","0.0-5.0-1.5","60fc9ce95a59b3400b38e2a7","bdp_td","Mon Mar 27 2023 23:21:32 GMT-0400 (Eastern Daylight Time)","92254","","null","","","","FIX","","<div class='trialBorder'><div class='vertical-center'><img style='vertical-align:center; align:center' src=img/fixation3.jpg></div></div>","null","","","","","","",""
"html-keyboard-response","20","43417","0.0-5.0-2.5","60fc9ce95a59b3400b38e2a7","bdp_td","Mon Mar 27 2023 23:21:32 GMT-0400 (Eastern Daylight Time)","92254","","1912","","","","offer","","<div class='trialBorder'><div class='vertical-center'><img style='vertical-align:center; align:center' src=img/fixation3.jpg></div><div class='cl'><div class='vertical-center'>$50<br>in<br>3 weeks</div></div><div class='cr'><div class='vertical-center'>$27<br><br>now</div></div><div class='respDivL'><div class='vertical-center'>(E)</div></div><div class='respDivR'><div class='vertical-center'>(I)</div></div></div>","E","$27<br><br>now","$50<br>in<br>3 weeks","1","27","50","3","THEN"
"html-keyboard-response","21","43671","0.0-5.0-3.5","60fc9ce95a59b3400b38e2a7","bdp_td","Mon Mar 27 2023 23:21:32 GMT-0400 (Eastern Daylight Time)","92254","","null","","","","offerFB","","<div class='trialBorder'><div class='vertical-center'><img style='vertical-align:center; align:center' src=img/fixation3.jpg></div><div class='cl'><div class='vertical-center'><font style='color:orange'>$50<br>in<br>3 weeks</font></div></div><div class='cr'><div class='vertical-center'>$27<br><br>now</div></div><div class='respDivL'><div class='vertical-center'><font style='color:orange'>(E)</font></div></div><div class='respDivR'><div class='vertical-center'>(I)</div></div></div>","null","$27<br><br>now","$50<br>in<br>3 weeks","1","27","50","3",""
"html-keyboard-response","22","44176","0.0-5.0-1.6","60fc9ce95a59b3400b38e2a7","bdp_td","Mon Mar 27 2023 23:21:32 GMT-0400 (Eastern Daylight Time)","92254","","null","","","","FIX","","<div class='trialBorder'><div class='vertical-center'><img style='vertical-align:center; align:center' src=img/fixation3.jpg></div></div>","null","","","","","","",""
"html-keyboard-response","23","45545","0.0-5.0-2.6","60fc9ce95a59b3400b38e2a7","bdp_td","Mon Mar 27 2023 23:21:32 GMT-0400 (Eastern Daylight Time)","92254","","1365","","","","offer","","<div class='trialBorder'><div class='vertical-center'><img style='vertical-align:center; align:center' src=img/fixation3.jpg></div><div class='cl'><div class='vertical-center'>$15<br><br>now</div></div><div class='cr'><div class='vertical-center'>$35<br>in<br>2 weeks</div></div><div class='respDivL'><div class='vertical-center'>(E)</div></div><div class='respDivR'><div class='vertical-center'>(I)</div></div></div>","I","$15<br><br>now","$35<br>in<br>2 weeks","0","15","35","2","THEN"
"html-keyboard-response","24","45801","0.0-5.0-3.6","60fc9ce95a59b3400b38e2a7","bdp_td","Mon Mar 27 2023 23:21:32 GMT-0400 (Eastern Daylight Time)","92254","","null","","","","offerFB","","<div class='trialBorder'><div class='vertical-center'><img style='vertical-align:center; align:center' src=img/fixation3.jpg></div><div class='cl'><div class='vertical-center'>$15<br><br>now</div></div><div class='cr'><div class='vertical-center'><font style='color:orange'>$35<br>in<br>2 weeks</font></div></div><div class='respDivL'><div class='vertical-center'>(E)</div></div><div class='respDivR'><div class='vertical-center'><font style='color:orange'>(I)</font></div></div></div>","null","$15<br><br>now","$35<br>in<br>2 weeks","0","15","35","2",""
"html-keyboard-response","25","46310","0.0-5.0-1.7","60fc9ce95a59b3400b38e2a7","bdp_td","Mon Mar 27 2023 23:21:32 GMT-0400 (Eastern Daylight Time)","92254","","null","","","","FIX","","<div class='trialBorder'><div class='vertical-center'><img style='vertical-align:center; align:center' src=img/fixation3.jpg></div></div>","null","","","","","","",""
"html-keyboard-response","26","48418","0.0-5.0-2.7","60fc9ce95a59b3400b38e2a7","bdp_td","Mon Mar 27 2023 23:21:32 GMT-0400 (Eastern Daylight Time)","92254","","2106","","","","offer","","<div class='trialBorder'><div class='vertical-center'><img style='vertical-align:center; align:center' src=img/fixation3.jpg></div><div class='cl'><div class='vertical-center'>$54<br><br>now</div></div><div class='cr'><div class='vertical-center'>$60<br>in<br>12 weeks</div></div><div class='respDivL'><div class='vertical-center'>(E)</div></div><div class='respDivR'><div class='vertical-center'>(I)</div></div></div>","E","$54<br><br>now","$60<br>in<br>12 weeks","0","54","60","12","NOW"
"html-keyboard-response","27","48673","0.0-5.0-3.7","60fc9ce95a59b3400b38e2a7","bdp_td","Mon Mar 27 2023 23:21:32 GMT-0400 (Eastern Daylight Time)","92254","","null","","","","offerFB","","<div class='trialBorder'><div class='vertical-center'><img style='vertical-align:center; align:center' src=img/fixation3.jpg></div><div class='cl'><div class='vertical-center'><font style='color:orange'>$54<br><br>now</font></div></div><div class='cr'><div class='vertical-center'>$60<br>in<br>12 weeks</div></div><div class='respDivL'><div class='vertical-center'><font style='color:orange'>(E)</font></div></div><div class='respDivR'><div class='vertical-center'>(I)</div></div></div>","null","$54<br><br>now","$60<br>in<br>12 weeks","0","54","60","12",""
"html-keyboard-response","28","49176","0.0-5.0-1.8","60fc9ce95a59b3400b38e2a7","bdp_td","Mon Mar 27 2023 23:21:32 GMT-0400 (Eastern Daylight Time)","92254","","null","","","","FIX","","<div class='trialBorder'><div class='vertical-center'><img style='vertical-align:center; align:center' src=img/fixation3.jpg></div></div>","null","","","","","","",""
"html-keyboard-response","29","50468","0.0-5.0-2.8","60fc9ce95a59b3400b38e2a7","bdp_td","Mon Mar 27 2023 23:21:32 GMT-0400 (Eastern Daylight Time)","92254","","1290","","","","offer","","<div class='trialBorder'><div class='vertical-center'><img style='vertical-align:center; align:center' src=img/fixation3.jpg></div><div class='cl'><div class='vertical-center'>$60<br>in<br>6 weeks</div></div><div class='cr'><div class='vertical-center'>$49<br><br>now</div></div><div class='respDivL'><div class='vertical-center'>(E)</div></div><div class='respDivR'><div class='vertical-center'>(I)</div></div></div>","I","$49<br><br>now","$60<br>in<br>6 weeks","1","49","60","6","NOW"
"html-keyboard-response","30","50734","0.0-5.0-3.8","60fc9ce95a59b3400b38e2a7","bdp_td","Mon Mar 27 2023 23:21:32 GMT-0400 (Eastern Daylight Time)","92254","","null","","","","offerFB","","<div class='trialBorder'><div class='vertical-center'><img style='vertical-align:center; align:center' src=img/fixation3.jpg></div><div class='cl'><div class='vertical-center'>$60<br>in<br>6 weeks</div></div><div class='cr'><div class='vertical-center'><font style='color:orange'>$49<br><br>now</font></div></div><div class='respDivL'><div class='vertical-center'>(E)</div></div><div class='respDivR'><div class='vertical-center'><font style='color:orange'>(I)</font></div></div></div>","null","$49<br><br>now","$60<br>in<br>6 weeks","1","49","60","6",""
"html-keyboard-response","31","51241","0.0-5.0-1.9","60fc9ce95a59b3400b38e2a7","bdp_td","Mon Mar 27 2023 23:21:32 GMT-0400 (Eastern Daylight Time)","92254","","null","","","","FIX","","<div class='trialBorder'><div class='vertical-center'><img style='vertical-align:center; align:center' src=img/fixation3.jpg></div></div>","null","","","","","","",""
"html-keyboard-response","32","52849","0.0-5.0-2.9","60fc9ce95a59b3400b38e2a7","bdp_td","Mon Mar 27 2023 23:21:32 GMT-0400 (Eastern Daylight Time)","92254","","1606","","","","offer","","<div class='trialBorder'><div class='vertical-center'><img style='vertical-align:center; align:center' src=img/fixation3.jpg></div><div class='cl'><div class='vertical-center'>$50<br>in<br>6 weeks</div></div><div class='cr'><div class='vertical-center'>$34<br><br>now</div></div><div class='respDivL'><div class='vertical-center'>(E)</div></div><div class='respDivR'><div class='vertical-center'>(I)</div></div></div>","I","$34<br><br>now","$50<br>in<br>6 weeks","1","34","50","6","NOW"
"html-keyboard-response","33","53110","0.0-5.0-3.9","60fc9ce95a59b3400b38e2a7","bdp_td","Mon Mar 27 2023 23:21:32 GMT-0400 (Eastern Daylight Time)","92254","","null","","","","offerFB","","<div class='trialBorder'><div class='vertical-center'><img style='vertical-align:center; align:center' src=img/fixation3.jpg></div><div class='cl'><div class='vertical-center'>$50<br>in<br>6 weeks</div></div><div class='cr'><div class='vertical-center'><font style='color:orange'>$34<br><br>now</font></div></div><div class='respDivL'><div class='vertical-center'>(E)</div></div><div class='respDivR'><div class='vertical-center'><font style='color:orange'>(I)</font></div></div></div>","null","$34<br><br>now","$50<br>in<br>6 weeks","1","34","50","6",""
"html-keyboard-response","34","53620","0.0-5.0-1.10","60fc9ce95a59b3400b38e2a7","bdp_td","Mon Mar 27 2023 23:21:32 GMT-0400 (Eastern Daylight Time)","92254","","null","","","","FIX","","<div class='trialBorder'><div class='vertical-center'><img style='vertical-align:center; align:center' src=img/fixation3.jpg></div></div>","null","","","","","","",""
"html-keyboard-response","35","55368","0.0-5.0-2.10","60fc9ce95a59b3400b38e2a7","bdp_td","Mon Mar 27 2023 23:21:32 GMT-0400 (Eastern Daylight Time)","92254","","1745","","","","offer","","<div class='trialBorder'><div class='vertical-center'><img style='vertical-align:center; align:center' src=img/fixation3.jpg></div><div class='cl'><div class='vertical-center'>$55<br>in<br>1 week</div></div><div class='cr'><div class='vertical-center'>$20<br><br>now</div></div><div class='respDivL'><div class='vertical-center'>(E)</div></div><div class='respDivR'><div class='vertical-center'>(I)</div></div></div>","E","$20<br><br>now","$55<br>in<br>1 week","1","20","55","1","THEN"
"html-keyboard-response","36","55624","0.0-5.0-3.10","60fc9ce95a59b3400b38e2a7","bdp_td","Mon Mar 27 2023 23:21:32 GMT-0400 (Eastern Daylight Time)","92254","","null","","","","offerFB","","<div class='trialBorder'><div class='vertical-center'><img style='vertical-align:center; align:center' src=img/fixation3.jpg></div><div class='cl'><div class='vertical-center'><font style='color:orange'>$55<br>in<br>1 week</font></div></div><div class='cr'><div class='vertical-center'>$20<br><br>now</div></div><div class='respDivL'><div class='vertical-center'><font style='color:orange'>(E)</font></div></div><div class='respDivR'><div class='vertical-center'>(I)</div></div></div>","null","$20<br><br>now","$55<br>in<br>1 week","1","20","55","1",""
"html-keyboard-response","37","56133","0.0-5.0-1.11","60fc9ce95a59b3400b38e2a7","bdp_td","Mon Mar 27 2023 23:21:32 GMT-0400 (Eastern Daylight Time)","92254","","null","","","","FIX","","<div class='trialBorder'><div class='vertical-center'><img style='vertical-align:center; align:center' src=img/fixation3.jpg></div></div>","null","","","","","","",""
"html-keyboard-response","38","57625","0.0-5.0-2.11","60fc9ce95a59b3400b38e2a7","bdp_td","Mon Mar 27 2023 23:21:32 GMT-0400 (Eastern Daylight Time)","92254","","1489","","","","offer","","<div class='trialBorder'><div class='vertical-center'><img style='vertical-align:center; align:center' src=img/fixation3.jpg></div><div class='cl'><div class='vertical-center'>$78<br><br>now</div></div><div class='cr'><div class='vertical-center'>$80<br>in<br>12 weeks</div></div><div class='respDivL'><div class='vertical-center'>(E)</div></div><div class='respDivR'><div class='vertical-center'>(I)</div></div></div>","E","$78<br><br>now","$80<br>in<br>12 weeks","0","78","80","12","NOW"
"html-keyboard-response","39","57885","0.0-5.0-3.11","60fc9ce95a59b3400b38e2a7","bdp_td","Mon Mar 27 2023 23:21:32 GMT-0400 (Eastern Daylight Time)","92254","","null","","","","offerFB","","<div class='trialBorder'><div class='vertical-center'><img style='vertical-align:center; align:center' src=img/fixation3.jpg></div><div class='cl'><div class='vertical-center'><font style='color:orange'>$78<br><br>now</font></div></div><div class='cr'><div class='vertical-center'>$80<br>in<br>12 weeks</div></div><div class='respDivL'><div class='vertical-center'><font style='color:orange'>(E)</font></div></div><div class='respDivR'><div class='vertical-center'>(I)</div></div></div>","null","$78<br><br>now","$80<br>in<br>12 weeks","0","78","80","12",""
"html-keyboard-response","40","58389","0.0-5.0-1.12","60fc9ce95a59b3400b38e2a7","bdp_td","Mon Mar 27 2023 23:21:32 GMT-0400 (Eastern Daylight Time)","92254","","null","","","","FIX","","<div class='trialBorder'><div class='vertical-center'><img style='vertical-align:center; align:center' src=img/fixation3.jpg></div></div>","null","","","","","","",""
"html-keyboard-response","41","59829","0.0-5.0-2.12","60fc9ce95a59b3400b38e2a7","bdp_td","Mon Mar 27 2023 23:21:32 GMT-0400 (Eastern Daylight Time)","92254","","1436","","","","offer","","<div class='trialBorder'><div class='vertical-center'><img style='vertical-align:center; align:center' src=img/fixation3.jpg></div><div class='cl'><div class='vertical-center'>$25<br>in<br>6 weeks</div></div><div class='cr'><div class='vertical-center'>$19<br><br>now</div></div><div class='respDivL'><div class='vertical-center'>(E)</div></div><div class='respDivR'><div class='vertical-center'>(I)</div></div></div>","I","$19<br><br>now","$25<br>in<br>6 weeks","1","19","25","6","NOW"
"html-keyboard-response","42","60090","0.0-5.0-3.12","60fc9ce95a59b3400b38e2a7","bdp_td","Mon Mar 27 2023 23:21:32 GMT-0400 (Eastern Daylight Time)","92254","","null","","","","offerFB","","<div class='trialBorder'><div class='vertical-center'><img style='vertical-align:center; align:center' src=img/fixation3.jpg></div><div class='cl'><div class='vertical-center'>$25<br>in<br>6 weeks</div></div><div class='cr'><div class='vertical-center'><font style='color:orange'>$19<br><br>now</font></div></div><div class='respDivL'><div class='vertical-center'>(E)</div></div><div class='respDivR'><div class='vertical-center'><font style='color:orange'>(I)</font></div></div></div>","null","$19<br><br>now","$25<br>in<br>6 weeks","1","19","25","6",""
"html-keyboard-response","43","60597","0.0-5.0-1.13","60fc9ce95a59b3400b38e2a7","bdp_td","Mon Mar 27 2023 23:21:32 GMT-0400 (Eastern Daylight Time)","92254","","null","","","","FIX","","<div class='trialBorder'><div class='vertical-center'><img style='vertical-align:center; align:center' src=img/fixation3.jpg></div></div>","null","","","","","","",""
"html-keyboard-response","44","62147","0.0-5.0-2.13","60fc9ce95a59b3400b38e2a7","bdp_td","Mon Mar 27 2023 23:21:32 GMT-0400 (Eastern Daylight Time)","92254","","1546","","","","offer","","<div class='trialBorder'><div class='vertical-center'><img style='vertical-align:center; align:center' src=img/fixation3.jpg></div><div class='cl'><div class='vertical-center'>$54<br><br>now</div></div><div class='cr'><div class='vertical-center'>$80<br>in<br>3 weeks</div></div><div class='respDivL'><div class='vertical-center'>(E)</div></div><div class='respDivR'><div class='vertical-center'>(I)</div></div></div>","I","$54<br><br>now","$80<br>in<br>3 weeks","0","54","80","3","THEN"
"html-keyboard-response","45","62400","0.0-5.0-3.13","60fc9ce95a59b3400b38e2a7","bdp_td","Mon Mar 27 2023 23:21:32 GMT-0400 (Eastern Daylight Time)","92254","","null","","","","offerFB","","<div class='trialBorder'><div class='vertical-center'><img style='vertical-align:center; align:center' src=img/fixation3.jpg></div><div class='cl'><div class='vertical-center'>$54<br><br>now</div></div><div class='cr'><div class='vertical-center'><font style='color:orange'>$80<br>in<br>3 weeks</font></div></div><div class='respDivL'><div class='vertical-center'>(E)</div></div><div class='respDivR'><div class='vertical-center'><font style='color:orange'>(I)</font></div></div></div>","null","$54<br><br>now","$80<br>in<br>3 weeks","0","54","80","3",""
"html-keyboard-response","46","62905","0.0-5.0-1.14","60fc9ce95a59b3400b38e2a7","bdp_td","Mon Mar 27 2023 23:21:32 GMT-0400 (Eastern Daylight Time)","92254","","null","","","","FIX","","<div class='trialBorder'><div class='vertical-center'><img style='vertical-align:center; align:center' src=img/fixation3.jpg></div></div>","null","","","","","","",""
"html-keyboard-response","47","64452","0.0-5.0-2.14","60fc9ce95a59b3400b38e2a7","bdp_td","Mon Mar 27 2023 23:21:32 GMT-0400 (Eastern Daylight Time)","92254","","1544","","","","offer","","<div class='trialBorder'><div class='vertical-center'><img style='vertical-align:center; align:center' src=img/fixation3.jpg></div><div class='cl'><div class='vertical-center'>$35<br>in<br>12 weeks</div></div><div class='cr'><div class='vertical-center'>$34<br><br>now</div></div><div class='respDivL'><div class='vertical-center'>(E)</div></div><div class='respDivR'><div class='vertical-center'>(I)</div></div></div>","I","$34<br><br>now","$35<br>in<br>12 weeks","1","34","35","12","NOW"
"html-keyboard-response","48","64705","0.0-5.0-3.14","60fc9ce95a59b3400b38e2a7","bdp_td","Mon Mar 27 2023 23:21:32 GMT-0400 (Eastern Daylight Time)","92254","","null","","","","offerFB","","<div class='trialBorder'><div class='vertical-center'><img style='vertical-align:center; align:center' src=img/fixation3.jpg></div><div class='cl'><div class='vertical-center'>$35<br>in<br>12 weeks</div></div><div class='cr'><div class='vertical-center'><font style='color:orange'>$34<br><br>now</font></div></div><div class='respDivL'><div class='vertical-center'>(E)</div></div><div class='respDivR'><div class='vertical-center'><font style='color:orange'>(I)</font></div></div></div>","null","$34<br><br>now","$35<br>in<br>12 weeks","1","34","35","12",""
"html-keyboard-response","49","65210","0.0-5.0-1.15","60fc9ce95a59b3400b38e2a7","bdp_td","Mon Mar 27 2023 23:21:32 GMT-0400 (Eastern Daylight Time)","92254","","null","","","","FIX","","<div class='trialBorder'><div class='vertical-center'><img style='vertical-align:center; align:center' src=img/fixation3.jpg></div></div>","null","","","","","","",""
"html-keyboard-response","50","66720","0.0-5.0-2.15","60fc9ce95a59b3400b38e2a7","bdp_td","Mon Mar 27 2023 23:21:32 GMT-0400 (Eastern Daylight Time)","92254","","1507","","","","offer","","<div class='trialBorder'><div class='vertical-center'><img style='vertical-align:center; align:center' src=img/fixation3.jpg></div><div class='cl'><div class='vertical-center'>$60<br>in<br>3 weeks</div></div><div class='cr'><div class='vertical-center'>$25<br><br>now</div></div><div class='respDivL'><div class='vertical-center'>(E)</div></div><div class='respDivR'><div class='vertical-center'>(I)</div></div></div>","E","$25<br><br>now","$60<br>in<br>3 weeks","1","25","60","3","THEN"
"html-keyboard-response","51","66981","0.0-5.0-3.15","60fc9ce95a59b3400b38e2a7","bdp_td","Mon Mar 27 2023 23:21:32 GMT-0400 (Eastern Daylight Time)","92254","","null","","","","offerFB","","<div class='trialBorder'><div class='vertical-center'><img style='vertical-align:center; align:center' src=img/fixation3.jpg></div><div class='cl'><div class='vertical-center'><font style='color:orange'>$60<br>in<br>3 weeks</font></div></div><div class='cr'><div class='vertical-center'>$25<br><br>now</div></div><div class='respDivL'><div class='vertical-center'><font style='color:orange'>(E)</font></div></div><div class='respDivR'><div class='vertical-center'>(I)</div></div></div>","null","$25<br><br>now","$60<br>in<br>3 weeks","1","25","60","3",""
"html-keyboard-response","52","67485","0.0-5.0-1.16","60fc9ce95a59b3400b38e2a7","bdp_td","Mon Mar 27 2023 23:21:32 GMT-0400 (Eastern Daylight Time)","92254","","null","","","","FIX","","<div class='trialBorder'><div class='vertical-center'><img style='vertical-align:center; align:center' src=img/fixation3.jpg></div></div>","null","","","","","","",""
"html-keyboard-response","53","68754","0.0-5.0-2.16","60fc9ce95a59b3400b38e2a7","bdp_td","Mon Mar 27 2023 23:21:32 GMT-0400 (Eastern Daylight Time)","92254","","1266","","","","offer","","<div class='trialBorder'><div class='vertical-center'><img style='vertical-align:center; align:center' src=img/fixation3.jpg></div><div class='cl'><div class='vertical-center'>$30<br>in<br>12 weeks</div></div><div class='cr'><div class='vertical-center'>$28<br><br>now</div></div><div class='respDivL'><div class='vertical-center'>(E)</div></div><div class='respDivR'><div class='vertical-center'>(I)</div></div></div>","I","$28<br><br>now","$30<br>in<br>12 weeks","1","28","30","12","NOW"
"html-keyboard-response","54","69008","0.0-5.0-3.16","60fc9ce95a59b3400b38e2a7","bdp_td","Mon Mar 27 2023 23:21:32 GMT-0400 (Eastern Daylight Time)","92254","","null","","","","offerFB","","<div class='trialBorder'><div class='vertical-center'><img style='vertical-align:center; align:center' src=img/fixation3.jpg></div><div class='cl'><div class='vertical-center'>$30<br>in<br>12 weeks</div></div><div class='cr'><div class='vertical-center'><font style='color:orange'>$28<br><br>now</font></div></div><div class='respDivL'><div class='vertical-center'>(E)</div></div><div class='respDivR'><div class='vertical-center'><font style='color:orange'>(I)</font></div></div></div>","null","$28<br><br>now","$30<br>in<br>12 weeks","1","28","30","12",""
"html-keyboard-response","55","69518","0.0-5.0-1.17","60fc9ce95a59b3400b38e2a7","bdp_td","Mon Mar 27 2023 23:21:32 GMT-0400 (Eastern Daylight Time)","92254","","null","","","","FIX","","<div class='trialBorder'><div class='vertical-center'><img style='vertical-align:center; align:center' src=img/fixation3.jpg></div></div>","null","","","","","","",""
"html-keyboard-response","56","70651","0.0-5.0-2.17","60fc9ce95a59b3400b38e2a7","bdp_td","Mon Mar 27 2023 23:21:32 GMT-0400 (Eastern Daylight Time)","92254","","1131","","","","offer","","<div class='trialBorder'><div class='vertical-center'><img style='vertical-align:center; align:center' src=img/fixation3.jpg></div><div class='cl'><div class='vertical-center'>$25<br>in<br>12 weeks</div></div><div class='cr'><div class='vertical-center'>$22<br><br>now</div></div><div class='respDivL'><div class='vertical-center'>(E)</div></div><div class='respDivR'><div class='vertical-center'>(I)</div></div></div>","I","$22<br><br>now","$25<br>in<br>12 weeks","1","22","25","12","NOW"
"html-keyboard-response","57","70909","0.0-5.0-3.17","60fc9ce95a59b3400b38e2a7","bdp_td","Mon Mar 27 2023 23:21:32 GMT-0400 (Eastern Daylight Time)","92254","","null","","","","offerFB","","<div class='trialBorder'><div class='vertical-center'><img style='vertical-align:center; align:center' src=img/fixation3.jpg></div><div class='cl'><div class='vertical-center'>$25<br>in<br>12 weeks</div></div><div class='cr'><div class='vertical-center'><font style='color:orange'>$22<br><br>now</font></div></div><div class='respDivL'><div class='vertical-center'>(E)</div></div><div class='respDivR'><div class='vertical-center'><font style='color:orange'>(I)</font></div></div></div>","null","$22<br><br>now","$25<br>in<br>12 weeks","1","22","25","12",""
"html-keyboard-response","58","71415","0.0-5.0-1.18","60fc9ce95a59b3400b38e2a7","bdp_td","Mon Mar 27 2023 23:21:32 GMT-0400 (Eastern Daylight Time)","92254","","null","","","","FIX","","<div class='trialBorder'><div class='vertical-center'><img style='vertical-align:center; align:center' src=img/fixation3.jpg></div></div>","null","","","","","","",""
"html-keyboard-response","59","72503","0.0-5.0-2.18","60fc9ce95a59b3400b38e2a7","bdp_td","Mon Mar 27 2023 23:21:32 GMT-0400 (Eastern Daylight Time)","92254","","1085","","","","offer","","<div class='trialBorder'><div class='vertical-center'><img style='vertical-align:center; align:center' src=img/fixation3.jpg></div><div class='cl'><div class='vertical-center'>$41<br><br>now</div></div><div class='cr'><div class='vertical-center'>$75<br>in<br>3 weeks</div></div><div class='respDivL'><div class='vertical-center'>(E)</div></div><div class='respDivR'><div class='vertical-center'>(I)</div></div></div>","E","$41<br><br>now","$75<br>in<br>3 weeks","0","41","75","3","NOW"
"html-keyboard-response","60","72756","0.0-5.0-3.18","60fc9ce95a59b3400b38e2a7","bdp_td","Mon Mar 27 2023 23:21:32 GMT-0400 (Eastern Daylight Time)","92254","","null","","","","offerFB","","<div class='trialBorder'><div class='vertical-center'><img style='vertical-align:center; align:center' src=img/fixation3.jpg></div><div class='cl'><div class='vertical-center'><font style='color:orange'>$41<br><br>now</font></div></div><div class='cr'><div class='vertical-center'>$75<br>in<br>3 weeks</div></div><div class='respDivL'><div class='vertical-center'><font style='color:orange'>(E)</font></div></div><div class='respDivR'><div class='vertical-center'>(I)</div></div></div>","null","$41<br><br>now","$75<br>in<br>3 weeks","0","41","75","3",""
"html-keyboard-response","61","73259","0.0-5.0-1.19","60fc9ce95a59b3400b38e2a7","bdp_td","Mon Mar 27 2023 23:21:32 GMT-0400 (Eastern Daylight Time)","92254","","null","","","","FIX","","<div class='trialBorder'><div class='vertical-center'><img style='vertical-align:center; align:center' src=img/fixation3.jpg></div></div>","null","","","","","","",""
"html-keyboard-response","62","74513","0.0-5.0-2.19","60fc9ce95a59b3400b38e2a7","bdp_td","Mon Mar 27 2023 23:21:32 GMT-0400 (Eastern Daylight Time)","92254","","1252","","","","offer","","<div class='trialBorder'><div class='vertical-center'><img style='vertical-align:center; align:center' src=img/fixation3.jpg></div><div class='cl'><div class='vertical-center'>$31<br><br>now</div></div><div class='cr'><div class='vertical-center'>$85<br>in<br>1 week</div></div><div class='respDivL'><div class='vertical-center'>(E)</div></div><div class='respDivR'><div class='vertical-center'>(I)</div></div></div>","I","$31<br><br>now","$85<br>in<br>1 week","0","31","85","1","THEN"
"html-keyboard-response","63","74769","0.0-5.0-3.19","60fc9ce95a59b3400b38e2a7","bdp_td","Mon Mar 27 2023 23:21:32 GMT-0400 (Eastern Daylight Time)","92254","","null","","","","offerFB","","<div class='trialBorder'><div class='vertical-center'><img style='vertical-align:center; align:center' src=img/fixation3.jpg></div><div class='cl'><div class='vertical-center'>$31<br><br>now</div></div><div class='cr'><div class='vertical-center'><font style='color:orange'>$85<br>in<br>1 week</font></div></div><div class='respDivL'><div class='vertical-center'>(E)</div></div><div class='respDivR'><div class='vertical-center'><font style='color:orange'>(I)</font></div></div></div>","null","$31<br><br>now","$85<br>in<br>1 week","0","31","85","1",""
"html-keyboard-response","64","75276","0.0-5.0-1.20","60fc9ce95a59b3400b38e2a7","bdp_td","Mon Mar 27 2023 23:21:32 GMT-0400 (Eastern Daylight Time)","92254","","null","","","","FIX","","<div class='trialBorder'><div class='vertical-center'><img style='vertical-align:center; align:center' src=img/fixation3.jpg></div></div>","null","","","","","","",""
"html-keyboard-response","65","76405","0.0-5.0-2.20","60fc9ce95a59b3400b38e2a7","bdp_td","Mon Mar 27 2023 23:21:32 GMT-0400 (Eastern Daylight Time)","92254","","1126","","","","offer","","<div class='trialBorder'><div class='vertical-center'><img style='vertical-align:center; align:center' src=img/fixation3.jpg></div><div class='cl'><div class='vertical-center'>$30<br>in<br>6 weeks</div></div><div class='cr'><div class='vertical-center'>$25<br><br>now</div></div><div class='respDivL'><div class='vertical-center'>(E)</div></div><div class='respDivR'><div class='vertical-center'>(I)</div></div></div>","E","$25<br><br>now","$30<br>in<br>6 weeks","1","25","30","6","THEN"
"html-keyboard-response","66","76665","0.0-5.0-3.20","60fc9ce95a59b3400b38e2a7","bdp_td","Mon Mar 27 2023 23:21:32 GMT-0400 (Eastern Daylight Time)","92254","","null","","","","offerFB","","<div class='trialBorder'><div class='vertical-center'><img style='vertical-align:center; align:center' src=img/fixation3.jpg></div><div class='cl'><div class='vertical-center'><font style='color:orange'>$30<br>in<br>6 weeks</font></div></div><div class='cr'><div class='vertical-center'>$25<br><br>now</div></div><div class='respDivL'><div class='vertical-center'><font style='color:orange'>(E)</font></div></div><div class='respDivR'><div class='vertical-center'>(I)</div></div></div>","null","$25<br><br>now","$30<br>in<br>6 weeks","1","25","30","6",""
"html-keyboard-response","67","77173","0.0-5.0-1.21","60fc9ce95a59b3400b38e2a7","bdp_td","Mon Mar 27 2023 23:21:32 GMT-0400 (Eastern Daylight Time)","92254","","null","","","","FIX","","<div class='trialBorder'><div class='vertical-center'><img style='vertical-align:center; align:center' src=img/fixation3.jpg></div></div>","null","","","","","","",""
"html-keyboard-response","68","78972","0.0-5.0-2.21","60fc9ce95a59b3400b38e2a7","bdp_td","Mon Mar 27 2023 23:21:32 GMT-0400 (Eastern Daylight Time)","92254","","1797","","","","offer","","<div class='trialBorder'><div class='vertical-center'><img style='vertical-align:center; align:center' src=img/fixation3.jpg></div><div class='cl'><div class='vertical-center'>$85<br>in<br>12 weeks</div></div><div class='cr'><div class='vertical-center'>$80<br><br>now</div></div><div class='respDivL'><div class='vertical-center'>(E)</div></div><div class='respDivR'><div class='vertical-center'>(I)</div></div></div>","I","$80<br><br>now","$85<br>in<br>12 weeks","1","80","85","12","NOW"
"html-keyboard-response","69","79231","0.0-5.0-3.21","60fc9ce95a59b3400b38e2a7","bdp_td","Mon Mar 27 2023 23:21:32 GMT-0400 (Eastern Daylight Time)","92254","","null","","","","offerFB","","<div class='trialBorder'><div class='vertical-center'><img style='vertical-align:center; align:center' src=img/fixation3.jpg></div><div class='cl'><div class='vertical-center'>$85<br>in<br>12 weeks</div></div><div class='cr'><div class='vertical-center'><font style='color:orange'>$80<br><br>now</font></div></div><div class='respDivL'><div class='vertical-center'>(E)</div></div><div class='respDivR'><div class='vertical-center'><font style='color:orange'>(I)</font></div></div></div>","null","$80<br><br>now","$85<br>in<br>12 weeks","1","80","85","12",""
"html-keyboard-response","70","79735","0.0-5.0-1.22","60fc9ce95a59b3400b38e2a7","bdp_td","Mon Mar 27 2023 23:21:32 GMT-0400 (Eastern Daylight Time)","92254","","null","","","","FIX","","<div class='trialBorder'><div class='vertical-center'><img style='vertical-align:center; align:center' src=img/fixation3.jpg></div></div>","null","","","","","","",""
"html-keyboard-response","71","80838","0.0-5.0-2.22","60fc9ce95a59b3400b38e2a7","bdp_td","Mon Mar 27 2023 23:21:32 GMT-0400 (Eastern Daylight Time)","92254","","1101","","","","offer","","<div class='trialBorder'><div class='vertical-center'><img style='vertical-align:center; align:center' src=img/fixation3.jpg></div><div class='cl'><div class='vertical-center'>$55<br>in<br>12 weeks</div></div><div class='cr'><div class='vertical-center'>$54<br><br>now</div></div><div class='respDivL'><div class='vertical-center'>(E)</div></div><div class='respDivR'><div class='vertical-center'>(I)</div></div></div>","I","$54<br><br>now","$55<br>in<br>12 weeks","1","54","55","12","NOW"
"html-keyboard-response","72","81095","0.0-5.0-3.22","60fc9ce95a59b3400b38e2a7","bdp_td","Mon Mar 27 2023 23:21:32 GMT-0400 (Eastern Daylight Time)","92254","","null","","","","offerFB","","<div class='trialBorder'><div class='vertical-center'><img style='vertical-align:center; align:center' src=img/fixation3.jpg></div><div class='cl'><div class='vertical-center'>$55<br>in<br>12 weeks</div></div><div class='cr'><div class='vertical-center'><font style='color:orange'>$54<br><br>now</font></div></div><div class='respDivL'><div class='vertical-center'>(E)</div></div><div class='respDivR'><div class='vertical-center'><font style='color:orange'>(I)</font></div></div></div>","null","$54<br><br>now","$55<br>in<br>12 weeks","1","54","55","12",""
"html-keyboard-response","73","81602","0.0-5.0-1.23","60fc9ce95a59b3400b38e2a7","bdp_td","Mon Mar 27 2023 23:21:32 GMT-0400 (Eastern Daylight Time)","92254","","null","","","","FIX","","<div class='trialBorder'><div class='vertical-center'><img style='vertical-align:center; align:center' src=img/fixation3.jpg></div></div>","null","","","","","","",""
"html-keyboard-response","74","83002","0.0-5.0-2.23","60fc9ce95a59b3400b38e2a7","bdp_td","Mon Mar 27 2023 23:21:32 GMT-0400 (Eastern Daylight Time)","92254","","1398","","","","offer","","<div class='trialBorder'><div class='vertical-center'><img style='vertical-align:center; align:center' src=img/fixation3.jpg></div><div class='cl'><div class='vertical-center'>$33<br><br>now</div></div><div class='cr'><div class='vertical-center'>$80<br>in<br>2 weeks</div></div><div class='respDivL'><div class='vertical-center'>(E)</div></div><div class='respDivR'><div class='vertical-center'>(I)</div></div></div>","I","$33<br><br>now","$80<br>in<br>2 weeks","0","33","80","2","THEN"
"html-keyboard-response","75","83259","0.0-5.0-3.23","60fc9ce95a59b3400b38e2a7","bdp_td","Mon Mar 27 2023 23:21:32 GMT-0400 (Eastern Daylight Time)","92254","","null","","","","offerFB","","<div class='trialBorder'><div class='vertical-center'><img style='vertical-align:center; align:center' src=img/fixation3.jpg></div><div class='cl'><div class='vertical-center'>$33<br><br>now</div></div><div class='cr'><div class='vertical-center'><font style='color:orange'>$80<br>in<br>2 weeks</font></div></div><div class='respDivL'><div class='vertical-center'>(E)</div></div><div class='respDivR'><div class='vertical-center'><font style='color:orange'>(I)</font></div></div></div>","null","$33<br><br>now","$80<br>in<br>2 weeks","0","33","80","2",""
"html-keyboard-response","76","83766","0.0-5.0-1.24","60fc9ce95a59b3400b38e2a7","bdp_td","Mon Mar 27 2023 23:21:32 GMT-0400 (Eastern Daylight Time)","92254","","null","","","","FIX","","<div class='trialBorder'><div class='vertical-center'><img style='vertical-align:center; align:center' src=img/fixation3.jpg></div></div>","null","","","","","","",""
"html-keyboard-response","77","85229","0.0-5.0-2.24","60fc9ce95a59b3400b38e2a7","bdp_td","Mon Mar 27 2023 23:21:32 GMT-0400 (Eastern Daylight Time)","92254","","1461","","","","offer","","<div class='trialBorder'><div class='vertical-center'><img style='vertical-align:center; align:center' src=img/fixation3.jpg></div><div class='cl'><div class='vertical-center'>$11<br><br>now</div></div><div class='cr'><div class='vertical-center'>$30<br>in<br>2 weeks</div></div><div class='respDivL'><div class='vertical-center'>(E)</div></div><div class='respDivR'><div class='vertical-center'>(I)</div></div></div>","I","$11<br><br>now","$30<br>in<br>2 weeks","0","11","30","2","THEN"
"html-keyboard-response","78","85489","0.0-5.0-3.24","60fc9ce95a59b3400b38e2a7","bdp_td","Mon Mar 27 2023 23:21:32 GMT-0400 (Eastern Daylight Time)","92254","","null","","","","offerFB","","<div class='trialBorder'><div class='vertical-center'><img style='vertical-align:center; align:center' src=img/fixation3.jpg></div><div class='cl'><div class='vertical-center'>$11<br><br>now</div></div><div class='cr'><div class='vertical-center'><font style='color:orange'>$30<br>in<br>2 weeks</font></div></div><div class='respDivL'><div class='vertical-center'>(E)</div></div><div class='respDivR'><div class='vertical-center'><font style='color:orange'>(I)</font></div></div></div>","null","$11<br><br>now","$30<br>in<br>2 weeks","0","11","30","2",""
"html-keyboard-response","79","85992","0.0-5.0-1.25","60fc9ce95a59b3400b38e2a7","bdp_td","Mon Mar 27 2023 23:21:32 GMT-0400 (Eastern Daylight Time)","92254","","null","","","","FIX","","<div class='trialBorder'><div class='vertical-center'><img style='vertical-align:center; align:center' src=img/fixation3.jpg></div></div>","null","","","","","","",""
"html-keyboard-response","80","88460","0.0-5.0-2.25","60fc9ce95a59b3400b38e2a7","bdp_td","Mon Mar 27 2023 23:21:32 GMT-0400 (Eastern Daylight Time)","92254","","2466","","","","offer","","<div class='trialBorder'><div class='vertical-center'><img style='vertical-align:center; align:center' src=img/fixation3.jpg></div><div class='cl'><div class='vertical-center'>$55<br><br>now</div></div><div class='cr'><div class='vertical-center'>$75<br>in<br>6 weeks</div></div><div class='respDivL'><div class='vertical-center'>(E)</div></div><div class='respDivR'><div class='vertical-center'>(I)</div></div></div>","E","$55<br><br>now","$75<br>in<br>6 weeks","0","55","75","6","NOW"
"html-keyboard-response","81","88716","0.0-5.0-3.25","60fc9ce95a59b3400b38e2a7","bdp_td","Mon Mar 27 2023 23:21:32 GMT-0400 (Eastern Daylight Time)","92254","","null","","","","offerFB","","<div class='trialBorder'><div class='vertical-center'><img style='vertical-align:center; align:center' src=img/fixation3.jpg></div><div class='cl'><div class='vertical-center'><font style='color:orange'>$55<br><br>now</font></div></div><div class='cr'><div class='vertical-center'>$75<br>in<br>6 weeks</div></div><div class='respDivL'><div class='vertical-center'><font style='color:orange'>(E)</font></div></div><div class='respDivR'><div class='vertical-center'>(I)</div></div></div>","null","$55<br><br>now","$75<br>in<br>6 weeks","0","55","75","6",""
"html-keyboard-response","82","89221","0.0-5.0-1.26","60fc9ce95a59b3400b38e2a7","bdp_td","Mon Mar 27 2023 23:21:32 GMT-0400 (Eastern Daylight Time)","92254","","null","","","","FIX","","<div class='trialBorder'><div class='vertical-center'><img style='vertical-align:center; align:center' src=img/fixation3.jpg></div></div>","null","","","","","","",""
"html-keyboard-response","83","90996","0.0-5.0-2.26","60fc9ce95a59b3400b38e2a7","bdp_td","Mon Mar 27 2023 23:21:32 GMT-0400 (Eastern Daylight Time)","92254","","1772","","","","offer","","<div class='trialBorder'><div class='vertical-center'><img style='vertical-align:center; align:center' src=img/fixation3.jpg></div><div class='cl'><div class='vertical-center'>$14<br><br>now</div></div><div class='cr'><div class='vertical-center'>$25<br>in<br>3 weeks</div></div><div class='respDivL'><div class='vertical-center'>(E)</div></div><div class='respDivR'><div class='vertical-center'>(I)</div></div></div>","E","$14<br><br>now","$25<br>in<br>3 weeks","0","14","25","3","NOW"
"html-keyboard-response","84","91251","0.0-5.0-3.26","60fc9ce95a59b3400b38e2a7","bdp_td","Mon Mar 27 2023 23:21:32 GMT-0400 (Eastern Daylight Time)","92254","","null","","","","offerFB","","<div class='trialBorder'><div class='vertical-center'><img style='vertical-align:center; align:center' src=img/fixation3.jpg></div><div class='cl'><div class='vertical-center'><font style='color:orange'>$14<br><br>now</font></div></div><div class='cr'><div class='vertical-center'>$25<br>in<br>3 weeks</div></div><div class='respDivL'><div class='vertical-center'><font style='color:orange'>(E)</font></div></div><div class='respDivR'><div class='vertical-center'>(I)</div></div></div>","null","$14<br><br>now","$25<br>in<br>3 weeks","0","14","25","3",""
"","","","","60fc9ce95a59b3400b38e2a7","bdp_td","Mon Mar 27 2023 23:21:32 GMT-0400 (Eastern Daylight Time)","92254","","","fullscreenexit","85","91294","fullscreenexit","","","","","","","","","",""
"fullscreen","85","92253","0.0-6.0","60fc9ce95a59b3400b38e2a7","bdp_td","Mon Mar 27 2023 23:21:32 GMT-0400 (Eastern Daylight Time)","92254","","","","","","","true","","","","","","","","",""
"html-keyboard-response","86","92756","0.0-7.0","","","","","","null","","","","","","","null","","","","","","",""
