"event","trial","time","trialtype","subject_id","task","startTime","totalTime","trial_type","trial_index","time_elapsed","internal_node_id","view_history","rt","success","stimulus","key_press","nowOffer","thenOffer","thenLeft","nowAmt","thenAmt","thenWeeks","chosen"
"focus","0","0","focusevent","6156a0460b95fa57be8312c4","bdp_td","Wed Mar 29 2023 01:16:05 GMT-0700 (Pacific Daylight Time)","160303","","","","","","","","","","","","","","","",""
"","","","","6156a0460b95fa57be8312c4","bdp_td","Wed Mar 29 2023 01:16:05 GMT-0700 (Pacific Daylight Time)","160303","pavlovia","0","1","0.0-0.0","","","","","","","","","","","",""
"","","","","6156a0460b95fa57be8312c4","bdp_td","Wed Mar 29 2023 01:16:05 GMT-0700 (Pacific Daylight Time)","160303","instructions","1","4792","0.0-1.0","[{""page_index"":0,""viewing_time"":4791}]","4791","","","","","","","","","",""
"fullscreenexit","2","6577","fullscreenexit","6156a0460b95fa57be8312c4","bdp_td","Wed Mar 29 2023 01:16:05 GMT-0700 (Pacific Daylight Time)","160303","","","","","","","","","","","","","","","",""
"","","","","6156a0460b95fa57be8312c4","bdp_td","Wed Mar 29 2023 01:16:05 GMT-0700 (Pacific Daylight Time)","160303","fullscreen","2","7587","0.0-2.0","","","true","","","","","","","","",""
"","","","fullscreenfail","6156a0460b95fa57be8312c4","bdp_td","Wed Mar 29 2023 01:16:05 GMT-0700 (Pacific Daylight Time)","160303","image-keyboard-response","3","8230","0.0-3.0-0.0","","642","","","32","","","","","","",""
"","","","","6156a0460b95fa57be8312c4","bdp_td","Wed Mar 29 2023 01:16:05 GMT-0700 (Pacific Daylight Time)","160303","instructions","4","23641","0.0-4.0","[{""page_index"":0,""viewing_time"":10949},{""page_index"":1,""viewing_time"":3234},{""page_index"":2,""viewing_time"":965}]","15148","","","","","","","","","",""
"","","","FIX","6156a0460b95fa57be8312c4","bdp_td","Wed Mar 29 2023 01:16:05 GMT-0700 (Pacific Daylight Time)","160303","html-keyboard-response","5","24156","0.0-5.0-1.0","","null","","<div class='trialBorder'><div class='vertical-center'><img style='vertical-align:center; align:center' src=img/fixation3.jpg></div></div>","null","","","","","","",""
"","","","offer","6156a0460b95fa57be8312c4","bdp_td","Wed Mar 29 2023 01:16:05 GMT-0700 (Pacific Daylight Time)","160303","html-keyboard-response","6","26848","0.0-5.0-2.0","","2690","","<div class='trialBorder'><div class='vertical-center'><img style='vertical-align:center; align:center' src=img/fixation3.jpg></div><div class='cl'><div class='vertical-center'>$31<br><br>now</div></div><div class='cr'><div class='vertical-center'>$85<br>in<br>1 week</div></div><div class='respDivL'><div class='vertical-center'>(E)</div></div><div class='respDivR'><div class='vertical-center'>(I)</div></div></div>","I","$31<br><br>now","$85<br>in<br>1 week","0","31","85","1","THEN"
"","","","offerFB","6156a0460b95fa57be8312c4","bdp_td","Wed Mar 29 2023 01:16:05 GMT-0700 (Pacific Daylight Time)","160303","html-keyboard-response","7","27112","0.0-5.0-3.0","","null","","<div class='trialBorder'><div class='vertical-center'><img style='vertical-align:center; align:center' src=img/fixation3.jpg></div><div class='cl'><div class='vertical-center'>$31<br><br>now</div></div><div class='cr'><div class='vertical-center'><font style='color:orange'>$85<br>in<br>1 week</font></div></div><div class='respDivL'><div class='vertical-center'>(E)</div></div><div class='respDivR'><div class='vertical-center'><font style='color:orange'>(I)</font></div></div></div>","null","$31<br><br>now","$85<br>in<br>1 week","0","31","85","1",""
"","","","FIX","6156a0460b95fa57be8312c4","bdp_td","Wed Mar 29 2023 01:16:05 GMT-0700 (Pacific Daylight Time)","160303","html-keyboard-response","8","27621","0.0-5.0-1.1","","null","","<div class='trialBorder'><div class='vertical-center'><img style='vertical-align:center; align:center' src=img/fixation3.jpg></div></div>","null","","","","","","",""
"","","","offer","6156a0460b95fa57be8312c4","bdp_td","Wed Mar 29 2023 01:16:05 GMT-0700 (Pacific Daylight Time)","160303","html-keyboard-response","9","33111","0.0-5.0-2.1","","5490","","<div class='trialBorder'><div class='vertical-center'><img style='vertical-align:center; align:center' src=img/fixation3.jpg></div><div class='cl'><div class='vertical-center'>$60<br>in<br>6 weeks</div></div><div class='cr'><div class='vertical-center'>$49<br><br>now</div></div><div class='respDivL'><div class='vertical-center'>(E)</div></div><div class='respDivR'><div class='vertical-center'>(I)</div></div></div>","E","$49<br><br>now","$60<br>in<br>6 weeks","1","49","60","6","THEN"
"","","","offerFB","6156a0460b95fa57be8312c4","bdp_td","Wed Mar 29 2023 01:16:05 GMT-0700 (Pacific Daylight Time)","160303","html-keyboard-response","10","33373","0.0-5.0-3.1","","null","","<div class='trialBorder'><div class='vertical-center'><img style='vertical-align:center; align:center' src=img/fixation3.jpg></div><div class='cl'><div class='vertical-center'><font style='color:orange'>$60<br>in<br>6 weeks</font></div></div><div class='cr'><div class='vertical-center'>$49<br><br>now</div></div><div class='respDivL'><div class='vertical-center'><font style='color:orange'>(E)</font></div></div><div class='respDivR'><div class='vertical-center'>(I)</div></div></div>","null","$49<br><br>now","$60<br>in<br>6 weeks","1","49","60","6",""
"","","","FIX","6156a0460b95fa57be8312c4","bdp_td","Wed Mar 29 2023 01:16:05 GMT-0700 (Pacific Daylight Time)","160303","html-keyboard-response","11","33882","0.0-5.0-1.2","","null","","<div class='trialBorder'><div class='vertical-center'><img style='vertical-align:center; align:center' src=img/fixation3.jpg></div></div>","null","","","","","","",""
"","","","offer","6156a0460b95fa57be8312c4","bdp_td","Wed Mar 29 2023 01:16:05 GMT-0700 (Pacific Daylight Time)","160303","html-keyboard-response","12","37726","0.0-5.0-2.2","","3844","","<div class='trialBorder'><div class='vertical-center'><img style='vertical-align:center; align:center' src=img/fixation3.jpg></div><div class='cl'><div class='vertical-center'>$75<br>in<br>3 weeks</div></div><div class='cr'><div class='vertical-center'>$41<br><br>now</div></div><div class='respDivL'><div class='vertical-center'>(E)</div></div><div class='respDivR'><div class='vertical-center'>(I)</div></div></div>","E","$41<br><br>now","$75<br>in<br>3 weeks","1","41","75","3","THEN"
"","","","offerFB","6156a0460b95fa57be8312c4","bdp_td","Wed Mar 29 2023 01:16:05 GMT-0700 (Pacific Daylight Time)","160303","html-keyboard-response","13","37989","0.0-5.0-3.2","","null","","<div class='trialBorder'><div class='vertical-center'><img style='vertical-align:center; align:center' src=img/fixation3.jpg></div><div class='cl'><div class='vertical-center'><font style='color:orange'>$75<br>in<br>3 weeks</font></div></div><div class='cr'><div class='vertical-center'>$41<br><br>now</div></div><div class='respDivL'><div class='vertical-center'><font style='color:orange'>(E)</font></div></div><div class='respDivR'><div class='vertical-center'>(I)</div></div></div>","null","$41<br><br>now","$75<br>in<br>3 weeks","1","41","75","3",""
"","","","FIX","6156a0460b95fa57be8312c4","bdp_td","Wed Mar 29 2023 01:16:05 GMT-0700 (Pacific Daylight Time)","160303","html-keyboard-response","14","38498","0.0-5.0-1.3","","null","","<div class='trialBorder'><div class='vertical-center'><img style='vertical-align:center; align:center' src=img/fixation3.jpg></div></div>","null","","","","","","",""
"","","","offer","6156a0460b95fa57be8312c4","bdp_td","Wed Mar 29 2023 01:16:05 GMT-0700 (Pacific Daylight Time)","160303","html-keyboard-response","15","40624","0.0-5.0-2.3","","2126","","<div class='trialBorder'><div class='vertical-center'><img style='vertical-align:center; align:center' src=img/fixation3.jpg></div><div class='cl'><div class='vertical-center'>$28<br><br>now</div></div><div class='cr'><div class='vertical-center'>$30<br>in<br>12 weeks</div></div><div class='respDivL'><div class='vertical-center'>(E)</div></div><div class='respDivR'><div class='vertical-center'>(I)</div></div></div>","E","$28<br><br>now","$30<br>in<br>12 weeks","0","28","30","12","NOW"
"","","","offerFB","6156a0460b95fa57be8312c4","bdp_td","Wed Mar 29 2023 01:16:05 GMT-0700 (Pacific Daylight Time)","160303","html-keyboard-response","16","40881","0.0-5.0-3.3","","null","","<div class='trialBorder'><div class='vertical-center'><img style='vertical-align:center; align:center' src=img/fixation3.jpg></div><div class='cl'><div class='vertical-center'><font style='color:orange'>$28<br><br>now</font></div></div><div class='cr'><div class='vertical-center'>$30<br>in<br>12 weeks</div></div><div class='respDivL'><div class='vertical-center'><font style='color:orange'>(E)</font></div></div><div class='respDivR'><div class='vertical-center'>(I)</div></div></div>","null","$28<br><br>now","$30<br>in<br>12 weeks","0","28","30","12",""
"","","","FIX","6156a0460b95fa57be8312c4","bdp_td","Wed Mar 29 2023 01:16:05 GMT-0700 (Pacific Daylight Time)","160303","html-keyboard-response","17","41389","0.0-5.0-1.4","","null","","<div class='trialBorder'><div class='vertical-center'><img style='vertical-align:center; align:center' src=img/fixation3.jpg></div></div>","null","","","","","","",""
"","","","offer","6156a0460b95fa57be8312c4","bdp_td","Wed Mar 29 2023 01:16:05 GMT-0700 (Pacific Daylight Time)","160303","html-keyboard-response","18","48059","0.0-5.0-2.4","","6670","","<div class='trialBorder'><div class='vertical-center'><img style='vertical-align:center; align:center' src=img/fixation3.jpg></div><div class='cl'><div class='vertical-center'>$27<br><br>now</div></div><div class='cr'><div class='vertical-center'>$50<br>in<br>3 weeks</div></div><div class='respDivL'><div class='vertical-center'>(E)</div></div><div class='respDivR'><div class='vertical-center'>(I)</div></div></div>","I","$27<br><br>now","$50<br>in<br>3 weeks","0","27","50","3","THEN"
"","","","offerFB","6156a0460b95fa57be8312c4","bdp_td","Wed Mar 29 2023 01:16:05 GMT-0700 (Pacific Daylight Time)","160303","html-keyboard-response","19","48311","0.0-5.0-3.4","","null","","<div class='trialBorder'><div class='vertical-center'><img style='vertical-align:center; align:center' src=img/fixation3.jpg></div><div class='cl'><div class='vertical-center'>$27<br><br>now</div></div><div class='cr'><div class='vertical-center'><font style='color:orange'>$50<br>in<br>3 weeks</font></div></div><div class='respDivL'><div class='vertical-center'>(E)</div></div><div class='respDivR'><div class='vertical-center'><font style='color:orange'>(I)</font></div></div></div>","null","$27<br><br>now","$50<br>in<br>3 weeks","0","27","50","3",""
"","","","FIX","6156a0460b95fa57be8312c4","bdp_td","Wed Mar 29 2023 01:16:05 GMT-0700 (Pacific Daylight Time)","160303","html-keyboard-response","20","48821","0.0-5.0-1.5","","null","","<div class='trialBorder'><div class='vertical-center'><img style='vertical-align:center; align:center' src=img/fixation3.jpg></div></div>","null","","","","","","",""
"","","","offer","6156a0460b95fa57be8312c4","bdp_td","Wed Mar 29 2023 01:16:05 GMT-0700 (Pacific Daylight Time)","160303","html-keyboard-response","21","61082","0.0-5.0-2.5","","12261","","<div class='trialBorder'><div class='vertical-center'><img style='vertical-align:center; align:center' src=img/fixation3.jpg></div><div class='cl'><div class='vertical-center'>$55<br><br>now</div></div><div class='cr'><div class='vertical-center'>$75<br>in<br>6 weeks</div></div><div class='respDivL'><div class='vertical-center'>(E)</div></div><div class='respDivR'><div class='vertical-center'>(I)</div></div></div>","I","$55<br><br>now","$75<br>in<br>6 weeks","0","55","75","6","THEN"
"","","","offerFB","6156a0460b95fa57be8312c4","bdp_td","Wed Mar 29 2023 01:16:05 GMT-0700 (Pacific Daylight Time)","160303","html-keyboard-response","22","61341","0.0-5.0-3.5","","null","","<div class='trialBorder'><div class='vertical-center'><img style='vertical-align:center; align:center' src=img/fixation3.jpg></div><div class='cl'><div class='vertical-center'>$55<br><br>now</div></div><div class='cr'><div class='vertical-center'><font style='color:orange'>$75<br>in<br>6 weeks</font></div></div><div class='respDivL'><div class='vertical-center'>(E)</div></div><div class='respDivR'><div class='vertical-center'><font style='color:orange'>(I)</font></div></div></div>","null","$55<br><br>now","$75<br>in<br>6 weeks","0","55","75","6",""
"","","","FIX","6156a0460b95fa57be8312c4","bdp_td","Wed Mar 29 2023 01:16:05 GMT-0700 (Pacific Daylight Time)","160303","html-keyboard-response","23","61851","0.0-5.0-1.6","","null","","<div class='trialBorder'><div class='vertical-center'><img style='vertical-align:center; align:center' src=img/fixation3.jpg></div></div>","null","","","","","","",""
"","","","offer","6156a0460b95fa57be8312c4","bdp_td","Wed Mar 29 2023 01:16:05 GMT-0700 (Pacific Daylight Time)","160303","html-keyboard-response","24","63828","0.0-5.0-2.6","","1977","","<div class='trialBorder'><div class='vertical-center'><img style='vertical-align:center; align:center' src=img/fixation3.jpg></div><div class='cl'><div class='vertical-center'>$55<br>in<br>6 weeks</div></div><div class='cr'><div class='vertical-center'>$40<br><br>now</div></div><div class='respDivL'><div class='vertical-center'>(E)</div></div><div class='respDivR'><div class='vertical-center'>(I)</div></div></div>","I","$40<br><br>now","$55<br>in<br>6 weeks","1","40","55","6","NOW"
"","","","offerFB","6156a0460b95fa57be8312c4","bdp_td","Wed Mar 29 2023 01:16:05 GMT-0700 (Pacific Daylight Time)","160303","html-keyboard-response","25","64080","0.0-5.0-3.6","","null","","<div class='trialBorder'><div class='vertical-center'><img style='vertical-align:center; align:center' src=img/fixation3.jpg></div><div class='cl'><div class='vertical-center'>$55<br>in<br>6 weeks</div></div><div class='cr'><div class='vertical-center'><font style='color:orange'>$40<br><br>now</font></div></div><div class='respDivL'><div class='vertical-center'>(E)</div></div><div class='respDivR'><div class='vertical-center'><font style='color:orange'>(I)</font></div></div></div>","null","$40<br><br>now","$55<br>in<br>6 weeks","1","40","55","6",""
"","","","FIX","6156a0460b95fa57be8312c4","bdp_td","Wed Mar 29 2023 01:16:05 GMT-0700 (Pacific Daylight Time)","160303","html-keyboard-response","26","64588","0.0-5.0-1.7","","null","","<div class='trialBorder'><div class='vertical-center'><img style='vertical-align:center; align:center' src=img/fixation3.jpg></div></div>","null","","","","","","",""
"","","","offer","6156a0460b95fa57be8312c4","bdp_td","Wed Mar 29 2023 01:16:05 GMT-0700 (Pacific Daylight Time)","160303","html-keyboard-response","27","66760","0.0-5.0-2.7","","2172","","<div class='trialBorder'><div class='vertical-center'><img style='vertical-align:center; align:center' src=img/fixation3.jpg></div><div class='cl'><div class='vertical-center'>$85<br>in<br>12 weeks</div></div><div class='cr'><div class='vertical-center'>$80<br><br>now</div></div><div class='respDivL'><div class='vertical-center'>(E)</div></div><div class='respDivR'><div class='vertical-center'>(I)</div></div></div>","I","$80<br><br>now","$85<br>in<br>12 weeks","1","80","85","12","NOW"
"","","","offerFB","6156a0460b95fa57be8312c4","bdp_td","Wed Mar 29 2023 01:16:05 GMT-0700 (Pacific Daylight Time)","160303","html-keyboard-response","28","67018","0.0-5.0-3.7","","null","","<div class='trialBorder'><div class='vertical-center'><img style='vertical-align:center; align:center' src=img/fixation3.jpg></div><div class='cl'><div class='vertical-center'>$85<br>in<br>12 weeks</div></div><div class='cr'><div class='vertical-center'><font style='color:orange'>$80<br><br>now</font></div></div><div class='respDivL'><div class='vertical-center'>(E)</div></div><div class='respDivR'><div class='vertical-center'><font style='color:orange'>(I)</font></div></div></div>","null","$80<br><br>now","$85<br>in<br>12 weeks","1","80","85","12",""
"","","","FIX","6156a0460b95fa57be8312c4","bdp_td","Wed Mar 29 2023 01:16:05 GMT-0700 (Pacific Daylight Time)","160303","html-keyboard-response","29","67526","0.0-5.0-1.8","","null","","<div class='trialBorder'><div class='vertical-center'><img style='vertical-align:center; align:center' src=img/fixation3.jpg></div></div>","null","","","","","","",""
"","","","offer","6156a0460b95fa57be8312c4","bdp_td","Wed Mar 29 2023 01:16:05 GMT-0700 (Pacific Daylight Time)","160303","html-keyboard-response","30","69896","0.0-5.0-2.8","","2370","","<div class='trialBorder'><div class='vertical-center'><img style='vertical-align:center; align:center' src=img/fixation3.jpg></div><div class='cl'><div class='vertical-center'>$35<br>in<br>12 weeks</div></div><div class='cr'><div class='vertical-center'>$34<br><br>now</div></div><div class='respDivL'><div class='vertical-center'>(E)</div></div><div class='respDivR'><div class='vertical-center'>(I)</div></div></div>","I","$34<br><br>now","$35<br>in<br>12 weeks","1","34","35","12","NOW"
"","","","offerFB","6156a0460b95fa57be8312c4","bdp_td","Wed Mar 29 2023 01:16:05 GMT-0700 (Pacific Daylight Time)","160303","html-keyboard-response","31","70153","0.0-5.0-3.8","","null","","<div class='trialBorder'><div class='vertical-center'><img style='vertical-align:center; align:center' src=img/fixation3.jpg></div><div class='cl'><div class='vertical-center'>$35<br>in<br>12 weeks</div></div><div class='cr'><div class='vertical-center'><font style='color:orange'>$34<br><br>now</font></div></div><div class='respDivL'><div class='vertical-center'>(E)</div></div><div class='respDivR'><div class='vertical-center'><font style='color:orange'>(I)</font></div></div></div>","null","$34<br><br>now","$35<br>in<br>12 weeks","1","34","35","12",""
"","","","FIX","6156a0460b95fa57be8312c4","bdp_td","Wed Mar 29 2023 01:16:05 GMT-0700 (Pacific Daylight Time)","160303","html-keyboard-response","32","70661","0.0-5.0-1.9","","null","","<div class='trialBorder'><div class='vertical-center'><img style='vertical-align:center; align:center' src=img/fixation3.jpg></div></div>","null","","","","","","",""
"","","","offer","6156a0460b95fa57be8312c4","bdp_td","Wed Mar 29 2023 01:16:05 GMT-0700 (Pacific Daylight Time)","160303","html-keyboard-response","33","71832","0.0-5.0-2.9","","1169","","<div class='trialBorder'><div class='vertical-center'><img style='vertical-align:center; align:center' src=img/fixation3.jpg></div><div class='cl'><div class='vertical-center'>$25<br>in<br>12 weeks</div></div><div class='cr'><div class='vertical-center'>$22<br><br>now</div></div><div class='respDivL'><div class='vertical-center'>(E)</div></div><div class='respDivR'><div class='vertical-center'>(I)</div></div></div>","I","$22<br><br>now","$25<br>in<br>12 weeks","1","22","25","12","NOW"
"","","","offerFB","6156a0460b95fa57be8312c4","bdp_td","Wed Mar 29 2023 01:16:05 GMT-0700 (Pacific Daylight Time)","160303","html-keyboard-response","34","72091","0.0-5.0-3.9","","null","","<div class='trialBorder'><div class='vertical-center'><img style='vertical-align:center; align:center' src=img/fixation3.jpg></div><div class='cl'><div class='vertical-center'>$25<br>in<br>12 weeks</div></div><div class='cr'><div class='vertical-center'><font style='color:orange'>$22<br><br>now</font></div></div><div class='respDivL'><div class='vertical-center'>(E)</div></div><div class='respDivR'><div class='vertical-center'><font style='color:orange'>(I)</font></div></div></div>","null","$22<br><br>now","$25<br>in<br>12 weeks","1","22","25","12",""
"","","","FIX","6156a0460b95fa57be8312c4","bdp_td","Wed Mar 29 2023 01:16:05 GMT-0700 (Pacific Daylight Time)","160303","html-keyboard-response","35","72600","0.0-5.0-1.10","","null","","<div class='trialBorder'><div class='vertical-center'><img style='vertical-align:center; align:center' src=img/fixation3.jpg></div></div>","null","","","","","","",""
"","","","offer","6156a0460b95fa57be8312c4","bdp_td","Wed Mar 29 2023 01:16:05 GMT-0700 (Pacific Daylight Time)","160303","html-keyboard-response","36","74978","0.0-5.0-2.10","","2377","","<div class='trialBorder'><div class='vertical-center'><img style='vertical-align:center; align:center' src=img/fixation3.jpg></div><div class='cl'><div class='vertical-center'>$35<br>in<br>2 weeks</div></div><div class='cr'><div class='vertical-center'>$15<br><br>now</div></div><div class='respDivL'><div class='vertical-center'>(E)</div></div><div class='respDivR'><div class='vertical-center'>(I)</div></div></div>","E","$15<br><br>now","$35<br>in<br>2 weeks","1","15","35","2","THEN"
"","","","offerFB","6156a0460b95fa57be8312c4","bdp_td","Wed Mar 29 2023 01:16:05 GMT-0700 (Pacific Daylight Time)","160303","html-keyboard-response","37","75243","0.0-5.0-3.10","","null","","<div class='trialBorder'><div class='vertical-center'><img style='vertical-align:center; align:center' src=img/fixation3.jpg></div><div class='cl'><div class='vertical-center'><font style='color:orange'>$35<br>in<br>2 weeks</font></div></div><div class='cr'><div class='vertical-center'>$15<br><br>now</div></div><div class='respDivL'><div class='vertical-center'><font style='color:orange'>(E)</font></div></div><div class='respDivR'><div class='vertical-center'>(I)</div></div></div>","null","$15<br><br>now","$35<br>in<br>2 weeks","1","15","35","2",""
"","","","FIX","6156a0460b95fa57be8312c4","bdp_td","Wed Mar 29 2023 01:16:05 GMT-0700 (Pacific Daylight Time)","160303","html-keyboard-response","38","75749","0.0-5.0-1.11","","null","","<div class='trialBorder'><div class='vertical-center'><img style='vertical-align:center; align:center' src=img/fixation3.jpg></div></div>","null","","","","","","",""
"","","","offer","6156a0460b95fa57be8312c4","bdp_td","Wed Mar 29 2023 01:16:05 GMT-0700 (Pacific Daylight Time)","160303","html-keyboard-response","39","78261","0.0-5.0-2.11","","2511","","<div class='trialBorder'><div class='vertical-center'><img style='vertical-align:center; align:center' src=img/fixation3.jpg></div><div class='cl'><div class='vertical-center'>$50<br>in<br>12 weeks</div></div><div class='cr'><div class='vertical-center'>$47<br><br>now</div></div><div class='respDivL'><div class='vertical-center'>(E)</div></div><div class='respDivR'><div class='vertical-center'>(I)</div></div></div>","I","$47<br><br>now","$50<br>in<br>12 weeks","1","47","50","12","NOW"
"","","","offerFB","6156a0460b95fa57be8312c4","bdp_td","Wed Mar 29 2023 01:16:05 GMT-0700 (Pacific Daylight Time)","160303","html-keyboard-response","40","78516","0.0-5.0-3.11","","null","","<div class='trialBorder'><div class='vertical-center'><img style='vertical-align:center; align:center' src=img/fixation3.jpg></div><div class='cl'><div class='vertical-center'>$50<br>in<br>12 weeks</div></div><div class='cr'><div class='vertical-center'><font style='color:orange'>$47<br><br>now</font></div></div><div class='respDivL'><div class='vertical-center'>(E)</div></div><div class='respDivR'><div class='vertical-center'><font style='color:orange'>(I)</font></div></div></div>","null","$47<br><br>now","$50<br>in<br>12 weeks","1","47","50","12",""
"","","","FIX","6156a0460b95fa57be8312c4","bdp_td","Wed Mar 29 2023 01:16:05 GMT-0700 (Pacific Daylight Time)","160303","html-keyboard-response","41","79024","0.0-5.0-1.12","","null","","<div class='trialBorder'><div class='vertical-center'><img style='vertical-align:center; align:center' src=img/fixation3.jpg></div></div>","null","","","","","","",""
"","","","offer","6156a0460b95fa57be8312c4","bdp_td","Wed Mar 29 2023 01:16:05 GMT-0700 (Pacific Daylight Time)","160303","html-keyboard-response","42","80965","0.0-5.0-2.12","","1940","","<div class='trialBorder'><div class='vertical-center'><img style='vertical-align:center; align:center' src=img/fixation3.jpg></div><div class='cl'><div class='vertical-center'>$30<br>in<br>2 weeks</div></div><div class='cr'><div class='vertical-center'>$11<br><br>now</div></div><div class='respDivL'><div class='vertical-center'>(E)</div></div><div class='respDivR'><div class='vertical-center'>(I)</div></div></div>","E","$11<br><br>now","$30<br>in<br>2 weeks","1","11","30","2","THEN"
"","","","offerFB","6156a0460b95fa57be8312c4","bdp_td","Wed Mar 29 2023 01:16:05 GMT-0700 (Pacific Daylight Time)","160303","html-keyboard-response","43","81223","0.0-5.0-3.12","","null","","<div class='trialBorder'><div class='vertical-center'><img style='vertical-align:center; align:center' src=img/fixation3.jpg></div><div class='cl'><div class='vertical-center'><font style='color:orange'>$30<br>in<br>2 weeks</font></div></div><div class='cr'><div class='vertical-center'>$11<br><br>now</div></div><div class='respDivL'><div class='vertical-center'><font style='color:orange'>(E)</font></div></div><div class='respDivR'><div class='vertical-center'>(I)</div></div></div>","null","$11<br><br>now","$30<br>in<br>2 weeks","1","11","30","2",""
"","","","FIX","6156a0460b95fa57be8312c4","bdp_td","Wed Mar 29 2023 01:16:05 GMT-0700 (Pacific Daylight Time)","160303","html-keyboard-response","44","81731","0.0-5.0-1.13","","null","","<div class='trialBorder'><div class='vertical-center'><img style='vertical-align:center; align:center' src=img/fixation3.jpg></div></div>","null","","","","","","",""
"","","","offer","6156a0460b95fa57be8312c4","bdp_td","Wed Mar 29 2023 01:16:05 GMT-0700 (Pacific Daylight Time)","160303","html-keyboard-response","45","87276","0.0-5.0-2.13","","5545","","<div class='trialBorder'><div class='vertical-center'><img style='vertical-align:center; align:center' src=img/fixation3.jpg></div><div class='cl'><div class='vertical-center'>$25<br><br>now</div></div><div class='cr'><div class='vertical-center'>$30<br>in<br>6 weeks</div></div><div class='respDivL'><div class='vertical-center'>(E)</div></div><div class='respDivR'><div class='vertical-center'>(I)</div></div></div>","E","$25<br><br>now","$30<br>in<br>6 weeks","0","25","30","6","NOW"
"","","","offerFB","6156a0460b95fa57be8312c4","bdp_td","Wed Mar 29 2023 01:16:05 GMT-0700 (Pacific Daylight Time)","160303","html-keyboard-response","46","87528","0.0-5.0-3.13","","null","","<div class='trialBorder'><div class='vertical-center'><img style='vertical-align:center; align:center' src=img/fixation3.jpg></div><div class='cl'><div class='vertical-center'><font style='color:orange'>$25<br><br>now</font></div></div><div class='cr'><div class='vertical-center'>$30<br>in<br>6 weeks</div></div><div class='respDivL'><div class='vertical-center'><font style='color:orange'>(E)</font></div></div><div class='respDivR'><div class='vertical-center'>(I)</div></div></div>","null","$25<br><br>now","$30<br>in<br>6 weeks","0","25","30","6",""
"","","","FIX","6156a0460b95fa57be8312c4","bdp_td","Wed Mar 29 2023 01:16:05 GMT-0700 (Pacific Daylight Time)","160303","html-keyboard-response","47","88036","0.0-5.0-1.14","","null","","<div class='trialBorder'><div class='vertical-center'><img style='vertical-align:center; align:center' src=img/fixation3.jpg></div></div>","null","","","","","","",""
"","","","offer","6156a0460b95fa57be8312c4","bdp_td","Wed Mar 29 2023 01:16:05 GMT-0700 (Pacific Daylight Time)","160303","html-keyboard-response","48","90008","0.0-5.0-2.14","","1971","","<div class='trialBorder'><div class='vertical-center'><img style='vertical-align:center; align:center' src=img/fixation3.jpg></div><div class='cl'><div class='vertical-center'>$24<br><br>now</div></div><div class='cr'><div class='vertical-center'>$35<br>in<br>3 weeks</div></div><div class='respDivL'><div class='vertical-center'>(E)</div></div><div class='respDivR'><div class='vertical-center'>(I)</div></div></div>","I","$24<br><br>now","$35<br>in<br>3 weeks","0","24","35","3","THEN"
"","","","offerFB","6156a0460b95fa57be8312c4","bdp_td","Wed Mar 29 2023 01:16:05 GMT-0700 (Pacific Daylight Time)","160303","html-keyboard-response","49","90266","0.0-5.0-3.14","","null","","<div class='trialBorder'><div class='vertical-center'><img style='vertical-align:center; align:center' src=img/fixation3.jpg></div><div class='cl'><div class='vertical-center'>$24<br><br>now</div></div><div class='cr'><div class='vertical-center'><font style='color:orange'>$35<br>in<br>3 weeks</font></div></div><div class='respDivL'><div class='vertical-center'>(E)</div></div><div class='respDivR'><div class='vertical-center'><font style='color:orange'>(I)</font></div></div></div>","null","$24<br><br>now","$35<br>in<br>3 weeks","0","24","35","3",""
"","","","FIX","6156a0460b95fa57be8312c4","bdp_td","Wed Mar 29 2023 01:16:05 GMT-0700 (Pacific Daylight Time)","160303","html-keyboard-response","50","90773","0.0-5.0-1.15","","null","","<div class='trialBorder'><div class='vertical-center'><img style='vertical-align:center; align:center' src=img/fixation3.jpg></div></div>","null","","","","","","",""
"","","","offer","6156a0460b95fa57be8312c4","bdp_td","Wed Mar 29 2023 01:16:05 GMT-0700 (Pacific Daylight Time)","160303","html-keyboard-response","51","108868","0.0-5.0-2.15","","18095","","<div class='trialBorder'><div class='vertical-center'><img style='vertical-align:center; align:center' src=img/fixation3.jpg></div><div class='cl'><div class='vertical-center'>$69<br><br>now</div></div><div class='cr'><div class='vertical-center'>$85<br>in<br>6 weeks</div></div><div class='respDivL'><div class='vertical-center'>(E)</div></div><div class='respDivR'><div class='vertical-center'>(I)</div></div></div>","I","$69<br><br>now","$85<br>in<br>6 weeks","0","69","85","6","THEN"
"","","","offerFB","6156a0460b95fa57be8312c4","bdp_td","Wed Mar 29 2023 01:16:05 GMT-0700 (Pacific Daylight Time)","160303","html-keyboard-response","52","109132","0.0-5.0-3.15","","null","","<div class='trialBorder'><div class='vertical-center'><img style='vertical-align:center; align:center' src=img/fixation3.jpg></div><div class='cl'><div class='vertical-center'>$69<br><br>now</div></div><div class='cr'><div class='vertical-center'><font style='color:orange'>$85<br>in<br>6 weeks</font></div></div><div class='respDivL'><div class='vertical-center'>(E)</div></div><div class='respDivR'><div class='vertical-center'><font style='color:orange'>(I)</font></div></div></div>","null","$69<br><br>now","$85<br>in<br>6 weeks","0","69","85","6",""
"","","","FIX","6156a0460b95fa57be8312c4","bdp_td","Wed Mar 29 2023 01:16:05 GMT-0700 (Pacific Daylight Time)","160303","html-keyboard-response","53","109641","0.0-5.0-1.16","","null","","<div class='trialBorder'><div class='vertical-center'><img style='vertical-align:center; align:center' src=img/fixation3.jpg></div></div>","null","","","","","","",""
"","","","offer","6156a0460b95fa57be8312c4","bdp_td","Wed Mar 29 2023 01:16:05 GMT-0700 (Pacific Daylight Time)","160303","html-keyboard-response","54","111826","0.0-5.0-2.16","","2185","","<div class='trialBorder'><div class='vertical-center'><img style='vertical-align:center; align:center' src=img/fixation3.jpg></div><div class='cl'><div class='vertical-center'>$55<br>in<br>1 week</div></div><div class='cr'><div class='vertical-center'>$20<br><br>now</div></div><div class='respDivL'><div class='vertical-center'>(E)</div></div><div class='respDivR'><div class='vertical-center'>(I)</div></div></div>","E","$20<br><br>now","$55<br>in<br>1 week","1","20","55","1","THEN"
"","","","offerFB","6156a0460b95fa57be8312c4","bdp_td","Wed Mar 29 2023 01:16:05 GMT-0700 (Pacific Daylight Time)","160303","html-keyboard-response","55","112085","0.0-5.0-3.16","","null","","<div class='trialBorder'><div class='vertical-center'><img style='vertical-align:center; align:center' src=img/fixation3.jpg></div><div class='cl'><div class='vertical-center'><font style='color:orange'>$55<br>in<br>1 week</font></div></div><div class='cr'><div class='vertical-center'>$20<br><br>now</div></div><div class='respDivL'><div class='vertical-center'><font style='color:orange'>(E)</font></div></div><div class='respDivR'><div class='vertical-center'>(I)</div></div></div>","null","$20<br><br>now","$55<br>in<br>1 week","1","20","55","1",""
"","","","FIX","6156a0460b95fa57be8312c4","bdp_td","Wed Mar 29 2023 01:16:05 GMT-0700 (Pacific Daylight Time)","160303","html-keyboard-response","56","112593","0.0-5.0-1.17","","null","","<div class='trialBorder'><div class='vertical-center'><img style='vertical-align:center; align:center' src=img/fixation3.jpg></div></div>","null","","","","","","",""
"","","","offer","6156a0460b95fa57be8312c4","bdp_td","Wed Mar 29 2023 01:16:05 GMT-0700 (Pacific Daylight Time)","160303","html-keyboard-response","57","116156","0.0-5.0-2.17","","3562","","<div class='trialBorder'><div class='vertical-center'><img style='vertical-align:center; align:center' src=img/fixation3.jpg></div><div class='cl'><div class='vertical-center'>$60<br>in<br>12 weeks</div></div><div class='cr'><div class='vertical-center'>$54<br><br>now</div></div><div class='respDivL'><div class='vertical-center'>(E)</div></div><div class='respDivR'><div class='vertical-center'>(I)</div></div></div>","I","$54<br><br>now","$60<br>in<br>12 weeks","1","54","60","12","NOW"
"","","","offerFB","6156a0460b95fa57be8312c4","bdp_td","Wed Mar 29 2023 01:16:05 GMT-0700 (Pacific Daylight Time)","160303","html-keyboard-response","58","116420","0.0-5.0-3.17","","null","","<div class='trialBorder'><div class='vertical-center'><img style='vertical-align:center; align:center' src=img/fixation3.jpg></div><div class='cl'><div class='vertical-center'>$60<br>in<br>12 weeks</div></div><div class='cr'><div class='vertical-center'><font style='color:orange'>$54<br><br>now</font></div></div><div class='respDivL'><div class='vertical-center'>(E)</div></div><div class='respDivR'><div class='vertical-center'><font style='color:orange'>(I)</font></div></div></div>","null","$54<br><br>now","$60<br>in<br>12 weeks","1","54","60","12",""
"","","","FIX","6156a0460b95fa57be8312c4","bdp_td","Wed Mar 29 2023 01:16:05 GMT-0700 (Pacific Daylight Time)","160303","html-keyboard-response","59","116926","0.0-5.0-1.18","","null","","<div class='trialBorder'><div class='vertical-center'><img style='vertical-align:center; align:center' src=img/fixation3.jpg></div></div>","null","","","","","","",""
"","","","offer","6156a0460b95fa57be8312c4","bdp_td","Wed Mar 29 2023 01:16:05 GMT-0700 (Pacific Daylight Time)","160303","html-keyboard-response","60","119026","0.0-5.0-2.18","","2099","","<div class='trialBorder'><div class='vertical-center'><img style='vertical-align:center; align:center' src=img/fixation3.jpg></div><div class='cl'><div class='vertical-center'>$54<br><br>now</div></div><div class='cr'><div class='vertical-center'>$55<br>in<br>12 weeks</div></div><div class='respDivL'><div class='vertical-center'>(E)</div></div><div class='respDivR'><div class='vertical-center'>(I)</div></div></div>","E","$54<br><br>now","$55<br>in<br>12 weeks","0","54","55","12","NOW"
"","","","offerFB","6156a0460b95fa57be8312c4","bdp_td","Wed Mar 29 2023 01:16:05 GMT-0700 (Pacific Daylight Time)","160303","html-keyboard-response","61","119279","0.0-5.0-3.18","","null","","<div class='trialBorder'><div class='vertical-center'><img style='vertical-align:center; align:center' src=img/fixation3.jpg></div><div class='cl'><div class='vertical-center'><font style='color:orange'>$54<br><br>now</font></div></div><div class='cr'><div class='vertical-center'>$55<br>in<br>12 weeks</div></div><div class='respDivL'><div class='vertical-center'><font style='color:orange'>(E)</font></div></div><div class='respDivR'><div class='vertical-center'>(I)</div></div></div>","null","$54<br><br>now","$55<br>in<br>12 weeks","0","54","55","12",""
"","","","FIX","6156a0460b95fa57be8312c4","bdp_td","Wed Mar 29 2023 01:16:05 GMT-0700 (Pacific Daylight Time)","160303","html-keyboard-response","62","119784","0.0-5.0-1.19","","null","","<div class='trialBorder'><div class='vertical-center'><img style='vertical-align:center; align:center' src=img/fixation3.jpg></div></div>","null","","","","","","",""
"","","","offer","6156a0460b95fa57be8312c4","bdp_td","Wed Mar 29 2023 01:16:05 GMT-0700 (Pacific Daylight Time)","160303","html-keyboard-response","63","126243","0.0-5.0-2.19","","6458","","<div class='trialBorder'><div class='vertical-center'><img style='vertical-align:center; align:center' src=img/fixation3.jpg></div><div class='cl'><div class='vertical-center'>$75<br>in<br>12 weeks</div></div><div class='cr'><div class='vertical-center'>$67<br><br>now</div></div><div class='respDivL'><div class='vertical-center'>(E)</div></div><div class='respDivR'><div class='vertical-center'>(I)</div></div></div>","I","$67<br><br>now","$75<br>in<br>12 weeks","1","67","75","12","NOW"
"","","","offerFB","6156a0460b95fa57be8312c4","bdp_td","Wed Mar 29 2023 01:16:05 GMT-0700 (Pacific Daylight Time)","160303","html-keyboard-response","64","126505","0.0-5.0-3.19","","null","","<div class='trialBorder'><div class='vertical-center'><img style='vertical-align:center; align:center' src=img/fixation3.jpg></div><div class='cl'><div class='vertical-center'>$75<br>in<br>12 weeks</div></div><div class='cr'><div class='vertical-center'><font style='color:orange'>$67<br><br>now</font></div></div><div class='respDivL'><div class='vertical-center'>(E)</div></div><div class='respDivR'><div class='vertical-center'><font style='color:orange'>(I)</font></div></div></div>","null","$67<br><br>now","$75<br>in<br>12 weeks","1","67","75","12",""
"","","","FIX","6156a0460b95fa57be8312c4","bdp_td","Wed Mar 29 2023 01:16:05 GMT-0700 (Pacific Daylight Time)","160303","html-keyboard-response","65","127013","0.0-5.0-1.20","","null","","<div class='trialBorder'><div class='vertical-center'><img style='vertical-align:center; align:center' src=img/fixation3.jpg></div></div>","null","","","","","","",""
"","","","offer","6156a0460b95fa57be8312c4","bdp_td","Wed Mar 29 2023 01:16:05 GMT-0700 (Pacific Daylight Time)","160303","html-keyboard-response","66","132910","0.0-5.0-2.20","","5896","","<div class='trialBorder'><div class='vertical-center'><img style='vertical-align:center; align:center' src=img/fixation3.jpg></div><div class='cl'><div class='vertical-center'>$19<br><br>now</div></div><div class='cr'><div class='vertical-center'>$25<br>in<br>6 weeks</div></div><div class='respDivL'><div class='vertical-center'>(E)</div></div><div class='respDivR'><div class='vertical-center'>(I)</div></div></div>","E","$19<br><br>now","$25<br>in<br>6 weeks","0","19","25","6","NOW"
"","","","offerFB","6156a0460b95fa57be8312c4","bdp_td","Wed Mar 29 2023 01:16:05 GMT-0700 (Pacific Daylight Time)","160303","html-keyboard-response","67","133163","0.0-5.0-3.20","","null","","<div class='trialBorder'><div class='vertical-center'><img style='vertical-align:center; align:center' src=img/fixation3.jpg></div><div class='cl'><div class='vertical-center'><font style='color:orange'>$19<br><br>now</font></div></div><div class='cr'><div class='vertical-center'>$25<br>in<br>6 weeks</div></div><div class='respDivL'><div class='vertical-center'><font style='color:orange'>(E)</font></div></div><div class='respDivR'><div class='vertical-center'>(I)</div></div></div>","null","$19<br><br>now","$25<br>in<br>6 weeks","0","19","25","6",""
"","","","FIX","6156a0460b95fa57be8312c4","bdp_td","Wed Mar 29 2023 01:16:05 GMT-0700 (Pacific Daylight Time)","160303","html-keyboard-response","68","133670","0.0-5.0-1.21","","null","","<div class='trialBorder'><div class='vertical-center'><img style='vertical-align:center; align:center' src=img/fixation3.jpg></div></div>","null","","","","","","",""
"","","","offer","6156a0460b95fa57be8312c4","bdp_td","Wed Mar 29 2023 01:16:05 GMT-0700 (Pacific Daylight Time)","160303","html-keyboard-response","69","136328","0.0-5.0-2.21","","2657","","<div class='trialBorder'><div class='vertical-center'><img style='vertical-align:center; align:center' src=img/fixation3.jpg></div><div class='cl'><div class='vertical-center'>$33<br><br>now</div></div><div class='cr'><div class='vertical-center'>$80<br>in<br>2 weeks</div></div><div class='respDivL'><div class='vertical-center'>(E)</div></div><div class='respDivR'><div class='vertical-center'>(I)</div></div></div>","I","$33<br><br>now","$80<br>in<br>2 weeks","0","33","80","2","THEN"
"","","","offerFB","6156a0460b95fa57be8312c4","bdp_td","Wed Mar 29 2023 01:16:05 GMT-0700 (Pacific Daylight Time)","160303","html-keyboard-response","70","136590","0.0-5.0-3.21","","null","","<div class='trialBorder'><div class='vertical-center'><img style='vertical-align:center; align:center' src=img/fixation3.jpg></div><div class='cl'><div class='vertical-center'>$33<br><br>now</div></div><div class='cr'><div class='vertical-center'><font style='color:orange'>$80<br>in<br>2 weeks</font></div></div><div class='respDivL'><div class='vertical-center'>(E)</div></div><div class='respDivR'><div class='vertical-center'><font style='color:orange'>(I)</font></div></div></div>","null","$33<br><br>now","$80<br>in<br>2 weeks","0","33","80","2",""
"","","","FIX","6156a0460b95fa57be8312c4","bdp_td","Wed Mar 29 2023 01:16:05 GMT-0700 (Pacific Daylight Time)","160303","html-keyboard-response","71","137097","0.0-5.0-1.22","","null","","<div class='trialBorder'><div class='vertical-center'><img style='vertical-align:center; align:center' src=img/fixation3.jpg></div></div>","null","","","","","","",""
"","","","offer","6156a0460b95fa57be8312c4","bdp_td","Wed Mar 29 2023 01:16:05 GMT-0700 (Pacific Daylight Time)","160303","html-keyboard-response","72","140861","0.0-5.0-2.22","","3763","","<div class='trialBorder'><div class='vertical-center'><img style='vertical-align:center; align:center' src=img/fixation3.jpg></div><div class='cl'><div class='vertical-center'>$50<br>in<br>6 weeks</div></div><div class='cr'><div class='vertical-center'>$34<br><br>now</div></div><div class='respDivL'><div class='vertical-center'>(E)</div></div><div class='respDivR'><div class='vertical-center'>(I)</div></div></div>","E","$34<br><br>now","$50<br>in<br>6 weeks","1","34","50","6","THEN"
"","","","offerFB","6156a0460b95fa57be8312c4","bdp_td","Wed Mar 29 2023 01:16:05 GMT-0700 (Pacific Daylight Time)","160303","html-keyboard-response","73","141112","0.0-5.0-3.22","","null","","<div class='trialBorder'><div class='vertical-center'><img style='vertical-align:center; align:center' src=img/fixation3.jpg></div><div class='cl'><div class='vertical-center'><font style='color:orange'>$50<br>in<br>6 weeks</font></div></div><div class='cr'><div class='vertical-center'>$34<br><br>now</div></div><div class='respDivL'><div class='vertical-center'><font style='color:orange'>(E)</font></div></div><div class='respDivR'><div class='vertical-center'>(I)</div></div></div>","null","$34<br><br>now","$50<br>in<br>6 weeks","1","34","50","6",""
"","","","FIX","6156a0460b95fa57be8312c4","bdp_td","Wed Mar 29 2023 01:16:05 GMT-0700 (Pacific Daylight Time)","160303","html-keyboard-response","74","141619","0.0-5.0-1.23","","null","","<div class='trialBorder'><div class='vertical-center'><img style='vertical-align:center; align:center' src=img/fixation3.jpg></div></div>","null","","","","","","",""
"","","","offer","6156a0460b95fa57be8312c4","bdp_td","Wed Mar 29 2023 01:16:05 GMT-0700 (Pacific Daylight Time)","160303","html-keyboard-response","75","144477","0.0-5.0-2.23","","2858","","<div class='trialBorder'><div class='vertical-center'><img style='vertical-align:center; align:center' src=img/fixation3.jpg></div><div class='cl'><div class='vertical-center'>$54<br><br>now</div></div><div class='cr'><div class='vertical-center'>$80<br>in<br>3 weeks</div></div><div class='respDivL'><div class='vertical-center'>(E)</div></div><div class='respDivR'><div class='vertical-center'>(I)</div></div></div>","I","$54<br><br>now","$80<br>in<br>3 weeks","0","54","80","3","THEN"
"","","","offerFB","6156a0460b95fa57be8312c4","bdp_td","Wed Mar 29 2023 01:16:05 GMT-0700 (Pacific Daylight Time)","160303","html-keyboard-response","76","144741","0.0-5.0-3.23","","null","","<div class='trialBorder'><div class='vertical-center'><img style='vertical-align:center; align:center' src=img/fixation3.jpg></div><div class='cl'><div class='vertical-center'>$54<br><br>now</div></div><div class='cr'><div class='vertical-center'><font style='color:orange'>$80<br>in<br>3 weeks</font></div></div><div class='respDivL'><div class='vertical-center'>(E)</div></div><div class='respDivR'><div class='vertical-center'><font style='color:orange'>(I)</font></div></div></div>","null","$54<br><br>now","$80<br>in<br>3 weeks","0","54","80","3",""
"","","","FIX","6156a0460b95fa57be8312c4","bdp_td","Wed Mar 29 2023 01:16:05 GMT-0700 (Pacific Daylight Time)","160303","html-keyboard-response","77","145248","0.0-5.0-1.24","","null","","<div class='trialBorder'><div class='vertical-center'><img style='vertical-align:center; align:center' src=img/fixation3.jpg></div></div>","null","","","","","","",""
"","","","offer","6156a0460b95fa57be8312c4","bdp_td","Wed Mar 29 2023 01:16:05 GMT-0700 (Pacific Daylight Time)","160303","html-keyboard-response","78","152497","0.0-5.0-2.24","","7249","","<div class='trialBorder'><div class='vertical-center'><img style='vertical-align:center; align:center' src=img/fixation3.jpg></div><div class='cl'><div class='vertical-center'>$14<br><br>now</div></div><div class='cr'><div class='vertical-center'>$25<br>in<br>3 weeks</div></div><div class='respDivL'><div class='vertical-center'>(E)</div></div><div class='respDivR'><div class='vertical-center'>(I)</div></div></div>","I","$14<br><br>now","$25<br>in<br>3 weeks","0","14","25","3","THEN"
"","","","offerFB","6156a0460b95fa57be8312c4","bdp_td","Wed Mar 29 2023 01:16:05 GMT-0700 (Pacific Daylight Time)","160303","html-keyboard-response","79","152749","0.0-5.0-3.24","","null","","<div class='trialBorder'><div class='vertical-center'><img style='vertical-align:center; align:center' src=img/fixation3.jpg></div><div class='cl'><div class='vertical-center'>$14<br><br>now</div></div><div class='cr'><div class='vertical-center'><font style='color:orange'>$25<br>in<br>3 weeks</font></div></div><div class='respDivL'><div class='vertical-center'>(E)</div></div><div class='respDivR'><div class='vertical-center'><font style='color:orange'>(I)</font></div></div></div>","null","$14<br><br>now","$25<br>in<br>3 weeks","0","14","25","3",""
"","","","FIX","6156a0460b95fa57be8312c4","bdp_td","Wed Mar 29 2023 01:16:05 GMT-0700 (Pacific Daylight Time)","160303","html-keyboard-response","80","153256","0.0-5.0-1.25","","null","","<div class='trialBorder'><div class='vertical-center'><img style='vertical-align:center; align:center' src=img/fixation3.jpg></div></div>","null","","","","","","",""
"","","","offer","6156a0460b95fa57be8312c4","bdp_td","Wed Mar 29 2023 01:16:05 GMT-0700 (Pacific Daylight Time)","160303","html-keyboard-response","81","156447","0.0-5.0-2.25","","3190","","<div class='trialBorder'><div class='vertical-center'><img style='vertical-align:center; align:center' src=img/fixation3.jpg></div><div class='cl'><div class='vertical-center'>$78<br><br>now</div></div><div class='cr'><div class='vertical-center'>$80<br>in<br>12 weeks</div></div><div class='respDivL'><div class='vertical-center'>(E)</div></div><div class='respDivR'><div class='vertical-center'>(I)</div></div></div>","E","$78<br><br>now","$80<br>in<br>12 weeks","0","78","80","12","NOW"
"","","","offerFB","6156a0460b95fa57be8312c4","bdp_td","Wed Mar 29 2023 01:16:05 GMT-0700 (Pacific Daylight Time)","160303","html-keyboard-response","82","156700","0.0-5.0-3.25","","null","","<div class='trialBorder'><div class='vertical-center'><img style='vertical-align:center; align:center' src=img/fixation3.jpg></div><div class='cl'><div class='vertical-center'><font style='color:orange'>$78<br><br>now</font></div></div><div class='cr'><div class='vertical-center'>$80<br>in<br>12 weeks</div></div><div class='respDivL'><div class='vertical-center'><font style='color:orange'>(E)</font></div></div><div class='respDivR'><div class='vertical-center'>(I)</div></div></div>","null","$78<br><br>now","$80<br>in<br>12 weeks","0","78","80","12",""
"","","","FIX","6156a0460b95fa57be8312c4","bdp_td","Wed Mar 29 2023 01:16:05 GMT-0700 (Pacific Daylight Time)","160303","html-keyboard-response","83","157209","0.0-5.0-1.26","","null","","<div class='trialBorder'><div class='vertical-center'><img style='vertical-align:center; align:center' src=img/fixation3.jpg></div></div>","null","","","","","","",""
"","","","offer","6156a0460b95fa57be8312c4","bdp_td","Wed Mar 29 2023 01:16:05 GMT-0700 (Pacific Daylight Time)","160303","html-keyboard-response","84","159050","0.0-5.0-2.26","","1840","","<div class='trialBorder'><div class='vertical-center'><img style='vertical-align:center; align:center' src=img/fixation3.jpg></div><div class='cl'><div class='vertical-center'>$60<br>in<br>3 weeks</div></div><div class='cr'><div class='vertical-center'>$25<br><br>now</div></div><div class='respDivL'><div class='vertical-center'>(E)</div></div><div class='respDivR'><div class='vertical-center'>(I)</div></div></div>","E","$25<br><br>now","$60<br>in<br>3 weeks","1","25","60","3","THEN"
"","","","offerFB","6156a0460b95fa57be8312c4","bdp_td","Wed Mar 29 2023 01:16:05 GMT-0700 (Pacific Daylight Time)","160303","html-keyboard-response","85","159301","0.0-5.0-3.26","","null","","<div class='trialBorder'><div class='vertical-center'><img style='vertical-align:center; align:center' src=img/fixation3.jpg></div><div class='cl'><div class='vertical-center'><font style='color:orange'>$60<br>in<br>3 weeks</font></div></div><div class='cr'><div class='vertical-center'>$25<br><br>now</div></div><div class='respDivL'><div class='vertical-center'><font style='color:orange'>(E)</font></div></div><div class='respDivR'><div class='vertical-center'>(I)</div></div></div>","null","$25<br><br>now","$60<br>in<br>3 weeks","1","25","60","3",""
"fullscreenexit","86","159308","fullscreenexit","6156a0460b95fa57be8312c4","bdp_td","Wed Mar 29 2023 01:16:05 GMT-0700 (Pacific Daylight Time)","160303","","","","","","","","","","","","","","","",""
"","","","","6156a0460b95fa57be8312c4","bdp_td","Wed Mar 29 2023 01:16:05 GMT-0700 (Pacific Daylight Time)","160303","fullscreen","86","160303","0.0-6.0","","","true","","","","","","","","",""
"","","","","","","","","html-keyboard-response","87","160811","0.0-7.0","","null","","","null","","","","","","",""
