"trial_type","trial_index","time_elapsed","internal_node_id","subject_id","task","startTime","totalTime","view_history","rt","event","trial","time","trialtype","success","stimulus","key_press","nowOffer","thenOffer","thenLeft","nowAmt","thenAmt","thenWeeks","chosen"
"pavlovia","0","3","0.0-0.0","60c837327440575481e333ce","bdp_td","Sat Mar 25 2023 16:54:37 GMT-0700 (Mountain Standard Time)","84962","","","","","","","","","","","","","","","",""
"instructions","1","2136","0.0-1.0","60c837327440575481e333ce","bdp_td","Sat Mar 25 2023 16:54:37 GMT-0700 (Mountain Standard Time)","84962","[{""page_index"":0,""viewing_time"":2132}]","2132","","","","","","","","","","","","","",""
"","","","","60c837327440575481e333ce","bdp_td","Sat Mar 25 2023 16:54:37 GMT-0700 (Mountain Standard Time)","84962","","","fullscreenenter","2","3854","fullscreenenter","","","","","","","","","",""
"fullscreen","2","4836","0.0-2.0","60c837327440575481e333ce","bdp_td","Sat Mar 25 2023 16:54:37 GMT-0700 (Mountain Standard Time)","84962","","","","","","","true","","","","","","","","",""
"instructions","3","22548","0.0-4.0","60c837327440575481e333ce","bdp_td","Sat Mar 25 2023 16:54:37 GMT-0700 (Mountain Standard Time)","84962","[{""page_index"":0,""viewing_time"":4585},{""page_index"":1,""viewing_time"":3379},{""page_index"":2,""viewing_time"":2968},{""page_index"":1,""viewing_time"":2305},{""page_index"":2,""viewing_time"":4474}]","17711","","","","","","","","","","","","","",""
"html-keyboard-response","4","23050","0.0-5.0-1.0","60c837327440575481e333ce","bdp_td","Sat Mar 25 2023 16:54:37 GMT-0700 (Mountain Standard Time)","84962","","null","","","","FIX","","<div class='trialBorder'><div class='vertical-center'><img style='vertical-align:center; align:center' src=img/fixation3.jpg></div></div>","null","","","","","","",""
"html-keyboard-response","5","27130","0.0-5.0-2.0","60c837327440575481e333ce","bdp_td","Sat Mar 25 2023 16:54:37 GMT-0700 (Mountain Standard Time)","84962","","4079","","","","offer","","<div class='trialBorder'><div class='vertical-center'><img style='vertical-align:center; align:center' src=img/fixation3.jpg></div><div class='cl'><div class='vertical-center'>$14<br><br>now</div></div><div class='cr'><div class='vertical-center'>$25<br>in<br>3 weeks</div></div><div class='respDivL'><div class='vertical-center'>(E)</div></div><div class='respDivR'><div class='vertical-center'>(I)</div></div></div>","I","$14<br><br>now","$25<br>in<br>3 weeks","0","14","25","3","THEN"
"html-keyboard-response","6","27382","0.0-5.0-3.0","60c837327440575481e333ce","bdp_td","Sat Mar 25 2023 16:54:37 GMT-0700 (Mountain Standard Time)","84962","","null","","","","offerFB","","<div class='trialBorder'><div class='vertical-center'><img style='vertical-align:center; align:center' src=img/fixation3.jpg></div><div class='cl'><div class='vertical-center'>$14<br><br>now</div></div><div class='cr'><div class='vertical-center'><font style='color:orange'>$25<br>in<br>3 weeks</font></div></div><div class='respDivL'><div class='vertical-center'>(E)</div></div><div class='respDivR'><div class='vertical-center'><font style='color:orange'>(I)</font></div></div></div>","null","$14<br><br>now","$25<br>in<br>3 weeks","0","14","25","3",""
"html-keyboard-response","7","27884","0.0-5.0-1.1","60c837327440575481e333ce","bdp_td","Sat Mar 25 2023 16:54:37 GMT-0700 (Mountain Standard Time)","84962","","null","","","","FIX","","<div class='trialBorder'><div class='vertical-center'><img style='vertical-align:center; align:center' src=img/fixation3.jpg></div></div>","null","","","","","","",""
"html-keyboard-response","8","30695","0.0-5.0-2.1","60c837327440575481e333ce","bdp_td","Sat Mar 25 2023 16:54:37 GMT-0700 (Mountain Standard Time)","84962","","2810","","","","offer","","<div class='trialBorder'><div class='vertical-center'><img style='vertical-align:center; align:center' src=img/fixation3.jpg></div><div class='cl'><div class='vertical-center'>$50<br>in<br>6 weeks</div></div><div class='cr'><div class='vertical-center'>$34<br><br>now</div></div><div class='respDivL'><div class='vertical-center'>(E)</div></div><div class='respDivR'><div class='vertical-center'>(I)</div></div></div>","E","$34<br><br>now","$50<br>in<br>6 weeks","1","34","50","6","THEN"
"html-keyboard-response","9","30947","0.0-5.0-3.1","60c837327440575481e333ce","bdp_td","Sat Mar 25 2023 16:54:37 GMT-0700 (Mountain Standard Time)","84962","","null","","","","offerFB","","<div class='trialBorder'><div class='vertical-center'><img style='vertical-align:center; align:center' src=img/fixation3.jpg></div><div class='cl'><div class='vertical-center'><font style='color:orange'>$50<br>in<br>6 weeks</font></div></div><div class='cr'><div class='vertical-center'>$34<br><br>now</div></div><div class='respDivL'><div class='vertical-center'><font style='color:orange'>(E)</font></div></div><div class='respDivR'><div class='vertical-center'>(I)</div></div></div>","null","$34<br><br>now","$50<br>in<br>6 weeks","1","34","50","6",""
"html-keyboard-response","10","31448","0.0-5.0-1.2","60c837327440575481e333ce","bdp_td","Sat Mar 25 2023 16:54:37 GMT-0700 (Mountain Standard Time)","84962","","null","","","","FIX","","<div class='trialBorder'><div class='vertical-center'><img style='vertical-align:center; align:center' src=img/fixation3.jpg></div></div>","null","","","","","","",""
"html-keyboard-response","11","32800","0.0-5.0-2.2","60c837327440575481e333ce","bdp_td","Sat Mar 25 2023 16:54:37 GMT-0700 (Mountain Standard Time)","84962","","1350","","","","offer","","<div class='trialBorder'><div class='vertical-center'><img style='vertical-align:center; align:center' src=img/fixation3.jpg></div><div class='cl'><div class='vertical-center'>$75<br>in<br>3 weeks</div></div><div class='cr'><div class='vertical-center'>$41<br><br>now</div></div><div class='respDivL'><div class='vertical-center'>(E)</div></div><div class='respDivR'><div class='vertical-center'>(I)</div></div></div>","E","$41<br><br>now","$75<br>in<br>3 weeks","1","41","75","3","THEN"
"html-keyboard-response","12","33051","0.0-5.0-3.2","60c837327440575481e333ce","bdp_td","Sat Mar 25 2023 16:54:37 GMT-0700 (Mountain Standard Time)","84962","","null","","","","offerFB","","<div class='trialBorder'><div class='vertical-center'><img style='vertical-align:center; align:center' src=img/fixation3.jpg></div><div class='cl'><div class='vertical-center'><font style='color:orange'>$75<br>in<br>3 weeks</font></div></div><div class='cr'><div class='vertical-center'>$41<br><br>now</div></div><div class='respDivL'><div class='vertical-center'><font style='color:orange'>(E)</font></div></div><div class='respDivR'><div class='vertical-center'>(I)</div></div></div>","null","$41<br><br>now","$75<br>in<br>3 weeks","1","41","75","3",""
"html-keyboard-response","13","33554","0.0-5.0-1.3","60c837327440575481e333ce","bdp_td","Sat Mar 25 2023 16:54:37 GMT-0700 (Mountain Standard Time)","84962","","null","","","","FIX","","<div class='trialBorder'><div class='vertical-center'><img style='vertical-align:center; align:center' src=img/fixation3.jpg></div></div>","null","","","","","","",""
"html-keyboard-response","14","34631","0.0-5.0-2.3","60c837327440575481e333ce","bdp_td","Sat Mar 25 2023 16:54:37 GMT-0700 (Mountain Standard Time)","84962","","1077","","","","offer","","<div class='trialBorder'><div class='vertical-center'><img style='vertical-align:center; align:center' src=img/fixation3.jpg></div><div class='cl'><div class='vertical-center'>$60<br>in<br>3 weeks</div></div><div class='cr'><div class='vertical-center'>$25<br><br>now</div></div><div class='respDivL'><div class='vertical-center'>(E)</div></div><div class='respDivR'><div class='vertical-center'>(I)</div></div></div>","I","$25<br><br>now","$60<br>in<br>3 weeks","1","25","60","3","NOW"
"html-keyboard-response","15","34883","0.0-5.0-3.3","60c837327440575481e333ce","bdp_td","Sat Mar 25 2023 16:54:37 GMT-0700 (Mountain Standard Time)","84962","","null","","","","offerFB","","<div class='trialBorder'><div class='vertical-center'><img style='vertical-align:center; align:center' src=img/fixation3.jpg></div><div class='cl'><div class='vertical-center'>$60<br>in<br>3 weeks</div></div><div class='cr'><div class='vertical-center'><font style='color:orange'>$25<br><br>now</font></div></div><div class='respDivL'><div class='vertical-center'>(E)</div></div><div class='respDivR'><div class='vertical-center'><font style='color:orange'>(I)</font></div></div></div>","null","$25<br><br>now","$60<br>in<br>3 weeks","1","25","60","3",""
"html-keyboard-response","16","35384","0.0-5.0-1.4","60c837327440575481e333ce","bdp_td","Sat Mar 25 2023 16:54:37 GMT-0700 (Mountain Standard Time)","84962","","null","","","","FIX","","<div class='trialBorder'><div class='vertical-center'><img style='vertical-align:center; align:center' src=img/fixation3.jpg></div></div>","null","","","","","","",""
"html-keyboard-response","17","37180","0.0-5.0-2.4","60c837327440575481e333ce","bdp_td","Sat Mar 25 2023 16:54:37 GMT-0700 (Mountain Standard Time)","84962","","1795","","","","offer","","<div class='trialBorder'><div class='vertical-center'><img style='vertical-align:center; align:center' src=img/fixation3.jpg></div><div class='cl'><div class='vertical-center'>$55<br>in<br>6 weeks</div></div><div class='cr'><div class='vertical-center'>$40<br><br>now</div></div><div class='respDivL'><div class='vertical-center'>(E)</div></div><div class='respDivR'><div class='vertical-center'>(I)</div></div></div>","I","$40<br><br>now","$55<br>in<br>6 weeks","1","40","55","6","NOW"
"html-keyboard-response","18","37432","0.0-5.0-3.4","60c837327440575481e333ce","bdp_td","Sat Mar 25 2023 16:54:37 GMT-0700 (Mountain Standard Time)","84962","","null","","","","offerFB","","<div class='trialBorder'><div class='vertical-center'><img style='vertical-align:center; align:center' src=img/fixation3.jpg></div><div class='cl'><div class='vertical-center'>$55<br>in<br>6 weeks</div></div><div class='cr'><div class='vertical-center'><font style='color:orange'>$40<br><br>now</font></div></div><div class='respDivL'><div class='vertical-center'>(E)</div></div><div class='respDivR'><div class='vertical-center'><font style='color:orange'>(I)</font></div></div></div>","null","$40<br><br>now","$55<br>in<br>6 weeks","1","40","55","6",""
"html-keyboard-response","19","37933","0.0-5.0-1.5","60c837327440575481e333ce","bdp_td","Sat Mar 25 2023 16:54:37 GMT-0700 (Mountain Standard Time)","84962","","null","","","","FIX","","<div class='trialBorder'><div class='vertical-center'><img style='vertical-align:center; align:center' src=img/fixation3.jpg></div></div>","null","","","","","","",""
"html-keyboard-response","20","39596","0.0-5.0-2.5","60c837327440575481e333ce","bdp_td","Sat Mar 25 2023 16:54:37 GMT-0700 (Mountain Standard Time)","84962","","1661","","","","offer","","<div class='trialBorder'><div class='vertical-center'><img style='vertical-align:center; align:center' src=img/fixation3.jpg></div><div class='cl'><div class='vertical-center'>$30<br>in<br>12 weeks</div></div><div class='cr'><div class='vertical-center'>$28<br><br>now</div></div><div class='respDivL'><div class='vertical-center'>(E)</div></div><div class='respDivR'><div class='vertical-center'>(I)</div></div></div>","I","$28<br><br>now","$30<br>in<br>12 weeks","1","28","30","12","NOW"
"html-keyboard-response","21","39847","0.0-5.0-3.5","60c837327440575481e333ce","bdp_td","Sat Mar 25 2023 16:54:37 GMT-0700 (Mountain Standard Time)","84962","","null","","","","offerFB","","<div class='trialBorder'><div class='vertical-center'><img style='vertical-align:center; align:center' src=img/fixation3.jpg></div><div class='cl'><div class='vertical-center'>$30<br>in<br>12 weeks</div></div><div class='cr'><div class='vertical-center'><font style='color:orange'>$28<br><br>now</font></div></div><div class='respDivL'><div class='vertical-center'>(E)</div></div><div class='respDivR'><div class='vertical-center'><font style='color:orange'>(I)</font></div></div></div>","null","$28<br><br>now","$30<br>in<br>12 weeks","1","28","30","12",""
"html-keyboard-response","22","40348","0.0-5.0-1.6","60c837327440575481e333ce","bdp_td","Sat Mar 25 2023 16:54:37 GMT-0700 (Mountain Standard Time)","84962","","null","","","","FIX","","<div class='trialBorder'><div class='vertical-center'><img style='vertical-align:center; align:center' src=img/fixation3.jpg></div></div>","null","","","","","","",""
"html-keyboard-response","23","41998","0.0-5.0-2.6","60c837327440575481e333ce","bdp_td","Sat Mar 25 2023 16:54:37 GMT-0700 (Mountain Standard Time)","84962","","1650","","","","offer","","<div class='trialBorder'><div class='vertical-center'><img style='vertical-align:center; align:center' src=img/fixation3.jpg></div><div class='cl'><div class='vertical-center'>$15<br><br>now</div></div><div class='cr'><div class='vertical-center'>$35<br>in<br>2 weeks</div></div><div class='respDivL'><div class='vertical-center'>(E)</div></div><div class='respDivR'><div class='vertical-center'>(I)</div></div></div>","E","$15<br><br>now","$35<br>in<br>2 weeks","0","15","35","2","NOW"
"html-keyboard-response","24","42250","0.0-5.0-3.6","60c837327440575481e333ce","bdp_td","Sat Mar 25 2023 16:54:37 GMT-0700 (Mountain Standard Time)","84962","","null","","","","offerFB","","<div class='trialBorder'><div class='vertical-center'><img style='vertical-align:center; align:center' src=img/fixation3.jpg></div><div class='cl'><div class='vertical-center'><font style='color:orange'>$15<br><br>now</font></div></div><div class='cr'><div class='vertical-center'>$35<br>in<br>2 weeks</div></div><div class='respDivL'><div class='vertical-center'><font style='color:orange'>(E)</font></div></div><div class='respDivR'><div class='vertical-center'>(I)</div></div></div>","null","$15<br><br>now","$35<br>in<br>2 weeks","0","15","35","2",""
"html-keyboard-response","25","42750","0.0-5.0-1.7","60c837327440575481e333ce","bdp_td","Sat Mar 25 2023 16:54:37 GMT-0700 (Mountain Standard Time)","84962","","null","","","","FIX","","<div class='trialBorder'><div class='vertical-center'><img style='vertical-align:center; align:center' src=img/fixation3.jpg></div></div>","null","","","","","","",""
"html-keyboard-response","26","44488","0.0-5.0-2.7","60c837327440575481e333ce","bdp_td","Sat Mar 25 2023 16:54:37 GMT-0700 (Mountain Standard Time)","84962","","1737","","","","offer","","<div class='trialBorder'><div class='vertical-center'><img style='vertical-align:center; align:center' src=img/fixation3.jpg></div><div class='cl'><div class='vertical-center'>$55<br><br>now</div></div><div class='cr'><div class='vertical-center'>$75<br>in<br>6 weeks</div></div><div class='respDivL'><div class='vertical-center'>(E)</div></div><div class='respDivR'><div class='vertical-center'>(I)</div></div></div>","E","$55<br><br>now","$75<br>in<br>6 weeks","0","55","75","6","NOW"
"html-keyboard-response","27","44739","0.0-5.0-3.7","60c837327440575481e333ce","bdp_td","Sat Mar 25 2023 16:54:37 GMT-0700 (Mountain Standard Time)","84962","","null","","","","offerFB","","<div class='trialBorder'><div class='vertical-center'><img style='vertical-align:center; align:center' src=img/fixation3.jpg></div><div class='cl'><div class='vertical-center'><font style='color:orange'>$55<br><br>now</font></div></div><div class='cr'><div class='vertical-center'>$75<br>in<br>6 weeks</div></div><div class='respDivL'><div class='vertical-center'><font style='color:orange'>(E)</font></div></div><div class='respDivR'><div class='vertical-center'>(I)</div></div></div>","null","$55<br><br>now","$75<br>in<br>6 weeks","0","55","75","6",""
"html-keyboard-response","28","45241","0.0-5.0-1.8","60c837327440575481e333ce","bdp_td","Sat Mar 25 2023 16:54:37 GMT-0700 (Mountain Standard Time)","84962","","null","","","","FIX","","<div class='trialBorder'><div class='vertical-center'><img style='vertical-align:center; align:center' src=img/fixation3.jpg></div></div>","null","","","","","","",""
"html-keyboard-response","29","46653","0.0-5.0-2.8","60c837327440575481e333ce","bdp_td","Sat Mar 25 2023 16:54:37 GMT-0700 (Mountain Standard Time)","84962","","1412","","","","offer","","<div class='trialBorder'><div class='vertical-center'><img style='vertical-align:center; align:center' src=img/fixation3.jpg></div><div class='cl'><div class='vertical-center'>$34<br><br>now</div></div><div class='cr'><div class='vertical-center'>$35<br>in<br>12 weeks</div></div><div class='respDivL'><div class='vertical-center'>(E)</div></div><div class='respDivR'><div class='vertical-center'>(I)</div></div></div>","E","$34<br><br>now","$35<br>in<br>12 weeks","0","34","35","12","NOW"
"html-keyboard-response","30","46904","0.0-5.0-3.8","60c837327440575481e333ce","bdp_td","Sat Mar 25 2023 16:54:37 GMT-0700 (Mountain Standard Time)","84962","","null","","","","offerFB","","<div class='trialBorder'><div class='vertical-center'><img style='vertical-align:center; align:center' src=img/fixation3.jpg></div><div class='cl'><div class='vertical-center'><font style='color:orange'>$34<br><br>now</font></div></div><div class='cr'><div class='vertical-center'>$35<br>in<br>12 weeks</div></div><div class='respDivL'><div class='vertical-center'><font style='color:orange'>(E)</font></div></div><div class='respDivR'><div class='vertical-center'>(I)</div></div></div>","null","$34<br><br>now","$35<br>in<br>12 weeks","0","34","35","12",""
"html-keyboard-response","31","47406","0.0-5.0-1.9","60c837327440575481e333ce","bdp_td","Sat Mar 25 2023 16:54:37 GMT-0700 (Mountain Standard Time)","84962","","null","","","","FIX","","<div class='trialBorder'><div class='vertical-center'><img style='vertical-align:center; align:center' src=img/fixation3.jpg></div></div>","null","","","","","","",""
"html-keyboard-response","32","48630","0.0-5.0-2.9","60c837327440575481e333ce","bdp_td","Sat Mar 25 2023 16:54:37 GMT-0700 (Mountain Standard Time)","84962","","1224","","","","offer","","<div class='trialBorder'><div class='vertical-center'><img style='vertical-align:center; align:center' src=img/fixation3.jpg></div><div class='cl'><div class='vertical-center'>$27<br><br>now</div></div><div class='cr'><div class='vertical-center'>$50<br>in<br>3 weeks</div></div><div class='respDivL'><div class='vertical-center'>(E)</div></div><div class='respDivR'><div class='vertical-center'>(I)</div></div></div>","I","$27<br><br>now","$50<br>in<br>3 weeks","0","27","50","3","THEN"
"html-keyboard-response","33","48882","0.0-5.0-3.9","60c837327440575481e333ce","bdp_td","Sat Mar 25 2023 16:54:37 GMT-0700 (Mountain Standard Time)","84962","","null","","","","offerFB","","<div class='trialBorder'><div class='vertical-center'><img style='vertical-align:center; align:center' src=img/fixation3.jpg></div><div class='cl'><div class='vertical-center'>$27<br><br>now</div></div><div class='cr'><div class='vertical-center'><font style='color:orange'>$50<br>in<br>3 weeks</font></div></div><div class='respDivL'><div class='vertical-center'>(E)</div></div><div class='respDivR'><div class='vertical-center'><font style='color:orange'>(I)</font></div></div></div>","null","$27<br><br>now","$50<br>in<br>3 weeks","0","27","50","3",""
"html-keyboard-response","34","49383","0.0-5.0-1.10","60c837327440575481e333ce","bdp_td","Sat Mar 25 2023 16:54:37 GMT-0700 (Mountain Standard Time)","84962","","null","","","","FIX","","<div class='trialBorder'><div class='vertical-center'><img style='vertical-align:center; align:center' src=img/fixation3.jpg></div></div>","null","","","","","","",""
"html-keyboard-response","35","50554","0.0-5.0-2.10","60c837327440575481e333ce","bdp_td","Sat Mar 25 2023 16:54:37 GMT-0700 (Mountain Standard Time)","84962","","1171","","","","offer","","<div class='trialBorder'><div class='vertical-center'><img style='vertical-align:center; align:center' src=img/fixation3.jpg></div><div class='cl'><div class='vertical-center'>$80<br>in<br>3 weeks</div></div><div class='cr'><div class='vertical-center'>$54<br><br>now</div></div><div class='respDivL'><div class='vertical-center'>(E)</div></div><div class='respDivR'><div class='vertical-center'>(I)</div></div></div>","E","$54<br><br>now","$80<br>in<br>3 weeks","1","54","80","3","THEN"
"html-keyboard-response","36","50805","0.0-5.0-3.10","60c837327440575481e333ce","bdp_td","Sat Mar 25 2023 16:54:37 GMT-0700 (Mountain Standard Time)","84962","","null","","","","offerFB","","<div class='trialBorder'><div class='vertical-center'><img style='vertical-align:center; align:center' src=img/fixation3.jpg></div><div class='cl'><div class='vertical-center'><font style='color:orange'>$80<br>in<br>3 weeks</font></div></div><div class='cr'><div class='vertical-center'>$54<br><br>now</div></div><div class='respDivL'><div class='vertical-center'><font style='color:orange'>(E)</font></div></div><div class='respDivR'><div class='vertical-center'>(I)</div></div></div>","null","$54<br><br>now","$80<br>in<br>3 weeks","1","54","80","3",""
"html-keyboard-response","37","51307","0.0-5.0-1.11","60c837327440575481e333ce","bdp_td","Sat Mar 25 2023 16:54:37 GMT-0700 (Mountain Standard Time)","84962","","null","","","","FIX","","<div class='trialBorder'><div class='vertical-center'><img style='vertical-align:center; align:center' src=img/fixation3.jpg></div></div>","null","","","","","","",""
"html-keyboard-response","38","52487","0.0-5.0-2.11","60c837327440575481e333ce","bdp_td","Sat Mar 25 2023 16:54:37 GMT-0700 (Mountain Standard Time)","84962","","1179","","","","offer","","<div class='trialBorder'><div class='vertical-center'><img style='vertical-align:center; align:center' src=img/fixation3.jpg></div><div class='cl'><div class='vertical-center'>$80<br>in<br>12 weeks</div></div><div class='cr'><div class='vertical-center'>$78<br><br>now</div></div><div class='respDivL'><div class='vertical-center'>(E)</div></div><div class='respDivR'><div class='vertical-center'>(I)</div></div></div>","I","$78<br><br>now","$80<br>in<br>12 weeks","1","78","80","12","NOW"
"html-keyboard-response","39","52738","0.0-5.0-3.11","60c837327440575481e333ce","bdp_td","Sat Mar 25 2023 16:54:37 GMT-0700 (Mountain Standard Time)","84962","","null","","","","offerFB","","<div class='trialBorder'><div class='vertical-center'><img style='vertical-align:center; align:center' src=img/fixation3.jpg></div><div class='cl'><div class='vertical-center'>$80<br>in<br>12 weeks</div></div><div class='cr'><div class='vertical-center'><font style='color:orange'>$78<br><br>now</font></div></div><div class='respDivL'><div class='vertical-center'>(E)</div></div><div class='respDivR'><div class='vertical-center'><font style='color:orange'>(I)</font></div></div></div>","null","$78<br><br>now","$80<br>in<br>12 weeks","1","78","80","12",""
"html-keyboard-response","40","53239","0.0-5.0-1.12","60c837327440575481e333ce","bdp_td","Sat Mar 25 2023 16:54:37 GMT-0700 (Mountain Standard Time)","84962","","null","","","","FIX","","<div class='trialBorder'><div class='vertical-center'><img style='vertical-align:center; align:center' src=img/fixation3.jpg></div></div>","null","","","","","","",""
"html-keyboard-response","41","54564","0.0-5.0-2.12","60c837327440575481e333ce","bdp_td","Sat Mar 25 2023 16:54:37 GMT-0700 (Mountain Standard Time)","84962","","1324","","","","offer","","<div class='trialBorder'><div class='vertical-center'><img style='vertical-align:center; align:center' src=img/fixation3.jpg></div><div class='cl'><div class='vertical-center'>$80<br><br>now</div></div><div class='cr'><div class='vertical-center'>$85<br>in<br>12 weeks</div></div><div class='respDivL'><div class='vertical-center'>(E)</div></div><div class='respDivR'><div class='vertical-center'>(I)</div></div></div>","I","$80<br><br>now","$85<br>in<br>12 weeks","0","80","85","12","THEN"
"html-keyboard-response","42","54815","0.0-5.0-3.12","60c837327440575481e333ce","bdp_td","Sat Mar 25 2023 16:54:37 GMT-0700 (Mountain Standard Time)","84962","","null","","","","offerFB","","<div class='trialBorder'><div class='vertical-center'><img style='vertical-align:center; align:center' src=img/fixation3.jpg></div><div class='cl'><div class='vertical-center'>$80<br><br>now</div></div><div class='cr'><div class='vertical-center'><font style='color:orange'>$85<br>in<br>12 weeks</font></div></div><div class='respDivL'><div class='vertical-center'>(E)</div></div><div class='respDivR'><div class='vertical-center'><font style='color:orange'>(I)</font></div></div></div>","null","$80<br><br>now","$85<br>in<br>12 weeks","0","80","85","12",""
"html-keyboard-response","43","55316","0.0-5.0-1.13","60c837327440575481e333ce","bdp_td","Sat Mar 25 2023 16:54:37 GMT-0700 (Mountain Standard Time)","84962","","null","","","","FIX","","<div class='trialBorder'><div class='vertical-center'><img style='vertical-align:center; align:center' src=img/fixation3.jpg></div></div>","null","","","","","","",""
"html-keyboard-response","44","56811","0.0-5.0-2.13","60c837327440575481e333ce","bdp_td","Sat Mar 25 2023 16:54:37 GMT-0700 (Mountain Standard Time)","84962","","1494","","","","offer","","<div class='trialBorder'><div class='vertical-center'><img style='vertical-align:center; align:center' src=img/fixation3.jpg></div><div class='cl'><div class='vertical-center'>$47<br><br>now</div></div><div class='cr'><div class='vertical-center'>$50<br>in<br>12 weeks</div></div><div class='respDivL'><div class='vertical-center'>(E)</div></div><div class='respDivR'><div class='vertical-center'>(I)</div></div></div>","E","$47<br><br>now","$50<br>in<br>12 weeks","0","47","50","12","NOW"
"html-keyboard-response","45","57063","0.0-5.0-3.13","60c837327440575481e333ce","bdp_td","Sat Mar 25 2023 16:54:37 GMT-0700 (Mountain Standard Time)","84962","","null","","","","offerFB","","<div class='trialBorder'><div class='vertical-center'><img style='vertical-align:center; align:center' src=img/fixation3.jpg></div><div class='cl'><div class='vertical-center'><font style='color:orange'>$47<br><br>now</font></div></div><div class='cr'><div class='vertical-center'>$50<br>in<br>12 weeks</div></div><div class='respDivL'><div class='vertical-center'><font style='color:orange'>(E)</font></div></div><div class='respDivR'><div class='vertical-center'>(I)</div></div></div>","null","$47<br><br>now","$50<br>in<br>12 weeks","0","47","50","12",""
"html-keyboard-response","46","57565","0.0-5.0-1.14","60c837327440575481e333ce","bdp_td","Sat Mar 25 2023 16:54:37 GMT-0700 (Mountain Standard Time)","84962","","null","","","","FIX","","<div class='trialBorder'><div class='vertical-center'><img style='vertical-align:center; align:center' src=img/fixation3.jpg></div></div>","null","","","","","","",""
"html-keyboard-response","47","59743","0.0-5.0-2.14","60c837327440575481e333ce","bdp_td","Sat Mar 25 2023 16:54:37 GMT-0700 (Mountain Standard Time)","84962","","2178","","","","offer","","<div class='trialBorder'><div class='vertical-center'><img style='vertical-align:center; align:center' src=img/fixation3.jpg></div><div class='cl'><div class='vertical-center'>$55<br>in<br>1 week</div></div><div class='cr'><div class='vertical-center'>$20<br><br>now</div></div><div class='respDivL'><div class='vertical-center'>(E)</div></div><div class='respDivR'><div class='vertical-center'>(I)</div></div></div>","E","$20<br><br>now","$55<br>in<br>1 week","1","20","55","1","THEN"
"html-keyboard-response","48","60006","0.0-5.0-3.14","60c837327440575481e333ce","bdp_td","Sat Mar 25 2023 16:54:37 GMT-0700 (Mountain Standard Time)","84962","","null","","","","offerFB","","<div class='trialBorder'><div class='vertical-center'><img style='vertical-align:center; align:center' src=img/fixation3.jpg></div><div class='cl'><div class='vertical-center'><font style='color:orange'>$55<br>in<br>1 week</font></div></div><div class='cr'><div class='vertical-center'>$20<br><br>now</div></div><div class='respDivL'><div class='vertical-center'><font style='color:orange'>(E)</font></div></div><div class='respDivR'><div class='vertical-center'>(I)</div></div></div>","null","$20<br><br>now","$55<br>in<br>1 week","1","20","55","1",""
"html-keyboard-response","49","60507","0.0-5.0-1.15","60c837327440575481e333ce","bdp_td","Sat Mar 25 2023 16:54:37 GMT-0700 (Mountain Standard Time)","84962","","null","","","","FIX","","<div class='trialBorder'><div class='vertical-center'><img style='vertical-align:center; align:center' src=img/fixation3.jpg></div></div>","null","","","","","","",""
"html-keyboard-response","50","61343","0.0-5.0-2.15","60c837327440575481e333ce","bdp_td","Sat Mar 25 2023 16:54:37 GMT-0700 (Mountain Standard Time)","84962","","835","","","","offer","","<div class='trialBorder'><div class='vertical-center'><img style='vertical-align:center; align:center' src=img/fixation3.jpg></div><div class='cl'><div class='vertical-center'>$22<br><br>now</div></div><div class='cr'><div class='vertical-center'>$25<br>in<br>12 weeks</div></div><div class='respDivL'><div class='vertical-center'>(E)</div></div><div class='respDivR'><div class='vertical-center'>(I)</div></div></div>","I","$22<br><br>now","$25<br>in<br>12 weeks","0","22","25","12","THEN"
"html-keyboard-response","51","61594","0.0-5.0-3.15","60c837327440575481e333ce","bdp_td","Sat Mar 25 2023 16:54:37 GMT-0700 (Mountain Standard Time)","84962","","null","","","","offerFB","","<div class='trialBorder'><div class='vertical-center'><img style='vertical-align:center; align:center' src=img/fixation3.jpg></div><div class='cl'><div class='vertical-center'>$22<br><br>now</div></div><div class='cr'><div class='vertical-center'><font style='color:orange'>$25<br>in<br>12 weeks</font></div></div><div class='respDivL'><div class='vertical-center'>(E)</div></div><div class='respDivR'><div class='vertical-center'><font style='color:orange'>(I)</font></div></div></div>","null","$22<br><br>now","$25<br>in<br>12 weeks","0","22","25","12",""
"html-keyboard-response","52","62095","0.0-5.0-1.16","60c837327440575481e333ce","bdp_td","Sat Mar 25 2023 16:54:37 GMT-0700 (Mountain Standard Time)","84962","","null","","","","FIX","","<div class='trialBorder'><div class='vertical-center'><img style='vertical-align:center; align:center' src=img/fixation3.jpg></div></div>","null","","","","","","",""
"html-keyboard-response","53","62895","0.0-5.0-2.16","60c837327440575481e333ce","bdp_td","Sat Mar 25 2023 16:54:37 GMT-0700 (Mountain Standard Time)","84962","","799","","","","offer","","<div class='trialBorder'><div class='vertical-center'><img style='vertical-align:center; align:center' src=img/fixation3.jpg></div><div class='cl'><div class='vertical-center'>$80<br>in<br>2 weeks</div></div><div class='cr'><div class='vertical-center'>$33<br><br>now</div></div><div class='respDivL'><div class='vertical-center'>(E)</div></div><div class='respDivR'><div class='vertical-center'>(I)</div></div></div>","E","$33<br><br>now","$80<br>in<br>2 weeks","1","33","80","2","THEN"
"html-keyboard-response","54","63147","0.0-5.0-3.16","60c837327440575481e333ce","bdp_td","Sat Mar 25 2023 16:54:37 GMT-0700 (Mountain Standard Time)","84962","","null","","","","offerFB","","<div class='trialBorder'><div class='vertical-center'><img style='vertical-align:center; align:center' src=img/fixation3.jpg></div><div class='cl'><div class='vertical-center'><font style='color:orange'>$80<br>in<br>2 weeks</font></div></div><div class='cr'><div class='vertical-center'>$33<br><br>now</div></div><div class='respDivL'><div class='vertical-center'><font style='color:orange'>(E)</font></div></div><div class='respDivR'><div class='vertical-center'>(I)</div></div></div>","null","$33<br><br>now","$80<br>in<br>2 weeks","1","33","80","2",""
"html-keyboard-response","55","63648","0.0-5.0-1.17","60c837327440575481e333ce","bdp_td","Sat Mar 25 2023 16:54:37 GMT-0700 (Mountain Standard Time)","84962","","null","","","","FIX","","<div class='trialBorder'><div class='vertical-center'><img style='vertical-align:center; align:center' src=img/fixation3.jpg></div></div>","null","","","","","","",""
"html-keyboard-response","56","64375","0.0-5.0-2.17","60c837327440575481e333ce","bdp_td","Sat Mar 25 2023 16:54:37 GMT-0700 (Mountain Standard Time)","84962","","726","","","","offer","","<div class='trialBorder'><div class='vertical-center'><img style='vertical-align:center; align:center' src=img/fixation3.jpg></div><div class='cl'><div class='vertical-center'>$11<br><br>now</div></div><div class='cr'><div class='vertical-center'>$30<br>in<br>2 weeks</div></div><div class='respDivL'><div class='vertical-center'>(E)</div></div><div class='respDivR'><div class='vertical-center'>(I)</div></div></div>","I","$11<br><br>now","$30<br>in<br>2 weeks","0","11","30","2","THEN"
"html-keyboard-response","57","64627","0.0-5.0-3.17","60c837327440575481e333ce","bdp_td","Sat Mar 25 2023 16:54:37 GMT-0700 (Mountain Standard Time)","84962","","null","","","","offerFB","","<div class='trialBorder'><div class='vertical-center'><img style='vertical-align:center; align:center' src=img/fixation3.jpg></div><div class='cl'><div class='vertical-center'>$11<br><br>now</div></div><div class='cr'><div class='vertical-center'><font style='color:orange'>$30<br>in<br>2 weeks</font></div></div><div class='respDivL'><div class='vertical-center'>(E)</div></div><div class='respDivR'><div class='vertical-center'><font style='color:orange'>(I)</font></div></div></div>","null","$11<br><br>now","$30<br>in<br>2 weeks","0","11","30","2",""
"html-keyboard-response","58","65128","0.0-5.0-1.18","60c837327440575481e333ce","bdp_td","Sat Mar 25 2023 16:54:37 GMT-0700 (Mountain Standard Time)","84962","","null","","","","FIX","","<div class='trialBorder'><div class='vertical-center'><img style='vertical-align:center; align:center' src=img/fixation3.jpg></div></div>","null","","","","","","",""
"html-keyboard-response","59","66081","0.0-5.0-2.18","60c837327440575481e333ce","bdp_td","Sat Mar 25 2023 16:54:37 GMT-0700 (Mountain Standard Time)","84962","","951","","","","offer","","<div class='trialBorder'><div class='vertical-center'><img style='vertical-align:center; align:center' src=img/fixation3.jpg></div><div class='cl'><div class='vertical-center'>$55<br>in<br>12 weeks</div></div><div class='cr'><div class='vertical-center'>$54<br><br>now</div></div><div class='respDivL'><div class='vertical-center'>(E)</div></div><div class='respDivR'><div class='vertical-center'>(I)</div></div></div>","E","$54<br><br>now","$55<br>in<br>12 weeks","1","54","55","12","THEN"
"html-keyboard-response","60","66333","0.0-5.0-3.18","60c837327440575481e333ce","bdp_td","Sat Mar 25 2023 16:54:37 GMT-0700 (Mountain Standard Time)","84962","","null","","","","offerFB","","<div class='trialBorder'><div class='vertical-center'><img style='vertical-align:center; align:center' src=img/fixation3.jpg></div><div class='cl'><div class='vertical-center'><font style='color:orange'>$55<br>in<br>12 weeks</font></div></div><div class='cr'><div class='vertical-center'>$54<br><br>now</div></div><div class='respDivL'><div class='vertical-center'><font style='color:orange'>(E)</font></div></div><div class='respDivR'><div class='vertical-center'>(I)</div></div></div>","null","$54<br><br>now","$55<br>in<br>12 weeks","1","54","55","12",""
"html-keyboard-response","61","66835","0.0-5.0-1.19","60c837327440575481e333ce","bdp_td","Sat Mar 25 2023 16:54:37 GMT-0700 (Mountain Standard Time)","84962","","null","","","","FIX","","<div class='trialBorder'><div class='vertical-center'><img style='vertical-align:center; align:center' src=img/fixation3.jpg></div></div>","null","","","","","","",""
"html-keyboard-response","62","67870","0.0-5.0-2.19","60c837327440575481e333ce","bdp_td","Sat Mar 25 2023 16:54:37 GMT-0700 (Mountain Standard Time)","84962","","1034","","","","offer","","<div class='trialBorder'><div class='vertical-center'><img style='vertical-align:center; align:center' src=img/fixation3.jpg></div><div class='cl'><div class='vertical-center'>$35<br>in<br>3 weeks</div></div><div class='cr'><div class='vertical-center'>$24<br><br>now</div></div><div class='respDivL'><div class='vertical-center'>(E)</div></div><div class='respDivR'><div class='vertical-center'>(I)</div></div></div>","E","$24<br><br>now","$35<br>in<br>3 weeks","1","24","35","3","THEN"
"html-keyboard-response","63","68123","0.0-5.0-3.19","60c837327440575481e333ce","bdp_td","Sat Mar 25 2023 16:54:37 GMT-0700 (Mountain Standard Time)","84962","","null","","","","offerFB","","<div class='trialBorder'><div class='vertical-center'><img style='vertical-align:center; align:center' src=img/fixation3.jpg></div><div class='cl'><div class='vertical-center'><font style='color:orange'>$35<br>in<br>3 weeks</font></div></div><div class='cr'><div class='vertical-center'>$24<br><br>now</div></div><div class='respDivL'><div class='vertical-center'><font style='color:orange'>(E)</font></div></div><div class='respDivR'><div class='vertical-center'>(I)</div></div></div>","null","$24<br><br>now","$35<br>in<br>3 weeks","1","24","35","3",""
"html-keyboard-response","64","68624","0.0-5.0-1.20","60c837327440575481e333ce","bdp_td","Sat Mar 25 2023 16:54:37 GMT-0700 (Mountain Standard Time)","84962","","null","","","","FIX","","<div class='trialBorder'><div class='vertical-center'><img style='vertical-align:center; align:center' src=img/fixation3.jpg></div></div>","null","","","","","","",""
"html-keyboard-response","65","69595","0.0-5.0-2.20","60c837327440575481e333ce","bdp_td","Sat Mar 25 2023 16:54:37 GMT-0700 (Mountain Standard Time)","84962","","970","","","","offer","","<div class='trialBorder'><div class='vertical-center'><img style='vertical-align:center; align:center' src=img/fixation3.jpg></div><div class='cl'><div class='vertical-center'>$67<br><br>now</div></div><div class='cr'><div class='vertical-center'>$75<br>in<br>12 weeks</div></div><div class='respDivL'><div class='vertical-center'>(E)</div></div><div class='respDivR'><div class='vertical-center'>(I)</div></div></div>","E","$67<br><br>now","$75<br>in<br>12 weeks","0","67","75","12","NOW"
"html-keyboard-response","66","69846","0.0-5.0-3.20","60c837327440575481e333ce","bdp_td","Sat Mar 25 2023 16:54:37 GMT-0700 (Mountain Standard Time)","84962","","null","","","","offerFB","","<div class='trialBorder'><div class='vertical-center'><img style='vertical-align:center; align:center' src=img/fixation3.jpg></div><div class='cl'><div class='vertical-center'><font style='color:orange'>$67<br><br>now</font></div></div><div class='cr'><div class='vertical-center'>$75<br>in<br>12 weeks</div></div><div class='respDivL'><div class='vertical-center'><font style='color:orange'>(E)</font></div></div><div class='respDivR'><div class='vertical-center'>(I)</div></div></div>","null","$67<br><br>now","$75<br>in<br>12 weeks","0","67","75","12",""
"html-keyboard-response","67","70348","0.0-5.0-1.21","60c837327440575481e333ce","bdp_td","Sat Mar 25 2023 16:54:37 GMT-0700 (Mountain Standard Time)","84962","","null","","","","FIX","","<div class='trialBorder'><div class='vertical-center'><img style='vertical-align:center; align:center' src=img/fixation3.jpg></div></div>","null","","","","","","",""
"html-keyboard-response","68","71915","0.0-5.0-2.21","60c837327440575481e333ce","bdp_td","Sat Mar 25 2023 16:54:37 GMT-0700 (Mountain Standard Time)","84962","","1565","","","","offer","","<div class='trialBorder'><div class='vertical-center'><img style='vertical-align:center; align:center' src=img/fixation3.jpg></div><div class='cl'><div class='vertical-center'>$25<br>in<br>6 weeks</div></div><div class='cr'><div class='vertical-center'>$19<br><br>now</div></div><div class='respDivL'><div class='vertical-center'>(E)</div></div><div class='respDivR'><div class='vertical-center'>(I)</div></div></div>","I","$19<br><br>now","$25<br>in<br>6 weeks","1","19","25","6","NOW"
"html-keyboard-response","69","72166","0.0-5.0-3.21","60c837327440575481e333ce","bdp_td","Sat Mar 25 2023 16:54:37 GMT-0700 (Mountain Standard Time)","84962","","null","","","","offerFB","","<div class='trialBorder'><div class='vertical-center'><img style='vertical-align:center; align:center' src=img/fixation3.jpg></div><div class='cl'><div class='vertical-center'>$25<br>in<br>6 weeks</div></div><div class='cr'><div class='vertical-center'><font style='color:orange'>$19<br><br>now</font></div></div><div class='respDivL'><div class='vertical-center'>(E)</div></div><div class='respDivR'><div class='vertical-center'><font style='color:orange'>(I)</font></div></div></div>","null","$19<br><br>now","$25<br>in<br>6 weeks","1","19","25","6",""
"html-keyboard-response","70","72668","0.0-5.0-1.22","60c837327440575481e333ce","bdp_td","Sat Mar 25 2023 16:54:37 GMT-0700 (Mountain Standard Time)","84962","","null","","","","FIX","","<div class='trialBorder'><div class='vertical-center'><img style='vertical-align:center; align:center' src=img/fixation3.jpg></div></div>","null","","","","","","",""
"html-keyboard-response","71","74869","0.0-5.0-2.22","60c837327440575481e333ce","bdp_td","Sat Mar 25 2023 16:54:37 GMT-0700 (Mountain Standard Time)","84962","","2201","","","","offer","","<div class='trialBorder'><div class='vertical-center'><img style='vertical-align:center; align:center' src=img/fixation3.jpg></div><div class='cl'><div class='vertical-center'>$60<br>in<br>6 weeks</div></div><div class='cr'><div class='vertical-center'>$49<br><br>now</div></div><div class='respDivL'><div class='vertical-center'>(E)</div></div><div class='respDivR'><div class='vertical-center'>(I)</div></div></div>","I","$49<br><br>now","$60<br>in<br>6 weeks","1","49","60","6","NOW"
"html-keyboard-response","72","75122","0.0-5.0-3.22","60c837327440575481e333ce","bdp_td","Sat Mar 25 2023 16:54:37 GMT-0700 (Mountain Standard Time)","84962","","null","","","","offerFB","","<div class='trialBorder'><div class='vertical-center'><img style='vertical-align:center; align:center' src=img/fixation3.jpg></div><div class='cl'><div class='vertical-center'>$60<br>in<br>6 weeks</div></div><div class='cr'><div class='vertical-center'><font style='color:orange'>$49<br><br>now</font></div></div><div class='respDivL'><div class='vertical-center'>(E)</div></div><div class='respDivR'><div class='vertical-center'><font style='color:orange'>(I)</font></div></div></div>","null","$49<br><br>now","$60<br>in<br>6 weeks","1","49","60","6",""
"html-keyboard-response","73","75623","0.0-5.0-1.23","60c837327440575481e333ce","bdp_td","Sat Mar 25 2023 16:54:37 GMT-0700 (Mountain Standard Time)","84962","","null","","","","FIX","","<div class='trialBorder'><div class='vertical-center'><img style='vertical-align:center; align:center' src=img/fixation3.jpg></div></div>","null","","","","","","",""
"html-keyboard-response","74","76813","0.0-5.0-2.23","60c837327440575481e333ce","bdp_td","Sat Mar 25 2023 16:54:37 GMT-0700 (Mountain Standard Time)","84962","","1190","","","","offer","","<div class='trialBorder'><div class='vertical-center'><img style='vertical-align:center; align:center' src=img/fixation3.jpg></div><div class='cl'><div class='vertical-center'>$25<br><br>now</div></div><div class='cr'><div class='vertical-center'>$30<br>in<br>6 weeks</div></div><div class='respDivL'><div class='vertical-center'>(E)</div></div><div class='respDivR'><div class='vertical-center'>(I)</div></div></div>","I","$25<br><br>now","$30<br>in<br>6 weeks","0","25","30","6","THEN"
"html-keyboard-response","75","77064","0.0-5.0-3.23","60c837327440575481e333ce","bdp_td","Sat Mar 25 2023 16:54:37 GMT-0700 (Mountain Standard Time)","84962","","null","","","","offerFB","","<div class='trialBorder'><div class='vertical-center'><img style='vertical-align:center; align:center' src=img/fixation3.jpg></div><div class='cl'><div class='vertical-center'>$25<br><br>now</div></div><div class='cr'><div class='vertical-center'><font style='color:orange'>$30<br>in<br>6 weeks</font></div></div><div class='respDivL'><div class='vertical-center'>(E)</div></div><div class='respDivR'><div class='vertical-center'><font style='color:orange'>(I)</font></div></div></div>","null","$25<br><br>now","$30<br>in<br>6 weeks","0","25","30","6",""
"html-keyboard-response","76","77567","0.0-5.0-1.24","60c837327440575481e333ce","bdp_td","Sat Mar 25 2023 16:54:37 GMT-0700 (Mountain Standard Time)","84962","","null","","","","FIX","","<div class='trialBorder'><div class='vertical-center'><img style='vertical-align:center; align:center' src=img/fixation3.jpg></div></div>","null","","","","","","",""
"html-keyboard-response","77","80061","0.0-5.0-2.24","60c837327440575481e333ce","bdp_td","Sat Mar 25 2023 16:54:37 GMT-0700 (Mountain Standard Time)","84962","","2493","","","","offer","","<div class='trialBorder'><div class='vertical-center'><img style='vertical-align:center; align:center' src=img/fixation3.jpg></div><div class='cl'><div class='vertical-center'>$31<br><br>now</div></div><div class='cr'><div class='vertical-center'>$85<br>in<br>1 week</div></div><div class='respDivL'><div class='vertical-center'>(E)</div></div><div class='respDivR'><div class='vertical-center'>(I)</div></div></div>","I","$31<br><br>now","$85<br>in<br>1 week","0","31","85","1","THEN"
"html-keyboard-response","78","80312","0.0-5.0-3.24","60c837327440575481e333ce","bdp_td","Sat Mar 25 2023 16:54:37 GMT-0700 (Mountain Standard Time)","84962","","null","","","","offerFB","","<div class='trialBorder'><div class='vertical-center'><img style='vertical-align:center; align:center' src=img/fixation3.jpg></div><div class='cl'><div class='vertical-center'>$31<br><br>now</div></div><div class='cr'><div class='vertical-center'><font style='color:orange'>$85<br>in<br>1 week</font></div></div><div class='respDivL'><div class='vertical-center'>(E)</div></div><div class='respDivR'><div class='vertical-center'><font style='color:orange'>(I)</font></div></div></div>","null","$31<br><br>now","$85<br>in<br>1 week","0","31","85","1",""
"html-keyboard-response","79","80813","0.0-5.0-1.25","60c837327440575481e333ce","bdp_td","Sat Mar 25 2023 16:54:37 GMT-0700 (Mountain Standard Time)","84962","","null","","","","FIX","","<div class='trialBorder'><div class='vertical-center'><img style='vertical-align:center; align:center' src=img/fixation3.jpg></div></div>","null","","","","","","",""
"html-keyboard-response","80","82304","0.0-5.0-2.25","60c837327440575481e333ce","bdp_td","Sat Mar 25 2023 16:54:37 GMT-0700 (Mountain Standard Time)","84962","","1489","","","","offer","","<div class='trialBorder'><div class='vertical-center'><img style='vertical-align:center; align:center' src=img/fixation3.jpg></div><div class='cl'><div class='vertical-center'>$69<br><br>now</div></div><div class='cr'><div class='vertical-center'>$85<br>in<br>6 weeks</div></div><div class='respDivL'><div class='vertical-center'>(E)</div></div><div class='respDivR'><div class='vertical-center'>(I)</div></div></div>","I","$69<br><br>now","$85<br>in<br>6 weeks","0","69","85","6","THEN"
"html-keyboard-response","81","82555","0.0-5.0-3.25","60c837327440575481e333ce","bdp_td","Sat Mar 25 2023 16:54:37 GMT-0700 (Mountain Standard Time)","84962","","null","","","","offerFB","","<div class='trialBorder'><div class='vertical-center'><img style='vertical-align:center; align:center' src=img/fixation3.jpg></div><div class='cl'><div class='vertical-center'>$69<br><br>now</div></div><div class='cr'><div class='vertical-center'><font style='color:orange'>$85<br>in<br>6 weeks</font></div></div><div class='respDivL'><div class='vertical-center'>(E)</div></div><div class='respDivR'><div class='vertical-center'><font style='color:orange'>(I)</font></div></div></div>","null","$69<br><br>now","$85<br>in<br>6 weeks","0","69","85","6",""
"html-keyboard-response","82","83057","0.0-5.0-1.26","60c837327440575481e333ce","bdp_td","Sat Mar 25 2023 16:54:37 GMT-0700 (Mountain Standard Time)","84962","","null","","","","FIX","","<div class='trialBorder'><div class='vertical-center'><img style='vertical-align:center; align:center' src=img/fixation3.jpg></div></div>","null","","","","","","",""
"html-keyboard-response","83","83709","0.0-5.0-2.26","60c837327440575481e333ce","bdp_td","Sat Mar 25 2023 16:54:37 GMT-0700 (Mountain Standard Time)","84962","","652","","","","offer","","<div class='trialBorder'><div class='vertical-center'><img style='vertical-align:center; align:center' src=img/fixation3.jpg></div><div class='cl'><div class='vertical-center'>$54<br><br>now</div></div><div class='cr'><div class='vertical-center'>$60<br>in<br>12 weeks</div></div><div class='respDivL'><div class='vertical-center'>(E)</div></div><div class='respDivR'><div class='vertical-center'>(I)</div></div></div>","I","$54<br><br>now","$60<br>in<br>12 weeks","0","54","60","12","THEN"
"html-keyboard-response","84","83960","0.0-5.0-3.26","60c837327440575481e333ce","bdp_td","Sat Mar 25 2023 16:54:37 GMT-0700 (Mountain Standard Time)","84962","","null","","","","offerFB","","<div class='trialBorder'><div class='vertical-center'><img style='vertical-align:center; align:center' src=img/fixation3.jpg></div><div class='cl'><div class='vertical-center'>$54<br><br>now</div></div><div class='cr'><div class='vertical-center'><font style='color:orange'>$60<br>in<br>12 weeks</font></div></div><div class='respDivL'><div class='vertical-center'>(E)</div></div><div class='respDivR'><div class='vertical-center'><font style='color:orange'>(I)</font></div></div></div>","null","$54<br><br>now","$60<br>in<br>12 weeks","0","54","60","12",""
"","","","","60c837327440575481e333ce","bdp_td","Sat Mar 25 2023 16:54:37 GMT-0700 (Mountain Standard Time)","84962","","","fullscreenexit","85","83981","fullscreenexit","","","","","","","","","",""
"fullscreen","85","84962","0.0-6.0","60c837327440575481e333ce","bdp_td","Sat Mar 25 2023 16:54:37 GMT-0700 (Mountain Standard Time)","84962","","","","","","","true","","","","","","","","",""
"html-keyboard-response","86","85464","0.0-7.0","","","","","","null","","","","","","","null","","","","","","",""
