"trial_type","trial_index","time_elapsed","internal_node_id","subject_id","task","startTime","totalTime","view_history","rt","event","trial","time","trialtype","success","stimulus","key_press","nowOffer","thenOffer","thenLeft","nowAmt","thenAmt","thenWeeks","chosen"
"pavlovia","0","4","0.0-0.0","5fa935b3d330fa0429da624a","bdp_td","Wed Mar 29 2023 11:46:51 GMT-0400 (Eastern Daylight Time)","116312","","","","","","","","","","","","","","","",""
"instructions","1","3232","0.0-1.0","5fa935b3d330fa0429da624a","bdp_td","Wed Mar 29 2023 11:46:51 GMT-0400 (Eastern Daylight Time)","116312","[{""page_index"":0,""viewing_time"":3226}]","3227","","","","","","","","","","","","","",""
"","","","","5fa935b3d330fa0429da624a","bdp_td","Wed Mar 29 2023 11:46:51 GMT-0400 (Eastern Daylight Time)","116312","","","fullscreenenter","2","4456","fullscreenenter","","","","","","","","","",""
"fullscreen","2","5439","0.0-2.0","5fa935b3d330fa0429da624a","bdp_td","Wed Mar 29 2023 11:46:51 GMT-0400 (Eastern Daylight Time)","116312","","","","","","","true","","","","","","","","",""
"instructions","3","40488","0.0-4.0","5fa935b3d330fa0429da624a","bdp_td","Wed Mar 29 2023 11:46:51 GMT-0400 (Eastern Daylight Time)","116312","[{""page_index"":0,""viewing_time"":14841},{""page_index"":1,""viewing_time"":15078},{""page_index"":2,""viewing_time"":5129}]","35048","","","","","","","","","","","","","",""
"html-keyboard-response","4","40990","0.0-5.0-1.0","5fa935b3d330fa0429da624a","bdp_td","Wed Mar 29 2023 11:46:51 GMT-0400 (Eastern Daylight Time)","116312","","null","","","","FIX","","<div class='trialBorder'><div class='vertical-center'><img style='vertical-align:center; align:center' src=img/fixation3.jpg></div></div>","null","","","","","","",""
"html-keyboard-response","5","47234","0.0-5.0-2.0","5fa935b3d330fa0429da624a","bdp_td","Wed Mar 29 2023 11:46:51 GMT-0400 (Eastern Daylight Time)","116312","","6243","","","","offer","","<div class='trialBorder'><div class='vertical-center'><img style='vertical-align:center; align:center' src=img/fixation3.jpg></div><div class='cl'><div class='vertical-center'>$34<br><br>now</div></div><div class='cr'><div class='vertical-center'>$50<br>in<br>6 weeks</div></div><div class='respDivL'><div class='vertical-center'>(E)</div></div><div class='respDivR'><div class='vertical-center'>(I)</div></div></div>","E","$34<br><br>now","$50<br>in<br>6 weeks","0","34","50","6","NOW"
"html-keyboard-response","6","47486","0.0-5.0-3.0","5fa935b3d330fa0429da624a","bdp_td","Wed Mar 29 2023 11:46:51 GMT-0400 (Eastern Daylight Time)","116312","","null","","","","offerFB","","<div class='trialBorder'><div class='vertical-center'><img style='vertical-align:center; align:center' src=img/fixation3.jpg></div><div class='cl'><div class='vertical-center'><font style='color:orange'>$34<br><br>now</font></div></div><div class='cr'><div class='vertical-center'>$50<br>in<br>6 weeks</div></div><div class='respDivL'><div class='vertical-center'><font style='color:orange'>(E)</font></div></div><div class='respDivR'><div class='vertical-center'>(I)</div></div></div>","null","$34<br><br>now","$50<br>in<br>6 weeks","0","34","50","6",""
"html-keyboard-response","7","47989","0.0-5.0-1.1","5fa935b3d330fa0429da624a","bdp_td","Wed Mar 29 2023 11:46:51 GMT-0400 (Eastern Daylight Time)","116312","","null","","","","FIX","","<div class='trialBorder'><div class='vertical-center'><img style='vertical-align:center; align:center' src=img/fixation3.jpg></div></div>","null","","","","","","",""
"html-keyboard-response","8","49841","0.0-5.0-2.1","5fa935b3d330fa0429da624a","bdp_td","Wed Mar 29 2023 11:46:51 GMT-0400 (Eastern Daylight Time)","116312","","1851","","","","offer","","<div class='trialBorder'><div class='vertical-center'><img style='vertical-align:center; align:center' src=img/fixation3.jpg></div><div class='cl'><div class='vertical-center'>$80<br><br>now</div></div><div class='cr'><div class='vertical-center'>$85<br>in<br>12 weeks</div></div><div class='respDivL'><div class='vertical-center'>(E)</div></div><div class='respDivR'><div class='vertical-center'>(I)</div></div></div>","E","$80<br><br>now","$85<br>in<br>12 weeks","0","80","85","12","NOW"
"html-keyboard-response","9","50094","0.0-5.0-3.1","5fa935b3d330fa0429da624a","bdp_td","Wed Mar 29 2023 11:46:51 GMT-0400 (Eastern Daylight Time)","116312","","null","","","","offerFB","","<div class='trialBorder'><div class='vertical-center'><img style='vertical-align:center; align:center' src=img/fixation3.jpg></div><div class='cl'><div class='vertical-center'><font style='color:orange'>$80<br><br>now</font></div></div><div class='cr'><div class='vertical-center'>$85<br>in<br>12 weeks</div></div><div class='respDivL'><div class='vertical-center'><font style='color:orange'>(E)</font></div></div><div class='respDivR'><div class='vertical-center'>(I)</div></div></div>","null","$80<br><br>now","$85<br>in<br>12 weeks","0","80","85","12",""
"html-keyboard-response","10","50595","0.0-5.0-1.2","5fa935b3d330fa0429da624a","bdp_td","Wed Mar 29 2023 11:46:51 GMT-0400 (Eastern Daylight Time)","116312","","null","","","","FIX","","<div class='trialBorder'><div class='vertical-center'><img style='vertical-align:center; align:center' src=img/fixation3.jpg></div></div>","null","","","","","","",""
"html-keyboard-response","11","54080","0.0-5.0-2.2","5fa935b3d330fa0429da624a","bdp_td","Wed Mar 29 2023 11:46:51 GMT-0400 (Eastern Daylight Time)","116312","","3484","","","","offer","","<div class='trialBorder'><div class='vertical-center'><img style='vertical-align:center; align:center' src=img/fixation3.jpg></div><div class='cl'><div class='vertical-center'>$55<br>in<br>6 weeks</div></div><div class='cr'><div class='vertical-center'>$40<br><br>now</div></div><div class='respDivL'><div class='vertical-center'>(E)</div></div><div class='respDivR'><div class='vertical-center'>(I)</div></div></div>","E","$40<br><br>now","$55<br>in<br>6 weeks","1","40","55","6","THEN"
"html-keyboard-response","12","54333","0.0-5.0-3.2","5fa935b3d330fa0429da624a","bdp_td","Wed Mar 29 2023 11:46:51 GMT-0400 (Eastern Daylight Time)","116312","","null","","","","offerFB","","<div class='trialBorder'><div class='vertical-center'><img style='vertical-align:center; align:center' src=img/fixation3.jpg></div><div class='cl'><div class='vertical-center'><font style='color:orange'>$55<br>in<br>6 weeks</font></div></div><div class='cr'><div class='vertical-center'>$40<br><br>now</div></div><div class='respDivL'><div class='vertical-center'><font style='color:orange'>(E)</font></div></div><div class='respDivR'><div class='vertical-center'>(I)</div></div></div>","null","$40<br><br>now","$55<br>in<br>6 weeks","1","40","55","6",""
"html-keyboard-response","13","54835","0.0-5.0-1.3","5fa935b3d330fa0429da624a","bdp_td","Wed Mar 29 2023 11:46:51 GMT-0400 (Eastern Daylight Time)","116312","","null","","","","FIX","","<div class='trialBorder'><div class='vertical-center'><img style='vertical-align:center; align:center' src=img/fixation3.jpg></div></div>","null","","","","","","",""
"html-keyboard-response","14","56393","0.0-5.0-2.3","5fa935b3d330fa0429da624a","bdp_td","Wed Mar 29 2023 11:46:51 GMT-0400 (Eastern Daylight Time)","116312","","1557","","","","offer","","<div class='trialBorder'><div class='vertical-center'><img style='vertical-align:center; align:center' src=img/fixation3.jpg></div><div class='cl'><div class='vertical-center'>$80<br>in<br>3 weeks</div></div><div class='cr'><div class='vertical-center'>$54<br><br>now</div></div><div class='respDivL'><div class='vertical-center'>(E)</div></div><div class='respDivR'><div class='vertical-center'>(I)</div></div></div>","E","$54<br><br>now","$80<br>in<br>3 weeks","1","54","80","3","THEN"
"html-keyboard-response","15","56645","0.0-5.0-3.3","5fa935b3d330fa0429da624a","bdp_td","Wed Mar 29 2023 11:46:51 GMT-0400 (Eastern Daylight Time)","116312","","null","","","","offerFB","","<div class='trialBorder'><div class='vertical-center'><img style='vertical-align:center; align:center' src=img/fixation3.jpg></div><div class='cl'><div class='vertical-center'><font style='color:orange'>$80<br>in<br>3 weeks</font></div></div><div class='cr'><div class='vertical-center'>$54<br><br>now</div></div><div class='respDivL'><div class='vertical-center'><font style='color:orange'>(E)</font></div></div><div class='respDivR'><div class='vertical-center'>(I)</div></div></div>","null","$54<br><br>now","$80<br>in<br>3 weeks","1","54","80","3",""
"html-keyboard-response","16","57147","0.0-5.0-1.4","5fa935b3d330fa0429da624a","bdp_td","Wed Mar 29 2023 11:46:51 GMT-0400 (Eastern Daylight Time)","116312","","null","","","","FIX","","<div class='trialBorder'><div class='vertical-center'><img style='vertical-align:center; align:center' src=img/fixation3.jpg></div></div>","null","","","","","","",""
"html-keyboard-response","17","58497","0.0-5.0-2.4","5fa935b3d330fa0429da624a","bdp_td","Wed Mar 29 2023 11:46:51 GMT-0400 (Eastern Daylight Time)","116312","","1349","","","","offer","","<div class='trialBorder'><div class='vertical-center'><img style='vertical-align:center; align:center' src=img/fixation3.jpg></div><div class='cl'><div class='vertical-center'>$25<br>in<br>12 weeks</div></div><div class='cr'><div class='vertical-center'>$22<br><br>now</div></div><div class='respDivL'><div class='vertical-center'>(E)</div></div><div class='respDivR'><div class='vertical-center'>(I)</div></div></div>","I","$22<br><br>now","$25<br>in<br>12 weeks","1","22","25","12","NOW"
"html-keyboard-response","18","58749","0.0-5.0-3.4","5fa935b3d330fa0429da624a","bdp_td","Wed Mar 29 2023 11:46:51 GMT-0400 (Eastern Daylight Time)","116312","","null","","","","offerFB","","<div class='trialBorder'><div class='vertical-center'><img style='vertical-align:center; align:center' src=img/fixation3.jpg></div><div class='cl'><div class='vertical-center'>$25<br>in<br>12 weeks</div></div><div class='cr'><div class='vertical-center'><font style='color:orange'>$22<br><br>now</font></div></div><div class='respDivL'><div class='vertical-center'>(E)</div></div><div class='respDivR'><div class='vertical-center'><font style='color:orange'>(I)</font></div></div></div>","null","$22<br><br>now","$25<br>in<br>12 weeks","1","22","25","12",""
"html-keyboard-response","19","59251","0.0-5.0-1.5","5fa935b3d330fa0429da624a","bdp_td","Wed Mar 29 2023 11:46:51 GMT-0400 (Eastern Daylight Time)","116312","","null","","","","FIX","","<div class='trialBorder'><div class='vertical-center'><img style='vertical-align:center; align:center' src=img/fixation3.jpg></div></div>","null","","","","","","",""
"html-keyboard-response","20","60976","0.0-5.0-2.5","5fa935b3d330fa0429da624a","bdp_td","Wed Mar 29 2023 11:46:51 GMT-0400 (Eastern Daylight Time)","116312","","1725","","","","offer","","<div class='trialBorder'><div class='vertical-center'><img style='vertical-align:center; align:center' src=img/fixation3.jpg></div><div class='cl'><div class='vertical-center'>$78<br><br>now</div></div><div class='cr'><div class='vertical-center'>$80<br>in<br>12 weeks</div></div><div class='respDivL'><div class='vertical-center'>(E)</div></div><div class='respDivR'><div class='vertical-center'>(I)</div></div></div>","E","$78<br><br>now","$80<br>in<br>12 weeks","0","78","80","12","NOW"
"html-keyboard-response","21","61228","0.0-5.0-3.5","5fa935b3d330fa0429da624a","bdp_td","Wed Mar 29 2023 11:46:51 GMT-0400 (Eastern Daylight Time)","116312","","null","","","","offerFB","","<div class='trialBorder'><div class='vertical-center'><img style='vertical-align:center; align:center' src=img/fixation3.jpg></div><div class='cl'><div class='vertical-center'><font style='color:orange'>$78<br><br>now</font></div></div><div class='cr'><div class='vertical-center'>$80<br>in<br>12 weeks</div></div><div class='respDivL'><div class='vertical-center'><font style='color:orange'>(E)</font></div></div><div class='respDivR'><div class='vertical-center'>(I)</div></div></div>","null","$78<br><br>now","$80<br>in<br>12 weeks","0","78","80","12",""
"html-keyboard-response","22","61730","0.0-5.0-1.6","5fa935b3d330fa0429da624a","bdp_td","Wed Mar 29 2023 11:46:51 GMT-0400 (Eastern Daylight Time)","116312","","null","","","","FIX","","<div class='trialBorder'><div class='vertical-center'><img style='vertical-align:center; align:center' src=img/fixation3.jpg></div></div>","null","","","","","","",""
"html-keyboard-response","23","63287","0.0-5.0-2.6","5fa935b3d330fa0429da624a","bdp_td","Wed Mar 29 2023 11:46:51 GMT-0400 (Eastern Daylight Time)","116312","","1556","","","","offer","","<div class='trialBorder'><div class='vertical-center'><img style='vertical-align:center; align:center' src=img/fixation3.jpg></div><div class='cl'><div class='vertical-center'>$28<br><br>now</div></div><div class='cr'><div class='vertical-center'>$30<br>in<br>12 weeks</div></div><div class='respDivL'><div class='vertical-center'>(E)</div></div><div class='respDivR'><div class='vertical-center'>(I)</div></div></div>","E","$28<br><br>now","$30<br>in<br>12 weeks","0","28","30","12","NOW"
"html-keyboard-response","24","63538","0.0-5.0-3.6","5fa935b3d330fa0429da624a","bdp_td","Wed Mar 29 2023 11:46:51 GMT-0400 (Eastern Daylight Time)","116312","","null","","","","offerFB","","<div class='trialBorder'><div class='vertical-center'><img style='vertical-align:center; align:center' src=img/fixation3.jpg></div><div class='cl'><div class='vertical-center'><font style='color:orange'>$28<br><br>now</font></div></div><div class='cr'><div class='vertical-center'>$30<br>in<br>12 weeks</div></div><div class='respDivL'><div class='vertical-center'><font style='color:orange'>(E)</font></div></div><div class='respDivR'><div class='vertical-center'>(I)</div></div></div>","null","$28<br><br>now","$30<br>in<br>12 weeks","0","28","30","12",""
"html-keyboard-response","25","64039","0.0-5.0-1.7","5fa935b3d330fa0429da624a","bdp_td","Wed Mar 29 2023 11:46:51 GMT-0400 (Eastern Daylight Time)","116312","","null","","","","FIX","","<div class='trialBorder'><div class='vertical-center'><img style='vertical-align:center; align:center' src=img/fixation3.jpg></div></div>","null","","","","","","",""
"html-keyboard-response","26","65816","0.0-5.0-2.7","5fa935b3d330fa0429da624a","bdp_td","Wed Mar 29 2023 11:46:51 GMT-0400 (Eastern Daylight Time)","116312","","1775","","","","offer","","<div class='trialBorder'><div class='vertical-center'><img style='vertical-align:center; align:center' src=img/fixation3.jpg></div><div class='cl'><div class='vertical-center'>$75<br>in<br>12 weeks</div></div><div class='cr'><div class='vertical-center'>$67<br><br>now</div></div><div class='respDivL'><div class='vertical-center'>(E)</div></div><div class='respDivR'><div class='vertical-center'>(I)</div></div></div>","I","$67<br><br>now","$75<br>in<br>12 weeks","1","67","75","12","NOW"
"html-keyboard-response","27","66068","0.0-5.0-3.7","5fa935b3d330fa0429da624a","bdp_td","Wed Mar 29 2023 11:46:51 GMT-0400 (Eastern Daylight Time)","116312","","null","","","","offerFB","","<div class='trialBorder'><div class='vertical-center'><img style='vertical-align:center; align:center' src=img/fixation3.jpg></div><div class='cl'><div class='vertical-center'>$75<br>in<br>12 weeks</div></div><div class='cr'><div class='vertical-center'><font style='color:orange'>$67<br><br>now</font></div></div><div class='respDivL'><div class='vertical-center'>(E)</div></div><div class='respDivR'><div class='vertical-center'><font style='color:orange'>(I)</font></div></div></div>","null","$67<br><br>now","$75<br>in<br>12 weeks","1","67","75","12",""
"html-keyboard-response","28","66570","0.0-5.0-1.8","5fa935b3d330fa0429da624a","bdp_td","Wed Mar 29 2023 11:46:51 GMT-0400 (Eastern Daylight Time)","116312","","null","","","","FIX","","<div class='trialBorder'><div class='vertical-center'><img style='vertical-align:center; align:center' src=img/fixation3.jpg></div></div>","null","","","","","","",""
"html-keyboard-response","29","68295","0.0-5.0-2.8","5fa935b3d330fa0429da624a","bdp_td","Wed Mar 29 2023 11:46:51 GMT-0400 (Eastern Daylight Time)","116312","","1724","","","","offer","","<div class='trialBorder'><div class='vertical-center'><img style='vertical-align:center; align:center' src=img/fixation3.jpg></div><div class='cl'><div class='vertical-center'>$15<br><br>now</div></div><div class='cr'><div class='vertical-center'>$35<br>in<br>2 weeks</div></div><div class='respDivL'><div class='vertical-center'>(E)</div></div><div class='respDivR'><div class='vertical-center'>(I)</div></div></div>","I","$15<br><br>now","$35<br>in<br>2 weeks","0","15","35","2","THEN"
"html-keyboard-response","30","68547","0.0-5.0-3.8","5fa935b3d330fa0429da624a","bdp_td","Wed Mar 29 2023 11:46:51 GMT-0400 (Eastern Daylight Time)","116312","","null","","","","offerFB","","<div class='trialBorder'><div class='vertical-center'><img style='vertical-align:center; align:center' src=img/fixation3.jpg></div><div class='cl'><div class='vertical-center'>$15<br><br>now</div></div><div class='cr'><div class='vertical-center'><font style='color:orange'>$35<br>in<br>2 weeks</font></div></div><div class='respDivL'><div class='vertical-center'>(E)</div></div><div class='respDivR'><div class='vertical-center'><font style='color:orange'>(I)</font></div></div></div>","null","$15<br><br>now","$35<br>in<br>2 weeks","0","15","35","2",""
"html-keyboard-response","31","69049","0.0-5.0-1.9","5fa935b3d330fa0429da624a","bdp_td","Wed Mar 29 2023 11:46:51 GMT-0400 (Eastern Daylight Time)","116312","","null","","","","FIX","","<div class='trialBorder'><div class='vertical-center'><img style='vertical-align:center; align:center' src=img/fixation3.jpg></div></div>","null","","","","","","",""
"html-keyboard-response","32","71961","0.0-5.0-2.9","5fa935b3d330fa0429da624a","bdp_td","Wed Mar 29 2023 11:46:51 GMT-0400 (Eastern Daylight Time)","116312","","2911","","","","offer","","<div class='trialBorder'><div class='vertical-center'><img style='vertical-align:center; align:center' src=img/fixation3.jpg></div><div class='cl'><div class='vertical-center'>$25<br><br>now</div></div><div class='cr'><div class='vertical-center'>$30<br>in<br>6 weeks</div></div><div class='respDivL'><div class='vertical-center'>(E)</div></div><div class='respDivR'><div class='vertical-center'>(I)</div></div></div>","E","$25<br><br>now","$30<br>in<br>6 weeks","0","25","30","6","NOW"
"html-keyboard-response","33","72213","0.0-5.0-3.9","5fa935b3d330fa0429da624a","bdp_td","Wed Mar 29 2023 11:46:51 GMT-0400 (Eastern Daylight Time)","116312","","null","","","","offerFB","","<div class='trialBorder'><div class='vertical-center'><img style='vertical-align:center; align:center' src=img/fixation3.jpg></div><div class='cl'><div class='vertical-center'><font style='color:orange'>$25<br><br>now</font></div></div><div class='cr'><div class='vertical-center'>$30<br>in<br>6 weeks</div></div><div class='respDivL'><div class='vertical-center'><font style='color:orange'>(E)</font></div></div><div class='respDivR'><div class='vertical-center'>(I)</div></div></div>","null","$25<br><br>now","$30<br>in<br>6 weeks","0","25","30","6",""
"html-keyboard-response","34","72715","0.0-5.0-1.10","5fa935b3d330fa0429da624a","bdp_td","Wed Mar 29 2023 11:46:51 GMT-0400 (Eastern Daylight Time)","116312","","null","","","","FIX","","<div class='trialBorder'><div class='vertical-center'><img style='vertical-align:center; align:center' src=img/fixation3.jpg></div></div>","null","","","","","","",""
"html-keyboard-response","35","74744","0.0-5.0-2.10","5fa935b3d330fa0429da624a","bdp_td","Wed Mar 29 2023 11:46:51 GMT-0400 (Eastern Daylight Time)","116312","","2029","","","","offer","","<div class='trialBorder'><div class='vertical-center'><img style='vertical-align:center; align:center' src=img/fixation3.jpg></div><div class='cl'><div class='vertical-center'>$24<br><br>now</div></div><div class='cr'><div class='vertical-center'>$35<br>in<br>3 weeks</div></div><div class='respDivL'><div class='vertical-center'>(E)</div></div><div class='respDivR'><div class='vertical-center'>(I)</div></div></div>","I","$24<br><br>now","$35<br>in<br>3 weeks","0","24","35","3","THEN"
"html-keyboard-response","36","74996","0.0-5.0-3.10","5fa935b3d330fa0429da624a","bdp_td","Wed Mar 29 2023 11:46:51 GMT-0400 (Eastern Daylight Time)","116312","","null","","","","offerFB","","<div class='trialBorder'><div class='vertical-center'><img style='vertical-align:center; align:center' src=img/fixation3.jpg></div><div class='cl'><div class='vertical-center'>$24<br><br>now</div></div><div class='cr'><div class='vertical-center'><font style='color:orange'>$35<br>in<br>3 weeks</font></div></div><div class='respDivL'><div class='vertical-center'>(E)</div></div><div class='respDivR'><div class='vertical-center'><font style='color:orange'>(I)</font></div></div></div>","null","$24<br><br>now","$35<br>in<br>3 weeks","0","24","35","3",""
"html-keyboard-response","37","75498","0.0-5.0-1.11","5fa935b3d330fa0429da624a","bdp_td","Wed Mar 29 2023 11:46:51 GMT-0400 (Eastern Daylight Time)","116312","","null","","","","FIX","","<div class='trialBorder'><div class='vertical-center'><img style='vertical-align:center; align:center' src=img/fixation3.jpg></div></div>","null","","","","","","",""
"html-keyboard-response","38","77536","0.0-5.0-2.11","5fa935b3d330fa0429da624a","bdp_td","Wed Mar 29 2023 11:46:51 GMT-0400 (Eastern Daylight Time)","116312","","2037","","","","offer","","<div class='trialBorder'><div class='vertical-center'><img style='vertical-align:center; align:center' src=img/fixation3.jpg></div><div class='cl'><div class='vertical-center'>$25<br><br>now</div></div><div class='cr'><div class='vertical-center'>$60<br>in<br>3 weeks</div></div><div class='respDivL'><div class='vertical-center'>(E)</div></div><div class='respDivR'><div class='vertical-center'>(I)</div></div></div>","I","$25<br><br>now","$60<br>in<br>3 weeks","0","25","60","3","THEN"
"html-keyboard-response","39","77789","0.0-5.0-3.11","5fa935b3d330fa0429da624a","bdp_td","Wed Mar 29 2023 11:46:51 GMT-0400 (Eastern Daylight Time)","116312","","null","","","","offerFB","","<div class='trialBorder'><div class='vertical-center'><img style='vertical-align:center; align:center' src=img/fixation3.jpg></div><div class='cl'><div class='vertical-center'>$25<br><br>now</div></div><div class='cr'><div class='vertical-center'><font style='color:orange'>$60<br>in<br>3 weeks</font></div></div><div class='respDivL'><div class='vertical-center'>(E)</div></div><div class='respDivR'><div class='vertical-center'><font style='color:orange'>(I)</font></div></div></div>","null","$25<br><br>now","$60<br>in<br>3 weeks","0","25","60","3",""
"html-keyboard-response","40","78290","0.0-5.0-1.12","5fa935b3d330fa0429da624a","bdp_td","Wed Mar 29 2023 11:46:51 GMT-0400 (Eastern Daylight Time)","116312","","null","","","","FIX","","<div class='trialBorder'><div class='vertical-center'><img style='vertical-align:center; align:center' src=img/fixation3.jpg></div></div>","null","","","","","","",""
"html-keyboard-response","41","79770","0.0-5.0-2.12","5fa935b3d330fa0429da624a","bdp_td","Wed Mar 29 2023 11:46:51 GMT-0400 (Eastern Daylight Time)","116312","","1479","","","","offer","","<div class='trialBorder'><div class='vertical-center'><img style='vertical-align:center; align:center' src=img/fixation3.jpg></div><div class='cl'><div class='vertical-center'>$60<br>in<br>12 weeks</div></div><div class='cr'><div class='vertical-center'>$54<br><br>now</div></div><div class='respDivL'><div class='vertical-center'>(E)</div></div><div class='respDivR'><div class='vertical-center'>(I)</div></div></div>","I","$54<br><br>now","$60<br>in<br>12 weeks","1","54","60","12","NOW"
"html-keyboard-response","42","80022","0.0-5.0-3.12","5fa935b3d330fa0429da624a","bdp_td","Wed Mar 29 2023 11:46:51 GMT-0400 (Eastern Daylight Time)","116312","","null","","","","offerFB","","<div class='trialBorder'><div class='vertical-center'><img style='vertical-align:center; align:center' src=img/fixation3.jpg></div><div class='cl'><div class='vertical-center'>$60<br>in<br>12 weeks</div></div><div class='cr'><div class='vertical-center'><font style='color:orange'>$54<br><br>now</font></div></div><div class='respDivL'><div class='vertical-center'>(E)</div></div><div class='respDivR'><div class='vertical-center'><font style='color:orange'>(I)</font></div></div></div>","null","$54<br><br>now","$60<br>in<br>12 weeks","1","54","60","12",""
"html-keyboard-response","43","80524","0.0-5.0-1.13","5fa935b3d330fa0429da624a","bdp_td","Wed Mar 29 2023 11:46:51 GMT-0400 (Eastern Daylight Time)","116312","","null","","","","FIX","","<div class='trialBorder'><div class='vertical-center'><img style='vertical-align:center; align:center' src=img/fixation3.jpg></div></div>","null","","","","","","",""
"html-keyboard-response","44","82243","0.0-5.0-2.13","5fa935b3d330fa0429da624a","bdp_td","Wed Mar 29 2023 11:46:51 GMT-0400 (Eastern Daylight Time)","116312","","1717","","","","offer","","<div class='trialBorder'><div class='vertical-center'><img style='vertical-align:center; align:center' src=img/fixation3.jpg></div><div class='cl'><div class='vertical-center'>$85<br>in<br>1 week</div></div><div class='cr'><div class='vertical-center'>$31<br><br>now</div></div><div class='respDivL'><div class='vertical-center'>(E)</div></div><div class='respDivR'><div class='vertical-center'>(I)</div></div></div>","E","$31<br><br>now","$85<br>in<br>1 week","1","31","85","1","THEN"
"html-keyboard-response","45","82495","0.0-5.0-3.13","5fa935b3d330fa0429da624a","bdp_td","Wed Mar 29 2023 11:46:51 GMT-0400 (Eastern Daylight Time)","116312","","null","","","","offerFB","","<div class='trialBorder'><div class='vertical-center'><img style='vertical-align:center; align:center' src=img/fixation3.jpg></div><div class='cl'><div class='vertical-center'><font style='color:orange'>$85<br>in<br>1 week</font></div></div><div class='cr'><div class='vertical-center'>$31<br><br>now</div></div><div class='respDivL'><div class='vertical-center'><font style='color:orange'>(E)</font></div></div><div class='respDivR'><div class='vertical-center'>(I)</div></div></div>","null","$31<br><br>now","$85<br>in<br>1 week","1","31","85","1",""
"html-keyboard-response","46","82997","0.0-5.0-1.14","5fa935b3d330fa0429da624a","bdp_td","Wed Mar 29 2023 11:46:51 GMT-0400 (Eastern Daylight Time)","116312","","null","","","","FIX","","<div class='trialBorder'><div class='vertical-center'><img style='vertical-align:center; align:center' src=img/fixation3.jpg></div></div>","null","","","","","","",""
"html-keyboard-response","47","85289","0.0-5.0-2.14","5fa935b3d330fa0429da624a","bdp_td","Wed Mar 29 2023 11:46:51 GMT-0400 (Eastern Daylight Time)","116312","","2291","","","","offer","","<div class='trialBorder'><div class='vertical-center'><img style='vertical-align:center; align:center' src=img/fixation3.jpg></div><div class='cl'><div class='vertical-center'>$60<br>in<br>6 weeks</div></div><div class='cr'><div class='vertical-center'>$49<br><br>now</div></div><div class='respDivL'><div class='vertical-center'>(E)</div></div><div class='respDivR'><div class='vertical-center'>(I)</div></div></div>","I","$49<br><br>now","$60<br>in<br>6 weeks","1","49","60","6","NOW"
"html-keyboard-response","48","85541","0.0-5.0-3.14","5fa935b3d330fa0429da624a","bdp_td","Wed Mar 29 2023 11:46:51 GMT-0400 (Eastern Daylight Time)","116312","","null","","","","offerFB","","<div class='trialBorder'><div class='vertical-center'><img style='vertical-align:center; align:center' src=img/fixation3.jpg></div><div class='cl'><div class='vertical-center'>$60<br>in<br>6 weeks</div></div><div class='cr'><div class='vertical-center'><font style='color:orange'>$49<br><br>now</font></div></div><div class='respDivL'><div class='vertical-center'>(E)</div></div><div class='respDivR'><div class='vertical-center'><font style='color:orange'>(I)</font></div></div></div>","null","$49<br><br>now","$60<br>in<br>6 weeks","1","49","60","6",""
"html-keyboard-response","49","86043","0.0-5.0-1.15","5fa935b3d330fa0429da624a","bdp_td","Wed Mar 29 2023 11:46:51 GMT-0400 (Eastern Daylight Time)","116312","","null","","","","FIX","","<div class='trialBorder'><div class='vertical-center'><img style='vertical-align:center; align:center' src=img/fixation3.jpg></div></div>","null","","","","","","",""
"html-keyboard-response","50","87960","0.0-5.0-2.15","5fa935b3d330fa0429da624a","bdp_td","Wed Mar 29 2023 11:46:51 GMT-0400 (Eastern Daylight Time)","116312","","1916","","","","offer","","<div class='trialBorder'><div class='vertical-center'><img style='vertical-align:center; align:center' src=img/fixation3.jpg></div><div class='cl'><div class='vertical-center'>$27<br><br>now</div></div><div class='cr'><div class='vertical-center'>$50<br>in<br>3 weeks</div></div><div class='respDivL'><div class='vertical-center'>(E)</div></div><div class='respDivR'><div class='vertical-center'>(I)</div></div></div>","I","$27<br><br>now","$50<br>in<br>3 weeks","0","27","50","3","THEN"
"html-keyboard-response","51","88211","0.0-5.0-3.15","5fa935b3d330fa0429da624a","bdp_td","Wed Mar 29 2023 11:46:51 GMT-0400 (Eastern Daylight Time)","116312","","null","","","","offerFB","","<div class='trialBorder'><div class='vertical-center'><img style='vertical-align:center; align:center' src=img/fixation3.jpg></div><div class='cl'><div class='vertical-center'>$27<br><br>now</div></div><div class='cr'><div class='vertical-center'><font style='color:orange'>$50<br>in<br>3 weeks</font></div></div><div class='respDivL'><div class='vertical-center'>(E)</div></div><div class='respDivR'><div class='vertical-center'><font style='color:orange'>(I)</font></div></div></div>","null","$27<br><br>now","$50<br>in<br>3 weeks","0","27","50","3",""
"html-keyboard-response","52","88713","0.0-5.0-1.16","5fa935b3d330fa0429da624a","bdp_td","Wed Mar 29 2023 11:46:51 GMT-0400 (Eastern Daylight Time)","116312","","null","","","","FIX","","<div class='trialBorder'><div class='vertical-center'><img style='vertical-align:center; align:center' src=img/fixation3.jpg></div></div>","null","","","","","","",""
"html-keyboard-response","53","90672","0.0-5.0-2.16","5fa935b3d330fa0429da624a","bdp_td","Wed Mar 29 2023 11:46:51 GMT-0400 (Eastern Daylight Time)","116312","","1958","","","","offer","","<div class='trialBorder'><div class='vertical-center'><img style='vertical-align:center; align:center' src=img/fixation3.jpg></div><div class='cl'><div class='vertical-center'>$41<br><br>now</div></div><div class='cr'><div class='vertical-center'>$75<br>in<br>3 weeks</div></div><div class='respDivL'><div class='vertical-center'>(E)</div></div><div class='respDivR'><div class='vertical-center'>(I)</div></div></div>","I","$41<br><br>now","$75<br>in<br>3 weeks","0","41","75","3","THEN"
"html-keyboard-response","54","90925","0.0-5.0-3.16","5fa935b3d330fa0429da624a","bdp_td","Wed Mar 29 2023 11:46:51 GMT-0400 (Eastern Daylight Time)","116312","","null","","","","offerFB","","<div class='trialBorder'><div class='vertical-center'><img style='vertical-align:center; align:center' src=img/fixation3.jpg></div><div class='cl'><div class='vertical-center'>$41<br><br>now</div></div><div class='cr'><div class='vertical-center'><font style='color:orange'>$75<br>in<br>3 weeks</font></div></div><div class='respDivL'><div class='vertical-center'>(E)</div></div><div class='respDivR'><div class='vertical-center'><font style='color:orange'>(I)</font></div></div></div>","null","$41<br><br>now","$75<br>in<br>3 weeks","0","41","75","3",""
"html-keyboard-response","55","91427","0.0-5.0-1.17","5fa935b3d330fa0429da624a","bdp_td","Wed Mar 29 2023 11:46:51 GMT-0400 (Eastern Daylight Time)","116312","","null","","","","FIX","","<div class='trialBorder'><div class='vertical-center'><img style='vertical-align:center; align:center' src=img/fixation3.jpg></div></div>","null","","","","","","",""
"html-keyboard-response","56","93002","0.0-5.0-2.17","5fa935b3d330fa0429da624a","bdp_td","Wed Mar 29 2023 11:46:51 GMT-0400 (Eastern Daylight Time)","116312","","1573","","","","offer","","<div class='trialBorder'><div class='vertical-center'><img style='vertical-align:center; align:center' src=img/fixation3.jpg></div><div class='cl'><div class='vertical-center'>$55<br>in<br>1 week</div></div><div class='cr'><div class='vertical-center'>$20<br><br>now</div></div><div class='respDivL'><div class='vertical-center'>(E)</div></div><div class='respDivR'><div class='vertical-center'>(I)</div></div></div>","E","$20<br><br>now","$55<br>in<br>1 week","1","20","55","1","THEN"
"html-keyboard-response","57","93254","0.0-5.0-3.17","5fa935b3d330fa0429da624a","bdp_td","Wed Mar 29 2023 11:46:51 GMT-0400 (Eastern Daylight Time)","116312","","null","","","","offerFB","","<div class='trialBorder'><div class='vertical-center'><img style='vertical-align:center; align:center' src=img/fixation3.jpg></div><div class='cl'><div class='vertical-center'><font style='color:orange'>$55<br>in<br>1 week</font></div></div><div class='cr'><div class='vertical-center'>$20<br><br>now</div></div><div class='respDivL'><div class='vertical-center'><font style='color:orange'>(E)</font></div></div><div class='respDivR'><div class='vertical-center'>(I)</div></div></div>","null","$20<br><br>now","$55<br>in<br>1 week","1","20","55","1",""
"html-keyboard-response","58","93757","0.0-5.0-1.18","5fa935b3d330fa0429da624a","bdp_td","Wed Mar 29 2023 11:46:51 GMT-0400 (Eastern Daylight Time)","116312","","null","","","","FIX","","<div class='trialBorder'><div class='vertical-center'><img style='vertical-align:center; align:center' src=img/fixation3.jpg></div></div>","null","","","","","","",""
"html-keyboard-response","59","97384","0.0-5.0-2.18","5fa935b3d330fa0429da624a","bdp_td","Wed Mar 29 2023 11:46:51 GMT-0400 (Eastern Daylight Time)","116312","","3626","","","","offer","","<div class='trialBorder'><div class='vertical-center'><img style='vertical-align:center; align:center' src=img/fixation3.jpg></div><div class='cl'><div class='vertical-center'>$85<br>in<br>6 weeks</div></div><div class='cr'><div class='vertical-center'>$69<br><br>now</div></div><div class='respDivL'><div class='vertical-center'>(E)</div></div><div class='respDivR'><div class='vertical-center'>(I)</div></div></div>","E","$69<br><br>now","$85<br>in<br>6 weeks","1","69","85","6","THEN"
"html-keyboard-response","60","97638","0.0-5.0-3.18","5fa935b3d330fa0429da624a","bdp_td","Wed Mar 29 2023 11:46:51 GMT-0400 (Eastern Daylight Time)","116312","","null","","","","offerFB","","<div class='trialBorder'><div class='vertical-center'><img style='vertical-align:center; align:center' src=img/fixation3.jpg></div><div class='cl'><div class='vertical-center'><font style='color:orange'>$85<br>in<br>6 weeks</font></div></div><div class='cr'><div class='vertical-center'>$69<br><br>now</div></div><div class='respDivL'><div class='vertical-center'><font style='color:orange'>(E)</font></div></div><div class='respDivR'><div class='vertical-center'>(I)</div></div></div>","null","$69<br><br>now","$85<br>in<br>6 weeks","1","69","85","6",""
"html-keyboard-response","61","98139","0.0-5.0-1.19","5fa935b3d330fa0429da624a","bdp_td","Wed Mar 29 2023 11:46:51 GMT-0400 (Eastern Daylight Time)","116312","","null","","","","FIX","","<div class='trialBorder'><div class='vertical-center'><img style='vertical-align:center; align:center' src=img/fixation3.jpg></div></div>","null","","","","","","",""
"html-keyboard-response","62","99216","0.0-5.0-2.19","5fa935b3d330fa0429da624a","bdp_td","Wed Mar 29 2023 11:46:51 GMT-0400 (Eastern Daylight Time)","116312","","1076","","","","offer","","<div class='trialBorder'><div class='vertical-center'><img style='vertical-align:center; align:center' src=img/fixation3.jpg></div><div class='cl'><div class='vertical-center'>$34<br><br>now</div></div><div class='cr'><div class='vertical-center'>$35<br>in<br>12 weeks</div></div><div class='respDivL'><div class='vertical-center'>(E)</div></div><div class='respDivR'><div class='vertical-center'>(I)</div></div></div>","E","$34<br><br>now","$35<br>in<br>12 weeks","0","34","35","12","NOW"
"html-keyboard-response","63","99468","0.0-5.0-3.19","5fa935b3d330fa0429da624a","bdp_td","Wed Mar 29 2023 11:46:51 GMT-0400 (Eastern Daylight Time)","116312","","null","","","","offerFB","","<div class='trialBorder'><div class='vertical-center'><img style='vertical-align:center; align:center' src=img/fixation3.jpg></div><div class='cl'><div class='vertical-center'><font style='color:orange'>$34<br><br>now</font></div></div><div class='cr'><div class='vertical-center'>$35<br>in<br>12 weeks</div></div><div class='respDivL'><div class='vertical-center'><font style='color:orange'>(E)</font></div></div><div class='respDivR'><div class='vertical-center'>(I)</div></div></div>","null","$34<br><br>now","$35<br>in<br>12 weeks","0","34","35","12",""
"html-keyboard-response","64","99969","0.0-5.0-1.20","5fa935b3d330fa0429da624a","bdp_td","Wed Mar 29 2023 11:46:51 GMT-0400 (Eastern Daylight Time)","116312","","null","","","","FIX","","<div class='trialBorder'><div class='vertical-center'><img style='vertical-align:center; align:center' src=img/fixation3.jpg></div></div>","null","","","","","","",""
"html-keyboard-response","65","101243","0.0-5.0-2.20","5fa935b3d330fa0429da624a","bdp_td","Wed Mar 29 2023 11:46:51 GMT-0400 (Eastern Daylight Time)","116312","","1274","","","","offer","","<div class='trialBorder'><div class='vertical-center'><img style='vertical-align:center; align:center' src=img/fixation3.jpg></div><div class='cl'><div class='vertical-center'>$19<br><br>now</div></div><div class='cr'><div class='vertical-center'>$25<br>in<br>6 weeks</div></div><div class='respDivL'><div class='vertical-center'>(E)</div></div><div class='respDivR'><div class='vertical-center'>(I)</div></div></div>","E","$19<br><br>now","$25<br>in<br>6 weeks","0","19","25","6","NOW"
"html-keyboard-response","66","101494","0.0-5.0-3.20","5fa935b3d330fa0429da624a","bdp_td","Wed Mar 29 2023 11:46:51 GMT-0400 (Eastern Daylight Time)","116312","","null","","","","offerFB","","<div class='trialBorder'><div class='vertical-center'><img style='vertical-align:center; align:center' src=img/fixation3.jpg></div><div class='cl'><div class='vertical-center'><font style='color:orange'>$19<br><br>now</font></div></div><div class='cr'><div class='vertical-center'>$25<br>in<br>6 weeks</div></div><div class='respDivL'><div class='vertical-center'><font style='color:orange'>(E)</font></div></div><div class='respDivR'><div class='vertical-center'>(I)</div></div></div>","null","$19<br><br>now","$25<br>in<br>6 weeks","0","19","25","6",""
"html-keyboard-response","67","101996","0.0-5.0-1.21","5fa935b3d330fa0429da624a","bdp_td","Wed Mar 29 2023 11:46:51 GMT-0400 (Eastern Daylight Time)","116312","","null","","","","FIX","","<div class='trialBorder'><div class='vertical-center'><img style='vertical-align:center; align:center' src=img/fixation3.jpg></div></div>","null","","","","","","",""
"html-keyboard-response","68","104577","0.0-5.0-2.21","5fa935b3d330fa0429da624a","bdp_td","Wed Mar 29 2023 11:46:51 GMT-0400 (Eastern Daylight Time)","116312","","2580","","","","offer","","<div class='trialBorder'><div class='vertical-center'><img style='vertical-align:center; align:center' src=img/fixation3.jpg></div><div class='cl'><div class='vertical-center'>$30<br>in<br>2 weeks</div></div><div class='cr'><div class='vertical-center'>$11<br><br>now</div></div><div class='respDivL'><div class='vertical-center'>(E)</div></div><div class='respDivR'><div class='vertical-center'>(I)</div></div></div>","E","$11<br><br>now","$30<br>in<br>2 weeks","1","11","30","2","THEN"
"html-keyboard-response","69","104831","0.0-5.0-3.21","5fa935b3d330fa0429da624a","bdp_td","Wed Mar 29 2023 11:46:51 GMT-0400 (Eastern Daylight Time)","116312","","null","","","","offerFB","","<div class='trialBorder'><div class='vertical-center'><img style='vertical-align:center; align:center' src=img/fixation3.jpg></div><div class='cl'><div class='vertical-center'><font style='color:orange'>$30<br>in<br>2 weeks</font></div></div><div class='cr'><div class='vertical-center'>$11<br><br>now</div></div><div class='respDivL'><div class='vertical-center'><font style='color:orange'>(E)</font></div></div><div class='respDivR'><div class='vertical-center'>(I)</div></div></div>","null","$11<br><br>now","$30<br>in<br>2 weeks","1","11","30","2",""
"html-keyboard-response","70","105333","0.0-5.0-1.22","5fa935b3d330fa0429da624a","bdp_td","Wed Mar 29 2023 11:46:51 GMT-0400 (Eastern Daylight Time)","116312","","null","","","","FIX","","<div class='trialBorder'><div class='vertical-center'><img style='vertical-align:center; align:center' src=img/fixation3.jpg></div></div>","null","","","","","","",""
"html-keyboard-response","71","107263","0.0-5.0-2.22","5fa935b3d330fa0429da624a","bdp_td","Wed Mar 29 2023 11:46:51 GMT-0400 (Eastern Daylight Time)","116312","","1930","","","","offer","","<div class='trialBorder'><div class='vertical-center'><img style='vertical-align:center; align:center' src=img/fixation3.jpg></div><div class='cl'><div class='vertical-center'>$25<br>in<br>3 weeks</div></div><div class='cr'><div class='vertical-center'>$14<br><br>now</div></div><div class='respDivL'><div class='vertical-center'>(E)</div></div><div class='respDivR'><div class='vertical-center'>(I)</div></div></div>","E","$14<br><br>now","$25<br>in<br>3 weeks","1","14","25","3","THEN"
"html-keyboard-response","72","107515","0.0-5.0-3.22","5fa935b3d330fa0429da624a","bdp_td","Wed Mar 29 2023 11:46:51 GMT-0400 (Eastern Daylight Time)","116312","","null","","","","offerFB","","<div class='trialBorder'><div class='vertical-center'><img style='vertical-align:center; align:center' src=img/fixation3.jpg></div><div class='cl'><div class='vertical-center'><font style='color:orange'>$25<br>in<br>3 weeks</font></div></div><div class='cr'><div class='vertical-center'>$14<br><br>now</div></div><div class='respDivL'><div class='vertical-center'><font style='color:orange'>(E)</font></div></div><div class='respDivR'><div class='vertical-center'>(I)</div></div></div>","null","$14<br><br>now","$25<br>in<br>3 weeks","1","14","25","3",""
"html-keyboard-response","73","108016","0.0-5.0-1.23","5fa935b3d330fa0429da624a","bdp_td","Wed Mar 29 2023 11:46:51 GMT-0400 (Eastern Daylight Time)","116312","","null","","","","FIX","","<div class='trialBorder'><div class='vertical-center'><img style='vertical-align:center; align:center' src=img/fixation3.jpg></div></div>","null","","","","","","",""
"html-keyboard-response","74","109106","0.0-5.0-2.23","5fa935b3d330fa0429da624a","bdp_td","Wed Mar 29 2023 11:46:51 GMT-0400 (Eastern Daylight Time)","116312","","1088","","","","offer","","<div class='trialBorder'><div class='vertical-center'><img style='vertical-align:center; align:center' src=img/fixation3.jpg></div><div class='cl'><div class='vertical-center'>$50<br>in<br>12 weeks</div></div><div class='cr'><div class='vertical-center'>$47<br><br>now</div></div><div class='respDivL'><div class='vertical-center'>(E)</div></div><div class='respDivR'><div class='vertical-center'>(I)</div></div></div>","I","$47<br><br>now","$50<br>in<br>12 weeks","1","47","50","12","NOW"
"html-keyboard-response","75","109357","0.0-5.0-3.23","5fa935b3d330fa0429da624a","bdp_td","Wed Mar 29 2023 11:46:51 GMT-0400 (Eastern Daylight Time)","116312","","null","","","","offerFB","","<div class='trialBorder'><div class='vertical-center'><img style='vertical-align:center; align:center' src=img/fixation3.jpg></div><div class='cl'><div class='vertical-center'>$50<br>in<br>12 weeks</div></div><div class='cr'><div class='vertical-center'><font style='color:orange'>$47<br><br>now</font></div></div><div class='respDivL'><div class='vertical-center'>(E)</div></div><div class='respDivR'><div class='vertical-center'><font style='color:orange'>(I)</font></div></div></div>","null","$47<br><br>now","$50<br>in<br>12 weeks","1","47","50","12",""
"html-keyboard-response","76","109860","0.0-5.0-1.24","5fa935b3d330fa0429da624a","bdp_td","Wed Mar 29 2023 11:46:51 GMT-0400 (Eastern Daylight Time)","116312","","null","","","","FIX","","<div class='trialBorder'><div class='vertical-center'><img style='vertical-align:center; align:center' src=img/fixation3.jpg></div></div>","null","","","","","","",""
"html-keyboard-response","77","111153","0.0-5.0-2.24","5fa935b3d330fa0429da624a","bdp_td","Wed Mar 29 2023 11:46:51 GMT-0400 (Eastern Daylight Time)","116312","","1292","","","","offer","","<div class='trialBorder'><div class='vertical-center'><img style='vertical-align:center; align:center' src=img/fixation3.jpg></div><div class='cl'><div class='vertical-center'>$75<br>in<br>6 weeks</div></div><div class='cr'><div class='vertical-center'>$55<br><br>now</div></div><div class='respDivL'><div class='vertical-center'>(E)</div></div><div class='respDivR'><div class='vertical-center'>(I)</div></div></div>","E","$55<br><br>now","$75<br>in<br>6 weeks","1","55","75","6","THEN"
"html-keyboard-response","78","111405","0.0-5.0-3.24","5fa935b3d330fa0429da624a","bdp_td","Wed Mar 29 2023 11:46:51 GMT-0400 (Eastern Daylight Time)","116312","","null","","","","offerFB","","<div class='trialBorder'><div class='vertical-center'><img style='vertical-align:center; align:center' src=img/fixation3.jpg></div><div class='cl'><div class='vertical-center'><font style='color:orange'>$75<br>in<br>6 weeks</font></div></div><div class='cr'><div class='vertical-center'>$55<br><br>now</div></div><div class='respDivL'><div class='vertical-center'><font style='color:orange'>(E)</font></div></div><div class='respDivR'><div class='vertical-center'>(I)</div></div></div>","null","$55<br><br>now","$75<br>in<br>6 weeks","1","55","75","6",""
"html-keyboard-response","79","111907","0.0-5.0-1.25","5fa935b3d330fa0429da624a","bdp_td","Wed Mar 29 2023 11:46:51 GMT-0400 (Eastern Daylight Time)","116312","","null","","","","FIX","","<div class='trialBorder'><div class='vertical-center'><img style='vertical-align:center; align:center' src=img/fixation3.jpg></div></div>","null","","","","","","",""
"html-keyboard-response","80","112944","0.0-5.0-2.25","5fa935b3d330fa0429da624a","bdp_td","Wed Mar 29 2023 11:46:51 GMT-0400 (Eastern Daylight Time)","116312","","1036","","","","offer","","<div class='trialBorder'><div class='vertical-center'><img style='vertical-align:center; align:center' src=img/fixation3.jpg></div><div class='cl'><div class='vertical-center'>$54<br><br>now</div></div><div class='cr'><div class='vertical-center'>$55<br>in<br>12 weeks</div></div><div class='respDivL'><div class='vertical-center'>(E)</div></div><div class='respDivR'><div class='vertical-center'>(I)</div></div></div>","E","$54<br><br>now","$55<br>in<br>12 weeks","0","54","55","12","NOW"
"html-keyboard-response","81","113195","0.0-5.0-3.25","5fa935b3d330fa0429da624a","bdp_td","Wed Mar 29 2023 11:46:51 GMT-0400 (Eastern Daylight Time)","116312","","null","","","","offerFB","","<div class='trialBorder'><div class='vertical-center'><img style='vertical-align:center; align:center' src=img/fixation3.jpg></div><div class='cl'><div class='vertical-center'><font style='color:orange'>$54<br><br>now</font></div></div><div class='cr'><div class='vertical-center'>$55<br>in<br>12 weeks</div></div><div class='respDivL'><div class='vertical-center'><font style='color:orange'>(E)</font></div></div><div class='respDivR'><div class='vertical-center'>(I)</div></div></div>","null","$54<br><br>now","$55<br>in<br>12 weeks","0","54","55","12",""
"html-keyboard-response","82","113697","0.0-5.0-1.26","5fa935b3d330fa0429da624a","bdp_td","Wed Mar 29 2023 11:46:51 GMT-0400 (Eastern Daylight Time)","116312","","null","","","","FIX","","<div class='trialBorder'><div class='vertical-center'><img style='vertical-align:center; align:center' src=img/fixation3.jpg></div></div>","null","","","","","","",""
"html-keyboard-response","83","115057","0.0-5.0-2.26","5fa935b3d330fa0429da624a","bdp_td","Wed Mar 29 2023 11:46:51 GMT-0400 (Eastern Daylight Time)","116312","","1359","","","","offer","","<div class='trialBorder'><div class='vertical-center'><img style='vertical-align:center; align:center' src=img/fixation3.jpg></div><div class='cl'><div class='vertical-center'>$80<br>in<br>2 weeks</div></div><div class='cr'><div class='vertical-center'>$33<br><br>now</div></div><div class='respDivL'><div class='vertical-center'>(E)</div></div><div class='respDivR'><div class='vertical-center'>(I)</div></div></div>","E","$33<br><br>now","$80<br>in<br>2 weeks","1","33","80","2","THEN"
"html-keyboard-response","84","115310","0.0-5.0-3.26","5fa935b3d330fa0429da624a","bdp_td","Wed Mar 29 2023 11:46:51 GMT-0400 (Eastern Daylight Time)","116312","","null","","","","offerFB","","<div class='trialBorder'><div class='vertical-center'><img style='vertical-align:center; align:center' src=img/fixation3.jpg></div><div class='cl'><div class='vertical-center'><font style='color:orange'>$80<br>in<br>2 weeks</font></div></div><div class='cr'><div class='vertical-center'>$33<br><br>now</div></div><div class='respDivL'><div class='vertical-center'><font style='color:orange'>(E)</font></div></div><div class='respDivR'><div class='vertical-center'>(I)</div></div></div>","null","$33<br><br>now","$80<br>in<br>2 weeks","1","33","80","2",""
"","","","","5fa935b3d330fa0429da624a","bdp_td","Wed Mar 29 2023 11:46:51 GMT-0400 (Eastern Daylight Time)","116312","","","fullscreenexit","85","115339","fullscreenexit","","","","","","","","","",""
"fullscreen","85","116312","0.0-6.0","5fa935b3d330fa0429da624a","bdp_td","Wed Mar 29 2023 11:46:51 GMT-0400 (Eastern Daylight Time)","116312","","","","","","","true","","","","","","","","",""
"html-keyboard-response","86","116813","0.0-7.0","","","","","","null","","","","","","","null","","","","","","",""
