"trial_type","trial_index","time_elapsed","internal_node_id","subject_id","task","startTime","totalTime","view_history","rt","event","trial","time","trialtype","success","stimulus","key_press","nowOffer","thenOffer","thenLeft","nowAmt","thenAmt","thenWeeks","chosen"
"pavlovia","0","4","0.0-0.0","5e535a49ac9ed13700f62def","bdp_td","Sun Apr 02 2023 23:42:05 GMT-0500 (Central Daylight Time)","150472","","","","","","","","","","","","","","","",""
"instructions","1","3055","0.0-1.0","5e535a49ac9ed13700f62def","bdp_td","Sun Apr 02 2023 23:42:05 GMT-0500 (Central Daylight Time)","150472","[{""page_index"":0,""viewing_time"":3049}]","3049","","","","","","","","","","","","","",""
"","","","","5e535a49ac9ed13700f62def","bdp_td","Sun Apr 02 2023 23:42:05 GMT-0500 (Central Daylight Time)","150472","","","fullscreenenter","2","9648","fullscreenenter","","","","","","","","","",""
"fullscreen","2","10630","0.0-2.0","5e535a49ac9ed13700f62def","bdp_td","Sun Apr 02 2023 23:42:05 GMT-0500 (Central Daylight Time)","150472","","","","","","","true","","","","","","","","",""
"instructions","3","53137","0.0-4.0","5e535a49ac9ed13700f62def","bdp_td","Sun Apr 02 2023 23:42:05 GMT-0500 (Central Daylight Time)","150472","[{""page_index"":0,""viewing_time"":11696},{""page_index"":1,""viewing_time"":22853},{""page_index"":2,""viewing_time"":7956}]","42506","","","","","","","","","","","","","",""
"html-keyboard-response","4","53643","0.0-5.0-1.0","5e535a49ac9ed13700f62def","bdp_td","Sun Apr 02 2023 23:42:05 GMT-0500 (Central Daylight Time)","150472","","null","","","","FIX","","<div class='trialBorder'><div class='vertical-center'><img style='vertical-align:center; align:center' src=img/fixation3.jpg></div></div>","null","","","","","","",""
"html-keyboard-response","5","57064","0.0-5.0-2.0","5e535a49ac9ed13700f62def","bdp_td","Sun Apr 02 2023 23:42:05 GMT-0500 (Central Daylight Time)","150472","","3417","","","","offer","","<div class='trialBorder'><div class='vertical-center'><img style='vertical-align:center; align:center' src=img/fixation3.jpg></div><div class='cl'><div class='vertical-center'>$28<br><br>now</div></div><div class='cr'><div class='vertical-center'>$30<br>in<br>12 weeks</div></div><div class='respDivL'><div class='vertical-center'>(E)</div></div><div class='respDivR'><div class='vertical-center'>(I)</div></div></div>","E","$28<br><br>now","$30<br>in<br>12 weeks","0","28","30","12","NOW"
"html-keyboard-response","6","57322","0.0-5.0-3.0","5e535a49ac9ed13700f62def","bdp_td","Sun Apr 02 2023 23:42:05 GMT-0500 (Central Daylight Time)","150472","","null","","","","offerFB","","<div class='trialBorder'><div class='vertical-center'><img style='vertical-align:center; align:center' src=img/fixation3.jpg></div><div class='cl'><div class='vertical-center'><font style='color:orange'>$28<br><br>now</font></div></div><div class='cr'><div class='vertical-center'>$30<br>in<br>12 weeks</div></div><div class='respDivL'><div class='vertical-center'><font style='color:orange'>(E)</font></div></div><div class='respDivR'><div class='vertical-center'>(I)</div></div></div>","null","$28<br><br>now","$30<br>in<br>12 weeks","0","28","30","12",""
"html-keyboard-response","7","57825","0.0-5.0-1.1","5e535a49ac9ed13700f62def","bdp_td","Sun Apr 02 2023 23:42:05 GMT-0500 (Central Daylight Time)","150472","","null","","","","FIX","","<div class='trialBorder'><div class='vertical-center'><img style='vertical-align:center; align:center' src=img/fixation3.jpg></div></div>","null","","","","","","",""
"html-keyboard-response","8","62291","0.0-5.0-2.1","5e535a49ac9ed13700f62def","bdp_td","Sun Apr 02 2023 23:42:05 GMT-0500 (Central Daylight Time)","150472","","4463","","","","offer","","<div class='trialBorder'><div class='vertical-center'><img style='vertical-align:center; align:center' src=img/fixation3.jpg></div><div class='cl'><div class='vertical-center'>$30<br>in<br>2 weeks</div></div><div class='cr'><div class='vertical-center'>$11<br><br>now</div></div><div class='respDivL'><div class='vertical-center'>(E)</div></div><div class='respDivR'><div class='vertical-center'>(I)</div></div></div>","E","$11<br><br>now","$30<br>in<br>2 weeks","1","11","30","2","THEN"
"html-keyboard-response","9","62546","0.0-5.0-3.1","5e535a49ac9ed13700f62def","bdp_td","Sun Apr 02 2023 23:42:05 GMT-0500 (Central Daylight Time)","150472","","null","","","","offerFB","","<div class='trialBorder'><div class='vertical-center'><img style='vertical-align:center; align:center' src=img/fixation3.jpg></div><div class='cl'><div class='vertical-center'><font style='color:orange'>$30<br>in<br>2 weeks</font></div></div><div class='cr'><div class='vertical-center'>$11<br><br>now</div></div><div class='respDivL'><div class='vertical-center'><font style='color:orange'>(E)</font></div></div><div class='respDivR'><div class='vertical-center'>(I)</div></div></div>","null","$11<br><br>now","$30<br>in<br>2 weeks","1","11","30","2",""
"html-keyboard-response","10","63049","0.0-5.0-1.2","5e535a49ac9ed13700f62def","bdp_td","Sun Apr 02 2023 23:42:05 GMT-0500 (Central Daylight Time)","150472","","null","","","","FIX","","<div class='trialBorder'><div class='vertical-center'><img style='vertical-align:center; align:center' src=img/fixation3.jpg></div></div>","null","","","","","","",""
"html-keyboard-response","11","67784","0.0-5.0-2.2","5e535a49ac9ed13700f62def","bdp_td","Sun Apr 02 2023 23:42:05 GMT-0500 (Central Daylight Time)","150472","","4733","","","","offer","","<div class='trialBorder'><div class='vertical-center'><img style='vertical-align:center; align:center' src=img/fixation3.jpg></div><div class='cl'><div class='vertical-center'>$80<br>in<br>3 weeks</div></div><div class='cr'><div class='vertical-center'>$54<br><br>now</div></div><div class='respDivL'><div class='vertical-center'>(E)</div></div><div class='respDivR'><div class='vertical-center'>(I)</div></div></div>","E","$54<br><br>now","$80<br>in<br>3 weeks","1","54","80","3","THEN"
"html-keyboard-response","12","68038","0.0-5.0-3.2","5e535a49ac9ed13700f62def","bdp_td","Sun Apr 02 2023 23:42:05 GMT-0500 (Central Daylight Time)","150472","","null","","","","offerFB","","<div class='trialBorder'><div class='vertical-center'><img style='vertical-align:center; align:center' src=img/fixation3.jpg></div><div class='cl'><div class='vertical-center'><font style='color:orange'>$80<br>in<br>3 weeks</font></div></div><div class='cr'><div class='vertical-center'>$54<br><br>now</div></div><div class='respDivL'><div class='vertical-center'><font style='color:orange'>(E)</font></div></div><div class='respDivR'><div class='vertical-center'>(I)</div></div></div>","null","$54<br><br>now","$80<br>in<br>3 weeks","1","54","80","3",""
"html-keyboard-response","13","68540","0.0-5.0-1.3","5e535a49ac9ed13700f62def","bdp_td","Sun Apr 02 2023 23:42:05 GMT-0500 (Central Daylight Time)","150472","","null","","","","FIX","","<div class='trialBorder'><div class='vertical-center'><img style='vertical-align:center; align:center' src=img/fixation3.jpg></div></div>","null","","","","","","",""
"html-keyboard-response","14","71686","0.0-5.0-2.3","5e535a49ac9ed13700f62def","bdp_td","Sun Apr 02 2023 23:42:05 GMT-0500 (Central Daylight Time)","150472","","3143","","","","offer","","<div class='trialBorder'><div class='vertical-center'><img style='vertical-align:center; align:center' src=img/fixation3.jpg></div><div class='cl'><div class='vertical-center'>$85<br>in<br>6 weeks</div></div><div class='cr'><div class='vertical-center'>$69<br><br>now</div></div><div class='respDivL'><div class='vertical-center'>(E)</div></div><div class='respDivR'><div class='vertical-center'>(I)</div></div></div>","I","$69<br><br>now","$85<br>in<br>6 weeks","1","69","85","6","NOW"
"html-keyboard-response","15","71942","0.0-5.0-3.3","5e535a49ac9ed13700f62def","bdp_td","Sun Apr 02 2023 23:42:05 GMT-0500 (Central Daylight Time)","150472","","null","","","","offerFB","","<div class='trialBorder'><div class='vertical-center'><img style='vertical-align:center; align:center' src=img/fixation3.jpg></div><div class='cl'><div class='vertical-center'>$85<br>in<br>6 weeks</div></div><div class='cr'><div class='vertical-center'><font style='color:orange'>$69<br><br>now</font></div></div><div class='respDivL'><div class='vertical-center'>(E)</div></div><div class='respDivR'><div class='vertical-center'><font style='color:orange'>(I)</font></div></div></div>","null","$69<br><br>now","$85<br>in<br>6 weeks","1","69","85","6",""
"html-keyboard-response","16","72443","0.0-5.0-1.4","5e535a49ac9ed13700f62def","bdp_td","Sun Apr 02 2023 23:42:05 GMT-0500 (Central Daylight Time)","150472","","null","","","","FIX","","<div class='trialBorder'><div class='vertical-center'><img style='vertical-align:center; align:center' src=img/fixation3.jpg></div></div>","null","","","","","","",""
"html-keyboard-response","17","76196","0.0-5.0-2.4","5e535a49ac9ed13700f62def","bdp_td","Sun Apr 02 2023 23:42:05 GMT-0500 (Central Daylight Time)","150472","","3751","","","","offer","","<div class='trialBorder'><div class='vertical-center'><img style='vertical-align:center; align:center' src=img/fixation3.jpg></div><div class='cl'><div class='vertical-center'>$60<br>in<br>6 weeks</div></div><div class='cr'><div class='vertical-center'>$49<br><br>now</div></div><div class='respDivL'><div class='vertical-center'>(E)</div></div><div class='respDivR'><div class='vertical-center'>(I)</div></div></div>","I","$49<br><br>now","$60<br>in<br>6 weeks","1","49","60","6","NOW"
"html-keyboard-response","18","76450","0.0-5.0-3.4","5e535a49ac9ed13700f62def","bdp_td","Sun Apr 02 2023 23:42:05 GMT-0500 (Central Daylight Time)","150472","","null","","","","offerFB","","<div class='trialBorder'><div class='vertical-center'><img style='vertical-align:center; align:center' src=img/fixation3.jpg></div><div class='cl'><div class='vertical-center'>$60<br>in<br>6 weeks</div></div><div class='cr'><div class='vertical-center'><font style='color:orange'>$49<br><br>now</font></div></div><div class='respDivL'><div class='vertical-center'>(E)</div></div><div class='respDivR'><div class='vertical-center'><font style='color:orange'>(I)</font></div></div></div>","null","$49<br><br>now","$60<br>in<br>6 weeks","1","49","60","6",""
"html-keyboard-response","19","76952","0.0-5.0-1.5","5e535a49ac9ed13700f62def","bdp_td","Sun Apr 02 2023 23:42:05 GMT-0500 (Central Daylight Time)","150472","","null","","","","FIX","","<div class='trialBorder'><div class='vertical-center'><img style='vertical-align:center; align:center' src=img/fixation3.jpg></div></div>","null","","","","","","",""
"html-keyboard-response","20","79178","0.0-5.0-2.5","5e535a49ac9ed13700f62def","bdp_td","Sun Apr 02 2023 23:42:05 GMT-0500 (Central Daylight Time)","150472","","2225","","","","offer","","<div class='trialBorder'><div class='vertical-center'><img style='vertical-align:center; align:center' src=img/fixation3.jpg></div><div class='cl'><div class='vertical-center'>$35<br>in<br>12 weeks</div></div><div class='cr'><div class='vertical-center'>$34<br><br>now</div></div><div class='respDivL'><div class='vertical-center'>(E)</div></div><div class='respDivR'><div class='vertical-center'>(I)</div></div></div>","I","$34<br><br>now","$35<br>in<br>12 weeks","1","34","35","12","NOW"
"html-keyboard-response","21","79433","0.0-5.0-3.5","5e535a49ac9ed13700f62def","bdp_td","Sun Apr 02 2023 23:42:05 GMT-0500 (Central Daylight Time)","150472","","null","","","","offerFB","","<div class='trialBorder'><div class='vertical-center'><img style='vertical-align:center; align:center' src=img/fixation3.jpg></div><div class='cl'><div class='vertical-center'>$35<br>in<br>12 weeks</div></div><div class='cr'><div class='vertical-center'><font style='color:orange'>$34<br><br>now</font></div></div><div class='respDivL'><div class='vertical-center'>(E)</div></div><div class='respDivR'><div class='vertical-center'><font style='color:orange'>(I)</font></div></div></div>","null","$34<br><br>now","$35<br>in<br>12 weeks","1","34","35","12",""
"html-keyboard-response","22","79947","0.0-5.0-1.6","5e535a49ac9ed13700f62def","bdp_td","Sun Apr 02 2023 23:42:05 GMT-0500 (Central Daylight Time)","150472","","null","","","","FIX","","<div class='trialBorder'><div class='vertical-center'><img style='vertical-align:center; align:center' src=img/fixation3.jpg></div></div>","null","","","","","","",""
"html-keyboard-response","23","83509","0.0-5.0-2.6","5e535a49ac9ed13700f62def","bdp_td","Sun Apr 02 2023 23:42:05 GMT-0500 (Central Daylight Time)","150472","","3559","","","","offer","","<div class='trialBorder'><div class='vertical-center'><img style='vertical-align:center; align:center' src=img/fixation3.jpg></div><div class='cl'><div class='vertical-center'>$40<br><br>now</div></div><div class='cr'><div class='vertical-center'>$55<br>in<br>6 weeks</div></div><div class='respDivL'><div class='vertical-center'>(E)</div></div><div class='respDivR'><div class='vertical-center'>(I)</div></div></div>","E","$40<br><br>now","$55<br>in<br>6 weeks","0","40","55","6","NOW"
"html-keyboard-response","24","83764","0.0-5.0-3.6","5e535a49ac9ed13700f62def","bdp_td","Sun Apr 02 2023 23:42:05 GMT-0500 (Central Daylight Time)","150472","","null","","","","offerFB","","<div class='trialBorder'><div class='vertical-center'><img style='vertical-align:center; align:center' src=img/fixation3.jpg></div><div class='cl'><div class='vertical-center'><font style='color:orange'>$40<br><br>now</font></div></div><div class='cr'><div class='vertical-center'>$55<br>in<br>6 weeks</div></div><div class='respDivL'><div class='vertical-center'><font style='color:orange'>(E)</font></div></div><div class='respDivR'><div class='vertical-center'>(I)</div></div></div>","null","$40<br><br>now","$55<br>in<br>6 weeks","0","40","55","6",""
"html-keyboard-response","25","84274","0.0-5.0-1.7","5e535a49ac9ed13700f62def","bdp_td","Sun Apr 02 2023 23:42:05 GMT-0500 (Central Daylight Time)","150472","","null","","","","FIX","","<div class='trialBorder'><div class='vertical-center'><img style='vertical-align:center; align:center' src=img/fixation3.jpg></div></div>","null","","","","","","",""
"html-keyboard-response","26","86337","0.0-5.0-2.7","5e535a49ac9ed13700f62def","bdp_td","Sun Apr 02 2023 23:42:05 GMT-0500 (Central Daylight Time)","150472","","2061","","","","offer","","<div class='trialBorder'><div class='vertical-center'><img style='vertical-align:center; align:center' src=img/fixation3.jpg></div><div class='cl'><div class='vertical-center'>$20<br><br>now</div></div><div class='cr'><div class='vertical-center'>$55<br>in<br>1 week</div></div><div class='respDivL'><div class='vertical-center'>(E)</div></div><div class='respDivR'><div class='vertical-center'>(I)</div></div></div>","I","$20<br><br>now","$55<br>in<br>1 week","0","20","55","1","THEN"
"html-keyboard-response","27","86591","0.0-5.0-3.7","5e535a49ac9ed13700f62def","bdp_td","Sun Apr 02 2023 23:42:05 GMT-0500 (Central Daylight Time)","150472","","null","","","","offerFB","","<div class='trialBorder'><div class='vertical-center'><img style='vertical-align:center; align:center' src=img/fixation3.jpg></div><div class='cl'><div class='vertical-center'>$20<br><br>now</div></div><div class='cr'><div class='vertical-center'><font style='color:orange'>$55<br>in<br>1 week</font></div></div><div class='respDivL'><div class='vertical-center'>(E)</div></div><div class='respDivR'><div class='vertical-center'><font style='color:orange'>(I)</font></div></div></div>","null","$20<br><br>now","$55<br>in<br>1 week","0","20","55","1",""
"html-keyboard-response","28","87093","0.0-5.0-1.8","5e535a49ac9ed13700f62def","bdp_td","Sun Apr 02 2023 23:42:05 GMT-0500 (Central Daylight Time)","150472","","null","","","","FIX","","<div class='trialBorder'><div class='vertical-center'><img style='vertical-align:center; align:center' src=img/fixation3.jpg></div></div>","null","","","","","","",""
"html-keyboard-response","29","90652","0.0-5.0-2.8","5e535a49ac9ed13700f62def","bdp_td","Sun Apr 02 2023 23:42:05 GMT-0500 (Central Daylight Time)","150472","","3558","","","","offer","","<div class='trialBorder'><div class='vertical-center'><img style='vertical-align:center; align:center' src=img/fixation3.jpg></div><div class='cl'><div class='vertical-center'>$30<br>in<br>6 weeks</div></div><div class='cr'><div class='vertical-center'>$25<br><br>now</div></div><div class='respDivL'><div class='vertical-center'>(E)</div></div><div class='respDivR'><div class='vertical-center'>(I)</div></div></div>","I","$25<br><br>now","$30<br>in<br>6 weeks","1","25","30","6","NOW"
"html-keyboard-response","30","90904","0.0-5.0-3.8","5e535a49ac9ed13700f62def","bdp_td","Sun Apr 02 2023 23:42:05 GMT-0500 (Central Daylight Time)","150472","","null","","","","offerFB","","<div class='trialBorder'><div class='vertical-center'><img style='vertical-align:center; align:center' src=img/fixation3.jpg></div><div class='cl'><div class='vertical-center'>$30<br>in<br>6 weeks</div></div><div class='cr'><div class='vertical-center'><font style='color:orange'>$25<br><br>now</font></div></div><div class='respDivL'><div class='vertical-center'>(E)</div></div><div class='respDivR'><div class='vertical-center'><font style='color:orange'>(I)</font></div></div></div>","null","$25<br><br>now","$30<br>in<br>6 weeks","1","25","30","6",""
"html-keyboard-response","31","91407","0.0-5.0-1.9","5e535a49ac9ed13700f62def","bdp_td","Sun Apr 02 2023 23:42:05 GMT-0500 (Central Daylight Time)","150472","","null","","","","FIX","","<div class='trialBorder'><div class='vertical-center'><img style='vertical-align:center; align:center' src=img/fixation3.jpg></div></div>","null","","","","","","",""
"html-keyboard-response","32","93309","0.0-5.0-2.9","5e535a49ac9ed13700f62def","bdp_td","Sun Apr 02 2023 23:42:05 GMT-0500 (Central Daylight Time)","150472","","1901","","","","offer","","<div class='trialBorder'><div class='vertical-center'><img style='vertical-align:center; align:center' src=img/fixation3.jpg></div><div class='cl'><div class='vertical-center'>$78<br><br>now</div></div><div class='cr'><div class='vertical-center'>$80<br>in<br>12 weeks</div></div><div class='respDivL'><div class='vertical-center'>(E)</div></div><div class='respDivR'><div class='vertical-center'>(I)</div></div></div>","E","$78<br><br>now","$80<br>in<br>12 weeks","0","78","80","12","NOW"
"html-keyboard-response","33","93562","0.0-5.0-3.9","5e535a49ac9ed13700f62def","bdp_td","Sun Apr 02 2023 23:42:05 GMT-0500 (Central Daylight Time)","150472","","null","","","","offerFB","","<div class='trialBorder'><div class='vertical-center'><img style='vertical-align:center; align:center' src=img/fixation3.jpg></div><div class='cl'><div class='vertical-center'><font style='color:orange'>$78<br><br>now</font></div></div><div class='cr'><div class='vertical-center'>$80<br>in<br>12 weeks</div></div><div class='respDivL'><div class='vertical-center'><font style='color:orange'>(E)</font></div></div><div class='respDivR'><div class='vertical-center'>(I)</div></div></div>","null","$78<br><br>now","$80<br>in<br>12 weeks","0","78","80","12",""
"html-keyboard-response","34","94064","0.0-5.0-1.10","5e535a49ac9ed13700f62def","bdp_td","Sun Apr 02 2023 23:42:05 GMT-0500 (Central Daylight Time)","150472","","null","","","","FIX","","<div class='trialBorder'><div class='vertical-center'><img style='vertical-align:center; align:center' src=img/fixation3.jpg></div></div>","null","","","","","","",""
"html-keyboard-response","35","96268","0.0-5.0-2.10","5e535a49ac9ed13700f62def","bdp_td","Sun Apr 02 2023 23:42:05 GMT-0500 (Central Daylight Time)","150472","","2201","","","","offer","","<div class='trialBorder'><div class='vertical-center'><img style='vertical-align:center; align:center' src=img/fixation3.jpg></div><div class='cl'><div class='vertical-center'>$25<br>in<br>6 weeks</div></div><div class='cr'><div class='vertical-center'>$19<br><br>now</div></div><div class='respDivL'><div class='vertical-center'>(E)</div></div><div class='respDivR'><div class='vertical-center'>(I)</div></div></div>","I","$19<br><br>now","$25<br>in<br>6 weeks","1","19","25","6","NOW"
"html-keyboard-response","36","96522","0.0-5.0-3.10","5e535a49ac9ed13700f62def","bdp_td","Sun Apr 02 2023 23:42:05 GMT-0500 (Central Daylight Time)","150472","","null","","","","offerFB","","<div class='trialBorder'><div class='vertical-center'><img style='vertical-align:center; align:center' src=img/fixation3.jpg></div><div class='cl'><div class='vertical-center'>$25<br>in<br>6 weeks</div></div><div class='cr'><div class='vertical-center'><font style='color:orange'>$19<br><br>now</font></div></div><div class='respDivL'><div class='vertical-center'>(E)</div></div><div class='respDivR'><div class='vertical-center'><font style='color:orange'>(I)</font></div></div></div>","null","$19<br><br>now","$25<br>in<br>6 weeks","1","19","25","6",""
"html-keyboard-response","37","97025","0.0-5.0-1.11","5e535a49ac9ed13700f62def","bdp_td","Sun Apr 02 2023 23:42:05 GMT-0500 (Central Daylight Time)","150472","","null","","","","FIX","","<div class='trialBorder'><div class='vertical-center'><img style='vertical-align:center; align:center' src=img/fixation3.jpg></div></div>","null","","","","","","",""
"html-keyboard-response","38","98568","0.0-5.0-2.11","5e535a49ac9ed13700f62def","bdp_td","Sun Apr 02 2023 23:42:05 GMT-0500 (Central Daylight Time)","150472","","1541","","","","offer","","<div class='trialBorder'><div class='vertical-center'><img style='vertical-align:center; align:center' src=img/fixation3.jpg></div><div class='cl'><div class='vertical-center'>$85<br>in<br>12 weeks</div></div><div class='cr'><div class='vertical-center'>$80<br><br>now</div></div><div class='respDivL'><div class='vertical-center'>(E)</div></div><div class='respDivR'><div class='vertical-center'>(I)</div></div></div>","I","$80<br><br>now","$85<br>in<br>12 weeks","1","80","85","12","NOW"
"html-keyboard-response","39","98823","0.0-5.0-3.11","5e535a49ac9ed13700f62def","bdp_td","Sun Apr 02 2023 23:42:05 GMT-0500 (Central Daylight Time)","150472","","null","","","","offerFB","","<div class='trialBorder'><div class='vertical-center'><img style='vertical-align:center; align:center' src=img/fixation3.jpg></div><div class='cl'><div class='vertical-center'>$85<br>in<br>12 weeks</div></div><div class='cr'><div class='vertical-center'><font style='color:orange'>$80<br><br>now</font></div></div><div class='respDivL'><div class='vertical-center'>(E)</div></div><div class='respDivR'><div class='vertical-center'><font style='color:orange'>(I)</font></div></div></div>","null","$80<br><br>now","$85<br>in<br>12 weeks","1","80","85","12",""
"html-keyboard-response","40","99327","0.0-5.0-1.12","5e535a49ac9ed13700f62def","bdp_td","Sun Apr 02 2023 23:42:05 GMT-0500 (Central Daylight Time)","150472","","null","","","","FIX","","<div class='trialBorder'><div class='vertical-center'><img style='vertical-align:center; align:center' src=img/fixation3.jpg></div></div>","null","","","","","","",""
"html-keyboard-response","41","101033","0.0-5.0-2.12","5e535a49ac9ed13700f62def","bdp_td","Sun Apr 02 2023 23:42:05 GMT-0500 (Central Daylight Time)","150472","","1705","","","","offer","","<div class='trialBorder'><div class='vertical-center'><img style='vertical-align:center; align:center' src=img/fixation3.jpg></div><div class='cl'><div class='vertical-center'>$54<br><br>now</div></div><div class='cr'><div class='vertical-center'>$60<br>in<br>12 weeks</div></div><div class='respDivL'><div class='vertical-center'>(E)</div></div><div class='respDivR'><div class='vertical-center'>(I)</div></div></div>","E","$54<br><br>now","$60<br>in<br>12 weeks","0","54","60","12","NOW"
"html-keyboard-response","42","101285","0.0-5.0-3.12","5e535a49ac9ed13700f62def","bdp_td","Sun Apr 02 2023 23:42:05 GMT-0500 (Central Daylight Time)","150472","","null","","","","offerFB","","<div class='trialBorder'><div class='vertical-center'><img style='vertical-align:center; align:center' src=img/fixation3.jpg></div><div class='cl'><div class='vertical-center'><font style='color:orange'>$54<br><br>now</font></div></div><div class='cr'><div class='vertical-center'>$60<br>in<br>12 weeks</div></div><div class='respDivL'><div class='vertical-center'><font style='color:orange'>(E)</font></div></div><div class='respDivR'><div class='vertical-center'>(I)</div></div></div>","null","$54<br><br>now","$60<br>in<br>12 weeks","0","54","60","12",""
"html-keyboard-response","43","101789","0.0-5.0-1.13","5e535a49ac9ed13700f62def","bdp_td","Sun Apr 02 2023 23:42:05 GMT-0500 (Central Daylight Time)","150472","","null","","","","FIX","","<div class='trialBorder'><div class='vertical-center'><img style='vertical-align:center; align:center' src=img/fixation3.jpg></div></div>","null","","","","","","",""
"html-keyboard-response","44","104369","0.0-5.0-2.13","5e535a49ac9ed13700f62def","bdp_td","Sun Apr 02 2023 23:42:05 GMT-0500 (Central Daylight Time)","150472","","2577","","","","offer","","<div class='trialBorder'><div class='vertical-center'><img style='vertical-align:center; align:center' src=img/fixation3.jpg></div><div class='cl'><div class='vertical-center'>$15<br><br>now</div></div><div class='cr'><div class='vertical-center'>$35<br>in<br>2 weeks</div></div><div class='respDivL'><div class='vertical-center'>(E)</div></div><div class='respDivR'><div class='vertical-center'>(I)</div></div></div>","I","$15<br><br>now","$35<br>in<br>2 weeks","0","15","35","2","THEN"
"html-keyboard-response","45","104622","0.0-5.0-3.13","5e535a49ac9ed13700f62def","bdp_td","Sun Apr 02 2023 23:42:05 GMT-0500 (Central Daylight Time)","150472","","null","","","","offerFB","","<div class='trialBorder'><div class='vertical-center'><img style='vertical-align:center; align:center' src=img/fixation3.jpg></div><div class='cl'><div class='vertical-center'>$15<br><br>now</div></div><div class='cr'><div class='vertical-center'><font style='color:orange'>$35<br>in<br>2 weeks</font></div></div><div class='respDivL'><div class='vertical-center'>(E)</div></div><div class='respDivR'><div class='vertical-center'><font style='color:orange'>(I)</font></div></div></div>","null","$15<br><br>now","$35<br>in<br>2 weeks","0","15","35","2",""
"html-keyboard-response","46","105124","0.0-5.0-1.14","5e535a49ac9ed13700f62def","bdp_td","Sun Apr 02 2023 23:42:05 GMT-0500 (Central Daylight Time)","150472","","null","","","","FIX","","<div class='trialBorder'><div class='vertical-center'><img style='vertical-align:center; align:center' src=img/fixation3.jpg></div></div>","null","","","","","","",""
"html-keyboard-response","47","108398","0.0-5.0-2.14","5e535a49ac9ed13700f62def","bdp_td","Sun Apr 02 2023 23:42:05 GMT-0500 (Central Daylight Time)","150472","","3273","","","","offer","","<div class='trialBorder'><div class='vertical-center'><img style='vertical-align:center; align:center' src=img/fixation3.jpg></div><div class='cl'><div class='vertical-center'>$50<br>in<br>3 weeks</div></div><div class='cr'><div class='vertical-center'>$27<br><br>now</div></div><div class='respDivL'><div class='vertical-center'>(E)</div></div><div class='respDivR'><div class='vertical-center'>(I)</div></div></div>","E","$27<br><br>now","$50<br>in<br>3 weeks","1","27","50","3","THEN"
"html-keyboard-response","48","108661","0.0-5.0-3.14","5e535a49ac9ed13700f62def","bdp_td","Sun Apr 02 2023 23:42:05 GMT-0500 (Central Daylight Time)","150472","","null","","","","offerFB","","<div class='trialBorder'><div class='vertical-center'><img style='vertical-align:center; align:center' src=img/fixation3.jpg></div><div class='cl'><div class='vertical-center'><font style='color:orange'>$50<br>in<br>3 weeks</font></div></div><div class='cr'><div class='vertical-center'>$27<br><br>now</div></div><div class='respDivL'><div class='vertical-center'><font style='color:orange'>(E)</font></div></div><div class='respDivR'><div class='vertical-center'>(I)</div></div></div>","null","$27<br><br>now","$50<br>in<br>3 weeks","1","27","50","3",""
"html-keyboard-response","49","109164","0.0-5.0-1.15","5e535a49ac9ed13700f62def","bdp_td","Sun Apr 02 2023 23:42:05 GMT-0500 (Central Daylight Time)","150472","","null","","","","FIX","","<div class='trialBorder'><div class='vertical-center'><img style='vertical-align:center; align:center' src=img/fixation3.jpg></div></div>","null","","","","","","",""
"html-keyboard-response","50","113554","0.0-5.0-2.15","5e535a49ac9ed13700f62def","bdp_td","Sun Apr 02 2023 23:42:05 GMT-0500 (Central Daylight Time)","150472","","4387","","","","offer","","<div class='trialBorder'><div class='vertical-center'><img style='vertical-align:center; align:center' src=img/fixation3.jpg></div><div class='cl'><div class='vertical-center'>$34<br><br>now</div></div><div class='cr'><div class='vertical-center'>$50<br>in<br>6 weeks</div></div><div class='respDivL'><div class='vertical-center'>(E)</div></div><div class='respDivR'><div class='vertical-center'>(I)</div></div></div>","E","$34<br><br>now","$50<br>in<br>6 weeks","0","34","50","6","NOW"
"html-keyboard-response","51","113807","0.0-5.0-3.15","5e535a49ac9ed13700f62def","bdp_td","Sun Apr 02 2023 23:42:05 GMT-0500 (Central Daylight Time)","150472","","null","","","","offerFB","","<div class='trialBorder'><div class='vertical-center'><img style='vertical-align:center; align:center' src=img/fixation3.jpg></div><div class='cl'><div class='vertical-center'><font style='color:orange'>$34<br><br>now</font></div></div><div class='cr'><div class='vertical-center'>$50<br>in<br>6 weeks</div></div><div class='respDivL'><div class='vertical-center'><font style='color:orange'>(E)</font></div></div><div class='respDivR'><div class='vertical-center'>(I)</div></div></div>","null","$34<br><br>now","$50<br>in<br>6 weeks","0","34","50","6",""
"html-keyboard-response","52","114309","0.0-5.0-1.16","5e535a49ac9ed13700f62def","bdp_td","Sun Apr 02 2023 23:42:05 GMT-0500 (Central Daylight Time)","150472","","null","","","","FIX","","<div class='trialBorder'><div class='vertical-center'><img style='vertical-align:center; align:center' src=img/fixation3.jpg></div></div>","null","","","","","","",""
"html-keyboard-response","53","115777","0.0-5.0-2.16","5e535a49ac9ed13700f62def","bdp_td","Sun Apr 02 2023 23:42:05 GMT-0500 (Central Daylight Time)","150472","","1467","","","","offer","","<div class='trialBorder'><div class='vertical-center'><img style='vertical-align:center; align:center' src=img/fixation3.jpg></div><div class='cl'><div class='vertical-center'>$50<br>in<br>12 weeks</div></div><div class='cr'><div class='vertical-center'>$47<br><br>now</div></div><div class='respDivL'><div class='vertical-center'>(E)</div></div><div class='respDivR'><div class='vertical-center'>(I)</div></div></div>","I","$47<br><br>now","$50<br>in<br>12 weeks","1","47","50","12","NOW"
"html-keyboard-response","54","116030","0.0-5.0-3.16","5e535a49ac9ed13700f62def","bdp_td","Sun Apr 02 2023 23:42:05 GMT-0500 (Central Daylight Time)","150472","","null","","","","offerFB","","<div class='trialBorder'><div class='vertical-center'><img style='vertical-align:center; align:center' src=img/fixation3.jpg></div><div class='cl'><div class='vertical-center'>$50<br>in<br>12 weeks</div></div><div class='cr'><div class='vertical-center'><font style='color:orange'>$47<br><br>now</font></div></div><div class='respDivL'><div class='vertical-center'>(E)</div></div><div class='respDivR'><div class='vertical-center'><font style='color:orange'>(I)</font></div></div></div>","null","$47<br><br>now","$50<br>in<br>12 weeks","1","47","50","12",""
"html-keyboard-response","55","116532","0.0-5.0-1.17","5e535a49ac9ed13700f62def","bdp_td","Sun Apr 02 2023 23:42:05 GMT-0500 (Central Daylight Time)","150472","","null","","","","FIX","","<div class='trialBorder'><div class='vertical-center'><img style='vertical-align:center; align:center' src=img/fixation3.jpg></div></div>","null","","","","","","",""
"html-keyboard-response","56","122562","0.0-5.0-2.17","5e535a49ac9ed13700f62def","bdp_td","Sun Apr 02 2023 23:42:05 GMT-0500 (Central Daylight Time)","150472","","6028","","","","offer","","<div class='trialBorder'><div class='vertical-center'><img style='vertical-align:center; align:center' src=img/fixation3.jpg></div><div class='cl'><div class='vertical-center'>$55<br><br>now</div></div><div class='cr'><div class='vertical-center'>$75<br>in<br>6 weeks</div></div><div class='respDivL'><div class='vertical-center'>(E)</div></div><div class='respDivR'><div class='vertical-center'>(I)</div></div></div>","E","$55<br><br>now","$75<br>in<br>6 weeks","0","55","75","6","NOW"
"html-keyboard-response","57","122814","0.0-5.0-3.17","5e535a49ac9ed13700f62def","bdp_td","Sun Apr 02 2023 23:42:05 GMT-0500 (Central Daylight Time)","150472","","null","","","","offerFB","","<div class='trialBorder'><div class='vertical-center'><img style='vertical-align:center; align:center' src=img/fixation3.jpg></div><div class='cl'><div class='vertical-center'><font style='color:orange'>$55<br><br>now</font></div></div><div class='cr'><div class='vertical-center'>$75<br>in<br>6 weeks</div></div><div class='respDivL'><div class='vertical-center'><font style='color:orange'>(E)</font></div></div><div class='respDivR'><div class='vertical-center'>(I)</div></div></div>","null","$55<br><br>now","$75<br>in<br>6 weeks","0","55","75","6",""
"html-keyboard-response","58","123316","0.0-5.0-1.18","5e535a49ac9ed13700f62def","bdp_td","Sun Apr 02 2023 23:42:05 GMT-0500 (Central Daylight Time)","150472","","null","","","","FIX","","<div class='trialBorder'><div class='vertical-center'><img style='vertical-align:center; align:center' src=img/fixation3.jpg></div></div>","null","","","","","","",""
"html-keyboard-response","59","124971","0.0-5.0-2.18","5e535a49ac9ed13700f62def","bdp_td","Sun Apr 02 2023 23:42:05 GMT-0500 (Central Daylight Time)","150472","","1653","","","","offer","","<div class='trialBorder'><div class='vertical-center'><img style='vertical-align:center; align:center' src=img/fixation3.jpg></div><div class='cl'><div class='vertical-center'>$22<br><br>now</div></div><div class='cr'><div class='vertical-center'>$25<br>in<br>12 weeks</div></div><div class='respDivL'><div class='vertical-center'>(E)</div></div><div class='respDivR'><div class='vertical-center'>(I)</div></div></div>","E","$22<br><br>now","$25<br>in<br>12 weeks","0","22","25","12","NOW"
"html-keyboard-response","60","125223","0.0-5.0-3.18","5e535a49ac9ed13700f62def","bdp_td","Sun Apr 02 2023 23:42:05 GMT-0500 (Central Daylight Time)","150472","","null","","","","offerFB","","<div class='trialBorder'><div class='vertical-center'><img style='vertical-align:center; align:center' src=img/fixation3.jpg></div><div class='cl'><div class='vertical-center'><font style='color:orange'>$22<br><br>now</font></div></div><div class='cr'><div class='vertical-center'>$25<br>in<br>12 weeks</div></div><div class='respDivL'><div class='vertical-center'><font style='color:orange'>(E)</font></div></div><div class='respDivR'><div class='vertical-center'>(I)</div></div></div>","null","$22<br><br>now","$25<br>in<br>12 weeks","0","22","25","12",""
"html-keyboard-response","61","125724","0.0-5.0-1.19","5e535a49ac9ed13700f62def","bdp_td","Sun Apr 02 2023 23:42:05 GMT-0500 (Central Daylight Time)","150472","","null","","","","FIX","","<div class='trialBorder'><div class='vertical-center'><img style='vertical-align:center; align:center' src=img/fixation3.jpg></div></div>","null","","","","","","",""
"html-keyboard-response","62","127629","0.0-5.0-2.19","5e535a49ac9ed13700f62def","bdp_td","Sun Apr 02 2023 23:42:05 GMT-0500 (Central Daylight Time)","150472","","1903","","","","offer","","<div class='trialBorder'><div class='vertical-center'><img style='vertical-align:center; align:center' src=img/fixation3.jpg></div><div class='cl'><div class='vertical-center'>$31<br><br>now</div></div><div class='cr'><div class='vertical-center'>$85<br>in<br>1 week</div></div><div class='respDivL'><div class='vertical-center'>(E)</div></div><div class='respDivR'><div class='vertical-center'>(I)</div></div></div>","I","$31<br><br>now","$85<br>in<br>1 week","0","31","85","1","THEN"
"html-keyboard-response","63","127882","0.0-5.0-3.19","5e535a49ac9ed13700f62def","bdp_td","Sun Apr 02 2023 23:42:05 GMT-0500 (Central Daylight Time)","150472","","null","","","","offerFB","","<div class='trialBorder'><div class='vertical-center'><img style='vertical-align:center; align:center' src=img/fixation3.jpg></div><div class='cl'><div class='vertical-center'>$31<br><br>now</div></div><div class='cr'><div class='vertical-center'><font style='color:orange'>$85<br>in<br>1 week</font></div></div><div class='respDivL'><div class='vertical-center'>(E)</div></div><div class='respDivR'><div class='vertical-center'><font style='color:orange'>(I)</font></div></div></div>","null","$31<br><br>now","$85<br>in<br>1 week","0","31","85","1",""
"html-keyboard-response","64","128385","0.0-5.0-1.20","5e535a49ac9ed13700f62def","bdp_td","Sun Apr 02 2023 23:42:05 GMT-0500 (Central Daylight Time)","150472","","null","","","","FIX","","<div class='trialBorder'><div class='vertical-center'><img style='vertical-align:center; align:center' src=img/fixation3.jpg></div></div>","null","","","","","","",""
"html-keyboard-response","65","129842","0.0-5.0-2.20","5e535a49ac9ed13700f62def","bdp_td","Sun Apr 02 2023 23:42:05 GMT-0500 (Central Daylight Time)","150472","","1453","","","","offer","","<div class='trialBorder'><div class='vertical-center'><img style='vertical-align:center; align:center' src=img/fixation3.jpg></div><div class='cl'><div class='vertical-center'>$60<br>in<br>3 weeks</div></div><div class='cr'><div class='vertical-center'>$25<br><br>now</div></div><div class='respDivL'><div class='vertical-center'>(E)</div></div><div class='respDivR'><div class='vertical-center'>(I)</div></div></div>","E","$25<br><br>now","$60<br>in<br>3 weeks","1","25","60","3","THEN"
"html-keyboard-response","66","130096","0.0-5.0-3.20","5e535a49ac9ed13700f62def","bdp_td","Sun Apr 02 2023 23:42:05 GMT-0500 (Central Daylight Time)","150472","","null","","","","offerFB","","<div class='trialBorder'><div class='vertical-center'><img style='vertical-align:center; align:center' src=img/fixation3.jpg></div><div class='cl'><div class='vertical-center'><font style='color:orange'>$60<br>in<br>3 weeks</font></div></div><div class='cr'><div class='vertical-center'>$25<br><br>now</div></div><div class='respDivL'><div class='vertical-center'><font style='color:orange'>(E)</font></div></div><div class='respDivR'><div class='vertical-center'>(I)</div></div></div>","null","$25<br><br>now","$60<br>in<br>3 weeks","1","25","60","3",""
"html-keyboard-response","67","130605","0.0-5.0-1.21","5e535a49ac9ed13700f62def","bdp_td","Sun Apr 02 2023 23:42:05 GMT-0500 (Central Daylight Time)","150472","","null","","","","FIX","","<div class='trialBorder'><div class='vertical-center'><img style='vertical-align:center; align:center' src=img/fixation3.jpg></div></div>","null","","","","","","",""
"html-keyboard-response","68","132031","0.0-5.0-2.21","5e535a49ac9ed13700f62def","bdp_td","Sun Apr 02 2023 23:42:05 GMT-0500 (Central Daylight Time)","150472","","1423","","","","offer","","<div class='trialBorder'><div class='vertical-center'><img style='vertical-align:center; align:center' src=img/fixation3.jpg></div><div class='cl'><div class='vertical-center'>$75<br>in<br>12 weeks</div></div><div class='cr'><div class='vertical-center'>$67<br><br>now</div></div><div class='respDivL'><div class='vertical-center'>(E)</div></div><div class='respDivR'><div class='vertical-center'>(I)</div></div></div>","I","$67<br><br>now","$75<br>in<br>12 weeks","1","67","75","12","NOW"
"html-keyboard-response","69","132284","0.0-5.0-3.21","5e535a49ac9ed13700f62def","bdp_td","Sun Apr 02 2023 23:42:05 GMT-0500 (Central Daylight Time)","150472","","null","","","","offerFB","","<div class='trialBorder'><div class='vertical-center'><img style='vertical-align:center; align:center' src=img/fixation3.jpg></div><div class='cl'><div class='vertical-center'>$75<br>in<br>12 weeks</div></div><div class='cr'><div class='vertical-center'><font style='color:orange'>$67<br><br>now</font></div></div><div class='respDivL'><div class='vertical-center'>(E)</div></div><div class='respDivR'><div class='vertical-center'><font style='color:orange'>(I)</font></div></div></div>","null","$67<br><br>now","$75<br>in<br>12 weeks","1","67","75","12",""
"html-keyboard-response","70","132787","0.0-5.0-1.22","5e535a49ac9ed13700f62def","bdp_td","Sun Apr 02 2023 23:42:05 GMT-0500 (Central Daylight Time)","150472","","null","","","","FIX","","<div class='trialBorder'><div class='vertical-center'><img style='vertical-align:center; align:center' src=img/fixation3.jpg></div></div>","null","","","","","","",""
"html-keyboard-response","71","135053","0.0-5.0-2.22","5e535a49ac9ed13700f62def","bdp_td","Sun Apr 02 2023 23:42:05 GMT-0500 (Central Daylight Time)","150472","","2263","","","","offer","","<div class='trialBorder'><div class='vertical-center'><img style='vertical-align:center; align:center' src=img/fixation3.jpg></div><div class='cl'><div class='vertical-center'>$41<br><br>now</div></div><div class='cr'><div class='vertical-center'>$75<br>in<br>3 weeks</div></div><div class='respDivL'><div class='vertical-center'>(E)</div></div><div class='respDivR'><div class='vertical-center'>(I)</div></div></div>","I","$41<br><br>now","$75<br>in<br>3 weeks","0","41","75","3","THEN"
"html-keyboard-response","72","135306","0.0-5.0-3.22","5e535a49ac9ed13700f62def","bdp_td","Sun Apr 02 2023 23:42:05 GMT-0500 (Central Daylight Time)","150472","","null","","","","offerFB","","<div class='trialBorder'><div class='vertical-center'><img style='vertical-align:center; align:center' src=img/fixation3.jpg></div><div class='cl'><div class='vertical-center'>$41<br><br>now</div></div><div class='cr'><div class='vertical-center'><font style='color:orange'>$75<br>in<br>3 weeks</font></div></div><div class='respDivL'><div class='vertical-center'>(E)</div></div><div class='respDivR'><div class='vertical-center'><font style='color:orange'>(I)</font></div></div></div>","null","$41<br><br>now","$75<br>in<br>3 weeks","0","41","75","3",""
"html-keyboard-response","73","135809","0.0-5.0-1.23","5e535a49ac9ed13700f62def","bdp_td","Sun Apr 02 2023 23:42:05 GMT-0500 (Central Daylight Time)","150472","","null","","","","FIX","","<div class='trialBorder'><div class='vertical-center'><img style='vertical-align:center; align:center' src=img/fixation3.jpg></div></div>","null","","","","","","",""
"html-keyboard-response","74","138160","0.0-5.0-2.23","5e535a49ac9ed13700f62def","bdp_td","Sun Apr 02 2023 23:42:05 GMT-0500 (Central Daylight Time)","150472","","2350","","","","offer","","<div class='trialBorder'><div class='vertical-center'><img style='vertical-align:center; align:center' src=img/fixation3.jpg></div><div class='cl'><div class='vertical-center'>$24<br><br>now</div></div><div class='cr'><div class='vertical-center'>$35<br>in<br>3 weeks</div></div><div class='respDivL'><div class='vertical-center'>(E)</div></div><div class='respDivR'><div class='vertical-center'>(I)</div></div></div>","E","$24<br><br>now","$35<br>in<br>3 weeks","0","24","35","3","NOW"
"html-keyboard-response","75","138413","0.0-5.0-3.23","5e535a49ac9ed13700f62def","bdp_td","Sun Apr 02 2023 23:42:05 GMT-0500 (Central Daylight Time)","150472","","null","","","","offerFB","","<div class='trialBorder'><div class='vertical-center'><img style='vertical-align:center; align:center' src=img/fixation3.jpg></div><div class='cl'><div class='vertical-center'><font style='color:orange'>$24<br><br>now</font></div></div><div class='cr'><div class='vertical-center'>$35<br>in<br>3 weeks</div></div><div class='respDivL'><div class='vertical-center'><font style='color:orange'>(E)</font></div></div><div class='respDivR'><div class='vertical-center'>(I)</div></div></div>","null","$24<br><br>now","$35<br>in<br>3 weeks","0","24","35","3",""
"html-keyboard-response","76","138916","0.0-5.0-1.24","5e535a49ac9ed13700f62def","bdp_td","Sun Apr 02 2023 23:42:05 GMT-0500 (Central Daylight Time)","150472","","null","","","","FIX","","<div class='trialBorder'><div class='vertical-center'><img style='vertical-align:center; align:center' src=img/fixation3.jpg></div></div>","null","","","","","","",""
"html-keyboard-response","77","140499","0.0-5.0-2.24","5e535a49ac9ed13700f62def","bdp_td","Sun Apr 02 2023 23:42:05 GMT-0500 (Central Daylight Time)","150472","","1583","","","","offer","","<div class='trialBorder'><div class='vertical-center'><img style='vertical-align:center; align:center' src=img/fixation3.jpg></div><div class='cl'><div class='vertical-center'>$33<br><br>now</div></div><div class='cr'><div class='vertical-center'>$80<br>in<br>2 weeks</div></div><div class='respDivL'><div class='vertical-center'>(E)</div></div><div class='respDivR'><div class='vertical-center'>(I)</div></div></div>","I","$33<br><br>now","$80<br>in<br>2 weeks","0","33","80","2","THEN"
"html-keyboard-response","78","140752","0.0-5.0-3.24","5e535a49ac9ed13700f62def","bdp_td","Sun Apr 02 2023 23:42:05 GMT-0500 (Central Daylight Time)","150472","","null","","","","offerFB","","<div class='trialBorder'><div class='vertical-center'><img style='vertical-align:center; align:center' src=img/fixation3.jpg></div><div class='cl'><div class='vertical-center'>$33<br><br>now</div></div><div class='cr'><div class='vertical-center'><font style='color:orange'>$80<br>in<br>2 weeks</font></div></div><div class='respDivL'><div class='vertical-center'>(E)</div></div><div class='respDivR'><div class='vertical-center'><font style='color:orange'>(I)</font></div></div></div>","null","$33<br><br>now","$80<br>in<br>2 weeks","0","33","80","2",""
"html-keyboard-response","79","141267","0.0-5.0-1.25","5e535a49ac9ed13700f62def","bdp_td","Sun Apr 02 2023 23:42:05 GMT-0500 (Central Daylight Time)","150472","","null","","","","FIX","","<div class='trialBorder'><div class='vertical-center'><img style='vertical-align:center; align:center' src=img/fixation3.jpg></div></div>","null","","","","","","",""
"html-keyboard-response","80","147054","0.0-5.0-2.25","5e535a49ac9ed13700f62def","bdp_td","Sun Apr 02 2023 23:42:05 GMT-0500 (Central Daylight Time)","150472","","5784","","","","offer","","<div class='trialBorder'><div class='vertical-center'><img style='vertical-align:center; align:center' src=img/fixation3.jpg></div><div class='cl'><div class='vertical-center'>$14<br><br>now</div></div><div class='cr'><div class='vertical-center'>$25<br>in<br>3 weeks</div></div><div class='respDivL'><div class='vertical-center'>(E)</div></div><div class='respDivR'><div class='vertical-center'>(I)</div></div></div>","E","$14<br><br>now","$25<br>in<br>3 weeks","0","14","25","3","NOW"
"html-keyboard-response","81","147310","0.0-5.0-3.25","5e535a49ac9ed13700f62def","bdp_td","Sun Apr 02 2023 23:42:05 GMT-0500 (Central Daylight Time)","150472","","null","","","","offerFB","","<div class='trialBorder'><div class='vertical-center'><img style='vertical-align:center; align:center' src=img/fixation3.jpg></div><div class='cl'><div class='vertical-center'><font style='color:orange'>$14<br><br>now</font></div></div><div class='cr'><div class='vertical-center'>$25<br>in<br>3 weeks</div></div><div class='respDivL'><div class='vertical-center'><font style='color:orange'>(E)</font></div></div><div class='respDivR'><div class='vertical-center'>(I)</div></div></div>","null","$14<br><br>now","$25<br>in<br>3 weeks","0","14","25","3",""
"html-keyboard-response","82","147812","0.0-5.0-1.26","5e535a49ac9ed13700f62def","bdp_td","Sun Apr 02 2023 23:42:05 GMT-0500 (Central Daylight Time)","150472","","null","","","","FIX","","<div class='trialBorder'><div class='vertical-center'><img style='vertical-align:center; align:center' src=img/fixation3.jpg></div></div>","null","","","","","","",""
"html-keyboard-response","83","149219","0.0-5.0-2.26","5e535a49ac9ed13700f62def","bdp_td","Sun Apr 02 2023 23:42:05 GMT-0500 (Central Daylight Time)","150472","","1405","","","","offer","","<div class='trialBorder'><div class='vertical-center'><img style='vertical-align:center; align:center' src=img/fixation3.jpg></div><div class='cl'><div class='vertical-center'>$55<br>in<br>12 weeks</div></div><div class='cr'><div class='vertical-center'>$54<br><br>now</div></div><div class='respDivL'><div class='vertical-center'>(E)</div></div><div class='respDivR'><div class='vertical-center'>(I)</div></div></div>","I","$54<br><br>now","$55<br>in<br>12 weeks","1","54","55","12","NOW"
"html-keyboard-response","84","149470","0.0-5.0-3.26","5e535a49ac9ed13700f62def","bdp_td","Sun Apr 02 2023 23:42:05 GMT-0500 (Central Daylight Time)","150472","","null","","","","offerFB","","<div class='trialBorder'><div class='vertical-center'><img style='vertical-align:center; align:center' src=img/fixation3.jpg></div><div class='cl'><div class='vertical-center'>$55<br>in<br>12 weeks</div></div><div class='cr'><div class='vertical-center'><font style='color:orange'>$54<br><br>now</font></div></div><div class='respDivL'><div class='vertical-center'>(E)</div></div><div class='respDivR'><div class='vertical-center'><font style='color:orange'>(I)</font></div></div></div>","null","$54<br><br>now","$55<br>in<br>12 weeks","1","54","55","12",""
"","","","","5e535a49ac9ed13700f62def","bdp_td","Sun Apr 02 2023 23:42:05 GMT-0500 (Central Daylight Time)","150472","","","fullscreenexit","85","149492","fullscreenexit","","","","","","","","","",""
"fullscreen","85","150472","0.0-6.0","5e535a49ac9ed13700f62def","bdp_td","Sun Apr 02 2023 23:42:05 GMT-0500 (Central Daylight Time)","150472","","","","","","","true","","","","","","","","",""
"html-keyboard-response","86","150974","0.0-7.0","","","","","","null","","","","","","","null","","","","","","",""
