"trial_type","trial_index","time_elapsed","internal_node_id","subject_id","task","startTime","totalTime","view_history","rt","event","trial","time","trialtype","success","stimulus","key_press","nowOffer","thenOffer","thenLeft","nowAmt","thenAmt","thenWeeks","chosen"
"pavlovia","0","7","0.0-0.0","63d71e67dd0fcccd3cc745b0","bdp_td","Sat Mar 25 2023 18:08:31 GMT-0500 (Central Daylight Time)","142176","","","","","","","","","","","","","","","",""
"instructions","1","4563","0.0-1.0","63d71e67dd0fcccd3cc745b0","bdp_td","Sat Mar 25 2023 18:08:31 GMT-0500 (Central Daylight Time)","142176","[{""page_index"":0,""viewing_time"":4555}]","4555","","","","","","","","","","","","","",""
"","","","","63d71e67dd0fcccd3cc745b0","bdp_td","Sat Mar 25 2023 18:08:31 GMT-0500 (Central Daylight Time)","142176","","","fullscreenenter","2","7896","fullscreenenter","","","","","","","","","",""
"fullscreen","2","8894","0.0-2.0","63d71e67dd0fcccd3cc745b0","bdp_td","Sat Mar 25 2023 18:08:31 GMT-0500 (Central Daylight Time)","142176","","","","","","","true","","","","","","","","",""
"instructions","3","69460","0.0-4.0","63d71e67dd0fcccd3cc745b0","bdp_td","Sat Mar 25 2023 18:08:31 GMT-0500 (Central Daylight Time)","142176","[{""page_index"":0,""viewing_time"":20265},{""page_index"":1,""viewing_time"":21348},{""page_index"":2,""viewing_time"":18944}]","60558","","","","","","","","","","","","","",""
"html-keyboard-response","4","69966","0.0-5.0-1.0","63d71e67dd0fcccd3cc745b0","bdp_td","Sat Mar 25 2023 18:08:31 GMT-0500 (Central Daylight Time)","142176","","null","","","","FIX","","<div class='trialBorder'><div class='vertical-center'><img style='vertical-align:center; align:center' src=img/fixation3.jpg></div></div>","null","","","","","","",""
"html-keyboard-response","5","72032","0.0-5.0-2.0","63d71e67dd0fcccd3cc745b0","bdp_td","Sat Mar 25 2023 18:08:31 GMT-0500 (Central Daylight Time)","142176","","2063","","","","offer","","<div class='trialBorder'><div class='vertical-center'><img style='vertical-align:center; align:center' src=img/fixation3.jpg></div><div class='cl'><div class='vertical-center'>$35<br>in<br>2 weeks</div></div><div class='cr'><div class='vertical-center'>$15<br><br>now</div></div><div class='respDivL'><div class='vertical-center'>(E)</div></div><div class='respDivR'><div class='vertical-center'>(I)</div></div></div>","E","$15<br><br>now","$35<br>in<br>2 weeks","1","15","35","2","THEN"
"html-keyboard-response","6","72286","0.0-5.0-3.0","63d71e67dd0fcccd3cc745b0","bdp_td","Sat Mar 25 2023 18:08:31 GMT-0500 (Central Daylight Time)","142176","","null","","","","offerFB","","<div class='trialBorder'><div class='vertical-center'><img style='vertical-align:center; align:center' src=img/fixation3.jpg></div><div class='cl'><div class='vertical-center'><font style='color:orange'>$35<br>in<br>2 weeks</font></div></div><div class='cr'><div class='vertical-center'>$15<br><br>now</div></div><div class='respDivL'><div class='vertical-center'><font style='color:orange'>(E)</font></div></div><div class='respDivR'><div class='vertical-center'>(I)</div></div></div>","null","$15<br><br>now","$35<br>in<br>2 weeks","1","15","35","2",""
"html-keyboard-response","7","72788","0.0-5.0-1.1","63d71e67dd0fcccd3cc745b0","bdp_td","Sat Mar 25 2023 18:08:31 GMT-0500 (Central Daylight Time)","142176","","null","","","","FIX","","<div class='trialBorder'><div class='vertical-center'><img style='vertical-align:center; align:center' src=img/fixation3.jpg></div></div>","null","","","","","","",""
"html-keyboard-response","8","74701","0.0-5.0-2.1","63d71e67dd0fcccd3cc745b0","bdp_td","Sat Mar 25 2023 18:08:31 GMT-0500 (Central Daylight Time)","142176","","1911","","","","offer","","<div class='trialBorder'><div class='vertical-center'><img style='vertical-align:center; align:center' src=img/fixation3.jpg></div><div class='cl'><div class='vertical-center'>$31<br><br>now</div></div><div class='cr'><div class='vertical-center'>$85<br>in<br>1 week</div></div><div class='respDivL'><div class='vertical-center'>(E)</div></div><div class='respDivR'><div class='vertical-center'>(I)</div></div></div>","I","$31<br><br>now","$85<br>in<br>1 week","0","31","85","1","THEN"
"html-keyboard-response","9","74954","0.0-5.0-3.1","63d71e67dd0fcccd3cc745b0","bdp_td","Sat Mar 25 2023 18:08:31 GMT-0500 (Central Daylight Time)","142176","","null","","","","offerFB","","<div class='trialBorder'><div class='vertical-center'><img style='vertical-align:center; align:center' src=img/fixation3.jpg></div><div class='cl'><div class='vertical-center'>$31<br><br>now</div></div><div class='cr'><div class='vertical-center'><font style='color:orange'>$85<br>in<br>1 week</font></div></div><div class='respDivL'><div class='vertical-center'>(E)</div></div><div class='respDivR'><div class='vertical-center'><font style='color:orange'>(I)</font></div></div></div>","null","$31<br><br>now","$85<br>in<br>1 week","0","31","85","1",""
"html-keyboard-response","10","75457","0.0-5.0-1.2","63d71e67dd0fcccd3cc745b0","bdp_td","Sat Mar 25 2023 18:08:31 GMT-0500 (Central Daylight Time)","142176","","null","","","","FIX","","<div class='trialBorder'><div class='vertical-center'><img style='vertical-align:center; align:center' src=img/fixation3.jpg></div></div>","null","","","","","","",""
"html-keyboard-response","11","77798","0.0-5.0-2.2","63d71e67dd0fcccd3cc745b0","bdp_td","Sat Mar 25 2023 18:08:31 GMT-0500 (Central Daylight Time)","142176","","2339","","","","offer","","<div class='trialBorder'><div class='vertical-center'><img style='vertical-align:center; align:center' src=img/fixation3.jpg></div><div class='cl'><div class='vertical-center'>$25<br>in<br>3 weeks</div></div><div class='cr'><div class='vertical-center'>$14<br><br>now</div></div><div class='respDivL'><div class='vertical-center'>(E)</div></div><div class='respDivR'><div class='vertical-center'>(I)</div></div></div>","E","$14<br><br>now","$25<br>in<br>3 weeks","1","14","25","3","THEN"
"html-keyboard-response","12","78052","0.0-5.0-3.2","63d71e67dd0fcccd3cc745b0","bdp_td","Sat Mar 25 2023 18:08:31 GMT-0500 (Central Daylight Time)","142176","","null","","","","offerFB","","<div class='trialBorder'><div class='vertical-center'><img style='vertical-align:center; align:center' src=img/fixation3.jpg></div><div class='cl'><div class='vertical-center'><font style='color:orange'>$25<br>in<br>3 weeks</font></div></div><div class='cr'><div class='vertical-center'>$14<br><br>now</div></div><div class='respDivL'><div class='vertical-center'><font style='color:orange'>(E)</font></div></div><div class='respDivR'><div class='vertical-center'>(I)</div></div></div>","null","$14<br><br>now","$25<br>in<br>3 weeks","1","14","25","3",""
"html-keyboard-response","13","78555","0.0-5.0-1.3","63d71e67dd0fcccd3cc745b0","bdp_td","Sat Mar 25 2023 18:08:31 GMT-0500 (Central Daylight Time)","142176","","null","","","","FIX","","<div class='trialBorder'><div class='vertical-center'><img style='vertical-align:center; align:center' src=img/fixation3.jpg></div></div>","null","","","","","","",""
"html-keyboard-response","14","79965","0.0-5.0-2.3","63d71e67dd0fcccd3cc745b0","bdp_td","Sat Mar 25 2023 18:08:31 GMT-0500 (Central Daylight Time)","142176","","1407","","","","offer","","<div class='trialBorder'><div class='vertical-center'><img style='vertical-align:center; align:center' src=img/fixation3.jpg></div><div class='cl'><div class='vertical-center'>$11<br><br>now</div></div><div class='cr'><div class='vertical-center'>$30<br>in<br>2 weeks</div></div><div class='respDivL'><div class='vertical-center'>(E)</div></div><div class='respDivR'><div class='vertical-center'>(I)</div></div></div>","I","$11<br><br>now","$30<br>in<br>2 weeks","0","11","30","2","THEN"
"html-keyboard-response","15","80219","0.0-5.0-3.3","63d71e67dd0fcccd3cc745b0","bdp_td","Sat Mar 25 2023 18:08:31 GMT-0500 (Central Daylight Time)","142176","","null","","","","offerFB","","<div class='trialBorder'><div class='vertical-center'><img style='vertical-align:center; align:center' src=img/fixation3.jpg></div><div class='cl'><div class='vertical-center'>$11<br><br>now</div></div><div class='cr'><div class='vertical-center'><font style='color:orange'>$30<br>in<br>2 weeks</font></div></div><div class='respDivL'><div class='vertical-center'>(E)</div></div><div class='respDivR'><div class='vertical-center'><font style='color:orange'>(I)</font></div></div></div>","null","$11<br><br>now","$30<br>in<br>2 weeks","0","11","30","2",""
"html-keyboard-response","16","80721","0.0-5.0-1.4","63d71e67dd0fcccd3cc745b0","bdp_td","Sat Mar 25 2023 18:08:31 GMT-0500 (Central Daylight Time)","142176","","null","","","","FIX","","<div class='trialBorder'><div class='vertical-center'><img style='vertical-align:center; align:center' src=img/fixation3.jpg></div></div>","null","","","","","","",""
"html-keyboard-response","17","82291","0.0-5.0-2.4","63d71e67dd0fcccd3cc745b0","bdp_td","Sat Mar 25 2023 18:08:31 GMT-0500 (Central Daylight Time)","142176","","1566","","","","offer","","<div class='trialBorder'><div class='vertical-center'><img style='vertical-align:center; align:center' src=img/fixation3.jpg></div><div class='cl'><div class='vertical-center'>$40<br><br>now</div></div><div class='cr'><div class='vertical-center'>$55<br>in<br>6 weeks</div></div><div class='respDivL'><div class='vertical-center'>(E)</div></div><div class='respDivR'><div class='vertical-center'>(I)</div></div></div>","I","$40<br><br>now","$55<br>in<br>6 weeks","0","40","55","6","THEN"
"html-keyboard-response","18","82543","0.0-5.0-3.4","63d71e67dd0fcccd3cc745b0","bdp_td","Sat Mar 25 2023 18:08:31 GMT-0500 (Central Daylight Time)","142176","","null","","","","offerFB","","<div class='trialBorder'><div class='vertical-center'><img style='vertical-align:center; align:center' src=img/fixation3.jpg></div><div class='cl'><div class='vertical-center'>$40<br><br>now</div></div><div class='cr'><div class='vertical-center'><font style='color:orange'>$55<br>in<br>6 weeks</font></div></div><div class='respDivL'><div class='vertical-center'>(E)</div></div><div class='respDivR'><div class='vertical-center'><font style='color:orange'>(I)</font></div></div></div>","null","$40<br><br>now","$55<br>in<br>6 weeks","0","40","55","6",""
"html-keyboard-response","19","83046","0.0-5.0-1.5","63d71e67dd0fcccd3cc745b0","bdp_td","Sat Mar 25 2023 18:08:31 GMT-0500 (Central Daylight Time)","142176","","null","","","","FIX","","<div class='trialBorder'><div class='vertical-center'><img style='vertical-align:center; align:center' src=img/fixation3.jpg></div></div>","null","","","","","","",""
"html-keyboard-response","20","84800","0.0-5.0-2.5","63d71e67dd0fcccd3cc745b0","bdp_td","Sat Mar 25 2023 18:08:31 GMT-0500 (Central Daylight Time)","142176","","1752","","","","offer","","<div class='trialBorder'><div class='vertical-center'><img style='vertical-align:center; align:center' src=img/fixation3.jpg></div><div class='cl'><div class='vertical-center'>$50<br>in<br>3 weeks</div></div><div class='cr'><div class='vertical-center'>$27<br><br>now</div></div><div class='respDivL'><div class='vertical-center'>(E)</div></div><div class='respDivR'><div class='vertical-center'>(I)</div></div></div>","E","$27<br><br>now","$50<br>in<br>3 weeks","1","27","50","3","THEN"
"html-keyboard-response","21","85053","0.0-5.0-3.5","63d71e67dd0fcccd3cc745b0","bdp_td","Sat Mar 25 2023 18:08:31 GMT-0500 (Central Daylight Time)","142176","","null","","","","offerFB","","<div class='trialBorder'><div class='vertical-center'><img style='vertical-align:center; align:center' src=img/fixation3.jpg></div><div class='cl'><div class='vertical-center'><font style='color:orange'>$50<br>in<br>3 weeks</font></div></div><div class='cr'><div class='vertical-center'>$27<br><br>now</div></div><div class='respDivL'><div class='vertical-center'><font style='color:orange'>(E)</font></div></div><div class='respDivR'><div class='vertical-center'>(I)</div></div></div>","null","$27<br><br>now","$50<br>in<br>3 weeks","1","27","50","3",""
"html-keyboard-response","22","85556","0.0-5.0-1.6","63d71e67dd0fcccd3cc745b0","bdp_td","Sat Mar 25 2023 18:08:31 GMT-0500 (Central Daylight Time)","142176","","null","","","","FIX","","<div class='trialBorder'><div class='vertical-center'><img style='vertical-align:center; align:center' src=img/fixation3.jpg></div></div>","null","","","","","","",""
"html-keyboard-response","23","87306","0.0-5.0-2.6","63d71e67dd0fcccd3cc745b0","bdp_td","Sat Mar 25 2023 18:08:31 GMT-0500 (Central Daylight Time)","142176","","1748","","","","offer","","<div class='trialBorder'><div class='vertical-center'><img style='vertical-align:center; align:center' src=img/fixation3.jpg></div><div class='cl'><div class='vertical-center'>$60<br>in<br>3 weeks</div></div><div class='cr'><div class='vertical-center'>$25<br><br>now</div></div><div class='respDivL'><div class='vertical-center'>(E)</div></div><div class='respDivR'><div class='vertical-center'>(I)</div></div></div>","E","$25<br><br>now","$60<br>in<br>3 weeks","1","25","60","3","THEN"
"html-keyboard-response","24","87558","0.0-5.0-3.6","63d71e67dd0fcccd3cc745b0","bdp_td","Sat Mar 25 2023 18:08:31 GMT-0500 (Central Daylight Time)","142176","","null","","","","offerFB","","<div class='trialBorder'><div class='vertical-center'><img style='vertical-align:center; align:center' src=img/fixation3.jpg></div><div class='cl'><div class='vertical-center'><font style='color:orange'>$60<br>in<br>3 weeks</font></div></div><div class='cr'><div class='vertical-center'>$25<br><br>now</div></div><div class='respDivL'><div class='vertical-center'><font style='color:orange'>(E)</font></div></div><div class='respDivR'><div class='vertical-center'>(I)</div></div></div>","null","$25<br><br>now","$60<br>in<br>3 weeks","1","25","60","3",""
"html-keyboard-response","25","88061","0.0-5.0-1.7","63d71e67dd0fcccd3cc745b0","bdp_td","Sat Mar 25 2023 18:08:31 GMT-0500 (Central Daylight Time)","142176","","null","","","","FIX","","<div class='trialBorder'><div class='vertical-center'><img style='vertical-align:center; align:center' src=img/fixation3.jpg></div></div>","null","","","","","","",""
"html-keyboard-response","26","89284","0.0-5.0-2.7","63d71e67dd0fcccd3cc745b0","bdp_td","Sat Mar 25 2023 18:08:31 GMT-0500 (Central Daylight Time)","142176","","1222","","","","offer","","<div class='trialBorder'><div class='vertical-center'><img style='vertical-align:center; align:center' src=img/fixation3.jpg></div><div class='cl'><div class='vertical-center'>$49<br><br>now</div></div><div class='cr'><div class='vertical-center'>$60<br>in<br>6 weeks</div></div><div class='respDivL'><div class='vertical-center'>(E)</div></div><div class='respDivR'><div class='vertical-center'>(I)</div></div></div>","I","$49<br><br>now","$60<br>in<br>6 weeks","0","49","60","6","THEN"
"html-keyboard-response","27","89537","0.0-5.0-3.7","63d71e67dd0fcccd3cc745b0","bdp_td","Sat Mar 25 2023 18:08:31 GMT-0500 (Central Daylight Time)","142176","","null","","","","offerFB","","<div class='trialBorder'><div class='vertical-center'><img style='vertical-align:center; align:center' src=img/fixation3.jpg></div><div class='cl'><div class='vertical-center'>$49<br><br>now</div></div><div class='cr'><div class='vertical-center'><font style='color:orange'>$60<br>in<br>6 weeks</font></div></div><div class='respDivL'><div class='vertical-center'>(E)</div></div><div class='respDivR'><div class='vertical-center'><font style='color:orange'>(I)</font></div></div></div>","null","$49<br><br>now","$60<br>in<br>6 weeks","0","49","60","6",""
"html-keyboard-response","28","90040","0.0-5.0-1.8","63d71e67dd0fcccd3cc745b0","bdp_td","Sat Mar 25 2023 18:08:31 GMT-0500 (Central Daylight Time)","142176","","null","","","","FIX","","<div class='trialBorder'><div class='vertical-center'><img style='vertical-align:center; align:center' src=img/fixation3.jpg></div></div>","null","","","","","","",""
"html-keyboard-response","29","91243","0.0-5.0-2.8","63d71e67dd0fcccd3cc745b0","bdp_td","Sat Mar 25 2023 18:08:31 GMT-0500 (Central Daylight Time)","142176","","1201","","","","offer","","<div class='trialBorder'><div class='vertical-center'><img style='vertical-align:center; align:center' src=img/fixation3.jpg></div><div class='cl'><div class='vertical-center'>$34<br><br>now</div></div><div class='cr'><div class='vertical-center'>$50<br>in<br>6 weeks</div></div><div class='respDivL'><div class='vertical-center'>(E)</div></div><div class='respDivR'><div class='vertical-center'>(I)</div></div></div>","I","$34<br><br>now","$50<br>in<br>6 weeks","0","34","50","6","THEN"
"html-keyboard-response","30","91496","0.0-5.0-3.8","63d71e67dd0fcccd3cc745b0","bdp_td","Sat Mar 25 2023 18:08:31 GMT-0500 (Central Daylight Time)","142176","","null","","","","offerFB","","<div class='trialBorder'><div class='vertical-center'><img style='vertical-align:center; align:center' src=img/fixation3.jpg></div><div class='cl'><div class='vertical-center'>$34<br><br>now</div></div><div class='cr'><div class='vertical-center'><font style='color:orange'>$50<br>in<br>6 weeks</font></div></div><div class='respDivL'><div class='vertical-center'>(E)</div></div><div class='respDivR'><div class='vertical-center'><font style='color:orange'>(I)</font></div></div></div>","null","$34<br><br>now","$50<br>in<br>6 weeks","0","34","50","6",""
"html-keyboard-response","31","91999","0.0-5.0-1.9","63d71e67dd0fcccd3cc745b0","bdp_td","Sat Mar 25 2023 18:08:31 GMT-0500 (Central Daylight Time)","142176","","null","","","","FIX","","<div class='trialBorder'><div class='vertical-center'><img style='vertical-align:center; align:center' src=img/fixation3.jpg></div></div>","null","","","","","","",""
"html-keyboard-response","32","93606","0.0-5.0-2.9","63d71e67dd0fcccd3cc745b0","bdp_td","Sat Mar 25 2023 18:08:31 GMT-0500 (Central Daylight Time)","142176","","1605","","","","offer","","<div class='trialBorder'><div class='vertical-center'><img style='vertical-align:center; align:center' src=img/fixation3.jpg></div><div class='cl'><div class='vertical-center'>$75<br>in<br>3 weeks</div></div><div class='cr'><div class='vertical-center'>$41<br><br>now</div></div><div class='respDivL'><div class='vertical-center'>(E)</div></div><div class='respDivR'><div class='vertical-center'>(I)</div></div></div>","E","$41<br><br>now","$75<br>in<br>3 weeks","1","41","75","3","THEN"
"html-keyboard-response","33","93859","0.0-5.0-3.9","63d71e67dd0fcccd3cc745b0","bdp_td","Sat Mar 25 2023 18:08:31 GMT-0500 (Central Daylight Time)","142176","","null","","","","offerFB","","<div class='trialBorder'><div class='vertical-center'><img style='vertical-align:center; align:center' src=img/fixation3.jpg></div><div class='cl'><div class='vertical-center'><font style='color:orange'>$75<br>in<br>3 weeks</font></div></div><div class='cr'><div class='vertical-center'>$41<br><br>now</div></div><div class='respDivL'><div class='vertical-center'><font style='color:orange'>(E)</font></div></div><div class='respDivR'><div class='vertical-center'>(I)</div></div></div>","null","$41<br><br>now","$75<br>in<br>3 weeks","1","41","75","3",""
"html-keyboard-response","34","94361","0.0-5.0-1.10","63d71e67dd0fcccd3cc745b0","bdp_td","Sat Mar 25 2023 18:08:31 GMT-0500 (Central Daylight Time)","142176","","null","","","","FIX","","<div class='trialBorder'><div class='vertical-center'><img style='vertical-align:center; align:center' src=img/fixation3.jpg></div></div>","null","","","","","","",""
"html-keyboard-response","35","95813","0.0-5.0-2.10","63d71e67dd0fcccd3cc745b0","bdp_td","Sat Mar 25 2023 18:08:31 GMT-0500 (Central Daylight Time)","142176","","1449","","","","offer","","<div class='trialBorder'><div class='vertical-center'><img style='vertical-align:center; align:center' src=img/fixation3.jpg></div><div class='cl'><div class='vertical-center'>$60<br>in<br>12 weeks</div></div><div class='cr'><div class='vertical-center'>$54<br><br>now</div></div><div class='respDivL'><div class='vertical-center'>(E)</div></div><div class='respDivR'><div class='vertical-center'>(I)</div></div></div>","E","$54<br><br>now","$60<br>in<br>12 weeks","1","54","60","12","THEN"
"html-keyboard-response","36","96067","0.0-5.0-3.10","63d71e67dd0fcccd3cc745b0","bdp_td","Sat Mar 25 2023 18:08:31 GMT-0500 (Central Daylight Time)","142176","","null","","","","offerFB","","<div class='trialBorder'><div class='vertical-center'><img style='vertical-align:center; align:center' src=img/fixation3.jpg></div><div class='cl'><div class='vertical-center'><font style='color:orange'>$60<br>in<br>12 weeks</font></div></div><div class='cr'><div class='vertical-center'>$54<br><br>now</div></div><div class='respDivL'><div class='vertical-center'><font style='color:orange'>(E)</font></div></div><div class='respDivR'><div class='vertical-center'>(I)</div></div></div>","null","$54<br><br>now","$60<br>in<br>12 weeks","1","54","60","12",""
"html-keyboard-response","37","96569","0.0-5.0-1.11","63d71e67dd0fcccd3cc745b0","bdp_td","Sat Mar 25 2023 18:08:31 GMT-0500 (Central Daylight Time)","142176","","null","","","","FIX","","<div class='trialBorder'><div class='vertical-center'><img style='vertical-align:center; align:center' src=img/fixation3.jpg></div></div>","null","","","","","","",""
"html-keyboard-response","38","99643","0.0-5.0-2.11","63d71e67dd0fcccd3cc745b0","bdp_td","Sat Mar 25 2023 18:08:31 GMT-0500 (Central Daylight Time)","142176","","3071","","","","offer","","<div class='trialBorder'><div class='vertical-center'><img style='vertical-align:center; align:center' src=img/fixation3.jpg></div><div class='cl'><div class='vertical-center'>$67<br><br>now</div></div><div class='cr'><div class='vertical-center'>$75<br>in<br>12 weeks</div></div><div class='respDivL'><div class='vertical-center'>(E)</div></div><div class='respDivR'><div class='vertical-center'>(I)</div></div></div>","I","$67<br><br>now","$75<br>in<br>12 weeks","0","67","75","12","THEN"
"html-keyboard-response","39","99899","0.0-5.0-3.11","63d71e67dd0fcccd3cc745b0","bdp_td","Sat Mar 25 2023 18:08:31 GMT-0500 (Central Daylight Time)","142176","","null","","","","offerFB","","<div class='trialBorder'><div class='vertical-center'><img style='vertical-align:center; align:center' src=img/fixation3.jpg></div><div class='cl'><div class='vertical-center'>$67<br><br>now</div></div><div class='cr'><div class='vertical-center'><font style='color:orange'>$75<br>in<br>12 weeks</font></div></div><div class='respDivL'><div class='vertical-center'>(E)</div></div><div class='respDivR'><div class='vertical-center'><font style='color:orange'>(I)</font></div></div></div>","null","$67<br><br>now","$75<br>in<br>12 weeks","0","67","75","12",""
"html-keyboard-response","40","100402","0.0-5.0-1.12","63d71e67dd0fcccd3cc745b0","bdp_td","Sat Mar 25 2023 18:08:31 GMT-0500 (Central Daylight Time)","142176","","null","","","","FIX","","<div class='trialBorder'><div class='vertical-center'><img style='vertical-align:center; align:center' src=img/fixation3.jpg></div></div>","null","","","","","","",""
"html-keyboard-response","41","101830","0.0-5.0-2.12","63d71e67dd0fcccd3cc745b0","bdp_td","Sat Mar 25 2023 18:08:31 GMT-0500 (Central Daylight Time)","142176","","1426","","","","offer","","<div class='trialBorder'><div class='vertical-center'><img style='vertical-align:center; align:center' src=img/fixation3.jpg></div><div class='cl'><div class='vertical-center'>$30<br>in<br>6 weeks</div></div><div class='cr'><div class='vertical-center'>$25<br><br>now</div></div><div class='respDivL'><div class='vertical-center'>(E)</div></div><div class='respDivR'><div class='vertical-center'>(I)</div></div></div>","E","$25<br><br>now","$30<br>in<br>6 weeks","1","25","30","6","THEN"
"html-keyboard-response","42","102082","0.0-5.0-3.12","63d71e67dd0fcccd3cc745b0","bdp_td","Sat Mar 25 2023 18:08:31 GMT-0500 (Central Daylight Time)","142176","","null","","","","offerFB","","<div class='trialBorder'><div class='vertical-center'><img style='vertical-align:center; align:center' src=img/fixation3.jpg></div><div class='cl'><div class='vertical-center'><font style='color:orange'>$30<br>in<br>6 weeks</font></div></div><div class='cr'><div class='vertical-center'>$25<br><br>now</div></div><div class='respDivL'><div class='vertical-center'><font style='color:orange'>(E)</font></div></div><div class='respDivR'><div class='vertical-center'>(I)</div></div></div>","null","$25<br><br>now","$30<br>in<br>6 weeks","1","25","30","6",""
"html-keyboard-response","43","102586","0.0-5.0-1.13","63d71e67dd0fcccd3cc745b0","bdp_td","Sat Mar 25 2023 18:08:31 GMT-0500 (Central Daylight Time)","142176","","null","","","","FIX","","<div class='trialBorder'><div class='vertical-center'><img style='vertical-align:center; align:center' src=img/fixation3.jpg></div></div>","null","","","","","","",""
"html-keyboard-response","44","104664","0.0-5.0-2.13","63d71e67dd0fcccd3cc745b0","bdp_td","Sat Mar 25 2023 18:08:31 GMT-0500 (Central Daylight Time)","142176","","2076","","","","offer","","<div class='trialBorder'><div class='vertical-center'><img style='vertical-align:center; align:center' src=img/fixation3.jpg></div><div class='cl'><div class='vertical-center'>$80<br>in<br>12 weeks</div></div><div class='cr'><div class='vertical-center'>$78<br><br>now</div></div><div class='respDivL'><div class='vertical-center'>(E)</div></div><div class='respDivR'><div class='vertical-center'>(I)</div></div></div>","I","$78<br><br>now","$80<br>in<br>12 weeks","1","78","80","12","NOW"
"html-keyboard-response","45","104916","0.0-5.0-3.13","63d71e67dd0fcccd3cc745b0","bdp_td","Sat Mar 25 2023 18:08:31 GMT-0500 (Central Daylight Time)","142176","","null","","","","offerFB","","<div class='trialBorder'><div class='vertical-center'><img style='vertical-align:center; align:center' src=img/fixation3.jpg></div><div class='cl'><div class='vertical-center'>$80<br>in<br>12 weeks</div></div><div class='cr'><div class='vertical-center'><font style='color:orange'>$78<br><br>now</font></div></div><div class='respDivL'><div class='vertical-center'>(E)</div></div><div class='respDivR'><div class='vertical-center'><font style='color:orange'>(I)</font></div></div></div>","null","$78<br><br>now","$80<br>in<br>12 weeks","1","78","80","12",""
"html-keyboard-response","46","105418","0.0-5.0-1.14","63d71e67dd0fcccd3cc745b0","bdp_td","Sat Mar 25 2023 18:08:31 GMT-0500 (Central Daylight Time)","142176","","null","","","","FIX","","<div class='trialBorder'><div class='vertical-center'><img style='vertical-align:center; align:center' src=img/fixation3.jpg></div></div>","null","","","","","","",""
"html-keyboard-response","47","107483","0.0-5.0-2.14","63d71e67dd0fcccd3cc745b0","bdp_td","Sat Mar 25 2023 18:08:31 GMT-0500 (Central Daylight Time)","142176","","2062","","","","offer","","<div class='trialBorder'><div class='vertical-center'><img style='vertical-align:center; align:center' src=img/fixation3.jpg></div><div class='cl'><div class='vertical-center'>$54<br><br>now</div></div><div class='cr'><div class='vertical-center'>$80<br>in<br>3 weeks</div></div><div class='respDivL'><div class='vertical-center'>(E)</div></div><div class='respDivR'><div class='vertical-center'>(I)</div></div></div>","I","$54<br><br>now","$80<br>in<br>3 weeks","0","54","80","3","THEN"
"html-keyboard-response","48","107737","0.0-5.0-3.14","63d71e67dd0fcccd3cc745b0","bdp_td","Sat Mar 25 2023 18:08:31 GMT-0500 (Central Daylight Time)","142176","","null","","","","offerFB","","<div class='trialBorder'><div class='vertical-center'><img style='vertical-align:center; align:center' src=img/fixation3.jpg></div><div class='cl'><div class='vertical-center'>$54<br><br>now</div></div><div class='cr'><div class='vertical-center'><font style='color:orange'>$80<br>in<br>3 weeks</font></div></div><div class='respDivL'><div class='vertical-center'>(E)</div></div><div class='respDivR'><div class='vertical-center'><font style='color:orange'>(I)</font></div></div></div>","null","$54<br><br>now","$80<br>in<br>3 weeks","0","54","80","3",""
"html-keyboard-response","49","108240","0.0-5.0-1.15","63d71e67dd0fcccd3cc745b0","bdp_td","Sat Mar 25 2023 18:08:31 GMT-0500 (Central Daylight Time)","142176","","null","","","","FIX","","<div class='trialBorder'><div class='vertical-center'><img style='vertical-align:center; align:center' src=img/fixation3.jpg></div></div>","null","","","","","","",""
"html-keyboard-response","50","109676","0.0-5.0-2.15","63d71e67dd0fcccd3cc745b0","bdp_td","Sat Mar 25 2023 18:08:31 GMT-0500 (Central Daylight Time)","142176","","1434","","","","offer","","<div class='trialBorder'><div class='vertical-center'><img style='vertical-align:center; align:center' src=img/fixation3.jpg></div><div class='cl'><div class='vertical-center'>$80<br>in<br>2 weeks</div></div><div class='cr'><div class='vertical-center'>$33<br><br>now</div></div><div class='respDivL'><div class='vertical-center'>(E)</div></div><div class='respDivR'><div class='vertical-center'>(I)</div></div></div>","E","$33<br><br>now","$80<br>in<br>2 weeks","1","33","80","2","THEN"
"html-keyboard-response","51","109929","0.0-5.0-3.15","63d71e67dd0fcccd3cc745b0","bdp_td","Sat Mar 25 2023 18:08:31 GMT-0500 (Central Daylight Time)","142176","","null","","","","offerFB","","<div class='trialBorder'><div class='vertical-center'><img style='vertical-align:center; align:center' src=img/fixation3.jpg></div><div class='cl'><div class='vertical-center'><font style='color:orange'>$80<br>in<br>2 weeks</font></div></div><div class='cr'><div class='vertical-center'>$33<br><br>now</div></div><div class='respDivL'><div class='vertical-center'><font style='color:orange'>(E)</font></div></div><div class='respDivR'><div class='vertical-center'>(I)</div></div></div>","null","$33<br><br>now","$80<br>in<br>2 weeks","1","33","80","2",""
"html-keyboard-response","52","110432","0.0-5.0-1.16","63d71e67dd0fcccd3cc745b0","bdp_td","Sat Mar 25 2023 18:08:31 GMT-0500 (Central Daylight Time)","142176","","null","","","","FIX","","<div class='trialBorder'><div class='vertical-center'><img style='vertical-align:center; align:center' src=img/fixation3.jpg></div></div>","null","","","","","","",""
"html-keyboard-response","53","112338","0.0-5.0-2.16","63d71e67dd0fcccd3cc745b0","bdp_td","Sat Mar 25 2023 18:08:31 GMT-0500 (Central Daylight Time)","142176","","1905","","","","offer","","<div class='trialBorder'><div class='vertical-center'><img style='vertical-align:center; align:center' src=img/fixation3.jpg></div><div class='cl'><div class='vertical-center'>$47<br><br>now</div></div><div class='cr'><div class='vertical-center'>$50<br>in<br>12 weeks</div></div><div class='respDivL'><div class='vertical-center'>(E)</div></div><div class='respDivR'><div class='vertical-center'>(I)</div></div></div>","E","$47<br><br>now","$50<br>in<br>12 weeks","0","47","50","12","NOW"
"html-keyboard-response","54","112591","0.0-5.0-3.16","63d71e67dd0fcccd3cc745b0","bdp_td","Sat Mar 25 2023 18:08:31 GMT-0500 (Central Daylight Time)","142176","","null","","","","offerFB","","<div class='trialBorder'><div class='vertical-center'><img style='vertical-align:center; align:center' src=img/fixation3.jpg></div><div class='cl'><div class='vertical-center'><font style='color:orange'>$47<br><br>now</font></div></div><div class='cr'><div class='vertical-center'>$50<br>in<br>12 weeks</div></div><div class='respDivL'><div class='vertical-center'><font style='color:orange'>(E)</font></div></div><div class='respDivR'><div class='vertical-center'>(I)</div></div></div>","null","$47<br><br>now","$50<br>in<br>12 weeks","0","47","50","12",""
"html-keyboard-response","55","113093","0.0-5.0-1.17","63d71e67dd0fcccd3cc745b0","bdp_td","Sat Mar 25 2023 18:08:31 GMT-0500 (Central Daylight Time)","142176","","null","","","","FIX","","<div class='trialBorder'><div class='vertical-center'><img style='vertical-align:center; align:center' src=img/fixation3.jpg></div></div>","null","","","","","","",""
"html-keyboard-response","56","114910","0.0-5.0-2.17","63d71e67dd0fcccd3cc745b0","bdp_td","Sat Mar 25 2023 18:08:31 GMT-0500 (Central Daylight Time)","142176","","1815","","","","offer","","<div class='trialBorder'><div class='vertical-center'><img style='vertical-align:center; align:center' src=img/fixation3.jpg></div><div class='cl'><div class='vertical-center'>$80<br><br>now</div></div><div class='cr'><div class='vertical-center'>$85<br>in<br>12 weeks</div></div><div class='respDivL'><div class='vertical-center'>(E)</div></div><div class='respDivR'><div class='vertical-center'>(I)</div></div></div>","E","$80<br><br>now","$85<br>in<br>12 weeks","0","80","85","12","NOW"
"html-keyboard-response","57","115164","0.0-5.0-3.17","63d71e67dd0fcccd3cc745b0","bdp_td","Sat Mar 25 2023 18:08:31 GMT-0500 (Central Daylight Time)","142176","","null","","","","offerFB","","<div class='trialBorder'><div class='vertical-center'><img style='vertical-align:center; align:center' src=img/fixation3.jpg></div><div class='cl'><div class='vertical-center'><font style='color:orange'>$80<br><br>now</font></div></div><div class='cr'><div class='vertical-center'>$85<br>in<br>12 weeks</div></div><div class='respDivL'><div class='vertical-center'><font style='color:orange'>(E)</font></div></div><div class='respDivR'><div class='vertical-center'>(I)</div></div></div>","null","$80<br><br>now","$85<br>in<br>12 weeks","0","80","85","12",""
"html-keyboard-response","58","115666","0.0-5.0-1.18","63d71e67dd0fcccd3cc745b0","bdp_td","Sat Mar 25 2023 18:08:31 GMT-0500 (Central Daylight Time)","142176","","null","","","","FIX","","<div class='trialBorder'><div class='vertical-center'><img style='vertical-align:center; align:center' src=img/fixation3.jpg></div></div>","null","","","","","","",""
"html-keyboard-response","59","118076","0.0-5.0-2.18","63d71e67dd0fcccd3cc745b0","bdp_td","Sat Mar 25 2023 18:08:31 GMT-0500 (Central Daylight Time)","142176","","2409","","","","offer","","<div class='trialBorder'><div class='vertical-center'><img style='vertical-align:center; align:center' src=img/fixation3.jpg></div><div class='cl'><div class='vertical-center'>$85<br>in<br>6 weeks</div></div><div class='cr'><div class='vertical-center'>$69<br><br>now</div></div><div class='respDivL'><div class='vertical-center'>(E)</div></div><div class='respDivR'><div class='vertical-center'>(I)</div></div></div>","E","$69<br><br>now","$85<br>in<br>6 weeks","1","69","85","6","THEN"
"html-keyboard-response","60","118328","0.0-5.0-3.18","63d71e67dd0fcccd3cc745b0","bdp_td","Sat Mar 25 2023 18:08:31 GMT-0500 (Central Daylight Time)","142176","","null","","","","offerFB","","<div class='trialBorder'><div class='vertical-center'><img style='vertical-align:center; align:center' src=img/fixation3.jpg></div><div class='cl'><div class='vertical-center'><font style='color:orange'>$85<br>in<br>6 weeks</font></div></div><div class='cr'><div class='vertical-center'>$69<br><br>now</div></div><div class='respDivL'><div class='vertical-center'><font style='color:orange'>(E)</font></div></div><div class='respDivR'><div class='vertical-center'>(I)</div></div></div>","null","$69<br><br>now","$85<br>in<br>6 weeks","1","69","85","6",""
"html-keyboard-response","61","118830","0.0-5.0-1.19","63d71e67dd0fcccd3cc745b0","bdp_td","Sat Mar 25 2023 18:08:31 GMT-0500 (Central Daylight Time)","142176","","null","","","","FIX","","<div class='trialBorder'><div class='vertical-center'><img style='vertical-align:center; align:center' src=img/fixation3.jpg></div></div>","null","","","","","","",""
"html-keyboard-response","62","120378","0.0-5.0-2.19","63d71e67dd0fcccd3cc745b0","bdp_td","Sat Mar 25 2023 18:08:31 GMT-0500 (Central Daylight Time)","142176","","1545","","","","offer","","<div class='trialBorder'><div class='vertical-center'><img style='vertical-align:center; align:center' src=img/fixation3.jpg></div><div class='cl'><div class='vertical-center'>$55<br><br>now</div></div><div class='cr'><div class='vertical-center'>$75<br>in<br>6 weeks</div></div><div class='respDivL'><div class='vertical-center'>(E)</div></div><div class='respDivR'><div class='vertical-center'>(I)</div></div></div>","I","$55<br><br>now","$75<br>in<br>6 weeks","0","55","75","6","THEN"
"html-keyboard-response","63","120630","0.0-5.0-3.19","63d71e67dd0fcccd3cc745b0","bdp_td","Sat Mar 25 2023 18:08:31 GMT-0500 (Central Daylight Time)","142176","","null","","","","offerFB","","<div class='trialBorder'><div class='vertical-center'><img style='vertical-align:center; align:center' src=img/fixation3.jpg></div><div class='cl'><div class='vertical-center'>$55<br><br>now</div></div><div class='cr'><div class='vertical-center'><font style='color:orange'>$75<br>in<br>6 weeks</font></div></div><div class='respDivL'><div class='vertical-center'>(E)</div></div><div class='respDivR'><div class='vertical-center'><font style='color:orange'>(I)</font></div></div></div>","null","$55<br><br>now","$75<br>in<br>6 weeks","0","55","75","6",""
"html-keyboard-response","64","121133","0.0-5.0-1.20","63d71e67dd0fcccd3cc745b0","bdp_td","Sat Mar 25 2023 18:08:31 GMT-0500 (Central Daylight Time)","142176","","null","","","","FIX","","<div class='trialBorder'><div class='vertical-center'><img style='vertical-align:center; align:center' src=img/fixation3.jpg></div></div>","null","","","","","","",""
"html-keyboard-response","65","122928","0.0-5.0-2.20","63d71e67dd0fcccd3cc745b0","bdp_td","Sat Mar 25 2023 18:08:31 GMT-0500 (Central Daylight Time)","142176","","1793","","","","offer","","<div class='trialBorder'><div class='vertical-center'><img style='vertical-align:center; align:center' src=img/fixation3.jpg></div><div class='cl'><div class='vertical-center'>$55<br>in<br>12 weeks</div></div><div class='cr'><div class='vertical-center'>$54<br><br>now</div></div><div class='respDivL'><div class='vertical-center'>(E)</div></div><div class='respDivR'><div class='vertical-center'>(I)</div></div></div>","I","$54<br><br>now","$55<br>in<br>12 weeks","1","54","55","12","NOW"
"html-keyboard-response","66","123181","0.0-5.0-3.20","63d71e67dd0fcccd3cc745b0","bdp_td","Sat Mar 25 2023 18:08:31 GMT-0500 (Central Daylight Time)","142176","","null","","","","offerFB","","<div class='trialBorder'><div class='vertical-center'><img style='vertical-align:center; align:center' src=img/fixation3.jpg></div><div class='cl'><div class='vertical-center'>$55<br>in<br>12 weeks</div></div><div class='cr'><div class='vertical-center'><font style='color:orange'>$54<br><br>now</font></div></div><div class='respDivL'><div class='vertical-center'>(E)</div></div><div class='respDivR'><div class='vertical-center'><font style='color:orange'>(I)</font></div></div></div>","null","$54<br><br>now","$55<br>in<br>12 weeks","1","54","55","12",""
"html-keyboard-response","67","123683","0.0-5.0-1.21","63d71e67dd0fcccd3cc745b0","bdp_td","Sat Mar 25 2023 18:08:31 GMT-0500 (Central Daylight Time)","142176","","null","","","","FIX","","<div class='trialBorder'><div class='vertical-center'><img style='vertical-align:center; align:center' src=img/fixation3.jpg></div></div>","null","","","","","","",""
"html-keyboard-response","68","125278","0.0-5.0-2.21","63d71e67dd0fcccd3cc745b0","bdp_td","Sat Mar 25 2023 18:08:31 GMT-0500 (Central Daylight Time)","142176","","1593","","","","offer","","<div class='trialBorder'><div class='vertical-center'><img style='vertical-align:center; align:center' src=img/fixation3.jpg></div><div class='cl'><div class='vertical-center'>$20<br><br>now</div></div><div class='cr'><div class='vertical-center'>$55<br>in<br>1 week</div></div><div class='respDivL'><div class='vertical-center'>(E)</div></div><div class='respDivR'><div class='vertical-center'>(I)</div></div></div>","I","$20<br><br>now","$55<br>in<br>1 week","0","20","55","1","THEN"
"html-keyboard-response","69","125531","0.0-5.0-3.21","63d71e67dd0fcccd3cc745b0","bdp_td","Sat Mar 25 2023 18:08:31 GMT-0500 (Central Daylight Time)","142176","","null","","","","offerFB","","<div class='trialBorder'><div class='vertical-center'><img style='vertical-align:center; align:center' src=img/fixation3.jpg></div><div class='cl'><div class='vertical-center'>$20<br><br>now</div></div><div class='cr'><div class='vertical-center'><font style='color:orange'>$55<br>in<br>1 week</font></div></div><div class='respDivL'><div class='vertical-center'>(E)</div></div><div class='respDivR'><div class='vertical-center'><font style='color:orange'>(I)</font></div></div></div>","null","$20<br><br>now","$55<br>in<br>1 week","0","20","55","1",""
"html-keyboard-response","70","126032","0.0-5.0-1.22","63d71e67dd0fcccd3cc745b0","bdp_td","Sat Mar 25 2023 18:08:31 GMT-0500 (Central Daylight Time)","142176","","null","","","","FIX","","<div class='trialBorder'><div class='vertical-center'><img style='vertical-align:center; align:center' src=img/fixation3.jpg></div></div>","null","","","","","","",""
"html-keyboard-response","71","128562","0.0-5.0-2.22","63d71e67dd0fcccd3cc745b0","bdp_td","Sat Mar 25 2023 18:08:31 GMT-0500 (Central Daylight Time)","142176","","2527","","","","offer","","<div class='trialBorder'><div class='vertical-center'><img style='vertical-align:center; align:center' src=img/fixation3.jpg></div><div class='cl'><div class='vertical-center'>$30<br>in<br>12 weeks</div></div><div class='cr'><div class='vertical-center'>$28<br><br>now</div></div><div class='respDivL'><div class='vertical-center'>(E)</div></div><div class='respDivR'><div class='vertical-center'>(I)</div></div></div>","I","$28<br><br>now","$30<br>in<br>12 weeks","1","28","30","12","NOW"
"html-keyboard-response","72","128815","0.0-5.0-3.22","63d71e67dd0fcccd3cc745b0","bdp_td","Sat Mar 25 2023 18:08:31 GMT-0500 (Central Daylight Time)","142176","","null","","","","offerFB","","<div class='trialBorder'><div class='vertical-center'><img style='vertical-align:center; align:center' src=img/fixation3.jpg></div><div class='cl'><div class='vertical-center'>$30<br>in<br>12 weeks</div></div><div class='cr'><div class='vertical-center'><font style='color:orange'>$28<br><br>now</font></div></div><div class='respDivL'><div class='vertical-center'>(E)</div></div><div class='respDivR'><div class='vertical-center'><font style='color:orange'>(I)</font></div></div></div>","null","$28<br><br>now","$30<br>in<br>12 weeks","1","28","30","12",""
"html-keyboard-response","73","129318","0.0-5.0-1.23","63d71e67dd0fcccd3cc745b0","bdp_td","Sat Mar 25 2023 18:08:31 GMT-0500 (Central Daylight Time)","142176","","null","","","","FIX","","<div class='trialBorder'><div class='vertical-center'><img style='vertical-align:center; align:center' src=img/fixation3.jpg></div></div>","null","","","","","","",""
"html-keyboard-response","74","131882","0.0-5.0-2.23","63d71e67dd0fcccd3cc745b0","bdp_td","Sat Mar 25 2023 18:08:31 GMT-0500 (Central Daylight Time)","142176","","2562","","","","offer","","<div class='trialBorder'><div class='vertical-center'><img style='vertical-align:center; align:center' src=img/fixation3.jpg></div><div class='cl'><div class='vertical-center'>$22<br><br>now</div></div><div class='cr'><div class='vertical-center'>$25<br>in<br>12 weeks</div></div><div class='respDivL'><div class='vertical-center'>(E)</div></div><div class='respDivR'><div class='vertical-center'>(I)</div></div></div>","E","$22<br><br>now","$25<br>in<br>12 weeks","0","22","25","12","NOW"
"html-keyboard-response","75","132137","0.0-5.0-3.23","63d71e67dd0fcccd3cc745b0","bdp_td","Sat Mar 25 2023 18:08:31 GMT-0500 (Central Daylight Time)","142176","","null","","","","offerFB","","<div class='trialBorder'><div class='vertical-center'><img style='vertical-align:center; align:center' src=img/fixation3.jpg></div><div class='cl'><div class='vertical-center'><font style='color:orange'>$22<br><br>now</font></div></div><div class='cr'><div class='vertical-center'>$25<br>in<br>12 weeks</div></div><div class='respDivL'><div class='vertical-center'><font style='color:orange'>(E)</font></div></div><div class='respDivR'><div class='vertical-center'>(I)</div></div></div>","null","$22<br><br>now","$25<br>in<br>12 weeks","0","22","25","12",""
"html-keyboard-response","76","132639","0.0-5.0-1.24","63d71e67dd0fcccd3cc745b0","bdp_td","Sat Mar 25 2023 18:08:31 GMT-0500 (Central Daylight Time)","142176","","null","","","","FIX","","<div class='trialBorder'><div class='vertical-center'><img style='vertical-align:center; align:center' src=img/fixation3.jpg></div></div>","null","","","","","","",""
"html-keyboard-response","77","134346","0.0-5.0-2.24","63d71e67dd0fcccd3cc745b0","bdp_td","Sat Mar 25 2023 18:08:31 GMT-0500 (Central Daylight Time)","142176","","1705","","","","offer","","<div class='trialBorder'><div class='vertical-center'><img style='vertical-align:center; align:center' src=img/fixation3.jpg></div><div class='cl'><div class='vertical-center'>$35<br>in<br>12 weeks</div></div><div class='cr'><div class='vertical-center'>$34<br><br>now</div></div><div class='respDivL'><div class='vertical-center'>(E)</div></div><div class='respDivR'><div class='vertical-center'>(I)</div></div></div>","I","$34<br><br>now","$35<br>in<br>12 weeks","1","34","35","12","NOW"
"html-keyboard-response","78","134599","0.0-5.0-3.24","63d71e67dd0fcccd3cc745b0","bdp_td","Sat Mar 25 2023 18:08:31 GMT-0500 (Central Daylight Time)","142176","","null","","","","offerFB","","<div class='trialBorder'><div class='vertical-center'><img style='vertical-align:center; align:center' src=img/fixation3.jpg></div><div class='cl'><div class='vertical-center'>$35<br>in<br>12 weeks</div></div><div class='cr'><div class='vertical-center'><font style='color:orange'>$34<br><br>now</font></div></div><div class='respDivL'><div class='vertical-center'>(E)</div></div><div class='respDivR'><div class='vertical-center'><font style='color:orange'>(I)</font></div></div></div>","null","$34<br><br>now","$35<br>in<br>12 weeks","1","34","35","12",""
"html-keyboard-response","79","135101","0.0-5.0-1.25","63d71e67dd0fcccd3cc745b0","bdp_td","Sat Mar 25 2023 18:08:31 GMT-0500 (Central Daylight Time)","142176","","null","","","","FIX","","<div class='trialBorder'><div class='vertical-center'><img style='vertical-align:center; align:center' src=img/fixation3.jpg></div></div>","null","","","","","","",""
"html-keyboard-response","80","137362","0.0-5.0-2.25","63d71e67dd0fcccd3cc745b0","bdp_td","Sat Mar 25 2023 18:08:31 GMT-0500 (Central Daylight Time)","142176","","2259","","","","offer","","<div class='trialBorder'><div class='vertical-center'><img style='vertical-align:center; align:center' src=img/fixation3.jpg></div><div class='cl'><div class='vertical-center'>$35<br>in<br>3 weeks</div></div><div class='cr'><div class='vertical-center'>$24<br><br>now</div></div><div class='respDivL'><div class='vertical-center'>(E)</div></div><div class='respDivR'><div class='vertical-center'>(I)</div></div></div>","E","$24<br><br>now","$35<br>in<br>3 weeks","1","24","35","3","THEN"
"html-keyboard-response","81","137615","0.0-5.0-3.25","63d71e67dd0fcccd3cc745b0","bdp_td","Sat Mar 25 2023 18:08:31 GMT-0500 (Central Daylight Time)","142176","","null","","","","offerFB","","<div class='trialBorder'><div class='vertical-center'><img style='vertical-align:center; align:center' src=img/fixation3.jpg></div><div class='cl'><div class='vertical-center'><font style='color:orange'>$35<br>in<br>3 weeks</font></div></div><div class='cr'><div class='vertical-center'>$24<br><br>now</div></div><div class='respDivL'><div class='vertical-center'><font style='color:orange'>(E)</font></div></div><div class='respDivR'><div class='vertical-center'>(I)</div></div></div>","null","$24<br><br>now","$35<br>in<br>3 weeks","1","24","35","3",""
"html-keyboard-response","82","138117","0.0-5.0-1.26","63d71e67dd0fcccd3cc745b0","bdp_td","Sat Mar 25 2023 18:08:31 GMT-0500 (Central Daylight Time)","142176","","null","","","","FIX","","<div class='trialBorder'><div class='vertical-center'><img style='vertical-align:center; align:center' src=img/fixation3.jpg></div></div>","null","","","","","","",""
"html-keyboard-response","83","140920","0.0-5.0-2.26","63d71e67dd0fcccd3cc745b0","bdp_td","Sat Mar 25 2023 18:08:31 GMT-0500 (Central Daylight Time)","142176","","2801","","","","offer","","<div class='trialBorder'><div class='vertical-center'><img style='vertical-align:center; align:center' src=img/fixation3.jpg></div><div class='cl'><div class='vertical-center'>$19<br><br>now</div></div><div class='cr'><div class='vertical-center'>$25<br>in<br>6 weeks</div></div><div class='respDivL'><div class='vertical-center'>(E)</div></div><div class='respDivR'><div class='vertical-center'>(I)</div></div></div>","E","$19<br><br>now","$25<br>in<br>6 weeks","0","19","25","6","NOW"
"html-keyboard-response","84","141173","0.0-5.0-3.26","63d71e67dd0fcccd3cc745b0","bdp_td","Sat Mar 25 2023 18:08:31 GMT-0500 (Central Daylight Time)","142176","","null","","","","offerFB","","<div class='trialBorder'><div class='vertical-center'><img style='vertical-align:center; align:center' src=img/fixation3.jpg></div><div class='cl'><div class='vertical-center'><font style='color:orange'>$19<br><br>now</font></div></div><div class='cr'><div class='vertical-center'>$25<br>in<br>6 weeks</div></div><div class='respDivL'><div class='vertical-center'><font style='color:orange'>(E)</font></div></div><div class='respDivR'><div class='vertical-center'>(I)</div></div></div>","null","$19<br><br>now","$25<br>in<br>6 weeks","0","19","25","6",""
"","","","","63d71e67dd0fcccd3cc745b0","bdp_td","Sat Mar 25 2023 18:08:31 GMT-0500 (Central Daylight Time)","142176","","","fullscreenexit","85","141181","fullscreenexit","","","","","","","","","",""
"fullscreen","85","142175","0.0-6.0","63d71e67dd0fcccd3cc745b0","bdp_td","Sat Mar 25 2023 18:08:31 GMT-0500 (Central Daylight Time)","142176","","","","","","","true","","","","","","","","",""
"html-keyboard-response","86","142678","0.0-7.0","","","","","","null","","","","","","","null","","","","","","",""
