"trial_type","trial_index","time_elapsed","internal_node_id","subject_id","task","startTime","totalTime","view_history","rt","event","trial","time","trialtype","success","stimulus","key_press","nowOffer","thenOffer","thenLeft","nowAmt","thenAmt","thenWeeks","chosen"
"pavlovia","0","6","0.0-0.0","55d86f3569dbc30012b6869f","bdp_td","Wed Mar 29 2023 18:06:40 GMT-0400 (Eastern Daylight Time)","192410","","","","","","","","","","","","","","","",""
"instructions","1","59803","0.0-1.0","55d86f3569dbc30012b6869f","bdp_td","Wed Mar 29 2023 18:06:40 GMT-0400 (Eastern Daylight Time)","192410","[{""page_index"":0,""viewing_time"":59795}]","59795","","","","","","","","","","","","","",""
"","","","","55d86f3569dbc30012b6869f","bdp_td","Wed Mar 29 2023 18:06:40 GMT-0400 (Eastern Daylight Time)","192410","","","fullscreenenter","2","62670","fullscreenenter","","","","","","","","","",""
"fullscreen","2","63663","0.0-2.0","55d86f3569dbc30012b6869f","bdp_td","Wed Mar 29 2023 18:06:40 GMT-0400 (Eastern Daylight Time)","192410","","","","","","","true","","","","","","","","",""
"instructions","3","131085","0.0-4.0","55d86f3569dbc30012b6869f","bdp_td","Wed Mar 29 2023 18:06:40 GMT-0400 (Eastern Daylight Time)","192410","[{""page_index"":0,""viewing_time"":43610},{""page_index"":1,""viewing_time"":15037},{""page_index"":2,""viewing_time"":8772}]","67419","","","","","","","","","","","","","",""
"html-keyboard-response","4","131591","0.0-5.0-1.0","55d86f3569dbc30012b6869f","bdp_td","Wed Mar 29 2023 18:06:40 GMT-0400 (Eastern Daylight Time)","192410","","null","","","","FIX","","<div class='trialBorder'><div class='vertical-center'><img style='vertical-align:center; align:center' src=img/fixation3.jpg></div></div>","null","","","","","","",""
"html-keyboard-response","5","133259","0.0-5.0-2.0","55d86f3569dbc30012b6869f","bdp_td","Wed Mar 29 2023 18:06:40 GMT-0400 (Eastern Daylight Time)","192410","","1664","","","","offer","","<div class='trialBorder'><div class='vertical-center'><img style='vertical-align:center; align:center' src=img/fixation3.jpg></div><div class='cl'><div class='vertical-center'>$75<br>in<br>3 weeks</div></div><div class='cr'><div class='vertical-center'>$41<br><br>now</div></div><div class='respDivL'><div class='vertical-center'>(E)</div></div><div class='respDivR'><div class='vertical-center'>(I)</div></div></div>","E","$41<br><br>now","$75<br>in<br>3 weeks","1","41","75","3","THEN"
"html-keyboard-response","6","133515","0.0-5.0-3.0","55d86f3569dbc30012b6869f","bdp_td","Wed Mar 29 2023 18:06:40 GMT-0400 (Eastern Daylight Time)","192410","","null","","","","offerFB","","<div class='trialBorder'><div class='vertical-center'><img style='vertical-align:center; align:center' src=img/fixation3.jpg></div><div class='cl'><div class='vertical-center'><font style='color:orange'>$75<br>in<br>3 weeks</font></div></div><div class='cr'><div class='vertical-center'>$41<br><br>now</div></div><div class='respDivL'><div class='vertical-center'><font style='color:orange'>(E)</font></div></div><div class='respDivR'><div class='vertical-center'>(I)</div></div></div>","null","$41<br><br>now","$75<br>in<br>3 weeks","1","41","75","3",""
"html-keyboard-response","7","134018","0.0-5.0-1.1","55d86f3569dbc30012b6869f","bdp_td","Wed Mar 29 2023 18:06:40 GMT-0400 (Eastern Daylight Time)","192410","","null","","","","FIX","","<div class='trialBorder'><div class='vertical-center'><img style='vertical-align:center; align:center' src=img/fixation3.jpg></div></div>","null","","","","","","",""
"html-keyboard-response","8","135569","0.0-5.0-2.1","55d86f3569dbc30012b6869f","bdp_td","Wed Mar 29 2023 18:06:40 GMT-0400 (Eastern Daylight Time)","192410","","1548","","","","offer","","<div class='trialBorder'><div class='vertical-center'><img style='vertical-align:center; align:center' src=img/fixation3.jpg></div><div class='cl'><div class='vertical-center'>$69<br><br>now</div></div><div class='cr'><div class='vertical-center'>$85<br>in<br>6 weeks</div></div><div class='respDivL'><div class='vertical-center'>(E)</div></div><div class='respDivR'><div class='vertical-center'>(I)</div></div></div>","E","$69<br><br>now","$85<br>in<br>6 weeks","0","69","85","6","NOW"
"html-keyboard-response","9","135822","0.0-5.0-3.1","55d86f3569dbc30012b6869f","bdp_td","Wed Mar 29 2023 18:06:40 GMT-0400 (Eastern Daylight Time)","192410","","null","","","","offerFB","","<div class='trialBorder'><div class='vertical-center'><img style='vertical-align:center; align:center' src=img/fixation3.jpg></div><div class='cl'><div class='vertical-center'><font style='color:orange'>$69<br><br>now</font></div></div><div class='cr'><div class='vertical-center'>$85<br>in<br>6 weeks</div></div><div class='respDivL'><div class='vertical-center'><font style='color:orange'>(E)</font></div></div><div class='respDivR'><div class='vertical-center'>(I)</div></div></div>","null","$69<br><br>now","$85<br>in<br>6 weeks","0","69","85","6",""
"html-keyboard-response","10","136325","0.0-5.0-1.2","55d86f3569dbc30012b6869f","bdp_td","Wed Mar 29 2023 18:06:40 GMT-0400 (Eastern Daylight Time)","192410","","null","","","","FIX","","<div class='trialBorder'><div class='vertical-center'><img style='vertical-align:center; align:center' src=img/fixation3.jpg></div></div>","null","","","","","","",""
"html-keyboard-response","11","137640","0.0-5.0-2.2","55d86f3569dbc30012b6869f","bdp_td","Wed Mar 29 2023 18:06:40 GMT-0400 (Eastern Daylight Time)","192410","","1312","","","","offer","","<div class='trialBorder'><div class='vertical-center'><img style='vertical-align:center; align:center' src=img/fixation3.jpg></div><div class='cl'><div class='vertical-center'>$49<br><br>now</div></div><div class='cr'><div class='vertical-center'>$60<br>in<br>6 weeks</div></div><div class='respDivL'><div class='vertical-center'>(E)</div></div><div class='respDivR'><div class='vertical-center'>(I)</div></div></div>","I","$49<br><br>now","$60<br>in<br>6 weeks","0","49","60","6","THEN"
"html-keyboard-response","12","137893","0.0-5.0-3.2","55d86f3569dbc30012b6869f","bdp_td","Wed Mar 29 2023 18:06:40 GMT-0400 (Eastern Daylight Time)","192410","","null","","","","offerFB","","<div class='trialBorder'><div class='vertical-center'><img style='vertical-align:center; align:center' src=img/fixation3.jpg></div><div class='cl'><div class='vertical-center'>$49<br><br>now</div></div><div class='cr'><div class='vertical-center'><font style='color:orange'>$60<br>in<br>6 weeks</font></div></div><div class='respDivL'><div class='vertical-center'>(E)</div></div><div class='respDivR'><div class='vertical-center'><font style='color:orange'>(I)</font></div></div></div>","null","$49<br><br>now","$60<br>in<br>6 weeks","0","49","60","6",""
"html-keyboard-response","13","138396","0.0-5.0-1.3","55d86f3569dbc30012b6869f","bdp_td","Wed Mar 29 2023 18:06:40 GMT-0400 (Eastern Daylight Time)","192410","","null","","","","FIX","","<div class='trialBorder'><div class='vertical-center'><img style='vertical-align:center; align:center' src=img/fixation3.jpg></div></div>","null","","","","","","",""
"html-keyboard-response","14","140060","0.0-5.0-2.3","55d86f3569dbc30012b6869f","bdp_td","Wed Mar 29 2023 18:06:40 GMT-0400 (Eastern Daylight Time)","192410","","1662","","","","offer","","<div class='trialBorder'><div class='vertical-center'><img style='vertical-align:center; align:center' src=img/fixation3.jpg></div><div class='cl'><div class='vertical-center'>$47<br><br>now</div></div><div class='cr'><div class='vertical-center'>$50<br>in<br>12 weeks</div></div><div class='respDivL'><div class='vertical-center'>(E)</div></div><div class='respDivR'><div class='vertical-center'>(I)</div></div></div>","E","$47<br><br>now","$50<br>in<br>12 weeks","0","47","50","12","NOW"
"html-keyboard-response","15","140312","0.0-5.0-3.3","55d86f3569dbc30012b6869f","bdp_td","Wed Mar 29 2023 18:06:40 GMT-0400 (Eastern Daylight Time)","192410","","null","","","","offerFB","","<div class='trialBorder'><div class='vertical-center'><img style='vertical-align:center; align:center' src=img/fixation3.jpg></div><div class='cl'><div class='vertical-center'><font style='color:orange'>$47<br><br>now</font></div></div><div class='cr'><div class='vertical-center'>$50<br>in<br>12 weeks</div></div><div class='respDivL'><div class='vertical-center'><font style='color:orange'>(E)</font></div></div><div class='respDivR'><div class='vertical-center'>(I)</div></div></div>","null","$47<br><br>now","$50<br>in<br>12 weeks","0","47","50","12",""
"html-keyboard-response","16","140816","0.0-5.0-1.4","55d86f3569dbc30012b6869f","bdp_td","Wed Mar 29 2023 18:06:40 GMT-0400 (Eastern Daylight Time)","192410","","null","","","","FIX","","<div class='trialBorder'><div class='vertical-center'><img style='vertical-align:center; align:center' src=img/fixation3.jpg></div></div>","null","","","","","","",""
"html-keyboard-response","17","142481","0.0-5.0-2.4","55d86f3569dbc30012b6869f","bdp_td","Wed Mar 29 2023 18:06:40 GMT-0400 (Eastern Daylight Time)","192410","","1662","","","","offer","","<div class='trialBorder'><div class='vertical-center'><img style='vertical-align:center; align:center' src=img/fixation3.jpg></div><div class='cl'><div class='vertical-center'>$15<br><br>now</div></div><div class='cr'><div class='vertical-center'>$35<br>in<br>2 weeks</div></div><div class='respDivL'><div class='vertical-center'>(E)</div></div><div class='respDivR'><div class='vertical-center'>(I)</div></div></div>","I","$15<br><br>now","$35<br>in<br>2 weeks","0","15","35","2","THEN"
"html-keyboard-response","18","142734","0.0-5.0-3.4","55d86f3569dbc30012b6869f","bdp_td","Wed Mar 29 2023 18:06:40 GMT-0400 (Eastern Daylight Time)","192410","","null","","","","offerFB","","<div class='trialBorder'><div class='vertical-center'><img style='vertical-align:center; align:center' src=img/fixation3.jpg></div><div class='cl'><div class='vertical-center'>$15<br><br>now</div></div><div class='cr'><div class='vertical-center'><font style='color:orange'>$35<br>in<br>2 weeks</font></div></div><div class='respDivL'><div class='vertical-center'>(E)</div></div><div class='respDivR'><div class='vertical-center'><font style='color:orange'>(I)</font></div></div></div>","null","$15<br><br>now","$35<br>in<br>2 weeks","0","15","35","2",""
"html-keyboard-response","19","143236","0.0-5.0-1.5","55d86f3569dbc30012b6869f","bdp_td","Wed Mar 29 2023 18:06:40 GMT-0400 (Eastern Daylight Time)","192410","","null","","","","FIX","","<div class='trialBorder'><div class='vertical-center'><img style='vertical-align:center; align:center' src=img/fixation3.jpg></div></div>","null","","","","","","",""
"html-keyboard-response","20","144960","0.0-5.0-2.5","55d86f3569dbc30012b6869f","bdp_td","Wed Mar 29 2023 18:06:40 GMT-0400 (Eastern Daylight Time)","192410","","1721","","","","offer","","<div class='trialBorder'><div class='vertical-center'><img style='vertical-align:center; align:center' src=img/fixation3.jpg></div><div class='cl'><div class='vertical-center'>$80<br><br>now</div></div><div class='cr'><div class='vertical-center'>$85<br>in<br>12 weeks</div></div><div class='respDivL'><div class='vertical-center'>(E)</div></div><div class='respDivR'><div class='vertical-center'>(I)</div></div></div>","E","$80<br><br>now","$85<br>in<br>12 weeks","0","80","85","12","NOW"
"html-keyboard-response","21","145214","0.0-5.0-3.5","55d86f3569dbc30012b6869f","bdp_td","Wed Mar 29 2023 18:06:40 GMT-0400 (Eastern Daylight Time)","192410","","null","","","","offerFB","","<div class='trialBorder'><div class='vertical-center'><img style='vertical-align:center; align:center' src=img/fixation3.jpg></div><div class='cl'><div class='vertical-center'><font style='color:orange'>$80<br><br>now</font></div></div><div class='cr'><div class='vertical-center'>$85<br>in<br>12 weeks</div></div><div class='respDivL'><div class='vertical-center'><font style='color:orange'>(E)</font></div></div><div class='respDivR'><div class='vertical-center'>(I)</div></div></div>","null","$80<br><br>now","$85<br>in<br>12 weeks","0","80","85","12",""
"html-keyboard-response","22","145717","0.0-5.0-1.6","55d86f3569dbc30012b6869f","bdp_td","Wed Mar 29 2023 18:06:40 GMT-0400 (Eastern Daylight Time)","192410","","null","","","","FIX","","<div class='trialBorder'><div class='vertical-center'><img style='vertical-align:center; align:center' src=img/fixation3.jpg></div></div>","null","","","","","","",""
"html-keyboard-response","23","146914","0.0-5.0-2.6","55d86f3569dbc30012b6869f","bdp_td","Wed Mar 29 2023 18:06:40 GMT-0400 (Eastern Daylight Time)","192410","","1195","","","","offer","","<div class='trialBorder'><div class='vertical-center'><img style='vertical-align:center; align:center' src=img/fixation3.jpg></div><div class='cl'><div class='vertical-center'>$30<br>in<br>12 weeks</div></div><div class='cr'><div class='vertical-center'>$28<br><br>now</div></div><div class='respDivL'><div class='vertical-center'>(E)</div></div><div class='respDivR'><div class='vertical-center'>(I)</div></div></div>","I","$28<br><br>now","$30<br>in<br>12 weeks","1","28","30","12","NOW"
"html-keyboard-response","24","147167","0.0-5.0-3.6","55d86f3569dbc30012b6869f","bdp_td","Wed Mar 29 2023 18:06:40 GMT-0400 (Eastern Daylight Time)","192410","","null","","","","offerFB","","<div class='trialBorder'><div class='vertical-center'><img style='vertical-align:center; align:center' src=img/fixation3.jpg></div><div class='cl'><div class='vertical-center'>$30<br>in<br>12 weeks</div></div><div class='cr'><div class='vertical-center'><font style='color:orange'>$28<br><br>now</font></div></div><div class='respDivL'><div class='vertical-center'>(E)</div></div><div class='respDivR'><div class='vertical-center'><font style='color:orange'>(I)</font></div></div></div>","null","$28<br><br>now","$30<br>in<br>12 weeks","1","28","30","12",""
"html-keyboard-response","25","147671","0.0-5.0-1.7","55d86f3569dbc30012b6869f","bdp_td","Wed Mar 29 2023 18:06:40 GMT-0400 (Eastern Daylight Time)","192410","","null","","","","FIX","","<div class='trialBorder'><div class='vertical-center'><img style='vertical-align:center; align:center' src=img/fixation3.jpg></div></div>","null","","","","","","",""
"html-keyboard-response","26","148799","0.0-5.0-2.7","55d86f3569dbc30012b6869f","bdp_td","Wed Mar 29 2023 18:06:40 GMT-0400 (Eastern Daylight Time)","192410","","1125","","","","offer","","<div class='trialBorder'><div class='vertical-center'><img style='vertical-align:center; align:center' src=img/fixation3.jpg></div><div class='cl'><div class='vertical-center'>$31<br><br>now</div></div><div class='cr'><div class='vertical-center'>$85<br>in<br>1 week</div></div><div class='respDivL'><div class='vertical-center'>(E)</div></div><div class='respDivR'><div class='vertical-center'>(I)</div></div></div>","I","$31<br><br>now","$85<br>in<br>1 week","0","31","85","1","THEN"
"html-keyboard-response","27","149052","0.0-5.0-3.7","55d86f3569dbc30012b6869f","bdp_td","Wed Mar 29 2023 18:06:40 GMT-0400 (Eastern Daylight Time)","192410","","null","","","","offerFB","","<div class='trialBorder'><div class='vertical-center'><img style='vertical-align:center; align:center' src=img/fixation3.jpg></div><div class='cl'><div class='vertical-center'>$31<br><br>now</div></div><div class='cr'><div class='vertical-center'><font style='color:orange'>$85<br>in<br>1 week</font></div></div><div class='respDivL'><div class='vertical-center'>(E)</div></div><div class='respDivR'><div class='vertical-center'><font style='color:orange'>(I)</font></div></div></div>","null","$31<br><br>now","$85<br>in<br>1 week","0","31","85","1",""
"html-keyboard-response","28","149554","0.0-5.0-1.8","55d86f3569dbc30012b6869f","bdp_td","Wed Mar 29 2023 18:06:40 GMT-0400 (Eastern Daylight Time)","192410","","null","","","","FIX","","<div class='trialBorder'><div class='vertical-center'><img style='vertical-align:center; align:center' src=img/fixation3.jpg></div></div>","null","","","","","","",""
"html-keyboard-response","29","150831","0.0-5.0-2.8","55d86f3569dbc30012b6869f","bdp_td","Wed Mar 29 2023 18:06:40 GMT-0400 (Eastern Daylight Time)","192410","","1273","","","","offer","","<div class='trialBorder'><div class='vertical-center'><img style='vertical-align:center; align:center' src=img/fixation3.jpg></div><div class='cl'><div class='vertical-center'>$22<br><br>now</div></div><div class='cr'><div class='vertical-center'>$25<br>in<br>12 weeks</div></div><div class='respDivL'><div class='vertical-center'>(E)</div></div><div class='respDivR'><div class='vertical-center'>(I)</div></div></div>","E","$22<br><br>now","$25<br>in<br>12 weeks","0","22","25","12","NOW"
"html-keyboard-response","30","151084","0.0-5.0-3.8","55d86f3569dbc30012b6869f","bdp_td","Wed Mar 29 2023 18:06:40 GMT-0400 (Eastern Daylight Time)","192410","","null","","","","offerFB","","<div class='trialBorder'><div class='vertical-center'><img style='vertical-align:center; align:center' src=img/fixation3.jpg></div><div class='cl'><div class='vertical-center'><font style='color:orange'>$22<br><br>now</font></div></div><div class='cr'><div class='vertical-center'>$25<br>in<br>12 weeks</div></div><div class='respDivL'><div class='vertical-center'><font style='color:orange'>(E)</font></div></div><div class='respDivR'><div class='vertical-center'>(I)</div></div></div>","null","$22<br><br>now","$25<br>in<br>12 weeks","0","22","25","12",""
"html-keyboard-response","31","151587","0.0-5.0-1.9","55d86f3569dbc30012b6869f","bdp_td","Wed Mar 29 2023 18:06:40 GMT-0400 (Eastern Daylight Time)","192410","","null","","","","FIX","","<div class='trialBorder'><div class='vertical-center'><img style='vertical-align:center; align:center' src=img/fixation3.jpg></div></div>","null","","","","","","",""
"html-keyboard-response","32","153156","0.0-5.0-2.9","55d86f3569dbc30012b6869f","bdp_td","Wed Mar 29 2023 18:06:40 GMT-0400 (Eastern Daylight Time)","192410","","1566","","","","offer","","<div class='trialBorder'><div class='vertical-center'><img style='vertical-align:center; align:center' src=img/fixation3.jpg></div><div class='cl'><div class='vertical-center'>$35<br>in<br>3 weeks</div></div><div class='cr'><div class='vertical-center'>$24<br><br>now</div></div><div class='respDivL'><div class='vertical-center'>(E)</div></div><div class='respDivR'><div class='vertical-center'>(I)</div></div></div>","E","$24<br><br>now","$35<br>in<br>3 weeks","1","24","35","3","THEN"
"html-keyboard-response","33","153409","0.0-5.0-3.9","55d86f3569dbc30012b6869f","bdp_td","Wed Mar 29 2023 18:06:40 GMT-0400 (Eastern Daylight Time)","192410","","null","","","","offerFB","","<div class='trialBorder'><div class='vertical-center'><img style='vertical-align:center; align:center' src=img/fixation3.jpg></div><div class='cl'><div class='vertical-center'><font style='color:orange'>$35<br>in<br>3 weeks</font></div></div><div class='cr'><div class='vertical-center'>$24<br><br>now</div></div><div class='respDivL'><div class='vertical-center'><font style='color:orange'>(E)</font></div></div><div class='respDivR'><div class='vertical-center'>(I)</div></div></div>","null","$24<br><br>now","$35<br>in<br>3 weeks","1","24","35","3",""
"html-keyboard-response","34","153912","0.0-5.0-1.10","55d86f3569dbc30012b6869f","bdp_td","Wed Mar 29 2023 18:06:40 GMT-0400 (Eastern Daylight Time)","192410","","null","","","","FIX","","<div class='trialBorder'><div class='vertical-center'><img style='vertical-align:center; align:center' src=img/fixation3.jpg></div></div>","null","","","","","","",""
"html-keyboard-response","35","154961","0.0-5.0-2.10","55d86f3569dbc30012b6869f","bdp_td","Wed Mar 29 2023 18:06:40 GMT-0400 (Eastern Daylight Time)","192410","","1046","","","","offer","","<div class='trialBorder'><div class='vertical-center'><img style='vertical-align:center; align:center' src=img/fixation3.jpg></div><div class='cl'><div class='vertical-center'>$20<br><br>now</div></div><div class='cr'><div class='vertical-center'>$55<br>in<br>1 week</div></div><div class='respDivL'><div class='vertical-center'>(E)</div></div><div class='respDivR'><div class='vertical-center'>(I)</div></div></div>","I","$20<br><br>now","$55<br>in<br>1 week","0","20","55","1","THEN"
"html-keyboard-response","36","155214","0.0-5.0-3.10","55d86f3569dbc30012b6869f","bdp_td","Wed Mar 29 2023 18:06:40 GMT-0400 (Eastern Daylight Time)","192410","","null","","","","offerFB","","<div class='trialBorder'><div class='vertical-center'><img style='vertical-align:center; align:center' src=img/fixation3.jpg></div><div class='cl'><div class='vertical-center'>$20<br><br>now</div></div><div class='cr'><div class='vertical-center'><font style='color:orange'>$55<br>in<br>1 week</font></div></div><div class='respDivL'><div class='vertical-center'>(E)</div></div><div class='respDivR'><div class='vertical-center'><font style='color:orange'>(I)</font></div></div></div>","null","$20<br><br>now","$55<br>in<br>1 week","0","20","55","1",""
"html-keyboard-response","37","155716","0.0-5.0-1.11","55d86f3569dbc30012b6869f","bdp_td","Wed Mar 29 2023 18:06:40 GMT-0400 (Eastern Daylight Time)","192410","","null","","","","FIX","","<div class='trialBorder'><div class='vertical-center'><img style='vertical-align:center; align:center' src=img/fixation3.jpg></div></div>","null","","","","","","",""
"html-keyboard-response","38","157378","0.0-5.0-2.11","55d86f3569dbc30012b6869f","bdp_td","Wed Mar 29 2023 18:06:40 GMT-0400 (Eastern Daylight Time)","192410","","1660","","","","offer","","<div class='trialBorder'><div class='vertical-center'><img style='vertical-align:center; align:center' src=img/fixation3.jpg></div><div class='cl'><div class='vertical-center'>$54<br><br>now</div></div><div class='cr'><div class='vertical-center'>$55<br>in<br>12 weeks</div></div><div class='respDivL'><div class='vertical-center'>(E)</div></div><div class='respDivR'><div class='vertical-center'>(I)</div></div></div>","I","$54<br><br>now","$55<br>in<br>12 weeks","0","54","55","12","THEN"
"html-keyboard-response","39","157631","0.0-5.0-3.11","55d86f3569dbc30012b6869f","bdp_td","Wed Mar 29 2023 18:06:40 GMT-0400 (Eastern Daylight Time)","192410","","null","","","","offerFB","","<div class='trialBorder'><div class='vertical-center'><img style='vertical-align:center; align:center' src=img/fixation3.jpg></div><div class='cl'><div class='vertical-center'>$54<br><br>now</div></div><div class='cr'><div class='vertical-center'><font style='color:orange'>$55<br>in<br>12 weeks</font></div></div><div class='respDivL'><div class='vertical-center'>(E)</div></div><div class='respDivR'><div class='vertical-center'><font style='color:orange'>(I)</font></div></div></div>","null","$54<br><br>now","$55<br>in<br>12 weeks","0","54","55","12",""
"html-keyboard-response","40","158133","0.0-5.0-1.12","55d86f3569dbc30012b6869f","bdp_td","Wed Mar 29 2023 18:06:40 GMT-0400 (Eastern Daylight Time)","192410","","null","","","","FIX","","<div class='trialBorder'><div class='vertical-center'><img style='vertical-align:center; align:center' src=img/fixation3.jpg></div></div>","null","","","","","","",""
"html-keyboard-response","41","160829","0.0-5.0-2.12","55d86f3569dbc30012b6869f","bdp_td","Wed Mar 29 2023 18:06:40 GMT-0400 (Eastern Daylight Time)","192410","","2694","","","","offer","","<div class='trialBorder'><div class='vertical-center'><img style='vertical-align:center; align:center' src=img/fixation3.jpg></div><div class='cl'><div class='vertical-center'>$14<br><br>now</div></div><div class='cr'><div class='vertical-center'>$25<br>in<br>3 weeks</div></div><div class='respDivL'><div class='vertical-center'>(E)</div></div><div class='respDivR'><div class='vertical-center'>(I)</div></div></div>","I","$14<br><br>now","$25<br>in<br>3 weeks","0","14","25","3","THEN"
"html-keyboard-response","42","161082","0.0-5.0-3.12","55d86f3569dbc30012b6869f","bdp_td","Wed Mar 29 2023 18:06:40 GMT-0400 (Eastern Daylight Time)","192410","","null","","","","offerFB","","<div class='trialBorder'><div class='vertical-center'><img style='vertical-align:center; align:center' src=img/fixation3.jpg></div><div class='cl'><div class='vertical-center'>$14<br><br>now</div></div><div class='cr'><div class='vertical-center'><font style='color:orange'>$25<br>in<br>3 weeks</font></div></div><div class='respDivL'><div class='vertical-center'>(E)</div></div><div class='respDivR'><div class='vertical-center'><font style='color:orange'>(I)</font></div></div></div>","null","$14<br><br>now","$25<br>in<br>3 weeks","0","14","25","3",""
"html-keyboard-response","43","161585","0.0-5.0-1.13","55d86f3569dbc30012b6869f","bdp_td","Wed Mar 29 2023 18:06:40 GMT-0400 (Eastern Daylight Time)","192410","","null","","","","FIX","","<div class='trialBorder'><div class='vertical-center'><img style='vertical-align:center; align:center' src=img/fixation3.jpg></div></div>","null","","","","","","",""
"html-keyboard-response","44","163745","0.0-5.0-2.13","55d86f3569dbc30012b6869f","bdp_td","Wed Mar 29 2023 18:06:40 GMT-0400 (Eastern Daylight Time)","192410","","2157","","","","offer","","<div class='trialBorder'><div class='vertical-center'><img style='vertical-align:center; align:center' src=img/fixation3.jpg></div><div class='cl'><div class='vertical-center'>$30<br>in<br>6 weeks</div></div><div class='cr'><div class='vertical-center'>$25<br><br>now</div></div><div class='respDivL'><div class='vertical-center'>(E)</div></div><div class='respDivR'><div class='vertical-center'>(I)</div></div></div>","I","$25<br><br>now","$30<br>in<br>6 weeks","1","25","30","6","NOW"
"html-keyboard-response","45","163999","0.0-5.0-3.13","55d86f3569dbc30012b6869f","bdp_td","Wed Mar 29 2023 18:06:40 GMT-0400 (Eastern Daylight Time)","192410","","null","","","","offerFB","","<div class='trialBorder'><div class='vertical-center'><img style='vertical-align:center; align:center' src=img/fixation3.jpg></div><div class='cl'><div class='vertical-center'>$30<br>in<br>6 weeks</div></div><div class='cr'><div class='vertical-center'><font style='color:orange'>$25<br><br>now</font></div></div><div class='respDivL'><div class='vertical-center'>(E)</div></div><div class='respDivR'><div class='vertical-center'><font style='color:orange'>(I)</font></div></div></div>","null","$25<br><br>now","$30<br>in<br>6 weeks","1","25","30","6",""
"html-keyboard-response","46","164502","0.0-5.0-1.14","55d86f3569dbc30012b6869f","bdp_td","Wed Mar 29 2023 18:06:40 GMT-0400 (Eastern Daylight Time)","192410","","null","","","","FIX","","<div class='trialBorder'><div class='vertical-center'><img style='vertical-align:center; align:center' src=img/fixation3.jpg></div></div>","null","","","","","","",""
"html-keyboard-response","47","165998","0.0-5.0-2.14","55d86f3569dbc30012b6869f","bdp_td","Wed Mar 29 2023 18:06:40 GMT-0400 (Eastern Daylight Time)","192410","","1493","","","","offer","","<div class='trialBorder'><div class='vertical-center'><img style='vertical-align:center; align:center' src=img/fixation3.jpg></div><div class='cl'><div class='vertical-center'>$40<br><br>now</div></div><div class='cr'><div class='vertical-center'>$55<br>in<br>6 weeks</div></div><div class='respDivL'><div class='vertical-center'>(E)</div></div><div class='respDivR'><div class='vertical-center'>(I)</div></div></div>","I","$40<br><br>now","$55<br>in<br>6 weeks","0","40","55","6","THEN"
"html-keyboard-response","48","166251","0.0-5.0-3.14","55d86f3569dbc30012b6869f","bdp_td","Wed Mar 29 2023 18:06:40 GMT-0400 (Eastern Daylight Time)","192410","","null","","","","offerFB","","<div class='trialBorder'><div class='vertical-center'><img style='vertical-align:center; align:center' src=img/fixation3.jpg></div><div class='cl'><div class='vertical-center'>$40<br><br>now</div></div><div class='cr'><div class='vertical-center'><font style='color:orange'>$55<br>in<br>6 weeks</font></div></div><div class='respDivL'><div class='vertical-center'>(E)</div></div><div class='respDivR'><div class='vertical-center'><font style='color:orange'>(I)</font></div></div></div>","null","$40<br><br>now","$55<br>in<br>6 weeks","0","40","55","6",""
"html-keyboard-response","49","166753","0.0-5.0-1.15","55d86f3569dbc30012b6869f","bdp_td","Wed Mar 29 2023 18:06:40 GMT-0400 (Eastern Daylight Time)","192410","","null","","","","FIX","","<div class='trialBorder'><div class='vertical-center'><img style='vertical-align:center; align:center' src=img/fixation3.jpg></div></div>","null","","","","","","",""
"html-keyboard-response","50","167862","0.0-5.0-2.15","55d86f3569dbc30012b6869f","bdp_td","Wed Mar 29 2023 18:06:40 GMT-0400 (Eastern Daylight Time)","192410","","1107","","","","offer","","<div class='trialBorder'><div class='vertical-center'><img style='vertical-align:center; align:center' src=img/fixation3.jpg></div><div class='cl'><div class='vertical-center'>$75<br>in<br>6 weeks</div></div><div class='cr'><div class='vertical-center'>$55<br><br>now</div></div><div class='respDivL'><div class='vertical-center'>(E)</div></div><div class='respDivR'><div class='vertical-center'>(I)</div></div></div>","E","$55<br><br>now","$75<br>in<br>6 weeks","1","55","75","6","THEN"
"html-keyboard-response","51","168115","0.0-5.0-3.15","55d86f3569dbc30012b6869f","bdp_td","Wed Mar 29 2023 18:06:40 GMT-0400 (Eastern Daylight Time)","192410","","null","","","","offerFB","","<div class='trialBorder'><div class='vertical-center'><img style='vertical-align:center; align:center' src=img/fixation3.jpg></div><div class='cl'><div class='vertical-center'><font style='color:orange'>$75<br>in<br>6 weeks</font></div></div><div class='cr'><div class='vertical-center'>$55<br><br>now</div></div><div class='respDivL'><div class='vertical-center'><font style='color:orange'>(E)</font></div></div><div class='respDivR'><div class='vertical-center'>(I)</div></div></div>","null","$55<br><br>now","$75<br>in<br>6 weeks","1","55","75","6",""
"html-keyboard-response","52","168619","0.0-5.0-1.16","55d86f3569dbc30012b6869f","bdp_td","Wed Mar 29 2023 18:06:40 GMT-0400 (Eastern Daylight Time)","192410","","null","","","","FIX","","<div class='trialBorder'><div class='vertical-center'><img style='vertical-align:center; align:center' src=img/fixation3.jpg></div></div>","null","","","","","","",""
"html-keyboard-response","53","169747","0.0-5.0-2.16","55d86f3569dbc30012b6869f","bdp_td","Wed Mar 29 2023 18:06:40 GMT-0400 (Eastern Daylight Time)","192410","","1125","","","","offer","","<div class='trialBorder'><div class='vertical-center'><img style='vertical-align:center; align:center' src=img/fixation3.jpg></div><div class='cl'><div class='vertical-center'>$50<br>in<br>3 weeks</div></div><div class='cr'><div class='vertical-center'>$27<br><br>now</div></div><div class='respDivL'><div class='vertical-center'>(E)</div></div><div class='respDivR'><div class='vertical-center'>(I)</div></div></div>","E","$27<br><br>now","$50<br>in<br>3 weeks","1","27","50","3","THEN"
"html-keyboard-response","54","170000","0.0-5.0-3.16","55d86f3569dbc30012b6869f","bdp_td","Wed Mar 29 2023 18:06:40 GMT-0400 (Eastern Daylight Time)","192410","","null","","","","offerFB","","<div class='trialBorder'><div class='vertical-center'><img style='vertical-align:center; align:center' src=img/fixation3.jpg></div><div class='cl'><div class='vertical-center'><font style='color:orange'>$50<br>in<br>3 weeks</font></div></div><div class='cr'><div class='vertical-center'>$27<br><br>now</div></div><div class='respDivL'><div class='vertical-center'><font style='color:orange'>(E)</font></div></div><div class='respDivR'><div class='vertical-center'>(I)</div></div></div>","null","$27<br><br>now","$50<br>in<br>3 weeks","1","27","50","3",""
"html-keyboard-response","55","170503","0.0-5.0-1.17","55d86f3569dbc30012b6869f","bdp_td","Wed Mar 29 2023 18:06:40 GMT-0400 (Eastern Daylight Time)","192410","","null","","","","FIX","","<div class='trialBorder'><div class='vertical-center'><img style='vertical-align:center; align:center' src=img/fixation3.jpg></div></div>","null","","","","","","",""
"html-keyboard-response","56","171964","0.0-5.0-2.17","55d86f3569dbc30012b6869f","bdp_td","Wed Mar 29 2023 18:06:40 GMT-0400 (Eastern Daylight Time)","192410","","1458","","","","offer","","<div class='trialBorder'><div class='vertical-center'><img style='vertical-align:center; align:center' src=img/fixation3.jpg></div><div class='cl'><div class='vertical-center'>$67<br><br>now</div></div><div class='cr'><div class='vertical-center'>$75<br>in<br>12 weeks</div></div><div class='respDivL'><div class='vertical-center'>(E)</div></div><div class='respDivR'><div class='vertical-center'>(I)</div></div></div>","I","$67<br><br>now","$75<br>in<br>12 weeks","0","67","75","12","THEN"
"html-keyboard-response","57","172218","0.0-5.0-3.17","55d86f3569dbc30012b6869f","bdp_td","Wed Mar 29 2023 18:06:40 GMT-0400 (Eastern Daylight Time)","192410","","null","","","","offerFB","","<div class='trialBorder'><div class='vertical-center'><img style='vertical-align:center; align:center' src=img/fixation3.jpg></div><div class='cl'><div class='vertical-center'>$67<br><br>now</div></div><div class='cr'><div class='vertical-center'><font style='color:orange'>$75<br>in<br>12 weeks</font></div></div><div class='respDivL'><div class='vertical-center'>(E)</div></div><div class='respDivR'><div class='vertical-center'><font style='color:orange'>(I)</font></div></div></div>","null","$67<br><br>now","$75<br>in<br>12 weeks","0","67","75","12",""
"html-keyboard-response","58","172720","0.0-5.0-1.18","55d86f3569dbc30012b6869f","bdp_td","Wed Mar 29 2023 18:06:40 GMT-0400 (Eastern Daylight Time)","192410","","null","","","","FIX","","<div class='trialBorder'><div class='vertical-center'><img style='vertical-align:center; align:center' src=img/fixation3.jpg></div></div>","null","","","","","","",""
"html-keyboard-response","59","174006","0.0-5.0-2.18","55d86f3569dbc30012b6869f","bdp_td","Wed Mar 29 2023 18:06:40 GMT-0400 (Eastern Daylight Time)","192410","","1283","","","","offer","","<div class='trialBorder'><div class='vertical-center'><img style='vertical-align:center; align:center' src=img/fixation3.jpg></div><div class='cl'><div class='vertical-center'>$50<br>in<br>6 weeks</div></div><div class='cr'><div class='vertical-center'>$34<br><br>now</div></div><div class='respDivL'><div class='vertical-center'>(E)</div></div><div class='respDivR'><div class='vertical-center'>(I)</div></div></div>","E","$34<br><br>now","$50<br>in<br>6 weeks","1","34","50","6","THEN"
"html-keyboard-response","60","174260","0.0-5.0-3.18","55d86f3569dbc30012b6869f","bdp_td","Wed Mar 29 2023 18:06:40 GMT-0400 (Eastern Daylight Time)","192410","","null","","","","offerFB","","<div class='trialBorder'><div class='vertical-center'><img style='vertical-align:center; align:center' src=img/fixation3.jpg></div><div class='cl'><div class='vertical-center'><font style='color:orange'>$50<br>in<br>6 weeks</font></div></div><div class='cr'><div class='vertical-center'>$34<br><br>now</div></div><div class='respDivL'><div class='vertical-center'><font style='color:orange'>(E)</font></div></div><div class='respDivR'><div class='vertical-center'>(I)</div></div></div>","null","$34<br><br>now","$50<br>in<br>6 weeks","1","34","50","6",""
"html-keyboard-response","61","174763","0.0-5.0-1.19","55d86f3569dbc30012b6869f","bdp_td","Wed Mar 29 2023 18:06:40 GMT-0400 (Eastern Daylight Time)","192410","","null","","","","FIX","","<div class='trialBorder'><div class='vertical-center'><img style='vertical-align:center; align:center' src=img/fixation3.jpg></div></div>","null","","","","","","",""
"html-keyboard-response","62","176124","0.0-5.0-2.19","55d86f3569dbc30012b6869f","bdp_td","Wed Mar 29 2023 18:06:40 GMT-0400 (Eastern Daylight Time)","192410","","1358","","","","offer","","<div class='trialBorder'><div class='vertical-center'><img style='vertical-align:center; align:center' src=img/fixation3.jpg></div><div class='cl'><div class='vertical-center'>$30<br>in<br>2 weeks</div></div><div class='cr'><div class='vertical-center'>$11<br><br>now</div></div><div class='respDivL'><div class='vertical-center'>(E)</div></div><div class='respDivR'><div class='vertical-center'>(I)</div></div></div>","E","$11<br><br>now","$30<br>in<br>2 weeks","1","11","30","2","THEN"
"html-keyboard-response","63","176376","0.0-5.0-3.19","55d86f3569dbc30012b6869f","bdp_td","Wed Mar 29 2023 18:06:40 GMT-0400 (Eastern Daylight Time)","192410","","null","","","","offerFB","","<div class='trialBorder'><div class='vertical-center'><img style='vertical-align:center; align:center' src=img/fixation3.jpg></div><div class='cl'><div class='vertical-center'><font style='color:orange'>$30<br>in<br>2 weeks</font></div></div><div class='cr'><div class='vertical-center'>$11<br><br>now</div></div><div class='respDivL'><div class='vertical-center'><font style='color:orange'>(E)</font></div></div><div class='respDivR'><div class='vertical-center'>(I)</div></div></div>","null","$11<br><br>now","$30<br>in<br>2 weeks","1","11","30","2",""
"html-keyboard-response","64","176879","0.0-5.0-1.20","55d86f3569dbc30012b6869f","bdp_td","Wed Mar 29 2023 18:06:40 GMT-0400 (Eastern Daylight Time)","192410","","null","","","","FIX","","<div class='trialBorder'><div class='vertical-center'><img style='vertical-align:center; align:center' src=img/fixation3.jpg></div></div>","null","","","","","","",""
"html-keyboard-response","65","178182","0.0-5.0-2.20","55d86f3569dbc30012b6869f","bdp_td","Wed Mar 29 2023 18:06:40 GMT-0400 (Eastern Daylight Time)","192410","","1300","","","","offer","","<div class='trialBorder'><div class='vertical-center'><img style='vertical-align:center; align:center' src=img/fixation3.jpg></div><div class='cl'><div class='vertical-center'>$35<br>in<br>12 weeks</div></div><div class='cr'><div class='vertical-center'>$34<br><br>now</div></div><div class='respDivL'><div class='vertical-center'>(E)</div></div><div class='respDivR'><div class='vertical-center'>(I)</div></div></div>","I","$34<br><br>now","$35<br>in<br>12 weeks","1","34","35","12","NOW"
"html-keyboard-response","66","178434","0.0-5.0-3.20","55d86f3569dbc30012b6869f","bdp_td","Wed Mar 29 2023 18:06:40 GMT-0400 (Eastern Daylight Time)","192410","","null","","","","offerFB","","<div class='trialBorder'><div class='vertical-center'><img style='vertical-align:center; align:center' src=img/fixation3.jpg></div><div class='cl'><div class='vertical-center'>$35<br>in<br>12 weeks</div></div><div class='cr'><div class='vertical-center'><font style='color:orange'>$34<br><br>now</font></div></div><div class='respDivL'><div class='vertical-center'>(E)</div></div><div class='respDivR'><div class='vertical-center'><font style='color:orange'>(I)</font></div></div></div>","null","$34<br><br>now","$35<br>in<br>12 weeks","1","34","35","12",""
"html-keyboard-response","67","178937","0.0-5.0-1.21","55d86f3569dbc30012b6869f","bdp_td","Wed Mar 29 2023 18:06:40 GMT-0400 (Eastern Daylight Time)","192410","","null","","","","FIX","","<div class='trialBorder'><div class='vertical-center'><img style='vertical-align:center; align:center' src=img/fixation3.jpg></div></div>","null","","","","","","",""
"html-keyboard-response","68","180078","0.0-5.0-2.21","55d86f3569dbc30012b6869f","bdp_td","Wed Mar 29 2023 18:06:40 GMT-0400 (Eastern Daylight Time)","192410","","1138","","","","offer","","<div class='trialBorder'><div class='vertical-center'><img style='vertical-align:center; align:center' src=img/fixation3.jpg></div><div class='cl'><div class='vertical-center'>$80<br>in<br>2 weeks</div></div><div class='cr'><div class='vertical-center'>$33<br><br>now</div></div><div class='respDivL'><div class='vertical-center'>(E)</div></div><div class='respDivR'><div class='vertical-center'>(I)</div></div></div>","E","$33<br><br>now","$80<br>in<br>2 weeks","1","33","80","2","THEN"
"html-keyboard-response","69","180332","0.0-5.0-3.21","55d86f3569dbc30012b6869f","bdp_td","Wed Mar 29 2023 18:06:40 GMT-0400 (Eastern Daylight Time)","192410","","null","","","","offerFB","","<div class='trialBorder'><div class='vertical-center'><img style='vertical-align:center; align:center' src=img/fixation3.jpg></div><div class='cl'><div class='vertical-center'><font style='color:orange'>$80<br>in<br>2 weeks</font></div></div><div class='cr'><div class='vertical-center'>$33<br><br>now</div></div><div class='respDivL'><div class='vertical-center'><font style='color:orange'>(E)</font></div></div><div class='respDivR'><div class='vertical-center'>(I)</div></div></div>","null","$33<br><br>now","$80<br>in<br>2 weeks","1","33","80","2",""
"html-keyboard-response","70","180835","0.0-5.0-1.22","55d86f3569dbc30012b6869f","bdp_td","Wed Mar 29 2023 18:06:40 GMT-0400 (Eastern Daylight Time)","192410","","null","","","","FIX","","<div class='trialBorder'><div class='vertical-center'><img style='vertical-align:center; align:center' src=img/fixation3.jpg></div></div>","null","","","","","","",""
"html-keyboard-response","71","182266","0.0-5.0-2.22","55d86f3569dbc30012b6869f","bdp_td","Wed Mar 29 2023 18:06:40 GMT-0400 (Eastern Daylight Time)","192410","","1428","","","","offer","","<div class='trialBorder'><div class='vertical-center'><img style='vertical-align:center; align:center' src=img/fixation3.jpg></div><div class='cl'><div class='vertical-center'>$25<br>in<br>6 weeks</div></div><div class='cr'><div class='vertical-center'>$19<br><br>now</div></div><div class='respDivL'><div class='vertical-center'>(E)</div></div><div class='respDivR'><div class='vertical-center'>(I)</div></div></div>","E","$19<br><br>now","$25<br>in<br>6 weeks","1","19","25","6","THEN"
"html-keyboard-response","72","182519","0.0-5.0-3.22","55d86f3569dbc30012b6869f","bdp_td","Wed Mar 29 2023 18:06:40 GMT-0400 (Eastern Daylight Time)","192410","","null","","","","offerFB","","<div class='trialBorder'><div class='vertical-center'><img style='vertical-align:center; align:center' src=img/fixation3.jpg></div><div class='cl'><div class='vertical-center'><font style='color:orange'>$25<br>in<br>6 weeks</font></div></div><div class='cr'><div class='vertical-center'>$19<br><br>now</div></div><div class='respDivL'><div class='vertical-center'><font style='color:orange'>(E)</font></div></div><div class='respDivR'><div class='vertical-center'>(I)</div></div></div>","null","$19<br><br>now","$25<br>in<br>6 weeks","1","19","25","6",""
"html-keyboard-response","73","183022","0.0-5.0-1.23","55d86f3569dbc30012b6869f","bdp_td","Wed Mar 29 2023 18:06:40 GMT-0400 (Eastern Daylight Time)","192410","","null","","","","FIX","","<div class='trialBorder'><div class='vertical-center'><img style='vertical-align:center; align:center' src=img/fixation3.jpg></div></div>","null","","","","","","",""
"html-keyboard-response","74","184123","0.0-5.0-2.23","55d86f3569dbc30012b6869f","bdp_td","Wed Mar 29 2023 18:06:40 GMT-0400 (Eastern Daylight Time)","192410","","1098","","","","offer","","<div class='trialBorder'><div class='vertical-center'><img style='vertical-align:center; align:center' src=img/fixation3.jpg></div><div class='cl'><div class='vertical-center'>$25<br><br>now</div></div><div class='cr'><div class='vertical-center'>$60<br>in<br>3 weeks</div></div><div class='respDivL'><div class='vertical-center'>(E)</div></div><div class='respDivR'><div class='vertical-center'>(I)</div></div></div>","I","$25<br><br>now","$60<br>in<br>3 weeks","0","25","60","3","THEN"
"html-keyboard-response","75","184377","0.0-5.0-3.23","55d86f3569dbc30012b6869f","bdp_td","Wed Mar 29 2023 18:06:40 GMT-0400 (Eastern Daylight Time)","192410","","null","","","","offerFB","","<div class='trialBorder'><div class='vertical-center'><img style='vertical-align:center; align:center' src=img/fixation3.jpg></div><div class='cl'><div class='vertical-center'>$25<br><br>now</div></div><div class='cr'><div class='vertical-center'><font style='color:orange'>$60<br>in<br>3 weeks</font></div></div><div class='respDivL'><div class='vertical-center'>(E)</div></div><div class='respDivR'><div class='vertical-center'><font style='color:orange'>(I)</font></div></div></div>","null","$25<br><br>now","$60<br>in<br>3 weeks","0","25","60","3",""
"html-keyboard-response","76","184880","0.0-5.0-1.24","55d86f3569dbc30012b6869f","bdp_td","Wed Mar 29 2023 18:06:40 GMT-0400 (Eastern Daylight Time)","192410","","null","","","","FIX","","<div class='trialBorder'><div class='vertical-center'><img style='vertical-align:center; align:center' src=img/fixation3.jpg></div></div>","null","","","","","","",""
"html-keyboard-response","77","186211","0.0-5.0-2.24","55d86f3569dbc30012b6869f","bdp_td","Wed Mar 29 2023 18:06:40 GMT-0400 (Eastern Daylight Time)","192410","","1328","","","","offer","","<div class='trialBorder'><div class='vertical-center'><img style='vertical-align:center; align:center' src=img/fixation3.jpg></div><div class='cl'><div class='vertical-center'>$80<br>in<br>3 weeks</div></div><div class='cr'><div class='vertical-center'>$54<br><br>now</div></div><div class='respDivL'><div class='vertical-center'>(E)</div></div><div class='respDivR'><div class='vertical-center'>(I)</div></div></div>","E","$54<br><br>now","$80<br>in<br>3 weeks","1","54","80","3","THEN"
"html-keyboard-response","78","186464","0.0-5.0-3.24","55d86f3569dbc30012b6869f","bdp_td","Wed Mar 29 2023 18:06:40 GMT-0400 (Eastern Daylight Time)","192410","","null","","","","offerFB","","<div class='trialBorder'><div class='vertical-center'><img style='vertical-align:center; align:center' src=img/fixation3.jpg></div><div class='cl'><div class='vertical-center'><font style='color:orange'>$80<br>in<br>3 weeks</font></div></div><div class='cr'><div class='vertical-center'>$54<br><br>now</div></div><div class='respDivL'><div class='vertical-center'><font style='color:orange'>(E)</font></div></div><div class='respDivR'><div class='vertical-center'>(I)</div></div></div>","null","$54<br><br>now","$80<br>in<br>3 weeks","1","54","80","3",""
"html-keyboard-response","79","186966","0.0-5.0-1.25","55d86f3569dbc30012b6869f","bdp_td","Wed Mar 29 2023 18:06:40 GMT-0400 (Eastern Daylight Time)","192410","","null","","","","FIX","","<div class='trialBorder'><div class='vertical-center'><img style='vertical-align:center; align:center' src=img/fixation3.jpg></div></div>","null","","","","","","",""
"html-keyboard-response","80","188581","0.0-5.0-2.25","55d86f3569dbc30012b6869f","bdp_td","Wed Mar 29 2023 18:06:40 GMT-0400 (Eastern Daylight Time)","192410","","1612","","","","offer","","<div class='trialBorder'><div class='vertical-center'><img style='vertical-align:center; align:center' src=img/fixation3.jpg></div><div class='cl'><div class='vertical-center'>$78<br><br>now</div></div><div class='cr'><div class='vertical-center'>$80<br>in<br>12 weeks</div></div><div class='respDivL'><div class='vertical-center'>(E)</div></div><div class='respDivR'><div class='vertical-center'>(I)</div></div></div>","E","$78<br><br>now","$80<br>in<br>12 weeks","0","78","80","12","NOW"
"html-keyboard-response","81","188834","0.0-5.0-3.25","55d86f3569dbc30012b6869f","bdp_td","Wed Mar 29 2023 18:06:40 GMT-0400 (Eastern Daylight Time)","192410","","null","","","","offerFB","","<div class='trialBorder'><div class='vertical-center'><img style='vertical-align:center; align:center' src=img/fixation3.jpg></div><div class='cl'><div class='vertical-center'><font style='color:orange'>$78<br><br>now</font></div></div><div class='cr'><div class='vertical-center'>$80<br>in<br>12 weeks</div></div><div class='respDivL'><div class='vertical-center'><font style='color:orange'>(E)</font></div></div><div class='respDivR'><div class='vertical-center'>(I)</div></div></div>","null","$78<br><br>now","$80<br>in<br>12 weeks","0","78","80","12",""
"html-keyboard-response","82","189336","0.0-5.0-1.26","55d86f3569dbc30012b6869f","bdp_td","Wed Mar 29 2023 18:06:40 GMT-0400 (Eastern Daylight Time)","192410","","null","","","","FIX","","<div class='trialBorder'><div class='vertical-center'><img style='vertical-align:center; align:center' src=img/fixation3.jpg></div></div>","null","","","","","","",""
"html-keyboard-response","83","191154","0.0-5.0-2.26","55d86f3569dbc30012b6869f","bdp_td","Wed Mar 29 2023 18:06:40 GMT-0400 (Eastern Daylight Time)","192410","","1815","","","","offer","","<div class='trialBorder'><div class='vertical-center'><img style='vertical-align:center; align:center' src=img/fixation3.jpg></div><div class='cl'><div class='vertical-center'>$60<br>in<br>12 weeks</div></div><div class='cr'><div class='vertical-center'>$54<br><br>now</div></div><div class='respDivL'><div class='vertical-center'>(E)</div></div><div class='respDivR'><div class='vertical-center'>(I)</div></div></div>","I","$54<br><br>now","$60<br>in<br>12 weeks","1","54","60","12","NOW"
"html-keyboard-response","84","191408","0.0-5.0-3.26","55d86f3569dbc30012b6869f","bdp_td","Wed Mar 29 2023 18:06:40 GMT-0400 (Eastern Daylight Time)","192410","","null","","","","offerFB","","<div class='trialBorder'><div class='vertical-center'><img style='vertical-align:center; align:center' src=img/fixation3.jpg></div><div class='cl'><div class='vertical-center'>$60<br>in<br>12 weeks</div></div><div class='cr'><div class='vertical-center'><font style='color:orange'>$54<br><br>now</font></div></div><div class='respDivL'><div class='vertical-center'>(E)</div></div><div class='respDivR'><div class='vertical-center'><font style='color:orange'>(I)</font></div></div></div>","null","$54<br><br>now","$60<br>in<br>12 weeks","1","54","60","12",""
"","","","","55d86f3569dbc30012b6869f","bdp_td","Wed Mar 29 2023 18:06:40 GMT-0400 (Eastern Daylight Time)","192410","","","fullscreenexit","85","191423","fullscreenexit","","","","","","","","","",""
"fullscreen","85","192410","0.0-6.0","55d86f3569dbc30012b6869f","bdp_td","Wed Mar 29 2023 18:06:40 GMT-0400 (Eastern Daylight Time)","192410","","","","","","","true","","","","","","","","",""
"html-keyboard-response","86","192912","0.0-7.0","","","","","","null","","","","","","","null","","","","","","",""
