"trial_type","trial_index","time_elapsed","internal_node_id","subject_id","task","startTime","totalTime","view_history","rt","event","trial","time","trialtype","success","stimulus","key_press","nowOffer","thenOffer","thenLeft","nowAmt","thenAmt","thenWeeks","chosen"
"pavlovia","0","4","0.0-0.0","62e19208352cd518d7b2f085","bdp_td","Sat Mar 25 2023 19:38:53 GMT-0400 (Eastern Daylight Time)","99653","","","","","","","","","","","","","","","",""
"instructions","1","2741","0.0-1.0","62e19208352cd518d7b2f085","bdp_td","Sat Mar 25 2023 19:38:53 GMT-0400 (Eastern Daylight Time)","99653","[{""page_index"":0,""viewing_time"":2736}]","2736","","","","","","","","","","","","","",""
"","","","","62e19208352cd518d7b2f085","bdp_td","Sat Mar 25 2023 19:38:53 GMT-0400 (Eastern Daylight Time)","99653","","","fullscreenenter","2","4270","fullscreenenter","","","","","","","","","",""
"fullscreen","2","5267","0.0-2.0","62e19208352cd518d7b2f085","bdp_td","Sat Mar 25 2023 19:38:53 GMT-0400 (Eastern Daylight Time)","99653","","","","","","","true","","","","","","","","",""
"instructions","3","32724","0.0-4.0","62e19208352cd518d7b2f085","bdp_td","Sat Mar 25 2023 19:38:53 GMT-0400 (Eastern Daylight Time)","99653","[{""page_index"":0,""viewing_time"":13326},{""page_index"":1,""viewing_time"":10407},{""page_index"":2,""viewing_time"":3719}]","27453","","","","","","","","","","","","","",""
"html-keyboard-response","4","33228","0.0-5.0-1.0","62e19208352cd518d7b2f085","bdp_td","Sat Mar 25 2023 19:38:53 GMT-0400 (Eastern Daylight Time)","99653","","null","","","","FIX","","<div class='trialBorder'><div class='vertical-center'><img style='vertical-align:center; align:center' src=img/fixation3.jpg></div></div>","null","","","","","","",""
"html-keyboard-response","5","35291","0.0-5.0-2.0","62e19208352cd518d7b2f085","bdp_td","Sat Mar 25 2023 19:38:53 GMT-0400 (Eastern Daylight Time)","99653","","2061","","","","offer","","<div class='trialBorder'><div class='vertical-center'><img style='vertical-align:center; align:center' src=img/fixation3.jpg></div><div class='cl'><div class='vertical-center'>$49<br><br>now</div></div><div class='cr'><div class='vertical-center'>$60<br>in<br>6 weeks</div></div><div class='respDivL'><div class='vertical-center'>(E)</div></div><div class='respDivR'><div class='vertical-center'>(I)</div></div></div>","E","$49<br><br>now","$60<br>in<br>6 weeks","0","49","60","6","NOW"
"html-keyboard-response","6","35547","0.0-5.0-3.0","62e19208352cd518d7b2f085","bdp_td","Sat Mar 25 2023 19:38:53 GMT-0400 (Eastern Daylight Time)","99653","","null","","","","offerFB","","<div class='trialBorder'><div class='vertical-center'><img style='vertical-align:center; align:center' src=img/fixation3.jpg></div><div class='cl'><div class='vertical-center'><font style='color:orange'>$49<br><br>now</font></div></div><div class='cr'><div class='vertical-center'>$60<br>in<br>6 weeks</div></div><div class='respDivL'><div class='vertical-center'><font style='color:orange'>(E)</font></div></div><div class='respDivR'><div class='vertical-center'>(I)</div></div></div>","null","$49<br><br>now","$60<br>in<br>6 weeks","0","49","60","6",""
"html-keyboard-response","7","36051","0.0-5.0-1.1","62e19208352cd518d7b2f085","bdp_td","Sat Mar 25 2023 19:38:53 GMT-0400 (Eastern Daylight Time)","99653","","null","","","","FIX","","<div class='trialBorder'><div class='vertical-center'><img style='vertical-align:center; align:center' src=img/fixation3.jpg></div></div>","null","","","","","","",""
"html-keyboard-response","8","37572","0.0-5.0-2.1","62e19208352cd518d7b2f085","bdp_td","Sat Mar 25 2023 19:38:53 GMT-0400 (Eastern Daylight Time)","99653","","1519","","","","offer","","<div class='trialBorder'><div class='vertical-center'><img style='vertical-align:center; align:center' src=img/fixation3.jpg></div><div class='cl'><div class='vertical-center'>$35<br>in<br>2 weeks</div></div><div class='cr'><div class='vertical-center'>$15<br><br>now</div></div><div class='respDivL'><div class='vertical-center'>(E)</div></div><div class='respDivR'><div class='vertical-center'>(I)</div></div></div>","E","$15<br><br>now","$35<br>in<br>2 weeks","1","15","35","2","THEN"
"html-keyboard-response","9","37827","0.0-5.0-3.1","62e19208352cd518d7b2f085","bdp_td","Sat Mar 25 2023 19:38:53 GMT-0400 (Eastern Daylight Time)","99653","","null","","","","offerFB","","<div class='trialBorder'><div class='vertical-center'><img style='vertical-align:center; align:center' src=img/fixation3.jpg></div><div class='cl'><div class='vertical-center'><font style='color:orange'>$35<br>in<br>2 weeks</font></div></div><div class='cr'><div class='vertical-center'>$15<br><br>now</div></div><div class='respDivL'><div class='vertical-center'><font style='color:orange'>(E)</font></div></div><div class='respDivR'><div class='vertical-center'>(I)</div></div></div>","null","$15<br><br>now","$35<br>in<br>2 weeks","1","15","35","2",""
"html-keyboard-response","10","38331","0.0-5.0-1.2","62e19208352cd518d7b2f085","bdp_td","Sat Mar 25 2023 19:38:53 GMT-0400 (Eastern Daylight Time)","99653","","null","","","","FIX","","<div class='trialBorder'><div class='vertical-center'><img style='vertical-align:center; align:center' src=img/fixation3.jpg></div></div>","null","","","","","","",""
"html-keyboard-response","11","39740","0.0-5.0-2.2","62e19208352cd518d7b2f085","bdp_td","Sat Mar 25 2023 19:38:53 GMT-0400 (Eastern Daylight Time)","99653","","1408","","","","offer","","<div class='trialBorder'><div class='vertical-center'><img style='vertical-align:center; align:center' src=img/fixation3.jpg></div><div class='cl'><div class='vertical-center'>$78<br><br>now</div></div><div class='cr'><div class='vertical-center'>$80<br>in<br>12 weeks</div></div><div class='respDivL'><div class='vertical-center'>(E)</div></div><div class='respDivR'><div class='vertical-center'>(I)</div></div></div>","E","$78<br><br>now","$80<br>in<br>12 weeks","0","78","80","12","NOW"
"html-keyboard-response","12","39995","0.0-5.0-3.2","62e19208352cd518d7b2f085","bdp_td","Sat Mar 25 2023 19:38:53 GMT-0400 (Eastern Daylight Time)","99653","","null","","","","offerFB","","<div class='trialBorder'><div class='vertical-center'><img style='vertical-align:center; align:center' src=img/fixation3.jpg></div><div class='cl'><div class='vertical-center'><font style='color:orange'>$78<br><br>now</font></div></div><div class='cr'><div class='vertical-center'>$80<br>in<br>12 weeks</div></div><div class='respDivL'><div class='vertical-center'><font style='color:orange'>(E)</font></div></div><div class='respDivR'><div class='vertical-center'>(I)</div></div></div>","null","$78<br><br>now","$80<br>in<br>12 weeks","0","78","80","12",""
"html-keyboard-response","13","40499","0.0-5.0-1.3","62e19208352cd518d7b2f085","bdp_td","Sat Mar 25 2023 19:38:53 GMT-0400 (Eastern Daylight Time)","99653","","null","","","","FIX","","<div class='trialBorder'><div class='vertical-center'><img style='vertical-align:center; align:center' src=img/fixation3.jpg></div></div>","null","","","","","","",""
"html-keyboard-response","14","41843","0.0-5.0-2.3","62e19208352cd518d7b2f085","bdp_td","Sat Mar 25 2023 19:38:53 GMT-0400 (Eastern Daylight Time)","99653","","1343","","","","offer","","<div class='trialBorder'><div class='vertical-center'><img style='vertical-align:center; align:center' src=img/fixation3.jpg></div><div class='cl'><div class='vertical-center'>$54<br><br>now</div></div><div class='cr'><div class='vertical-center'>$55<br>in<br>12 weeks</div></div><div class='respDivL'><div class='vertical-center'>(E)</div></div><div class='respDivR'><div class='vertical-center'>(I)</div></div></div>","E","$54<br><br>now","$55<br>in<br>12 weeks","0","54","55","12","NOW"
"html-keyboard-response","15","42099","0.0-5.0-3.3","62e19208352cd518d7b2f085","bdp_td","Sat Mar 25 2023 19:38:53 GMT-0400 (Eastern Daylight Time)","99653","","null","","","","offerFB","","<div class='trialBorder'><div class='vertical-center'><img style='vertical-align:center; align:center' src=img/fixation3.jpg></div><div class='cl'><div class='vertical-center'><font style='color:orange'>$54<br><br>now</font></div></div><div class='cr'><div class='vertical-center'>$55<br>in<br>12 weeks</div></div><div class='respDivL'><div class='vertical-center'><font style='color:orange'>(E)</font></div></div><div class='respDivR'><div class='vertical-center'>(I)</div></div></div>","null","$54<br><br>now","$55<br>in<br>12 weeks","0","54","55","12",""
"html-keyboard-response","16","42603","0.0-5.0-1.4","62e19208352cd518d7b2f085","bdp_td","Sat Mar 25 2023 19:38:53 GMT-0400 (Eastern Daylight Time)","99653","","null","","","","FIX","","<div class='trialBorder'><div class='vertical-center'><img style='vertical-align:center; align:center' src=img/fixation3.jpg></div></div>","null","","","","","","",""
"html-keyboard-response","17","44316","0.0-5.0-2.4","62e19208352cd518d7b2f085","bdp_td","Sat Mar 25 2023 19:38:53 GMT-0400 (Eastern Daylight Time)","99653","","1711","","","","offer","","<div class='trialBorder'><div class='vertical-center'><img style='vertical-align:center; align:center' src=img/fixation3.jpg></div><div class='cl'><div class='vertical-center'>$25<br><br>now</div></div><div class='cr'><div class='vertical-center'>$60<br>in<br>3 weeks</div></div><div class='respDivL'><div class='vertical-center'>(E)</div></div><div class='respDivR'><div class='vertical-center'>(I)</div></div></div>","I","$25<br><br>now","$60<br>in<br>3 weeks","0","25","60","3","THEN"
"html-keyboard-response","18","44571","0.0-5.0-3.4","62e19208352cd518d7b2f085","bdp_td","Sat Mar 25 2023 19:38:53 GMT-0400 (Eastern Daylight Time)","99653","","null","","","","offerFB","","<div class='trialBorder'><div class='vertical-center'><img style='vertical-align:center; align:center' src=img/fixation3.jpg></div><div class='cl'><div class='vertical-center'>$25<br><br>now</div></div><div class='cr'><div class='vertical-center'><font style='color:orange'>$60<br>in<br>3 weeks</font></div></div><div class='respDivL'><div class='vertical-center'>(E)</div></div><div class='respDivR'><div class='vertical-center'><font style='color:orange'>(I)</font></div></div></div>","null","$25<br><br>now","$60<br>in<br>3 weeks","0","25","60","3",""
"html-keyboard-response","19","45074","0.0-5.0-1.5","62e19208352cd518d7b2f085","bdp_td","Sat Mar 25 2023 19:38:53 GMT-0400 (Eastern Daylight Time)","99653","","null","","","","FIX","","<div class='trialBorder'><div class='vertical-center'><img style='vertical-align:center; align:center' src=img/fixation3.jpg></div></div>","null","","","","","","",""
"html-keyboard-response","20","46235","0.0-5.0-2.5","62e19208352cd518d7b2f085","bdp_td","Sat Mar 25 2023 19:38:53 GMT-0400 (Eastern Daylight Time)","99653","","1160","","","","offer","","<div class='trialBorder'><div class='vertical-center'><img style='vertical-align:center; align:center' src=img/fixation3.jpg></div><div class='cl'><div class='vertical-center'>$27<br><br>now</div></div><div class='cr'><div class='vertical-center'>$50<br>in<br>3 weeks</div></div><div class='respDivL'><div class='vertical-center'>(E)</div></div><div class='respDivR'><div class='vertical-center'>(I)</div></div></div>","I","$27<br><br>now","$50<br>in<br>3 weeks","0","27","50","3","THEN"
"html-keyboard-response","21","46491","0.0-5.0-3.5","62e19208352cd518d7b2f085","bdp_td","Sat Mar 25 2023 19:38:53 GMT-0400 (Eastern Daylight Time)","99653","","null","","","","offerFB","","<div class='trialBorder'><div class='vertical-center'><img style='vertical-align:center; align:center' src=img/fixation3.jpg></div><div class='cl'><div class='vertical-center'>$27<br><br>now</div></div><div class='cr'><div class='vertical-center'><font style='color:orange'>$50<br>in<br>3 weeks</font></div></div><div class='respDivL'><div class='vertical-center'>(E)</div></div><div class='respDivR'><div class='vertical-center'><font style='color:orange'>(I)</font></div></div></div>","null","$27<br><br>now","$50<br>in<br>3 weeks","0","27","50","3",""
"html-keyboard-response","22","46994","0.0-5.0-1.6","62e19208352cd518d7b2f085","bdp_td","Sat Mar 25 2023 19:38:53 GMT-0400 (Eastern Daylight Time)","99653","","null","","","","FIX","","<div class='trialBorder'><div class='vertical-center'><img style='vertical-align:center; align:center' src=img/fixation3.jpg></div></div>","null","","","","","","",""
"html-keyboard-response","23","49715","0.0-5.0-2.6","62e19208352cd518d7b2f085","bdp_td","Sat Mar 25 2023 19:38:53 GMT-0400 (Eastern Daylight Time)","99653","","2720","","","","offer","","<div class='trialBorder'><div class='vertical-center'><img style='vertical-align:center; align:center' src=img/fixation3.jpg></div><div class='cl'><div class='vertical-center'>$14<br><br>now</div></div><div class='cr'><div class='vertical-center'>$25<br>in<br>3 weeks</div></div><div class='respDivL'><div class='vertical-center'>(E)</div></div><div class='respDivR'><div class='vertical-center'>(I)</div></div></div>","I","$14<br><br>now","$25<br>in<br>3 weeks","0","14","25","3","THEN"
"html-keyboard-response","24","49971","0.0-5.0-3.6","62e19208352cd518d7b2f085","bdp_td","Sat Mar 25 2023 19:38:53 GMT-0400 (Eastern Daylight Time)","99653","","null","","","","offerFB","","<div class='trialBorder'><div class='vertical-center'><img style='vertical-align:center; align:center' src=img/fixation3.jpg></div><div class='cl'><div class='vertical-center'>$14<br><br>now</div></div><div class='cr'><div class='vertical-center'><font style='color:orange'>$25<br>in<br>3 weeks</font></div></div><div class='respDivL'><div class='vertical-center'>(E)</div></div><div class='respDivR'><div class='vertical-center'><font style='color:orange'>(I)</font></div></div></div>","null","$14<br><br>now","$25<br>in<br>3 weeks","0","14","25","3",""
"html-keyboard-response","25","50475","0.0-5.0-1.7","62e19208352cd518d7b2f085","bdp_td","Sat Mar 25 2023 19:38:53 GMT-0400 (Eastern Daylight Time)","99653","","null","","","","FIX","","<div class='trialBorder'><div class='vertical-center'><img style='vertical-align:center; align:center' src=img/fixation3.jpg></div></div>","null","","","","","","",""
"html-keyboard-response","26","52315","0.0-5.0-2.7","62e19208352cd518d7b2f085","bdp_td","Sat Mar 25 2023 19:38:53 GMT-0400 (Eastern Daylight Time)","99653","","1840","","","","offer","","<div class='trialBorder'><div class='vertical-center'><img style='vertical-align:center; align:center' src=img/fixation3.jpg></div><div class='cl'><div class='vertical-center'>$85<br>in<br>1 week</div></div><div class='cr'><div class='vertical-center'>$31<br><br>now</div></div><div class='respDivL'><div class='vertical-center'>(E)</div></div><div class='respDivR'><div class='vertical-center'>(I)</div></div></div>","E","$31<br><br>now","$85<br>in<br>1 week","1","31","85","1","THEN"
"html-keyboard-response","27","52571","0.0-5.0-3.7","62e19208352cd518d7b2f085","bdp_td","Sat Mar 25 2023 19:38:53 GMT-0400 (Eastern Daylight Time)","99653","","null","","","","offerFB","","<div class='trialBorder'><div class='vertical-center'><img style='vertical-align:center; align:center' src=img/fixation3.jpg></div><div class='cl'><div class='vertical-center'><font style='color:orange'>$85<br>in<br>1 week</font></div></div><div class='cr'><div class='vertical-center'>$31<br><br>now</div></div><div class='respDivL'><div class='vertical-center'><font style='color:orange'>(E)</font></div></div><div class='respDivR'><div class='vertical-center'>(I)</div></div></div>","null","$31<br><br>now","$85<br>in<br>1 week","1","31","85","1",""
"html-keyboard-response","28","53075","0.0-5.0-1.8","62e19208352cd518d7b2f085","bdp_td","Sat Mar 25 2023 19:38:53 GMT-0400 (Eastern Daylight Time)","99653","","null","","","","FIX","","<div class='trialBorder'><div class='vertical-center'><img style='vertical-align:center; align:center' src=img/fixation3.jpg></div></div>","null","","","","","","",""
"html-keyboard-response","29","54835","0.0-5.0-2.8","62e19208352cd518d7b2f085","bdp_td","Sat Mar 25 2023 19:38:53 GMT-0400 (Eastern Daylight Time)","99653","","1759","","","","offer","","<div class='trialBorder'><div class='vertical-center'><img style='vertical-align:center; align:center' src=img/fixation3.jpg></div><div class='cl'><div class='vertical-center'>$75<br>in<br>3 weeks</div></div><div class='cr'><div class='vertical-center'>$41<br><br>now</div></div><div class='respDivL'><div class='vertical-center'>(E)</div></div><div class='respDivR'><div class='vertical-center'>(I)</div></div></div>","E","$41<br><br>now","$75<br>in<br>3 weeks","1","41","75","3","THEN"
"html-keyboard-response","30","55091","0.0-5.0-3.8","62e19208352cd518d7b2f085","bdp_td","Sat Mar 25 2023 19:38:53 GMT-0400 (Eastern Daylight Time)","99653","","null","","","","offerFB","","<div class='trialBorder'><div class='vertical-center'><img style='vertical-align:center; align:center' src=img/fixation3.jpg></div><div class='cl'><div class='vertical-center'><font style='color:orange'>$75<br>in<br>3 weeks</font></div></div><div class='cr'><div class='vertical-center'>$41<br><br>now</div></div><div class='respDivL'><div class='vertical-center'><font style='color:orange'>(E)</font></div></div><div class='respDivR'><div class='vertical-center'>(I)</div></div></div>","null","$41<br><br>now","$75<br>in<br>3 weeks","1","41","75","3",""
"html-keyboard-response","31","55595","0.0-5.0-1.9","62e19208352cd518d7b2f085","bdp_td","Sat Mar 25 2023 19:38:53 GMT-0400 (Eastern Daylight Time)","99653","","null","","","","FIX","","<div class='trialBorder'><div class='vertical-center'><img style='vertical-align:center; align:center' src=img/fixation3.jpg></div></div>","null","","","","","","",""
"html-keyboard-response","32","56907","0.0-5.0-2.9","62e19208352cd518d7b2f085","bdp_td","Sat Mar 25 2023 19:38:53 GMT-0400 (Eastern Daylight Time)","99653","","1311","","","","offer","","<div class='trialBorder'><div class='vertical-center'><img style='vertical-align:center; align:center' src=img/fixation3.jpg></div><div class='cl'><div class='vertical-center'>$80<br><br>now</div></div><div class='cr'><div class='vertical-center'>$85<br>in<br>12 weeks</div></div><div class='respDivL'><div class='vertical-center'>(E)</div></div><div class='respDivR'><div class='vertical-center'>(I)</div></div></div>","E","$80<br><br>now","$85<br>in<br>12 weeks","0","80","85","12","NOW"
"html-keyboard-response","33","57163","0.0-5.0-3.9","62e19208352cd518d7b2f085","bdp_td","Sat Mar 25 2023 19:38:53 GMT-0400 (Eastern Daylight Time)","99653","","null","","","","offerFB","","<div class='trialBorder'><div class='vertical-center'><img style='vertical-align:center; align:center' src=img/fixation3.jpg></div><div class='cl'><div class='vertical-center'><font style='color:orange'>$80<br><br>now</font></div></div><div class='cr'><div class='vertical-center'>$85<br>in<br>12 weeks</div></div><div class='respDivL'><div class='vertical-center'><font style='color:orange'>(E)</font></div></div><div class='respDivR'><div class='vertical-center'>(I)</div></div></div>","null","$80<br><br>now","$85<br>in<br>12 weeks","0","80","85","12",""
"html-keyboard-response","34","57667","0.0-5.0-1.10","62e19208352cd518d7b2f085","bdp_td","Sat Mar 25 2023 19:38:53 GMT-0400 (Eastern Daylight Time)","99653","","null","","","","FIX","","<div class='trialBorder'><div class='vertical-center'><img style='vertical-align:center; align:center' src=img/fixation3.jpg></div></div>","null","","","","","","",""
"html-keyboard-response","35","59195","0.0-5.0-2.10","62e19208352cd518d7b2f085","bdp_td","Sat Mar 25 2023 19:38:53 GMT-0400 (Eastern Daylight Time)","99653","","1527","","","","offer","","<div class='trialBorder'><div class='vertical-center'><img style='vertical-align:center; align:center' src=img/fixation3.jpg></div><div class='cl'><div class='vertical-center'>$33<br><br>now</div></div><div class='cr'><div class='vertical-center'>$80<br>in<br>2 weeks</div></div><div class='respDivL'><div class='vertical-center'>(E)</div></div><div class='respDivR'><div class='vertical-center'>(I)</div></div></div>","I","$33<br><br>now","$80<br>in<br>2 weeks","0","33","80","2","THEN"
"html-keyboard-response","36","59451","0.0-5.0-3.10","62e19208352cd518d7b2f085","bdp_td","Sat Mar 25 2023 19:38:53 GMT-0400 (Eastern Daylight Time)","99653","","null","","","","offerFB","","<div class='trialBorder'><div class='vertical-center'><img style='vertical-align:center; align:center' src=img/fixation3.jpg></div><div class='cl'><div class='vertical-center'>$33<br><br>now</div></div><div class='cr'><div class='vertical-center'><font style='color:orange'>$80<br>in<br>2 weeks</font></div></div><div class='respDivL'><div class='vertical-center'>(E)</div></div><div class='respDivR'><div class='vertical-center'><font style='color:orange'>(I)</font></div></div></div>","null","$33<br><br>now","$80<br>in<br>2 weeks","0","33","80","2",""
"html-keyboard-response","37","59955","0.0-5.0-1.11","62e19208352cd518d7b2f085","bdp_td","Sat Mar 25 2023 19:38:53 GMT-0400 (Eastern Daylight Time)","99653","","null","","","","FIX","","<div class='trialBorder'><div class='vertical-center'><img style='vertical-align:center; align:center' src=img/fixation3.jpg></div></div>","null","","","","","","",""
"html-keyboard-response","38","61948","0.0-5.0-2.11","62e19208352cd518d7b2f085","bdp_td","Sat Mar 25 2023 19:38:53 GMT-0400 (Eastern Daylight Time)","99653","","1991","","","","offer","","<div class='trialBorder'><div class='vertical-center'><img style='vertical-align:center; align:center' src=img/fixation3.jpg></div><div class='cl'><div class='vertical-center'>$67<br><br>now</div></div><div class='cr'><div class='vertical-center'>$75<br>in<br>12 weeks</div></div><div class='respDivL'><div class='vertical-center'>(E)</div></div><div class='respDivR'><div class='vertical-center'>(I)</div></div></div>","E","$67<br><br>now","$75<br>in<br>12 weeks","0","67","75","12","NOW"
"html-keyboard-response","39","62204","0.0-5.0-3.11","62e19208352cd518d7b2f085","bdp_td","Sat Mar 25 2023 19:38:53 GMT-0400 (Eastern Daylight Time)","99653","","null","","","","offerFB","","<div class='trialBorder'><div class='vertical-center'><img style='vertical-align:center; align:center' src=img/fixation3.jpg></div><div class='cl'><div class='vertical-center'><font style='color:orange'>$67<br><br>now</font></div></div><div class='cr'><div class='vertical-center'>$75<br>in<br>12 weeks</div></div><div class='respDivL'><div class='vertical-center'><font style='color:orange'>(E)</font></div></div><div class='respDivR'><div class='vertical-center'>(I)</div></div></div>","null","$67<br><br>now","$75<br>in<br>12 weeks","0","67","75","12",""
"html-keyboard-response","40","62708","0.0-5.0-1.12","62e19208352cd518d7b2f085","bdp_td","Sat Mar 25 2023 19:38:53 GMT-0400 (Eastern Daylight Time)","99653","","null","","","","FIX","","<div class='trialBorder'><div class='vertical-center'><img style='vertical-align:center; align:center' src=img/fixation3.jpg></div></div>","null","","","","","","",""
"html-keyboard-response","41","65109","0.0-5.0-2.12","62e19208352cd518d7b2f085","bdp_td","Sat Mar 25 2023 19:38:53 GMT-0400 (Eastern Daylight Time)","99653","","2400","","","","offer","","<div class='trialBorder'><div class='vertical-center'><img style='vertical-align:center; align:center' src=img/fixation3.jpg></div><div class='cl'><div class='vertical-center'>$25<br>in<br>12 weeks</div></div><div class='cr'><div class='vertical-center'>$22<br><br>now</div></div><div class='respDivL'><div class='vertical-center'>(E)</div></div><div class='respDivR'><div class='vertical-center'>(I)</div></div></div>","I","$22<br><br>now","$25<br>in<br>12 weeks","1","22","25","12","NOW"
"html-keyboard-response","42","65364","0.0-5.0-3.12","62e19208352cd518d7b2f085","bdp_td","Sat Mar 25 2023 19:38:53 GMT-0400 (Eastern Daylight Time)","99653","","null","","","","offerFB","","<div class='trialBorder'><div class='vertical-center'><img style='vertical-align:center; align:center' src=img/fixation3.jpg></div><div class='cl'><div class='vertical-center'>$25<br>in<br>12 weeks</div></div><div class='cr'><div class='vertical-center'><font style='color:orange'>$22<br><br>now</font></div></div><div class='respDivL'><div class='vertical-center'>(E)</div></div><div class='respDivR'><div class='vertical-center'><font style='color:orange'>(I)</font></div></div></div>","null","$22<br><br>now","$25<br>in<br>12 weeks","1","22","25","12",""
"html-keyboard-response","43","65868","0.0-5.0-1.13","62e19208352cd518d7b2f085","bdp_td","Sat Mar 25 2023 19:38:53 GMT-0400 (Eastern Daylight Time)","99653","","null","","","","FIX","","<div class='trialBorder'><div class='vertical-center'><img style='vertical-align:center; align:center' src=img/fixation3.jpg></div></div>","null","","","","","","",""
"html-keyboard-response","44","68387","0.0-5.0-2.13","62e19208352cd518d7b2f085","bdp_td","Sat Mar 25 2023 19:38:53 GMT-0400 (Eastern Daylight Time)","99653","","2518","","","","offer","","<div class='trialBorder'><div class='vertical-center'><img style='vertical-align:center; align:center' src=img/fixation3.jpg></div><div class='cl'><div class='vertical-center'>$85<br>in<br>6 weeks</div></div><div class='cr'><div class='vertical-center'>$69<br><br>now</div></div><div class='respDivL'><div class='vertical-center'>(E)</div></div><div class='respDivR'><div class='vertical-center'>(I)</div></div></div>","I","$69<br><br>now","$85<br>in<br>6 weeks","1","69","85","6","NOW"
"html-keyboard-response","45","68644","0.0-5.0-3.13","62e19208352cd518d7b2f085","bdp_td","Sat Mar 25 2023 19:38:53 GMT-0400 (Eastern Daylight Time)","99653","","null","","","","offerFB","","<div class='trialBorder'><div class='vertical-center'><img style='vertical-align:center; align:center' src=img/fixation3.jpg></div><div class='cl'><div class='vertical-center'>$85<br>in<br>6 weeks</div></div><div class='cr'><div class='vertical-center'><font style='color:orange'>$69<br><br>now</font></div></div><div class='respDivL'><div class='vertical-center'>(E)</div></div><div class='respDivR'><div class='vertical-center'><font style='color:orange'>(I)</font></div></div></div>","null","$69<br><br>now","$85<br>in<br>6 weeks","1","69","85","6",""
"html-keyboard-response","46","69148","0.0-5.0-1.14","62e19208352cd518d7b2f085","bdp_td","Sat Mar 25 2023 19:38:53 GMT-0400 (Eastern Daylight Time)","99653","","null","","","","FIX","","<div class='trialBorder'><div class='vertical-center'><img style='vertical-align:center; align:center' src=img/fixation3.jpg></div></div>","null","","","","","","",""
"html-keyboard-response","47","70307","0.0-5.0-2.14","62e19208352cd518d7b2f085","bdp_td","Sat Mar 25 2023 19:38:53 GMT-0400 (Eastern Daylight Time)","99653","","1158","","","","offer","","<div class='trialBorder'><div class='vertical-center'><img style='vertical-align:center; align:center' src=img/fixation3.jpg></div><div class='cl'><div class='vertical-center'>$80<br>in<br>3 weeks</div></div><div class='cr'><div class='vertical-center'>$54<br><br>now</div></div><div class='respDivL'><div class='vertical-center'>(E)</div></div><div class='respDivR'><div class='vertical-center'>(I)</div></div></div>","E","$54<br><br>now","$80<br>in<br>3 weeks","1","54","80","3","THEN"
"html-keyboard-response","48","70564","0.0-5.0-3.14","62e19208352cd518d7b2f085","bdp_td","Sat Mar 25 2023 19:38:53 GMT-0400 (Eastern Daylight Time)","99653","","null","","","","offerFB","","<div class='trialBorder'><div class='vertical-center'><img style='vertical-align:center; align:center' src=img/fixation3.jpg></div><div class='cl'><div class='vertical-center'><font style='color:orange'>$80<br>in<br>3 weeks</font></div></div><div class='cr'><div class='vertical-center'>$54<br><br>now</div></div><div class='respDivL'><div class='vertical-center'><font style='color:orange'>(E)</font></div></div><div class='respDivR'><div class='vertical-center'>(I)</div></div></div>","null","$54<br><br>now","$80<br>in<br>3 weeks","1","54","80","3",""
"html-keyboard-response","49","71068","0.0-5.0-1.15","62e19208352cd518d7b2f085","bdp_td","Sat Mar 25 2023 19:38:53 GMT-0400 (Eastern Daylight Time)","99653","","null","","","","FIX","","<div class='trialBorder'><div class='vertical-center'><img style='vertical-align:center; align:center' src=img/fixation3.jpg></div></div>","null","","","","","","",""
"html-keyboard-response","50","72427","0.0-5.0-2.15","62e19208352cd518d7b2f085","bdp_td","Sat Mar 25 2023 19:38:53 GMT-0400 (Eastern Daylight Time)","99653","","1358","","","","offer","","<div class='trialBorder'><div class='vertical-center'><img style='vertical-align:center; align:center' src=img/fixation3.jpg></div><div class='cl'><div class='vertical-center'>$60<br>in<br>12 weeks</div></div><div class='cr'><div class='vertical-center'>$54<br><br>now</div></div><div class='respDivL'><div class='vertical-center'>(E)</div></div><div class='respDivR'><div class='vertical-center'>(I)</div></div></div>","I","$54<br><br>now","$60<br>in<br>12 weeks","1","54","60","12","NOW"
"html-keyboard-response","51","72684","0.0-5.0-3.15","62e19208352cd518d7b2f085","bdp_td","Sat Mar 25 2023 19:38:53 GMT-0400 (Eastern Daylight Time)","99653","","null","","","","offerFB","","<div class='trialBorder'><div class='vertical-center'><img style='vertical-align:center; align:center' src=img/fixation3.jpg></div><div class='cl'><div class='vertical-center'>$60<br>in<br>12 weeks</div></div><div class='cr'><div class='vertical-center'><font style='color:orange'>$54<br><br>now</font></div></div><div class='respDivL'><div class='vertical-center'>(E)</div></div><div class='respDivR'><div class='vertical-center'><font style='color:orange'>(I)</font></div></div></div>","null","$54<br><br>now","$60<br>in<br>12 weeks","1","54","60","12",""
"html-keyboard-response","52","73187","0.0-5.0-1.16","62e19208352cd518d7b2f085","bdp_td","Sat Mar 25 2023 19:38:53 GMT-0400 (Eastern Daylight Time)","99653","","null","","","","FIX","","<div class='trialBorder'><div class='vertical-center'><img style='vertical-align:center; align:center' src=img/fixation3.jpg></div></div>","null","","","","","","",""
"html-keyboard-response","53","74499","0.0-5.0-2.16","62e19208352cd518d7b2f085","bdp_td","Sat Mar 25 2023 19:38:53 GMT-0400 (Eastern Daylight Time)","99653","","1311","","","","offer","","<div class='trialBorder'><div class='vertical-center'><img style='vertical-align:center; align:center' src=img/fixation3.jpg></div><div class='cl'><div class='vertical-center'>$20<br><br>now</div></div><div class='cr'><div class='vertical-center'>$55<br>in<br>1 week</div></div><div class='respDivL'><div class='vertical-center'>(E)</div></div><div class='respDivR'><div class='vertical-center'>(I)</div></div></div>","I","$20<br><br>now","$55<br>in<br>1 week","0","20","55","1","THEN"
"html-keyboard-response","54","74755","0.0-5.0-3.16","62e19208352cd518d7b2f085","bdp_td","Sat Mar 25 2023 19:38:53 GMT-0400 (Eastern Daylight Time)","99653","","null","","","","offerFB","","<div class='trialBorder'><div class='vertical-center'><img style='vertical-align:center; align:center' src=img/fixation3.jpg></div><div class='cl'><div class='vertical-center'>$20<br><br>now</div></div><div class='cr'><div class='vertical-center'><font style='color:orange'>$55<br>in<br>1 week</font></div></div><div class='respDivL'><div class='vertical-center'>(E)</div></div><div class='respDivR'><div class='vertical-center'><font style='color:orange'>(I)</font></div></div></div>","null","$20<br><br>now","$55<br>in<br>1 week","0","20","55","1",""
"html-keyboard-response","55","75262","0.0-5.0-1.17","62e19208352cd518d7b2f085","bdp_td","Sat Mar 25 2023 19:38:53 GMT-0400 (Eastern Daylight Time)","99653","","null","","","","FIX","","<div class='trialBorder'><div class='vertical-center'><img style='vertical-align:center; align:center' src=img/fixation3.jpg></div></div>","null","","","","","","",""
"html-keyboard-response","56","76900","0.0-5.0-2.17","62e19208352cd518d7b2f085","bdp_td","Sat Mar 25 2023 19:38:53 GMT-0400 (Eastern Daylight Time)","99653","","1637","","","","offer","","<div class='trialBorder'><div class='vertical-center'><img style='vertical-align:center; align:center' src=img/fixation3.jpg></div><div class='cl'><div class='vertical-center'>$35<br>in<br>12 weeks</div></div><div class='cr'><div class='vertical-center'>$34<br><br>now</div></div><div class='respDivL'><div class='vertical-center'>(E)</div></div><div class='respDivR'><div class='vertical-center'>(I)</div></div></div>","I","$34<br><br>now","$35<br>in<br>12 weeks","1","34","35","12","NOW"
"html-keyboard-response","57","77156","0.0-5.0-3.17","62e19208352cd518d7b2f085","bdp_td","Sat Mar 25 2023 19:38:53 GMT-0400 (Eastern Daylight Time)","99653","","null","","","","offerFB","","<div class='trialBorder'><div class='vertical-center'><img style='vertical-align:center; align:center' src=img/fixation3.jpg></div><div class='cl'><div class='vertical-center'>$35<br>in<br>12 weeks</div></div><div class='cr'><div class='vertical-center'><font style='color:orange'>$34<br><br>now</font></div></div><div class='respDivL'><div class='vertical-center'>(E)</div></div><div class='respDivR'><div class='vertical-center'><font style='color:orange'>(I)</font></div></div></div>","null","$34<br><br>now","$35<br>in<br>12 weeks","1","34","35","12",""
"html-keyboard-response","58","77660","0.0-5.0-1.18","62e19208352cd518d7b2f085","bdp_td","Sat Mar 25 2023 19:38:53 GMT-0400 (Eastern Daylight Time)","99653","","null","","","","FIX","","<div class='trialBorder'><div class='vertical-center'><img style='vertical-align:center; align:center' src=img/fixation3.jpg></div></div>","null","","","","","","",""
"html-keyboard-response","59","79235","0.0-5.0-2.18","62e19208352cd518d7b2f085","bdp_td","Sat Mar 25 2023 19:38:53 GMT-0400 (Eastern Daylight Time)","99653","","1575","","","","offer","","<div class='trialBorder'><div class='vertical-center'><img style='vertical-align:center; align:center' src=img/fixation3.jpg></div><div class='cl'><div class='vertical-center'>$30<br>in<br>12 weeks</div></div><div class='cr'><div class='vertical-center'>$28<br><br>now</div></div><div class='respDivL'><div class='vertical-center'>(E)</div></div><div class='respDivR'><div class='vertical-center'>(I)</div></div></div>","I","$28<br><br>now","$30<br>in<br>12 weeks","1","28","30","12","NOW"
"html-keyboard-response","60","79492","0.0-5.0-3.18","62e19208352cd518d7b2f085","bdp_td","Sat Mar 25 2023 19:38:53 GMT-0400 (Eastern Daylight Time)","99653","","null","","","","offerFB","","<div class='trialBorder'><div class='vertical-center'><img style='vertical-align:center; align:center' src=img/fixation3.jpg></div><div class='cl'><div class='vertical-center'>$30<br>in<br>12 weeks</div></div><div class='cr'><div class='vertical-center'><font style='color:orange'>$28<br><br>now</font></div></div><div class='respDivL'><div class='vertical-center'>(E)</div></div><div class='respDivR'><div class='vertical-center'><font style='color:orange'>(I)</font></div></div></div>","null","$28<br><br>now","$30<br>in<br>12 weeks","1","28","30","12",""
"html-keyboard-response","61","79996","0.0-5.0-1.19","62e19208352cd518d7b2f085","bdp_td","Sat Mar 25 2023 19:38:53 GMT-0400 (Eastern Daylight Time)","99653","","null","","","","FIX","","<div class='trialBorder'><div class='vertical-center'><img style='vertical-align:center; align:center' src=img/fixation3.jpg></div></div>","null","","","","","","",""
"html-keyboard-response","62","81435","0.0-5.0-2.19","62e19208352cd518d7b2f085","bdp_td","Sat Mar 25 2023 19:38:53 GMT-0400 (Eastern Daylight Time)","99653","","1438","","","","offer","","<div class='trialBorder'><div class='vertical-center'><img style='vertical-align:center; align:center' src=img/fixation3.jpg></div><div class='cl'><div class='vertical-center'>$50<br>in<br>6 weeks</div></div><div class='cr'><div class='vertical-center'>$34<br><br>now</div></div><div class='respDivL'><div class='vertical-center'>(E)</div></div><div class='respDivR'><div class='vertical-center'>(I)</div></div></div>","I","$34<br><br>now","$50<br>in<br>6 weeks","1","34","50","6","NOW"
"html-keyboard-response","63","81692","0.0-5.0-3.19","62e19208352cd518d7b2f085","bdp_td","Sat Mar 25 2023 19:38:53 GMT-0400 (Eastern Daylight Time)","99653","","null","","","","offerFB","","<div class='trialBorder'><div class='vertical-center'><img style='vertical-align:center; align:center' src=img/fixation3.jpg></div><div class='cl'><div class='vertical-center'>$50<br>in<br>6 weeks</div></div><div class='cr'><div class='vertical-center'><font style='color:orange'>$34<br><br>now</font></div></div><div class='respDivL'><div class='vertical-center'>(E)</div></div><div class='respDivR'><div class='vertical-center'><font style='color:orange'>(I)</font></div></div></div>","null","$34<br><br>now","$50<br>in<br>6 weeks","1","34","50","6",""
"html-keyboard-response","64","82220","0.0-5.0-1.20","62e19208352cd518d7b2f085","bdp_td","Sat Mar 25 2023 19:38:53 GMT-0400 (Eastern Daylight Time)","99653","","null","","","","FIX","","<div class='trialBorder'><div class='vertical-center'><img style='vertical-align:center; align:center' src=img/fixation3.jpg></div></div>","null","","","","","","",""
"html-keyboard-response","65","84766","0.0-5.0-2.20","62e19208352cd518d7b2f085","bdp_td","Sat Mar 25 2023 19:38:53 GMT-0400 (Eastern Daylight Time)","99653","","2545","","","","offer","","<div class='trialBorder'><div class='vertical-center'><img style='vertical-align:center; align:center' src=img/fixation3.jpg></div><div class='cl'><div class='vertical-center'>$75<br>in<br>6 weeks</div></div><div class='cr'><div class='vertical-center'>$55<br><br>now</div></div><div class='respDivL'><div class='vertical-center'>(E)</div></div><div class='respDivR'><div class='vertical-center'>(I)</div></div></div>","I","$55<br><br>now","$75<br>in<br>6 weeks","1","55","75","6","NOW"
"html-keyboard-response","66","85020","0.0-5.0-3.20","62e19208352cd518d7b2f085","bdp_td","Sat Mar 25 2023 19:38:53 GMT-0400 (Eastern Daylight Time)","99653","","null","","","","offerFB","","<div class='trialBorder'><div class='vertical-center'><img style='vertical-align:center; align:center' src=img/fixation3.jpg></div><div class='cl'><div class='vertical-center'>$75<br>in<br>6 weeks</div></div><div class='cr'><div class='vertical-center'><font style='color:orange'>$55<br><br>now</font></div></div><div class='respDivL'><div class='vertical-center'>(E)</div></div><div class='respDivR'><div class='vertical-center'><font style='color:orange'>(I)</font></div></div></div>","null","$55<br><br>now","$75<br>in<br>6 weeks","1","55","75","6",""
"html-keyboard-response","67","85524","0.0-5.0-1.21","62e19208352cd518d7b2f085","bdp_td","Sat Mar 25 2023 19:38:53 GMT-0400 (Eastern Daylight Time)","99653","","null","","","","FIX","","<div class='trialBorder'><div class='vertical-center'><img style='vertical-align:center; align:center' src=img/fixation3.jpg></div></div>","null","","","","","","",""
"html-keyboard-response","68","86851","0.0-5.0-2.21","62e19208352cd518d7b2f085","bdp_td","Sat Mar 25 2023 19:38:53 GMT-0400 (Eastern Daylight Time)","99653","","1326","","","","offer","","<div class='trialBorder'><div class='vertical-center'><img style='vertical-align:center; align:center' src=img/fixation3.jpg></div><div class='cl'><div class='vertical-center'>$47<br><br>now</div></div><div class='cr'><div class='vertical-center'>$50<br>in<br>12 weeks</div></div><div class='respDivL'><div class='vertical-center'>(E)</div></div><div class='respDivR'><div class='vertical-center'>(I)</div></div></div>","E","$47<br><br>now","$50<br>in<br>12 weeks","0","47","50","12","NOW"
"html-keyboard-response","69","87108","0.0-5.0-3.21","62e19208352cd518d7b2f085","bdp_td","Sat Mar 25 2023 19:38:53 GMT-0400 (Eastern Daylight Time)","99653","","null","","","","offerFB","","<div class='trialBorder'><div class='vertical-center'><img style='vertical-align:center; align:center' src=img/fixation3.jpg></div><div class='cl'><div class='vertical-center'><font style='color:orange'>$47<br><br>now</font></div></div><div class='cr'><div class='vertical-center'>$50<br>in<br>12 weeks</div></div><div class='respDivL'><div class='vertical-center'><font style='color:orange'>(E)</font></div></div><div class='respDivR'><div class='vertical-center'>(I)</div></div></div>","null","$47<br><br>now","$50<br>in<br>12 weeks","0","47","50","12",""
"html-keyboard-response","70","87612","0.0-5.0-1.22","62e19208352cd518d7b2f085","bdp_td","Sat Mar 25 2023 19:38:53 GMT-0400 (Eastern Daylight Time)","99653","","null","","","","FIX","","<div class='trialBorder'><div class='vertical-center'><img style='vertical-align:center; align:center' src=img/fixation3.jpg></div></div>","null","","","","","","",""
"html-keyboard-response","71","88916","0.0-5.0-2.22","62e19208352cd518d7b2f085","bdp_td","Sat Mar 25 2023 19:38:53 GMT-0400 (Eastern Daylight Time)","99653","","1302","","","","offer","","<div class='trialBorder'><div class='vertical-center'><img style='vertical-align:center; align:center' src=img/fixation3.jpg></div><div class='cl'><div class='vertical-center'>$25<br><br>now</div></div><div class='cr'><div class='vertical-center'>$30<br>in<br>6 weeks</div></div><div class='respDivL'><div class='vertical-center'>(E)</div></div><div class='respDivR'><div class='vertical-center'>(I)</div></div></div>","E","$25<br><br>now","$30<br>in<br>6 weeks","0","25","30","6","NOW"
"html-keyboard-response","72","89172","0.0-5.0-3.22","62e19208352cd518d7b2f085","bdp_td","Sat Mar 25 2023 19:38:53 GMT-0400 (Eastern Daylight Time)","99653","","null","","","","offerFB","","<div class='trialBorder'><div class='vertical-center'><img style='vertical-align:center; align:center' src=img/fixation3.jpg></div><div class='cl'><div class='vertical-center'><font style='color:orange'>$25<br><br>now</font></div></div><div class='cr'><div class='vertical-center'>$30<br>in<br>6 weeks</div></div><div class='respDivL'><div class='vertical-center'><font style='color:orange'>(E)</font></div></div><div class='respDivR'><div class='vertical-center'>(I)</div></div></div>","null","$25<br><br>now","$30<br>in<br>6 weeks","0","25","30","6",""
"html-keyboard-response","73","89676","0.0-5.0-1.23","62e19208352cd518d7b2f085","bdp_td","Sat Mar 25 2023 19:38:53 GMT-0400 (Eastern Daylight Time)","99653","","null","","","","FIX","","<div class='trialBorder'><div class='vertical-center'><img style='vertical-align:center; align:center' src=img/fixation3.jpg></div></div>","null","","","","","","",""
"html-keyboard-response","74","90715","0.0-5.0-2.23","62e19208352cd518d7b2f085","bdp_td","Sat Mar 25 2023 19:38:53 GMT-0400 (Eastern Daylight Time)","99653","","1038","","","","offer","","<div class='trialBorder'><div class='vertical-center'><img style='vertical-align:center; align:center' src=img/fixation3.jpg></div><div class='cl'><div class='vertical-center'>$25<br>in<br>6 weeks</div></div><div class='cr'><div class='vertical-center'>$19<br><br>now</div></div><div class='respDivL'><div class='vertical-center'>(E)</div></div><div class='respDivR'><div class='vertical-center'>(I)</div></div></div>","I","$19<br><br>now","$25<br>in<br>6 weeks","1","19","25","6","NOW"
"html-keyboard-response","75","90972","0.0-5.0-3.23","62e19208352cd518d7b2f085","bdp_td","Sat Mar 25 2023 19:38:53 GMT-0400 (Eastern Daylight Time)","99653","","null","","","","offerFB","","<div class='trialBorder'><div class='vertical-center'><img style='vertical-align:center; align:center' src=img/fixation3.jpg></div><div class='cl'><div class='vertical-center'>$25<br>in<br>6 weeks</div></div><div class='cr'><div class='vertical-center'><font style='color:orange'>$19<br><br>now</font></div></div><div class='respDivL'><div class='vertical-center'>(E)</div></div><div class='respDivR'><div class='vertical-center'><font style='color:orange'>(I)</font></div></div></div>","null","$19<br><br>now","$25<br>in<br>6 weeks","1","19","25","6",""
"html-keyboard-response","76","91476","0.0-5.0-1.24","62e19208352cd518d7b2f085","bdp_td","Sat Mar 25 2023 19:38:53 GMT-0400 (Eastern Daylight Time)","99653","","null","","","","FIX","","<div class='trialBorder'><div class='vertical-center'><img style='vertical-align:center; align:center' src=img/fixation3.jpg></div></div>","null","","","","","","",""
"html-keyboard-response","77","94115","0.0-5.0-2.24","62e19208352cd518d7b2f085","bdp_td","Sat Mar 25 2023 19:38:53 GMT-0400 (Eastern Daylight Time)","99653","","2637","","","","offer","","<div class='trialBorder'><div class='vertical-center'><img style='vertical-align:center; align:center' src=img/fixation3.jpg></div><div class='cl'><div class='vertical-center'>$35<br>in<br>3 weeks</div></div><div class='cr'><div class='vertical-center'>$24<br><br>now</div></div><div class='respDivL'><div class='vertical-center'>(E)</div></div><div class='respDivR'><div class='vertical-center'>(I)</div></div></div>","I","$24<br><br>now","$35<br>in<br>3 weeks","1","24","35","3","NOW"
"html-keyboard-response","78","94372","0.0-5.0-3.24","62e19208352cd518d7b2f085","bdp_td","Sat Mar 25 2023 19:38:53 GMT-0400 (Eastern Daylight Time)","99653","","null","","","","offerFB","","<div class='trialBorder'><div class='vertical-center'><img style='vertical-align:center; align:center' src=img/fixation3.jpg></div><div class='cl'><div class='vertical-center'>$35<br>in<br>3 weeks</div></div><div class='cr'><div class='vertical-center'><font style='color:orange'>$24<br><br>now</font></div></div><div class='respDivL'><div class='vertical-center'>(E)</div></div><div class='respDivR'><div class='vertical-center'><font style='color:orange'>(I)</font></div></div></div>","null","$24<br><br>now","$35<br>in<br>3 weeks","1","24","35","3",""
"html-keyboard-response","79","94879","0.0-5.0-1.25","62e19208352cd518d7b2f085","bdp_td","Sat Mar 25 2023 19:38:53 GMT-0400 (Eastern Daylight Time)","99653","","null","","","","FIX","","<div class='trialBorder'><div class='vertical-center'><img style='vertical-align:center; align:center' src=img/fixation3.jpg></div></div>","null","","","","","","",""
"html-keyboard-response","80","96211","0.0-5.0-2.25","62e19208352cd518d7b2f085","bdp_td","Sat Mar 25 2023 19:38:53 GMT-0400 (Eastern Daylight Time)","99653","","1330","","","","offer","","<div class='trialBorder'><div class='vertical-center'><img style='vertical-align:center; align:center' src=img/fixation3.jpg></div><div class='cl'><div class='vertical-center'>$40<br><br>now</div></div><div class='cr'><div class='vertical-center'>$55<br>in<br>6 weeks</div></div><div class='respDivL'><div class='vertical-center'>(E)</div></div><div class='respDivR'><div class='vertical-center'>(I)</div></div></div>","E","$40<br><br>now","$55<br>in<br>6 weeks","0","40","55","6","NOW"
"html-keyboard-response","81","96468","0.0-5.0-3.25","62e19208352cd518d7b2f085","bdp_td","Sat Mar 25 2023 19:38:53 GMT-0400 (Eastern Daylight Time)","99653","","null","","","","offerFB","","<div class='trialBorder'><div class='vertical-center'><img style='vertical-align:center; align:center' src=img/fixation3.jpg></div><div class='cl'><div class='vertical-center'><font style='color:orange'>$40<br><br>now</font></div></div><div class='cr'><div class='vertical-center'>$55<br>in<br>6 weeks</div></div><div class='respDivL'><div class='vertical-center'><font style='color:orange'>(E)</font></div></div><div class='respDivR'><div class='vertical-center'>(I)</div></div></div>","null","$40<br><br>now","$55<br>in<br>6 weeks","0","40","55","6",""
"html-keyboard-response","82","96973","0.0-5.0-1.26","62e19208352cd518d7b2f085","bdp_td","Sat Mar 25 2023 19:38:53 GMT-0400 (Eastern Daylight Time)","99653","","null","","","","FIX","","<div class='trialBorder'><div class='vertical-center'><img style='vertical-align:center; align:center' src=img/fixation3.jpg></div></div>","null","","","","","","",""
"html-keyboard-response","83","98387","0.0-5.0-2.26","62e19208352cd518d7b2f085","bdp_td","Sat Mar 25 2023 19:38:53 GMT-0400 (Eastern Daylight Time)","99653","","1409","","","","offer","","<div class='trialBorder'><div class='vertical-center'><img style='vertical-align:center; align:center' src=img/fixation3.jpg></div><div class='cl'><div class='vertical-center'>$30<br>in<br>2 weeks</div></div><div class='cr'><div class='vertical-center'>$11<br><br>now</div></div><div class='respDivL'><div class='vertical-center'>(E)</div></div><div class='respDivR'><div class='vertical-center'>(I)</div></div></div>","E","$11<br><br>now","$30<br>in<br>2 weeks","1","11","30","2","THEN"
"html-keyboard-response","84","98644","0.0-5.0-3.26","62e19208352cd518d7b2f085","bdp_td","Sat Mar 25 2023 19:38:53 GMT-0400 (Eastern Daylight Time)","99653","","null","","","","offerFB","","<div class='trialBorder'><div class='vertical-center'><img style='vertical-align:center; align:center' src=img/fixation3.jpg></div><div class='cl'><div class='vertical-center'><font style='color:orange'>$30<br>in<br>2 weeks</font></div></div><div class='cr'><div class='vertical-center'>$11<br><br>now</div></div><div class='respDivL'><div class='vertical-center'><font style='color:orange'>(E)</font></div></div><div class='respDivR'><div class='vertical-center'>(I)</div></div></div>","null","$11<br><br>now","$30<br>in<br>2 weeks","1","11","30","2",""
"","","","","62e19208352cd518d7b2f085","bdp_td","Sat Mar 25 2023 19:38:53 GMT-0400 (Eastern Daylight Time)","99653","","","fullscreenexit","85","98653","fullscreenexit","","","","","","","","","",""
"fullscreen","85","99652","0.0-6.0","62e19208352cd518d7b2f085","bdp_td","Sat Mar 25 2023 19:38:53 GMT-0400 (Eastern Daylight Time)","99653","","","","","","","true","","","","","","","","",""
"html-keyboard-response","86","100156","0.0-7.0","","","","","","null","","","","","","","null","","","","","","",""
