"trial_type","trial_index","time_elapsed","internal_node_id","subject_id","task","startTime","totalTime","view_history","rt","event","trial","time","trialtype","success","stimulus","key_press","nowOffer","thenOffer","thenLeft","nowAmt","thenAmt","thenWeeks","chosen"
"pavlovia","0","13","0.0-0.0","5e2cd786dc63ca2ff798a0ca","bdp_td","Tue Mar 28 2023 22:46:58 GMT-0500 (Central Daylight Time)","125957","","","","","","","","","","","","","","","",""
"instructions","1","63421","0.0-1.0","5e2cd786dc63ca2ff798a0ca","bdp_td","Tue Mar 28 2023 22:46:58 GMT-0500 (Central Daylight Time)","125957","[{""page_index"":0,""viewing_time"":63407}]","63407","","","","","","","","","","","","","",""
"","","","","5e2cd786dc63ca2ff798a0ca","bdp_td","Tue Mar 28 2023 22:46:58 GMT-0500 (Central Daylight Time)","125957","","","fullscreenenter","2","66475","fullscreenenter","","","","","","","","","",""
"fullscreen","2","67436","0.0-2.0","5e2cd786dc63ca2ff798a0ca","bdp_td","Tue Mar 28 2023 22:46:58 GMT-0500 (Central Daylight Time)","125957","","","","","","","true","","","","","","","","",""
"instructions","3","78868","0.0-4.0","5e2cd786dc63ca2ff798a0ca","bdp_td","Tue Mar 28 2023 22:46:58 GMT-0500 (Central Daylight Time)","125957","[{""page_index"":0,""viewing_time"":3369},{""page_index"":1,""viewing_time"":3330},{""page_index"":2,""viewing_time"":4731}]","11430","","","","","","","","","","","","","",""
"html-keyboard-response","4","79372","0.0-5.0-1.0","5e2cd786dc63ca2ff798a0ca","bdp_td","Tue Mar 28 2023 22:46:58 GMT-0500 (Central Daylight Time)","125957","","null","","","","FIX","","<div class='trialBorder'><div class='vertical-center'><img style='vertical-align:center; align:center' src=img/fixation3.jpg></div></div>","null","","","","","","",""
"html-keyboard-response","5","83237","0.0-5.0-2.0","5e2cd786dc63ca2ff798a0ca","bdp_td","Tue Mar 28 2023 22:46:58 GMT-0500 (Central Daylight Time)","125957","","3862","","","","offer","","<div class='trialBorder'><div class='vertical-center'><img style='vertical-align:center; align:center' src=img/fixation3.jpg></div><div class='cl'><div class='vertical-center'>$30<br>in<br>6 weeks</div></div><div class='cr'><div class='vertical-center'>$25<br><br>now</div></div><div class='respDivL'><div class='vertical-center'>(E)</div></div><div class='respDivR'><div class='vertical-center'>(I)</div></div></div>","I","$25<br><br>now","$30<br>in<br>6 weeks","1","25","30","6","NOW"
"html-keyboard-response","6","83490","0.0-5.0-3.0","5e2cd786dc63ca2ff798a0ca","bdp_td","Tue Mar 28 2023 22:46:58 GMT-0500 (Central Daylight Time)","125957","","null","","","","offerFB","","<div class='trialBorder'><div class='vertical-center'><img style='vertical-align:center; align:center' src=img/fixation3.jpg></div><div class='cl'><div class='vertical-center'>$30<br>in<br>6 weeks</div></div><div class='cr'><div class='vertical-center'><font style='color:orange'>$25<br><br>now</font></div></div><div class='respDivL'><div class='vertical-center'>(E)</div></div><div class='respDivR'><div class='vertical-center'><font style='color:orange'>(I)</font></div></div></div>","null","$25<br><br>now","$30<br>in<br>6 weeks","1","25","30","6",""
"html-keyboard-response","7","83992","0.0-5.0-1.1","5e2cd786dc63ca2ff798a0ca","bdp_td","Tue Mar 28 2023 22:46:58 GMT-0500 (Central Daylight Time)","125957","","null","","","","FIX","","<div class='trialBorder'><div class='vertical-center'><img style='vertical-align:center; align:center' src=img/fixation3.jpg></div></div>","null","","","","","","",""
"html-keyboard-response","8","84700","0.0-5.0-2.1","5e2cd786dc63ca2ff798a0ca","bdp_td","Tue Mar 28 2023 22:46:58 GMT-0500 (Central Daylight Time)","125957","","706","","","","offer","","<div class='trialBorder'><div class='vertical-center'><img style='vertical-align:center; align:center' src=img/fixation3.jpg></div><div class='cl'><div class='vertical-center'>$24<br><br>now</div></div><div class='cr'><div class='vertical-center'>$35<br>in<br>3 weeks</div></div><div class='respDivL'><div class='vertical-center'>(E)</div></div><div class='respDivR'><div class='vertical-center'>(I)</div></div></div>","E","$24<br><br>now","$35<br>in<br>3 weeks","0","24","35","3","NOW"
"html-keyboard-response","9","84952","0.0-5.0-3.1","5e2cd786dc63ca2ff798a0ca","bdp_td","Tue Mar 28 2023 22:46:58 GMT-0500 (Central Daylight Time)","125957","","null","","","","offerFB","","<div class='trialBorder'><div class='vertical-center'><img style='vertical-align:center; align:center' src=img/fixation3.jpg></div><div class='cl'><div class='vertical-center'><font style='color:orange'>$24<br><br>now</font></div></div><div class='cr'><div class='vertical-center'>$35<br>in<br>3 weeks</div></div><div class='respDivL'><div class='vertical-center'><font style='color:orange'>(E)</font></div></div><div class='respDivR'><div class='vertical-center'>(I)</div></div></div>","null","$24<br><br>now","$35<br>in<br>3 weeks","0","24","35","3",""
"html-keyboard-response","10","85454","0.0-5.0-1.2","5e2cd786dc63ca2ff798a0ca","bdp_td","Tue Mar 28 2023 22:46:58 GMT-0500 (Central Daylight Time)","125957","","null","","","","FIX","","<div class='trialBorder'><div class='vertical-center'><img style='vertical-align:center; align:center' src=img/fixation3.jpg></div></div>","null","","","","","","",""
"html-keyboard-response","11","85469","0.0-5.0-2.2","5e2cd786dc63ca2ff798a0ca","bdp_td","Tue Mar 28 2023 22:46:58 GMT-0500 (Central Daylight Time)","125957","","14","","","","offer","","<div class='trialBorder'><div class='vertical-center'><img style='vertical-align:center; align:center' src=img/fixation3.jpg></div><div class='cl'><div class='vertical-center'>$75<br>in<br>3 weeks</div></div><div class='cr'><div class='vertical-center'>$41<br><br>now</div></div><div class='respDivL'><div class='vertical-center'>(E)</div></div><div class='respDivR'><div class='vertical-center'>(I)</div></div></div>","I","$41<br><br>now","$75<br>in<br>3 weeks","1","41","75","3","NOW"
"html-keyboard-response","12","85722","0.0-5.0-3.2","5e2cd786dc63ca2ff798a0ca","bdp_td","Tue Mar 28 2023 22:46:58 GMT-0500 (Central Daylight Time)","125957","","null","","","","offerFB","","<div class='trialBorder'><div class='vertical-center'><img style='vertical-align:center; align:center' src=img/fixation3.jpg></div><div class='cl'><div class='vertical-center'>$75<br>in<br>3 weeks</div></div><div class='cr'><div class='vertical-center'><font style='color:orange'>$41<br><br>now</font></div></div><div class='respDivL'><div class='vertical-center'>(E)</div></div><div class='respDivR'><div class='vertical-center'><font style='color:orange'>(I)</font></div></div></div>","null","$41<br><br>now","$75<br>in<br>3 weeks","1","41","75","3",""
"html-keyboard-response","13","86223","0.0-5.0-1.3","5e2cd786dc63ca2ff798a0ca","bdp_td","Tue Mar 28 2023 22:46:58 GMT-0500 (Central Daylight Time)","125957","","null","","","","FIX","","<div class='trialBorder'><div class='vertical-center'><img style='vertical-align:center; align:center' src=img/fixation3.jpg></div></div>","null","","","","","","",""
"html-keyboard-response","14","86737","0.0-5.0-2.3","5e2cd786dc63ca2ff798a0ca","bdp_td","Tue Mar 28 2023 22:46:58 GMT-0500 (Central Daylight Time)","125957","","512","","","","offer","","<div class='trialBorder'><div class='vertical-center'><img style='vertical-align:center; align:center' src=img/fixation3.jpg></div><div class='cl'><div class='vertical-center'>$25<br>in<br>3 weeks</div></div><div class='cr'><div class='vertical-center'>$14<br><br>now</div></div><div class='respDivL'><div class='vertical-center'>(E)</div></div><div class='respDivR'><div class='vertical-center'>(I)</div></div></div>","I","$14<br><br>now","$25<br>in<br>3 weeks","1","14","25","3","NOW"
"html-keyboard-response","15","86990","0.0-5.0-3.3","5e2cd786dc63ca2ff798a0ca","bdp_td","Tue Mar 28 2023 22:46:58 GMT-0500 (Central Daylight Time)","125957","","null","","","","offerFB","","<div class='trialBorder'><div class='vertical-center'><img style='vertical-align:center; align:center' src=img/fixation3.jpg></div><div class='cl'><div class='vertical-center'>$25<br>in<br>3 weeks</div></div><div class='cr'><div class='vertical-center'><font style='color:orange'>$14<br><br>now</font></div></div><div class='respDivL'><div class='vertical-center'>(E)</div></div><div class='respDivR'><div class='vertical-center'><font style='color:orange'>(I)</font></div></div></div>","null","$14<br><br>now","$25<br>in<br>3 weeks","1","14","25","3",""
"html-keyboard-response","16","87494","0.0-5.0-1.4","5e2cd786dc63ca2ff798a0ca","bdp_td","Tue Mar 28 2023 22:46:58 GMT-0500 (Central Daylight Time)","125957","","null","","","","FIX","","<div class='trialBorder'><div class='vertical-center'><img style='vertical-align:center; align:center' src=img/fixation3.jpg></div></div>","null","","","","","","",""
"html-keyboard-response","17","87929","0.0-5.0-2.4","5e2cd786dc63ca2ff798a0ca","bdp_td","Tue Mar 28 2023 22:46:58 GMT-0500 (Central Daylight Time)","125957","","432","","","","offer","","<div class='trialBorder'><div class='vertical-center'><img style='vertical-align:center; align:center' src=img/fixation3.jpg></div><div class='cl'><div class='vertical-center'>$55<br>in<br>12 weeks</div></div><div class='cr'><div class='vertical-center'>$54<br><br>now</div></div><div class='respDivL'><div class='vertical-center'>(E)</div></div><div class='respDivR'><div class='vertical-center'>(I)</div></div></div>","I","$54<br><br>now","$55<br>in<br>12 weeks","1","54","55","12","NOW"
"html-keyboard-response","18","88181","0.0-5.0-3.4","5e2cd786dc63ca2ff798a0ca","bdp_td","Tue Mar 28 2023 22:46:58 GMT-0500 (Central Daylight Time)","125957","","null","","","","offerFB","","<div class='trialBorder'><div class='vertical-center'><img style='vertical-align:center; align:center' src=img/fixation3.jpg></div><div class='cl'><div class='vertical-center'>$55<br>in<br>12 weeks</div></div><div class='cr'><div class='vertical-center'><font style='color:orange'>$54<br><br>now</font></div></div><div class='respDivL'><div class='vertical-center'>(E)</div></div><div class='respDivR'><div class='vertical-center'><font style='color:orange'>(I)</font></div></div></div>","null","$54<br><br>now","$55<br>in<br>12 weeks","1","54","55","12",""
"html-keyboard-response","19","88683","0.0-5.0-1.5","5e2cd786dc63ca2ff798a0ca","bdp_td","Tue Mar 28 2023 22:46:58 GMT-0500 (Central Daylight Time)","125957","","null","","","","FIX","","<div class='trialBorder'><div class='vertical-center'><img style='vertical-align:center; align:center' src=img/fixation3.jpg></div></div>","null","","","","","","",""
"html-keyboard-response","20","88939","0.0-5.0-2.5","5e2cd786dc63ca2ff798a0ca","bdp_td","Tue Mar 28 2023 22:46:58 GMT-0500 (Central Daylight Time)","125957","","255","","","","offer","","<div class='trialBorder'><div class='vertical-center'><img style='vertical-align:center; align:center' src=img/fixation3.jpg></div><div class='cl'><div class='vertical-center'>$60<br>in<br>12 weeks</div></div><div class='cr'><div class='vertical-center'>$54<br><br>now</div></div><div class='respDivL'><div class='vertical-center'>(E)</div></div><div class='respDivR'><div class='vertical-center'>(I)</div></div></div>","E","$54<br><br>now","$60<br>in<br>12 weeks","1","54","60","12","THEN"
"html-keyboard-response","21","89194","0.0-5.0-3.5","5e2cd786dc63ca2ff798a0ca","bdp_td","Tue Mar 28 2023 22:46:58 GMT-0500 (Central Daylight Time)","125957","","null","","","","offerFB","","<div class='trialBorder'><div class='vertical-center'><img style='vertical-align:center; align:center' src=img/fixation3.jpg></div><div class='cl'><div class='vertical-center'><font style='color:orange'>$60<br>in<br>12 weeks</font></div></div><div class='cr'><div class='vertical-center'>$54<br><br>now</div></div><div class='respDivL'><div class='vertical-center'><font style='color:orange'>(E)</font></div></div><div class='respDivR'><div class='vertical-center'>(I)</div></div></div>","null","$54<br><br>now","$60<br>in<br>12 weeks","1","54","60","12",""
"html-keyboard-response","22","89696","0.0-5.0-1.6","5e2cd786dc63ca2ff798a0ca","bdp_td","Tue Mar 28 2023 22:46:58 GMT-0500 (Central Daylight Time)","125957","","null","","","","FIX","","<div class='trialBorder'><div class='vertical-center'><img style='vertical-align:center; align:center' src=img/fixation3.jpg></div></div>","null","","","","","","",""
"html-keyboard-response","23","89951","0.0-5.0-2.6","5e2cd786dc63ca2ff798a0ca","bdp_td","Tue Mar 28 2023 22:46:58 GMT-0500 (Central Daylight Time)","125957","","254","","","","offer","","<div class='trialBorder'><div class='vertical-center'><img style='vertical-align:center; align:center' src=img/fixation3.jpg></div><div class='cl'><div class='vertical-center'>$75<br>in<br>6 weeks</div></div><div class='cr'><div class='vertical-center'>$55<br><br>now</div></div><div class='respDivL'><div class='vertical-center'>(E)</div></div><div class='respDivR'><div class='vertical-center'>(I)</div></div></div>","I","$55<br><br>now","$75<br>in<br>6 weeks","1","55","75","6","NOW"
"html-keyboard-response","24","90204","0.0-5.0-3.6","5e2cd786dc63ca2ff798a0ca","bdp_td","Tue Mar 28 2023 22:46:58 GMT-0500 (Central Daylight Time)","125957","","null","","","","offerFB","","<div class='trialBorder'><div class='vertical-center'><img style='vertical-align:center; align:center' src=img/fixation3.jpg></div><div class='cl'><div class='vertical-center'>$75<br>in<br>6 weeks</div></div><div class='cr'><div class='vertical-center'><font style='color:orange'>$55<br><br>now</font></div></div><div class='respDivL'><div class='vertical-center'>(E)</div></div><div class='respDivR'><div class='vertical-center'><font style='color:orange'>(I)</font></div></div></div>","null","$55<br><br>now","$75<br>in<br>6 weeks","1","55","75","6",""
"html-keyboard-response","25","90706","0.0-5.0-1.7","5e2cd786dc63ca2ff798a0ca","bdp_td","Tue Mar 28 2023 22:46:58 GMT-0500 (Central Daylight Time)","125957","","null","","","","FIX","","<div class='trialBorder'><div class='vertical-center'><img style='vertical-align:center; align:center' src=img/fixation3.jpg></div></div>","null","","","","","","",""
"html-keyboard-response","26","91301","0.0-5.0-2.7","5e2cd786dc63ca2ff798a0ca","bdp_td","Tue Mar 28 2023 22:46:58 GMT-0500 (Central Daylight Time)","125957","","594","","","","offer","","<div class='trialBorder'><div class='vertical-center'><img style='vertical-align:center; align:center' src=img/fixation3.jpg></div><div class='cl'><div class='vertical-center'>$80<br>in<br>12 weeks</div></div><div class='cr'><div class='vertical-center'>$78<br><br>now</div></div><div class='respDivL'><div class='vertical-center'>(E)</div></div><div class='respDivR'><div class='vertical-center'>(I)</div></div></div>","I","$78<br><br>now","$80<br>in<br>12 weeks","1","78","80","12","NOW"
"html-keyboard-response","27","91555","0.0-5.0-3.7","5e2cd786dc63ca2ff798a0ca","bdp_td","Tue Mar 28 2023 22:46:58 GMT-0500 (Central Daylight Time)","125957","","null","","","","offerFB","","<div class='trialBorder'><div class='vertical-center'><img style='vertical-align:center; align:center' src=img/fixation3.jpg></div><div class='cl'><div class='vertical-center'>$80<br>in<br>12 weeks</div></div><div class='cr'><div class='vertical-center'><font style='color:orange'>$78<br><br>now</font></div></div><div class='respDivL'><div class='vertical-center'>(E)</div></div><div class='respDivR'><div class='vertical-center'><font style='color:orange'>(I)</font></div></div></div>","null","$78<br><br>now","$80<br>in<br>12 weeks","1","78","80","12",""
"html-keyboard-response","28","92057","0.0-5.0-1.8","5e2cd786dc63ca2ff798a0ca","bdp_td","Tue Mar 28 2023 22:46:58 GMT-0500 (Central Daylight Time)","125957","","null","","","","FIX","","<div class='trialBorder'><div class='vertical-center'><img style='vertical-align:center; align:center' src=img/fixation3.jpg></div></div>","null","","","","","","",""
"html-keyboard-response","29","93505","0.0-5.0-2.8","5e2cd786dc63ca2ff798a0ca","bdp_td","Tue Mar 28 2023 22:46:58 GMT-0500 (Central Daylight Time)","125957","","1444","","","","offer","","<div class='trialBorder'><div class='vertical-center'><img style='vertical-align:center; align:center' src=img/fixation3.jpg></div><div class='cl'><div class='vertical-center'>$85<br>in<br>12 weeks</div></div><div class='cr'><div class='vertical-center'>$80<br><br>now</div></div><div class='respDivL'><div class='vertical-center'>(E)</div></div><div class='respDivR'><div class='vertical-center'>(I)</div></div></div>","I","$80<br><br>now","$85<br>in<br>12 weeks","1","80","85","12","NOW"
"html-keyboard-response","30","93759","0.0-5.0-3.8","5e2cd786dc63ca2ff798a0ca","bdp_td","Tue Mar 28 2023 22:46:58 GMT-0500 (Central Daylight Time)","125957","","null","","","","offerFB","","<div class='trialBorder'><div class='vertical-center'><img style='vertical-align:center; align:center' src=img/fixation3.jpg></div><div class='cl'><div class='vertical-center'>$85<br>in<br>12 weeks</div></div><div class='cr'><div class='vertical-center'><font style='color:orange'>$80<br><br>now</font></div></div><div class='respDivL'><div class='vertical-center'>(E)</div></div><div class='respDivR'><div class='vertical-center'><font style='color:orange'>(I)</font></div></div></div>","null","$80<br><br>now","$85<br>in<br>12 weeks","1","80","85","12",""
"html-keyboard-response","31","94261","0.0-5.0-1.9","5e2cd786dc63ca2ff798a0ca","bdp_td","Tue Mar 28 2023 22:46:58 GMT-0500 (Central Daylight Time)","125957","","null","","","","FIX","","<div class='trialBorder'><div class='vertical-center'><img style='vertical-align:center; align:center' src=img/fixation3.jpg></div></div>","null","","","","","","",""
"html-keyboard-response","32","95159","0.0-5.0-2.9","5e2cd786dc63ca2ff798a0ca","bdp_td","Tue Mar 28 2023 22:46:58 GMT-0500 (Central Daylight Time)","125957","","897","","","","offer","","<div class='trialBorder'><div class='vertical-center'><img style='vertical-align:center; align:center' src=img/fixation3.jpg></div><div class='cl'><div class='vertical-center'>$50<br>in<br>3 weeks</div></div><div class='cr'><div class='vertical-center'>$27<br><br>now</div></div><div class='respDivL'><div class='vertical-center'>(E)</div></div><div class='respDivR'><div class='vertical-center'>(I)</div></div></div>","I","$27<br><br>now","$50<br>in<br>3 weeks","1","27","50","3","NOW"
"html-keyboard-response","33","95412","0.0-5.0-3.9","5e2cd786dc63ca2ff798a0ca","bdp_td","Tue Mar 28 2023 22:46:58 GMT-0500 (Central Daylight Time)","125957","","null","","","","offerFB","","<div class='trialBorder'><div class='vertical-center'><img style='vertical-align:center; align:center' src=img/fixation3.jpg></div><div class='cl'><div class='vertical-center'>$50<br>in<br>3 weeks</div></div><div class='cr'><div class='vertical-center'><font style='color:orange'>$27<br><br>now</font></div></div><div class='respDivL'><div class='vertical-center'>(E)</div></div><div class='respDivR'><div class='vertical-center'><font style='color:orange'>(I)</font></div></div></div>","null","$27<br><br>now","$50<br>in<br>3 weeks","1","27","50","3",""
"html-keyboard-response","34","95915","0.0-5.0-1.10","5e2cd786dc63ca2ff798a0ca","bdp_td","Tue Mar 28 2023 22:46:58 GMT-0500 (Central Daylight Time)","125957","","null","","","","FIX","","<div class='trialBorder'><div class='vertical-center'><img style='vertical-align:center; align:center' src=img/fixation3.jpg></div></div>","null","","","","","","",""
"html-keyboard-response","35","96281","0.0-5.0-2.10","5e2cd786dc63ca2ff798a0ca","bdp_td","Tue Mar 28 2023 22:46:58 GMT-0500 (Central Daylight Time)","125957","","365","","","","offer","","<div class='trialBorder'><div class='vertical-center'><img style='vertical-align:center; align:center' src=img/fixation3.jpg></div><div class='cl'><div class='vertical-center'>$34<br><br>now</div></div><div class='cr'><div class='vertical-center'>$50<br>in<br>6 weeks</div></div><div class='respDivL'><div class='vertical-center'>(E)</div></div><div class='respDivR'><div class='vertical-center'>(I)</div></div></div>","I","$34<br><br>now","$50<br>in<br>6 weeks","0","34","50","6","THEN"
"html-keyboard-response","36","96533","0.0-5.0-3.10","5e2cd786dc63ca2ff798a0ca","bdp_td","Tue Mar 28 2023 22:46:58 GMT-0500 (Central Daylight Time)","125957","","null","","","","offerFB","","<div class='trialBorder'><div class='vertical-center'><img style='vertical-align:center; align:center' src=img/fixation3.jpg></div><div class='cl'><div class='vertical-center'>$34<br><br>now</div></div><div class='cr'><div class='vertical-center'><font style='color:orange'>$50<br>in<br>6 weeks</font></div></div><div class='respDivL'><div class='vertical-center'>(E)</div></div><div class='respDivR'><div class='vertical-center'><font style='color:orange'>(I)</font></div></div></div>","null","$34<br><br>now","$50<br>in<br>6 weeks","0","34","50","6",""
"html-keyboard-response","37","97035","0.0-5.0-1.11","5e2cd786dc63ca2ff798a0ca","bdp_td","Tue Mar 28 2023 22:46:58 GMT-0500 (Central Daylight Time)","125957","","null","","","","FIX","","<div class='trialBorder'><div class='vertical-center'><img style='vertical-align:center; align:center' src=img/fixation3.jpg></div></div>","null","","","","","","",""
"html-keyboard-response","38","97359","0.0-5.0-2.11","5e2cd786dc63ca2ff798a0ca","bdp_td","Tue Mar 28 2023 22:46:58 GMT-0500 (Central Daylight Time)","125957","","321","","","","offer","","<div class='trialBorder'><div class='vertical-center'><img style='vertical-align:center; align:center' src=img/fixation3.jpg></div><div class='cl'><div class='vertical-center'>$35<br>in<br>12 weeks</div></div><div class='cr'><div class='vertical-center'>$34<br><br>now</div></div><div class='respDivL'><div class='vertical-center'>(E)</div></div><div class='respDivR'><div class='vertical-center'>(I)</div></div></div>","I","$34<br><br>now","$35<br>in<br>12 weeks","1","34","35","12","NOW"
"html-keyboard-response","39","97612","0.0-5.0-3.11","5e2cd786dc63ca2ff798a0ca","bdp_td","Tue Mar 28 2023 22:46:58 GMT-0500 (Central Daylight Time)","125957","","null","","","","offerFB","","<div class='trialBorder'><div class='vertical-center'><img style='vertical-align:center; align:center' src=img/fixation3.jpg></div><div class='cl'><div class='vertical-center'>$35<br>in<br>12 weeks</div></div><div class='cr'><div class='vertical-center'><font style='color:orange'>$34<br><br>now</font></div></div><div class='respDivL'><div class='vertical-center'>(E)</div></div><div class='respDivR'><div class='vertical-center'><font style='color:orange'>(I)</font></div></div></div>","null","$34<br><br>now","$35<br>in<br>12 weeks","1","34","35","12",""
"html-keyboard-response","40","98114","0.0-5.0-1.12","5e2cd786dc63ca2ff798a0ca","bdp_td","Tue Mar 28 2023 22:46:58 GMT-0500 (Central Daylight Time)","125957","","null","","","","FIX","","<div class='trialBorder'><div class='vertical-center'><img style='vertical-align:center; align:center' src=img/fixation3.jpg></div></div>","null","","","","","","",""
"html-keyboard-response","41","98213","0.0-5.0-2.12","5e2cd786dc63ca2ff798a0ca","bdp_td","Tue Mar 28 2023 22:46:58 GMT-0500 (Central Daylight Time)","125957","","97","","","","offer","","<div class='trialBorder'><div class='vertical-center'><img style='vertical-align:center; align:center' src=img/fixation3.jpg></div><div class='cl'><div class='vertical-center'>$28<br><br>now</div></div><div class='cr'><div class='vertical-center'>$30<br>in<br>12 weeks</div></div><div class='respDivL'><div class='vertical-center'>(E)</div></div><div class='respDivR'><div class='vertical-center'>(I)</div></div></div>","I","$28<br><br>now","$30<br>in<br>12 weeks","0","28","30","12","THEN"
"html-keyboard-response","42","98465","0.0-5.0-3.12","5e2cd786dc63ca2ff798a0ca","bdp_td","Tue Mar 28 2023 22:46:58 GMT-0500 (Central Daylight Time)","125957","","null","","","","offerFB","","<div class='trialBorder'><div class='vertical-center'><img style='vertical-align:center; align:center' src=img/fixation3.jpg></div><div class='cl'><div class='vertical-center'>$28<br><br>now</div></div><div class='cr'><div class='vertical-center'><font style='color:orange'>$30<br>in<br>12 weeks</font></div></div><div class='respDivL'><div class='vertical-center'>(E)</div></div><div class='respDivR'><div class='vertical-center'><font style='color:orange'>(I)</font></div></div></div>","null","$28<br><br>now","$30<br>in<br>12 weeks","0","28","30","12",""
"html-keyboard-response","43","98967","0.0-5.0-1.13","5e2cd786dc63ca2ff798a0ca","bdp_td","Tue Mar 28 2023 22:46:58 GMT-0500 (Central Daylight Time)","125957","","null","","","","FIX","","<div class='trialBorder'><div class='vertical-center'><img style='vertical-align:center; align:center' src=img/fixation3.jpg></div></div>","null","","","","","","",""
"html-keyboard-response","44","99225","0.0-5.0-2.13","5e2cd786dc63ca2ff798a0ca","bdp_td","Tue Mar 28 2023 22:46:58 GMT-0500 (Central Daylight Time)","125957","","255","","","","offer","","<div class='trialBorder'><div class='vertical-center'><img style='vertical-align:center; align:center' src=img/fixation3.jpg></div><div class='cl'><div class='vertical-center'>$67<br><br>now</div></div><div class='cr'><div class='vertical-center'>$75<br>in<br>12 weeks</div></div><div class='respDivL'><div class='vertical-center'>(E)</div></div><div class='respDivR'><div class='vertical-center'>(I)</div></div></div>","I","$67<br><br>now","$75<br>in<br>12 weeks","0","67","75","12","THEN"
"html-keyboard-response","45","99478","0.0-5.0-3.13","5e2cd786dc63ca2ff798a0ca","bdp_td","Tue Mar 28 2023 22:46:58 GMT-0500 (Central Daylight Time)","125957","","null","","","","offerFB","","<div class='trialBorder'><div class='vertical-center'><img style='vertical-align:center; align:center' src=img/fixation3.jpg></div><div class='cl'><div class='vertical-center'>$67<br><br>now</div></div><div class='cr'><div class='vertical-center'><font style='color:orange'>$75<br>in<br>12 weeks</font></div></div><div class='respDivL'><div class='vertical-center'>(E)</div></div><div class='respDivR'><div class='vertical-center'><font style='color:orange'>(I)</font></div></div></div>","null","$67<br><br>now","$75<br>in<br>12 weeks","0","67","75","12",""
"html-keyboard-response","46","99980","0.0-5.0-1.14","5e2cd786dc63ca2ff798a0ca","bdp_td","Tue Mar 28 2023 22:46:58 GMT-0500 (Central Daylight Time)","125957","","null","","","","FIX","","<div class='trialBorder'><div class='vertical-center'><img style='vertical-align:center; align:center' src=img/fixation3.jpg></div></div>","null","","","","","","",""
"html-keyboard-response","47","100526","0.0-5.0-2.14","5e2cd786dc63ca2ff798a0ca","bdp_td","Tue Mar 28 2023 22:46:58 GMT-0500 (Central Daylight Time)","125957","","545","","","","offer","","<div class='trialBorder'><div class='vertical-center'><img style='vertical-align:center; align:center' src=img/fixation3.jpg></div><div class='cl'><div class='vertical-center'>$60<br>in<br>6 weeks</div></div><div class='cr'><div class='vertical-center'>$49<br><br>now</div></div><div class='respDivL'><div class='vertical-center'>(E)</div></div><div class='respDivR'><div class='vertical-center'>(I)</div></div></div>","E","$49<br><br>now","$60<br>in<br>6 weeks","1","49","60","6","THEN"
"html-keyboard-response","48","100778","0.0-5.0-3.14","5e2cd786dc63ca2ff798a0ca","bdp_td","Tue Mar 28 2023 22:46:58 GMT-0500 (Central Daylight Time)","125957","","null","","","","offerFB","","<div class='trialBorder'><div class='vertical-center'><img style='vertical-align:center; align:center' src=img/fixation3.jpg></div><div class='cl'><div class='vertical-center'><font style='color:orange'>$60<br>in<br>6 weeks</font></div></div><div class='cr'><div class='vertical-center'>$49<br><br>now</div></div><div class='respDivL'><div class='vertical-center'><font style='color:orange'>(E)</font></div></div><div class='respDivR'><div class='vertical-center'>(I)</div></div></div>","null","$49<br><br>now","$60<br>in<br>6 weeks","1","49","60","6",""
"html-keyboard-response","49","101281","0.0-5.0-1.15","5e2cd786dc63ca2ff798a0ca","bdp_td","Tue Mar 28 2023 22:46:58 GMT-0500 (Central Daylight Time)","125957","","null","","","","FIX","","<div class='trialBorder'><div class='vertical-center'><img style='vertical-align:center; align:center' src=img/fixation3.jpg></div></div>","null","","","","","","",""
"html-keyboard-response","50","101524","0.0-5.0-2.15","5e2cd786dc63ca2ff798a0ca","bdp_td","Tue Mar 28 2023 22:46:58 GMT-0500 (Central Daylight Time)","125957","","241","","","","offer","","<div class='trialBorder'><div class='vertical-center'><img style='vertical-align:center; align:center' src=img/fixation3.jpg></div><div class='cl'><div class='vertical-center'>$33<br><br>now</div></div><div class='cr'><div class='vertical-center'>$80<br>in<br>2 weeks</div></div><div class='respDivL'><div class='vertical-center'>(E)</div></div><div class='respDivR'><div class='vertical-center'>(I)</div></div></div>","E","$33<br><br>now","$80<br>in<br>2 weeks","0","33","80","2","NOW"
"html-keyboard-response","51","101775","0.0-5.0-3.15","5e2cd786dc63ca2ff798a0ca","bdp_td","Tue Mar 28 2023 22:46:58 GMT-0500 (Central Daylight Time)","125957","","null","","","","offerFB","","<div class='trialBorder'><div class='vertical-center'><img style='vertical-align:center; align:center' src=img/fixation3.jpg></div><div class='cl'><div class='vertical-center'><font style='color:orange'>$33<br><br>now</font></div></div><div class='cr'><div class='vertical-center'>$80<br>in<br>2 weeks</div></div><div class='respDivL'><div class='vertical-center'><font style='color:orange'>(E)</font></div></div><div class='respDivR'><div class='vertical-center'>(I)</div></div></div>","null","$33<br><br>now","$80<br>in<br>2 weeks","0","33","80","2",""
"html-keyboard-response","52","102277","0.0-5.0-1.16","5e2cd786dc63ca2ff798a0ca","bdp_td","Tue Mar 28 2023 22:46:58 GMT-0500 (Central Daylight Time)","125957","","null","","","","FIX","","<div class='trialBorder'><div class='vertical-center'><img style='vertical-align:center; align:center' src=img/fixation3.jpg></div></div>","null","","","","","","",""
"html-keyboard-response","53","102294","0.0-5.0-2.16","5e2cd786dc63ca2ff798a0ca","bdp_td","Tue Mar 28 2023 22:46:58 GMT-0500 (Central Daylight Time)","125957","","16","","","","offer","","<div class='trialBorder'><div class='vertical-center'><img style='vertical-align:center; align:center' src=img/fixation3.jpg></div><div class='cl'><div class='vertical-center'>$20<br><br>now</div></div><div class='cr'><div class='vertical-center'>$55<br>in<br>1 week</div></div><div class='respDivL'><div class='vertical-center'>(E)</div></div><div class='respDivR'><div class='vertical-center'>(I)</div></div></div>","E","$20<br><br>now","$55<br>in<br>1 week","0","20","55","1","NOW"
"html-keyboard-response","54","102546","0.0-5.0-3.16","5e2cd786dc63ca2ff798a0ca","bdp_td","Tue Mar 28 2023 22:46:58 GMT-0500 (Central Daylight Time)","125957","","null","","","","offerFB","","<div class='trialBorder'><div class='vertical-center'><img style='vertical-align:center; align:center' src=img/fixation3.jpg></div><div class='cl'><div class='vertical-center'><font style='color:orange'>$20<br><br>now</font></div></div><div class='cr'><div class='vertical-center'>$55<br>in<br>1 week</div></div><div class='respDivL'><div class='vertical-center'><font style='color:orange'>(E)</font></div></div><div class='respDivR'><div class='vertical-center'>(I)</div></div></div>","null","$20<br><br>now","$55<br>in<br>1 week","0","20","55","1",""
"html-keyboard-response","55","103048","0.0-5.0-1.17","5e2cd786dc63ca2ff798a0ca","bdp_td","Tue Mar 28 2023 22:46:58 GMT-0500 (Central Daylight Time)","125957","","null","","","","FIX","","<div class='trialBorder'><div class='vertical-center'><img style='vertical-align:center; align:center' src=img/fixation3.jpg></div></div>","null","","","","","","",""
"html-keyboard-response","56","103145","0.0-5.0-2.17","5e2cd786dc63ca2ff798a0ca","bdp_td","Tue Mar 28 2023 22:46:58 GMT-0500 (Central Daylight Time)","125957","","96","","","","offer","","<div class='trialBorder'><div class='vertical-center'><img style='vertical-align:center; align:center' src=img/fixation3.jpg></div><div class='cl'><div class='vertical-center'>$69<br><br>now</div></div><div class='cr'><div class='vertical-center'>$85<br>in<br>6 weeks</div></div><div class='respDivL'><div class='vertical-center'>(E)</div></div><div class='respDivR'><div class='vertical-center'>(I)</div></div></div>","E","$69<br><br>now","$85<br>in<br>6 weeks","0","69","85","6","NOW"
"html-keyboard-response","57","103398","0.0-5.0-3.17","5e2cd786dc63ca2ff798a0ca","bdp_td","Tue Mar 28 2023 22:46:58 GMT-0500 (Central Daylight Time)","125957","","null","","","","offerFB","","<div class='trialBorder'><div class='vertical-center'><img style='vertical-align:center; align:center' src=img/fixation3.jpg></div><div class='cl'><div class='vertical-center'><font style='color:orange'>$69<br><br>now</font></div></div><div class='cr'><div class='vertical-center'>$85<br>in<br>6 weeks</div></div><div class='respDivL'><div class='vertical-center'><font style='color:orange'>(E)</font></div></div><div class='respDivR'><div class='vertical-center'>(I)</div></div></div>","null","$69<br><br>now","$85<br>in<br>6 weeks","0","69","85","6",""
"html-keyboard-response","58","103900","0.0-5.0-1.18","5e2cd786dc63ca2ff798a0ca","bdp_td","Tue Mar 28 2023 22:46:58 GMT-0500 (Central Daylight Time)","125957","","null","","","","FIX","","<div class='trialBorder'><div class='vertical-center'><img style='vertical-align:center; align:center' src=img/fixation3.jpg></div></div>","null","","","","","","",""
"html-keyboard-response","59","104032","0.0-5.0-2.18","5e2cd786dc63ca2ff798a0ca","bdp_td","Tue Mar 28 2023 22:46:58 GMT-0500 (Central Daylight Time)","125957","","130","","","","offer","","<div class='trialBorder'><div class='vertical-center'><img style='vertical-align:center; align:center' src=img/fixation3.jpg></div><div class='cl'><div class='vertical-center'>$47<br><br>now</div></div><div class='cr'><div class='vertical-center'>$50<br>in<br>12 weeks</div></div><div class='respDivL'><div class='vertical-center'>(E)</div></div><div class='respDivR'><div class='vertical-center'>(I)</div></div></div>","E","$47<br><br>now","$50<br>in<br>12 weeks","0","47","50","12","NOW"
"html-keyboard-response","60","104284","0.0-5.0-3.18","5e2cd786dc63ca2ff798a0ca","bdp_td","Tue Mar 28 2023 22:46:58 GMT-0500 (Central Daylight Time)","125957","","null","","","","offerFB","","<div class='trialBorder'><div class='vertical-center'><img style='vertical-align:center; align:center' src=img/fixation3.jpg></div><div class='cl'><div class='vertical-center'><font style='color:orange'>$47<br><br>now</font></div></div><div class='cr'><div class='vertical-center'>$50<br>in<br>12 weeks</div></div><div class='respDivL'><div class='vertical-center'><font style='color:orange'>(E)</font></div></div><div class='respDivR'><div class='vertical-center'>(I)</div></div></div>","null","$47<br><br>now","$50<br>in<br>12 weeks","0","47","50","12",""
"html-keyboard-response","61","104786","0.0-5.0-1.19","5e2cd786dc63ca2ff798a0ca","bdp_td","Tue Mar 28 2023 22:46:58 GMT-0500 (Central Daylight Time)","125957","","null","","","","FIX","","<div class='trialBorder'><div class='vertical-center'><img style='vertical-align:center; align:center' src=img/fixation3.jpg></div></div>","null","","","","","","",""
"html-keyboard-response","62","105016","0.0-5.0-2.19","5e2cd786dc63ca2ff798a0ca","bdp_td","Tue Mar 28 2023 22:46:58 GMT-0500 (Central Daylight Time)","125957","","227","","","","offer","","<div class='trialBorder'><div class='vertical-center'><img style='vertical-align:center; align:center' src=img/fixation3.jpg></div><div class='cl'><div class='vertical-center'>$85<br>in<br>1 week</div></div><div class='cr'><div class='vertical-center'>$31<br><br>now</div></div><div class='respDivL'><div class='vertical-center'>(E)</div></div><div class='respDivR'><div class='vertical-center'>(I)</div></div></div>","E","$31<br><br>now","$85<br>in<br>1 week","1","31","85","1","THEN"
"html-keyboard-response","63","105268","0.0-5.0-3.19","5e2cd786dc63ca2ff798a0ca","bdp_td","Tue Mar 28 2023 22:46:58 GMT-0500 (Central Daylight Time)","125957","","null","","","","offerFB","","<div class='trialBorder'><div class='vertical-center'><img style='vertical-align:center; align:center' src=img/fixation3.jpg></div><div class='cl'><div class='vertical-center'><font style='color:orange'>$85<br>in<br>1 week</font></div></div><div class='cr'><div class='vertical-center'>$31<br><br>now</div></div><div class='respDivL'><div class='vertical-center'><font style='color:orange'>(E)</font></div></div><div class='respDivR'><div class='vertical-center'>(I)</div></div></div>","null","$31<br><br>now","$85<br>in<br>1 week","1","31","85","1",""
"html-keyboard-response","64","105771","0.0-5.0-1.20","5e2cd786dc63ca2ff798a0ca","bdp_td","Tue Mar 28 2023 22:46:58 GMT-0500 (Central Daylight Time)","125957","","null","","","","FIX","","<div class='trialBorder'><div class='vertical-center'><img style='vertical-align:center; align:center' src=img/fixation3.jpg></div></div>","null","","","","","","",""
"html-keyboard-response","65","105882","0.0-5.0-2.20","5e2cd786dc63ca2ff798a0ca","bdp_td","Tue Mar 28 2023 22:46:58 GMT-0500 (Central Daylight Time)","125957","","109","","","","offer","","<div class='trialBorder'><div class='vertical-center'><img style='vertical-align:center; align:center' src=img/fixation3.jpg></div><div class='cl'><div class='vertical-center'>$35<br>in<br>2 weeks</div></div><div class='cr'><div class='vertical-center'>$15<br><br>now</div></div><div class='respDivL'><div class='vertical-center'>(E)</div></div><div class='respDivR'><div class='vertical-center'>(I)</div></div></div>","I","$15<br><br>now","$35<br>in<br>2 weeks","1","15","35","2","NOW"
"html-keyboard-response","66","106134","0.0-5.0-3.20","5e2cd786dc63ca2ff798a0ca","bdp_td","Tue Mar 28 2023 22:46:58 GMT-0500 (Central Daylight Time)","125957","","null","","","","offerFB","","<div class='trialBorder'><div class='vertical-center'><img style='vertical-align:center; align:center' src=img/fixation3.jpg></div><div class='cl'><div class='vertical-center'>$35<br>in<br>2 weeks</div></div><div class='cr'><div class='vertical-center'><font style='color:orange'>$15<br><br>now</font></div></div><div class='respDivL'><div class='vertical-center'>(E)</div></div><div class='respDivR'><div class='vertical-center'><font style='color:orange'>(I)</font></div></div></div>","null","$15<br><br>now","$35<br>in<br>2 weeks","1","15","35","2",""
"html-keyboard-response","67","106638","0.0-5.0-1.21","5e2cd786dc63ca2ff798a0ca","bdp_td","Tue Mar 28 2023 22:46:58 GMT-0500 (Central Daylight Time)","125957","","null","","","","FIX","","<div class='trialBorder'><div class='vertical-center'><img style='vertical-align:center; align:center' src=img/fixation3.jpg></div></div>","null","","","","","","",""
"html-keyboard-response","68","107552","0.0-5.0-2.21","5e2cd786dc63ca2ff798a0ca","bdp_td","Tue Mar 28 2023 22:46:58 GMT-0500 (Central Daylight Time)","125957","","912","","","","offer","","<div class='trialBorder'><div class='vertical-center'><img style='vertical-align:center; align:center' src=img/fixation3.jpg></div><div class='cl'><div class='vertical-center'>$80<br>in<br>3 weeks</div></div><div class='cr'><div class='vertical-center'>$54<br><br>now</div></div><div class='respDivL'><div class='vertical-center'>(E)</div></div><div class='respDivR'><div class='vertical-center'>(I)</div></div></div>","I","$54<br><br>now","$80<br>in<br>3 weeks","1","54","80","3","NOW"
"html-keyboard-response","69","107806","0.0-5.0-3.21","5e2cd786dc63ca2ff798a0ca","bdp_td","Tue Mar 28 2023 22:46:58 GMT-0500 (Central Daylight Time)","125957","","null","","","","offerFB","","<div class='trialBorder'><div class='vertical-center'><img style='vertical-align:center; align:center' src=img/fixation3.jpg></div><div class='cl'><div class='vertical-center'>$80<br>in<br>3 weeks</div></div><div class='cr'><div class='vertical-center'><font style='color:orange'>$54<br><br>now</font></div></div><div class='respDivL'><div class='vertical-center'>(E)</div></div><div class='respDivR'><div class='vertical-center'><font style='color:orange'>(I)</font></div></div></div>","null","$54<br><br>now","$80<br>in<br>3 weeks","1","54","80","3",""
"html-keyboard-response","70","108308","0.0-5.0-1.22","5e2cd786dc63ca2ff798a0ca","bdp_td","Tue Mar 28 2023 22:46:58 GMT-0500 (Central Daylight Time)","125957","","null","","","","FIX","","<div class='trialBorder'><div class='vertical-center'><img style='vertical-align:center; align:center' src=img/fixation3.jpg></div></div>","null","","","","","","",""
"html-keyboard-response","71","110771","0.0-5.0-2.22","5e2cd786dc63ca2ff798a0ca","bdp_td","Tue Mar 28 2023 22:46:58 GMT-0500 (Central Daylight Time)","125957","","2461","","","","offer","","<div class='trialBorder'><div class='vertical-center'><img style='vertical-align:center; align:center' src=img/fixation3.jpg></div><div class='cl'><div class='vertical-center'>$11<br><br>now</div></div><div class='cr'><div class='vertical-center'>$30<br>in<br>2 weeks</div></div><div class='respDivL'><div class='vertical-center'>(E)</div></div><div class='respDivR'><div class='vertical-center'>(I)</div></div></div>","E","$11<br><br>now","$30<br>in<br>2 weeks","0","11","30","2","NOW"
"html-keyboard-response","72","111024","0.0-5.0-3.22","5e2cd786dc63ca2ff798a0ca","bdp_td","Tue Mar 28 2023 22:46:58 GMT-0500 (Central Daylight Time)","125957","","null","","","","offerFB","","<div class='trialBorder'><div class='vertical-center'><img style='vertical-align:center; align:center' src=img/fixation3.jpg></div><div class='cl'><div class='vertical-center'><font style='color:orange'>$11<br><br>now</font></div></div><div class='cr'><div class='vertical-center'>$30<br>in<br>2 weeks</div></div><div class='respDivL'><div class='vertical-center'><font style='color:orange'>(E)</font></div></div><div class='respDivR'><div class='vertical-center'>(I)</div></div></div>","null","$11<br><br>now","$30<br>in<br>2 weeks","0","11","30","2",""
"html-keyboard-response","73","111527","0.0-5.0-1.23","5e2cd786dc63ca2ff798a0ca","bdp_td","Tue Mar 28 2023 22:46:58 GMT-0500 (Central Daylight Time)","125957","","null","","","","FIX","","<div class='trialBorder'><div class='vertical-center'><img style='vertical-align:center; align:center' src=img/fixation3.jpg></div></div>","null","","","","","","",""
"html-keyboard-response","74","115377","0.0-5.0-2.23","5e2cd786dc63ca2ff798a0ca","bdp_td","Tue Mar 28 2023 22:46:58 GMT-0500 (Central Daylight Time)","125957","","3849","","","","offer","","<div class='trialBorder'><div class='vertical-center'><img style='vertical-align:center; align:center' src=img/fixation3.jpg></div><div class='cl'><div class='vertical-center'>$19<br><br>now</div></div><div class='cr'><div class='vertical-center'>$25<br>in<br>6 weeks</div></div><div class='respDivL'><div class='vertical-center'>(E)</div></div><div class='respDivR'><div class='vertical-center'>(I)</div></div></div>","E","$19<br><br>now","$25<br>in<br>6 weeks","0","19","25","6","NOW"
"html-keyboard-response","75","115631","0.0-5.0-3.23","5e2cd786dc63ca2ff798a0ca","bdp_td","Tue Mar 28 2023 22:46:58 GMT-0500 (Central Daylight Time)","125957","","null","","","","offerFB","","<div class='trialBorder'><div class='vertical-center'><img style='vertical-align:center; align:center' src=img/fixation3.jpg></div><div class='cl'><div class='vertical-center'><font style='color:orange'>$19<br><br>now</font></div></div><div class='cr'><div class='vertical-center'>$25<br>in<br>6 weeks</div></div><div class='respDivL'><div class='vertical-center'><font style='color:orange'>(E)</font></div></div><div class='respDivR'><div class='vertical-center'>(I)</div></div></div>","null","$19<br><br>now","$25<br>in<br>6 weeks","0","19","25","6",""
"html-keyboard-response","76","116135","0.0-5.0-1.24","5e2cd786dc63ca2ff798a0ca","bdp_td","Tue Mar 28 2023 22:46:58 GMT-0500 (Central Daylight Time)","125957","","null","","","","FIX","","<div class='trialBorder'><div class='vertical-center'><img style='vertical-align:center; align:center' src=img/fixation3.jpg></div></div>","null","","","","","","",""
"html-keyboard-response","77","119197","0.0-5.0-2.24","5e2cd786dc63ca2ff798a0ca","bdp_td","Tue Mar 28 2023 22:46:58 GMT-0500 (Central Daylight Time)","125957","","3060","","","","offer","","<div class='trialBorder'><div class='vertical-center'><img style='vertical-align:center; align:center' src=img/fixation3.jpg></div><div class='cl'><div class='vertical-center'>$25<br><br>now</div></div><div class='cr'><div class='vertical-center'>$60<br>in<br>3 weeks</div></div><div class='respDivL'><div class='vertical-center'>(E)</div></div><div class='respDivR'><div class='vertical-center'>(I)</div></div></div>","I","$25<br><br>now","$60<br>in<br>3 weeks","0","25","60","3","THEN"
"html-keyboard-response","78","119453","0.0-5.0-3.24","5e2cd786dc63ca2ff798a0ca","bdp_td","Tue Mar 28 2023 22:46:58 GMT-0500 (Central Daylight Time)","125957","","null","","","","offerFB","","<div class='trialBorder'><div class='vertical-center'><img style='vertical-align:center; align:center' src=img/fixation3.jpg></div><div class='cl'><div class='vertical-center'>$25<br><br>now</div></div><div class='cr'><div class='vertical-center'><font style='color:orange'>$60<br>in<br>3 weeks</font></div></div><div class='respDivL'><div class='vertical-center'>(E)</div></div><div class='respDivR'><div class='vertical-center'><font style='color:orange'>(I)</font></div></div></div>","null","$25<br><br>now","$60<br>in<br>3 weeks","0","25","60","3",""
"html-keyboard-response","79","119955","0.0-5.0-1.25","5e2cd786dc63ca2ff798a0ca","bdp_td","Tue Mar 28 2023 22:46:58 GMT-0500 (Central Daylight Time)","125957","","null","","","","FIX","","<div class='trialBorder'><div class='vertical-center'><img style='vertical-align:center; align:center' src=img/fixation3.jpg></div></div>","null","","","","","","",""
"html-keyboard-response","80","121703","0.0-5.0-2.25","5e2cd786dc63ca2ff798a0ca","bdp_td","Tue Mar 28 2023 22:46:58 GMT-0500 (Central Daylight Time)","125957","","1747","","","","offer","","<div class='trialBorder'><div class='vertical-center'><img style='vertical-align:center; align:center' src=img/fixation3.jpg></div><div class='cl'><div class='vertical-center'>$22<br><br>now</div></div><div class='cr'><div class='vertical-center'>$25<br>in<br>12 weeks</div></div><div class='respDivL'><div class='vertical-center'>(E)</div></div><div class='respDivR'><div class='vertical-center'>(I)</div></div></div>","E","$22<br><br>now","$25<br>in<br>12 weeks","0","22","25","12","NOW"
"html-keyboard-response","81","121956","0.0-5.0-3.25","5e2cd786dc63ca2ff798a0ca","bdp_td","Tue Mar 28 2023 22:46:58 GMT-0500 (Central Daylight Time)","125957","","null","","","","offerFB","","<div class='trialBorder'><div class='vertical-center'><img style='vertical-align:center; align:center' src=img/fixation3.jpg></div><div class='cl'><div class='vertical-center'><font style='color:orange'>$22<br><br>now</font></div></div><div class='cr'><div class='vertical-center'>$25<br>in<br>12 weeks</div></div><div class='respDivL'><div class='vertical-center'><font style='color:orange'>(E)</font></div></div><div class='respDivR'><div class='vertical-center'>(I)</div></div></div>","null","$22<br><br>now","$25<br>in<br>12 weeks","0","22","25","12",""
"html-keyboard-response","82","122458","0.0-5.0-1.26","5e2cd786dc63ca2ff798a0ca","bdp_td","Tue Mar 28 2023 22:46:58 GMT-0500 (Central Daylight Time)","125957","","null","","","","FIX","","<div class='trialBorder'><div class='vertical-center'><img style='vertical-align:center; align:center' src=img/fixation3.jpg></div></div>","null","","","","","","",""
"html-keyboard-response","83","124702","0.0-5.0-2.26","5e2cd786dc63ca2ff798a0ca","bdp_td","Tue Mar 28 2023 22:46:58 GMT-0500 (Central Daylight Time)","125957","","2242","","","","offer","","<div class='trialBorder'><div class='vertical-center'><img style='vertical-align:center; align:center' src=img/fixation3.jpg></div><div class='cl'><div class='vertical-center'>$40<br><br>now</div></div><div class='cr'><div class='vertical-center'>$55<br>in<br>6 weeks</div></div><div class='respDivL'><div class='vertical-center'>(E)</div></div><div class='respDivR'><div class='vertical-center'>(I)</div></div></div>","E","$40<br><br>now","$55<br>in<br>6 weeks","0","40","55","6","NOW"
"html-keyboard-response","84","124955","0.0-5.0-3.26","5e2cd786dc63ca2ff798a0ca","bdp_td","Tue Mar 28 2023 22:46:58 GMT-0500 (Central Daylight Time)","125957","","null","","","","offerFB","","<div class='trialBorder'><div class='vertical-center'><img style='vertical-align:center; align:center' src=img/fixation3.jpg></div><div class='cl'><div class='vertical-center'><font style='color:orange'>$40<br><br>now</font></div></div><div class='cr'><div class='vertical-center'>$55<br>in<br>6 weeks</div></div><div class='respDivL'><div class='vertical-center'><font style='color:orange'>(E)</font></div></div><div class='respDivR'><div class='vertical-center'>(I)</div></div></div>","null","$40<br><br>now","$55<br>in<br>6 weeks","0","40","55","6",""
"","","","","5e2cd786dc63ca2ff798a0ca","bdp_td","Tue Mar 28 2023 22:46:58 GMT-0500 (Central Daylight Time)","125957","","","fullscreenexit","85","125001","fullscreenexit","","","","","","","","","",""
"fullscreen","85","125957","0.0-6.0","5e2cd786dc63ca2ff798a0ca","bdp_td","Tue Mar 28 2023 22:46:58 GMT-0500 (Central Daylight Time)","125957","","","","","","","true","","","","","","","","",""
"html-keyboard-response","86","126458","0.0-7.0","","","","","","null","","","","","","","null","","","","","","",""
