"trial_type","trial_index","time_elapsed","internal_node_id","subject_id","task","startTime","totalTime","view_history","rt","event","trial","time","trialtype","success","stimulus","key_press","nowOffer","thenOffer","thenLeft","nowAmt","thenAmt","thenWeeks","chosen"
"pavlovia","0","12","0.0-0.0","580777dd827ca10001db494b","bdp_td","Sun Mar 26 2023 01:59:34 GMT-0400 (Eastern Daylight Time)","117473","","","","","","","","","","","","","","","",""
"instructions","1","3147","0.0-1.0","580777dd827ca10001db494b","bdp_td","Sun Mar 26 2023 01:59:34 GMT-0400 (Eastern Daylight Time)","117473","[{""page_index"":0,""viewing_time"":3132}]","3132","","","","","","","","","","","","","",""
"","","","","580777dd827ca10001db494b","bdp_td","Sun Mar 26 2023 01:59:34 GMT-0400 (Eastern Daylight Time)","117473","","","fullscreenenter","2","6988","fullscreenenter","","","","","","","","","",""
"fullscreen","2","7970","0.0-2.0","580777dd827ca10001db494b","bdp_td","Sun Mar 26 2023 01:59:34 GMT-0400 (Eastern Daylight Time)","117473","","","","","","","true","","","","","","","","",""
"instructions","3","43198","0.0-4.0","580777dd827ca10001db494b","bdp_td","Sun Mar 26 2023 01:59:34 GMT-0400 (Eastern Daylight Time)","117473","[{""page_index"":0,""viewing_time"":9729},{""page_index"":1,""viewing_time"":20699},{""page_index"":2,""viewing_time"":4791}]","35219","","","","","","","","","","","","","",""
"html-keyboard-response","4","43702","0.0-5.0-1.0","580777dd827ca10001db494b","bdp_td","Sun Mar 26 2023 01:59:34 GMT-0400 (Eastern Daylight Time)","117473","","null","","","","FIX","","<div class='trialBorder'><div class='vertical-center'><img style='vertical-align:center; align:center' src=img/fixation3.jpg></div></div>","null","","","","","","",""
"html-keyboard-response","5","46953","0.0-5.0-2.0","580777dd827ca10001db494b","bdp_td","Sun Mar 26 2023 01:59:34 GMT-0400 (Eastern Daylight Time)","117473","","3247","","","","offer","","<div class='trialBorder'><div class='vertical-center'><img style='vertical-align:center; align:center' src=img/fixation3.jpg></div><div class='cl'><div class='vertical-center'>$20<br><br>now</div></div><div class='cr'><div class='vertical-center'>$55<br>in<br>1 week</div></div><div class='respDivL'><div class='vertical-center'>(E)</div></div><div class='respDivR'><div class='vertical-center'>(I)</div></div></div>","I","$20<br><br>now","$55<br>in<br>1 week","0","20","55","1","THEN"
"html-keyboard-response","6","47207","0.0-5.0-3.0","580777dd827ca10001db494b","bdp_td","Sun Mar 26 2023 01:59:34 GMT-0400 (Eastern Daylight Time)","117473","","null","","","","offerFB","","<div class='trialBorder'><div class='vertical-center'><img style='vertical-align:center; align:center' src=img/fixation3.jpg></div><div class='cl'><div class='vertical-center'>$20<br><br>now</div></div><div class='cr'><div class='vertical-center'><font style='color:orange'>$55<br>in<br>1 week</font></div></div><div class='respDivL'><div class='vertical-center'>(E)</div></div><div class='respDivR'><div class='vertical-center'><font style='color:orange'>(I)</font></div></div></div>","null","$20<br><br>now","$55<br>in<br>1 week","0","20","55","1",""
"html-keyboard-response","7","47709","0.0-5.0-1.1","580777dd827ca10001db494b","bdp_td","Sun Mar 26 2023 01:59:34 GMT-0400 (Eastern Daylight Time)","117473","","null","","","","FIX","","<div class='trialBorder'><div class='vertical-center'><img style='vertical-align:center; align:center' src=img/fixation3.jpg></div></div>","null","","","","","","",""
"html-keyboard-response","8","49448","0.0-5.0-2.1","580777dd827ca10001db494b","bdp_td","Sun Mar 26 2023 01:59:34 GMT-0400 (Eastern Daylight Time)","117473","","1738","","","","offer","","<div class='trialBorder'><div class='vertical-center'><img style='vertical-align:center; align:center' src=img/fixation3.jpg></div><div class='cl'><div class='vertical-center'>$15<br><br>now</div></div><div class='cr'><div class='vertical-center'>$35<br>in<br>2 weeks</div></div><div class='respDivL'><div class='vertical-center'>(E)</div></div><div class='respDivR'><div class='vertical-center'>(I)</div></div></div>","I","$15<br><br>now","$35<br>in<br>2 weeks","0","15","35","2","THEN"
"html-keyboard-response","9","49702","0.0-5.0-3.1","580777dd827ca10001db494b","bdp_td","Sun Mar 26 2023 01:59:34 GMT-0400 (Eastern Daylight Time)","117473","","null","","","","offerFB","","<div class='trialBorder'><div class='vertical-center'><img style='vertical-align:center; align:center' src=img/fixation3.jpg></div><div class='cl'><div class='vertical-center'>$15<br><br>now</div></div><div class='cr'><div class='vertical-center'><font style='color:orange'>$35<br>in<br>2 weeks</font></div></div><div class='respDivL'><div class='vertical-center'>(E)</div></div><div class='respDivR'><div class='vertical-center'><font style='color:orange'>(I)</font></div></div></div>","null","$15<br><br>now","$35<br>in<br>2 weeks","0","15","35","2",""
"html-keyboard-response","10","50204","0.0-5.0-1.2","580777dd827ca10001db494b","bdp_td","Sun Mar 26 2023 01:59:34 GMT-0400 (Eastern Daylight Time)","117473","","null","","","","FIX","","<div class='trialBorder'><div class='vertical-center'><img style='vertical-align:center; align:center' src=img/fixation3.jpg></div></div>","null","","","","","","",""
"html-keyboard-response","11","53465","0.0-5.0-2.2","580777dd827ca10001db494b","bdp_td","Sun Mar 26 2023 01:59:34 GMT-0400 (Eastern Daylight Time)","117473","","3259","","","","offer","","<div class='trialBorder'><div class='vertical-center'><img style='vertical-align:center; align:center' src=img/fixation3.jpg></div><div class='cl'><div class='vertical-center'>$54<br><br>now</div></div><div class='cr'><div class='vertical-center'>$80<br>in<br>3 weeks</div></div><div class='respDivL'><div class='vertical-center'>(E)</div></div><div class='respDivR'><div class='vertical-center'>(I)</div></div></div>","E","$54<br><br>now","$80<br>in<br>3 weeks","0","54","80","3","NOW"
"html-keyboard-response","12","53720","0.0-5.0-3.2","580777dd827ca10001db494b","bdp_td","Sun Mar 26 2023 01:59:34 GMT-0400 (Eastern Daylight Time)","117473","","null","","","","offerFB","","<div class='trialBorder'><div class='vertical-center'><img style='vertical-align:center; align:center' src=img/fixation3.jpg></div><div class='cl'><div class='vertical-center'><font style='color:orange'>$54<br><br>now</font></div></div><div class='cr'><div class='vertical-center'>$80<br>in<br>3 weeks</div></div><div class='respDivL'><div class='vertical-center'><font style='color:orange'>(E)</font></div></div><div class='respDivR'><div class='vertical-center'>(I)</div></div></div>","null","$54<br><br>now","$80<br>in<br>3 weeks","0","54","80","3",""
"html-keyboard-response","13","54222","0.0-5.0-1.3","580777dd827ca10001db494b","bdp_td","Sun Mar 26 2023 01:59:34 GMT-0400 (Eastern Daylight Time)","117473","","null","","","","FIX","","<div class='trialBorder'><div class='vertical-center'><img style='vertical-align:center; align:center' src=img/fixation3.jpg></div></div>","null","","","","","","",""
"html-keyboard-response","14","56385","0.0-5.0-2.3","580777dd827ca10001db494b","bdp_td","Sun Mar 26 2023 01:59:34 GMT-0400 (Eastern Daylight Time)","117473","","2160","","","","offer","","<div class='trialBorder'><div class='vertical-center'><img style='vertical-align:center; align:center' src=img/fixation3.jpg></div><div class='cl'><div class='vertical-center'>$60<br>in<br>3 weeks</div></div><div class='cr'><div class='vertical-center'>$25<br><br>now</div></div><div class='respDivL'><div class='vertical-center'>(E)</div></div><div class='respDivR'><div class='vertical-center'>(I)</div></div></div>","E","$25<br><br>now","$60<br>in<br>3 weeks","1","25","60","3","THEN"
"html-keyboard-response","15","56639","0.0-5.0-3.3","580777dd827ca10001db494b","bdp_td","Sun Mar 26 2023 01:59:34 GMT-0400 (Eastern Daylight Time)","117473","","null","","","","offerFB","","<div class='trialBorder'><div class='vertical-center'><img style='vertical-align:center; align:center' src=img/fixation3.jpg></div><div class='cl'><div class='vertical-center'><font style='color:orange'>$60<br>in<br>3 weeks</font></div></div><div class='cr'><div class='vertical-center'>$25<br><br>now</div></div><div class='respDivL'><div class='vertical-center'><font style='color:orange'>(E)</font></div></div><div class='respDivR'><div class='vertical-center'>(I)</div></div></div>","null","$25<br><br>now","$60<br>in<br>3 weeks","1","25","60","3",""
"html-keyboard-response","16","57140","0.0-5.0-1.4","580777dd827ca10001db494b","bdp_td","Sun Mar 26 2023 01:59:34 GMT-0400 (Eastern Daylight Time)","117473","","null","","","","FIX","","<div class='trialBorder'><div class='vertical-center'><img style='vertical-align:center; align:center' src=img/fixation3.jpg></div></div>","null","","","","","","",""
"html-keyboard-response","17","59299","0.0-5.0-2.4","580777dd827ca10001db494b","bdp_td","Sun Mar 26 2023 01:59:34 GMT-0400 (Eastern Daylight Time)","117473","","2157","","","","offer","","<div class='trialBorder'><div class='vertical-center'><img style='vertical-align:center; align:center' src=img/fixation3.jpg></div><div class='cl'><div class='vertical-center'>$35<br>in<br>12 weeks</div></div><div class='cr'><div class='vertical-center'>$34<br><br>now</div></div><div class='respDivL'><div class='vertical-center'>(E)</div></div><div class='respDivR'><div class='vertical-center'>(I)</div></div></div>","I","$34<br><br>now","$35<br>in<br>12 weeks","1","34","35","12","NOW"
"html-keyboard-response","18","59553","0.0-5.0-3.4","580777dd827ca10001db494b","bdp_td","Sun Mar 26 2023 01:59:34 GMT-0400 (Eastern Daylight Time)","117473","","null","","","","offerFB","","<div class='trialBorder'><div class='vertical-center'><img style='vertical-align:center; align:center' src=img/fixation3.jpg></div><div class='cl'><div class='vertical-center'>$35<br>in<br>12 weeks</div></div><div class='cr'><div class='vertical-center'><font style='color:orange'>$34<br><br>now</font></div></div><div class='respDivL'><div class='vertical-center'>(E)</div></div><div class='respDivR'><div class='vertical-center'><font style='color:orange'>(I)</font></div></div></div>","null","$34<br><br>now","$35<br>in<br>12 weeks","1","34","35","12",""
"html-keyboard-response","19","60055","0.0-5.0-1.5","580777dd827ca10001db494b","bdp_td","Sun Mar 26 2023 01:59:34 GMT-0400 (Eastern Daylight Time)","117473","","null","","","","FIX","","<div class='trialBorder'><div class='vertical-center'><img style='vertical-align:center; align:center' src=img/fixation3.jpg></div></div>","null","","","","","","",""
"html-keyboard-response","20","61699","0.0-5.0-2.5","580777dd827ca10001db494b","bdp_td","Sun Mar 26 2023 01:59:34 GMT-0400 (Eastern Daylight Time)","117473","","1641","","","","offer","","<div class='trialBorder'><div class='vertical-center'><img style='vertical-align:center; align:center' src=img/fixation3.jpg></div><div class='cl'><div class='vertical-center'>$55<br>in<br>6 weeks</div></div><div class='cr'><div class='vertical-center'>$40<br><br>now</div></div><div class='respDivL'><div class='vertical-center'>(E)</div></div><div class='respDivR'><div class='vertical-center'>(I)</div></div></div>","I","$40<br><br>now","$55<br>in<br>6 weeks","1","40","55","6","NOW"
"html-keyboard-response","21","61951","0.0-5.0-3.5","580777dd827ca10001db494b","bdp_td","Sun Mar 26 2023 01:59:34 GMT-0400 (Eastern Daylight Time)","117473","","null","","","","offerFB","","<div class='trialBorder'><div class='vertical-center'><img style='vertical-align:center; align:center' src=img/fixation3.jpg></div><div class='cl'><div class='vertical-center'>$55<br>in<br>6 weeks</div></div><div class='cr'><div class='vertical-center'><font style='color:orange'>$40<br><br>now</font></div></div><div class='respDivL'><div class='vertical-center'>(E)</div></div><div class='respDivR'><div class='vertical-center'><font style='color:orange'>(I)</font></div></div></div>","null","$40<br><br>now","$55<br>in<br>6 weeks","1","40","55","6",""
"html-keyboard-response","22","62453","0.0-5.0-1.6","580777dd827ca10001db494b","bdp_td","Sun Mar 26 2023 01:59:34 GMT-0400 (Eastern Daylight Time)","117473","","null","","","","FIX","","<div class='trialBorder'><div class='vertical-center'><img style='vertical-align:center; align:center' src=img/fixation3.jpg></div></div>","null","","","","","","",""
"html-keyboard-response","23","63986","0.0-5.0-2.6","580777dd827ca10001db494b","bdp_td","Sun Mar 26 2023 01:59:34 GMT-0400 (Eastern Daylight Time)","117473","","1531","","","","offer","","<div class='trialBorder'><div class='vertical-center'><img style='vertical-align:center; align:center' src=img/fixation3.jpg></div><div class='cl'><div class='vertical-center'>$54<br><br>now</div></div><div class='cr'><div class='vertical-center'>$55<br>in<br>12 weeks</div></div><div class='respDivL'><div class='vertical-center'>(E)</div></div><div class='respDivR'><div class='vertical-center'>(I)</div></div></div>","E","$54<br><br>now","$55<br>in<br>12 weeks","0","54","55","12","NOW"
"html-keyboard-response","24","64239","0.0-5.0-3.6","580777dd827ca10001db494b","bdp_td","Sun Mar 26 2023 01:59:34 GMT-0400 (Eastern Daylight Time)","117473","","null","","","","offerFB","","<div class='trialBorder'><div class='vertical-center'><img style='vertical-align:center; align:center' src=img/fixation3.jpg></div><div class='cl'><div class='vertical-center'><font style='color:orange'>$54<br><br>now</font></div></div><div class='cr'><div class='vertical-center'>$55<br>in<br>12 weeks</div></div><div class='respDivL'><div class='vertical-center'><font style='color:orange'>(E)</font></div></div><div class='respDivR'><div class='vertical-center'>(I)</div></div></div>","null","$54<br><br>now","$55<br>in<br>12 weeks","0","54","55","12",""
"html-keyboard-response","25","64741","0.0-5.0-1.7","580777dd827ca10001db494b","bdp_td","Sun Mar 26 2023 01:59:34 GMT-0400 (Eastern Daylight Time)","117473","","null","","","","FIX","","<div class='trialBorder'><div class='vertical-center'><img style='vertical-align:center; align:center' src=img/fixation3.jpg></div></div>","null","","","","","","",""
"html-keyboard-response","26","66057","0.0-5.0-2.7","580777dd827ca10001db494b","bdp_td","Sun Mar 26 2023 01:59:34 GMT-0400 (Eastern Daylight Time)","117473","","1313","","","","offer","","<div class='trialBorder'><div class='vertical-center'><img style='vertical-align:center; align:center' src=img/fixation3.jpg></div><div class='cl'><div class='vertical-center'>$85<br>in<br>12 weeks</div></div><div class='cr'><div class='vertical-center'>$80<br><br>now</div></div><div class='respDivL'><div class='vertical-center'>(E)</div></div><div class='respDivR'><div class='vertical-center'>(I)</div></div></div>","I","$80<br><br>now","$85<br>in<br>12 weeks","1","80","85","12","NOW"
"html-keyboard-response","27","66309","0.0-5.0-3.7","580777dd827ca10001db494b","bdp_td","Sun Mar 26 2023 01:59:34 GMT-0400 (Eastern Daylight Time)","117473","","null","","","","offerFB","","<div class='trialBorder'><div class='vertical-center'><img style='vertical-align:center; align:center' src=img/fixation3.jpg></div><div class='cl'><div class='vertical-center'>$85<br>in<br>12 weeks</div></div><div class='cr'><div class='vertical-center'><font style='color:orange'>$80<br><br>now</font></div></div><div class='respDivL'><div class='vertical-center'>(E)</div></div><div class='respDivR'><div class='vertical-center'><font style='color:orange'>(I)</font></div></div></div>","null","$80<br><br>now","$85<br>in<br>12 weeks","1","80","85","12",""
"html-keyboard-response","28","66811","0.0-5.0-1.8","580777dd827ca10001db494b","bdp_td","Sun Mar 26 2023 01:59:34 GMT-0400 (Eastern Daylight Time)","117473","","null","","","","FIX","","<div class='trialBorder'><div class='vertical-center'><img style='vertical-align:center; align:center' src=img/fixation3.jpg></div></div>","null","","","","","","",""
"html-keyboard-response","29","68484","0.0-5.0-2.8","580777dd827ca10001db494b","bdp_td","Sun Mar 26 2023 01:59:34 GMT-0400 (Eastern Daylight Time)","117473","","1672","","","","offer","","<div class='trialBorder'><div class='vertical-center'><img style='vertical-align:center; align:center' src=img/fixation3.jpg></div><div class='cl'><div class='vertical-center'>$11<br><br>now</div></div><div class='cr'><div class='vertical-center'>$30<br>in<br>2 weeks</div></div><div class='respDivL'><div class='vertical-center'>(E)</div></div><div class='respDivR'><div class='vertical-center'>(I)</div></div></div>","I","$11<br><br>now","$30<br>in<br>2 weeks","0","11","30","2","THEN"
"html-keyboard-response","30","68738","0.0-5.0-3.8","580777dd827ca10001db494b","bdp_td","Sun Mar 26 2023 01:59:34 GMT-0400 (Eastern Daylight Time)","117473","","null","","","","offerFB","","<div class='trialBorder'><div class='vertical-center'><img style='vertical-align:center; align:center' src=img/fixation3.jpg></div><div class='cl'><div class='vertical-center'>$11<br><br>now</div></div><div class='cr'><div class='vertical-center'><font style='color:orange'>$30<br>in<br>2 weeks</font></div></div><div class='respDivL'><div class='vertical-center'>(E)</div></div><div class='respDivR'><div class='vertical-center'><font style='color:orange'>(I)</font></div></div></div>","null","$11<br><br>now","$30<br>in<br>2 weeks","0","11","30","2",""
"html-keyboard-response","31","69239","0.0-5.0-1.9","580777dd827ca10001db494b","bdp_td","Sun Mar 26 2023 01:59:34 GMT-0400 (Eastern Daylight Time)","117473","","null","","","","FIX","","<div class='trialBorder'><div class='vertical-center'><img style='vertical-align:center; align:center' src=img/fixation3.jpg></div></div>","null","","","","","","",""
"html-keyboard-response","32","70576","0.0-5.0-2.9","580777dd827ca10001db494b","bdp_td","Sun Mar 26 2023 01:59:34 GMT-0400 (Eastern Daylight Time)","117473","","1334","","","","offer","","<div class='trialBorder'><div class='vertical-center'><img style='vertical-align:center; align:center' src=img/fixation3.jpg></div><div class='cl'><div class='vertical-center'>$25<br><br>now</div></div><div class='cr'><div class='vertical-center'>$30<br>in<br>6 weeks</div></div><div class='respDivL'><div class='vertical-center'>(E)</div></div><div class='respDivR'><div class='vertical-center'>(I)</div></div></div>","E","$25<br><br>now","$30<br>in<br>6 weeks","0","25","30","6","NOW"
"html-keyboard-response","33","70828","0.0-5.0-3.9","580777dd827ca10001db494b","bdp_td","Sun Mar 26 2023 01:59:34 GMT-0400 (Eastern Daylight Time)","117473","","null","","","","offerFB","","<div class='trialBorder'><div class='vertical-center'><img style='vertical-align:center; align:center' src=img/fixation3.jpg></div><div class='cl'><div class='vertical-center'><font style='color:orange'>$25<br><br>now</font></div></div><div class='cr'><div class='vertical-center'>$30<br>in<br>6 weeks</div></div><div class='respDivL'><div class='vertical-center'><font style='color:orange'>(E)</font></div></div><div class='respDivR'><div class='vertical-center'>(I)</div></div></div>","null","$25<br><br>now","$30<br>in<br>6 weeks","0","25","30","6",""
"html-keyboard-response","34","71329","0.0-5.0-1.10","580777dd827ca10001db494b","bdp_td","Sun Mar 26 2023 01:59:34 GMT-0400 (Eastern Daylight Time)","117473","","null","","","","FIX","","<div class='trialBorder'><div class='vertical-center'><img style='vertical-align:center; align:center' src=img/fixation3.jpg></div></div>","null","","","","","","",""
"html-keyboard-response","35","74098","0.0-5.0-2.10","580777dd827ca10001db494b","bdp_td","Sun Mar 26 2023 01:59:34 GMT-0400 (Eastern Daylight Time)","117473","","2766","","","","offer","","<div class='trialBorder'><div class='vertical-center'><img style='vertical-align:center; align:center' src=img/fixation3.jpg></div><div class='cl'><div class='vertical-center'>$41<br><br>now</div></div><div class='cr'><div class='vertical-center'>$75<br>in<br>3 weeks</div></div><div class='respDivL'><div class='vertical-center'>(E)</div></div><div class='respDivR'><div class='vertical-center'>(I)</div></div></div>","I","$41<br><br>now","$75<br>in<br>3 weeks","0","41","75","3","THEN"
"html-keyboard-response","36","74351","0.0-5.0-3.10","580777dd827ca10001db494b","bdp_td","Sun Mar 26 2023 01:59:34 GMT-0400 (Eastern Daylight Time)","117473","","null","","","","offerFB","","<div class='trialBorder'><div class='vertical-center'><img style='vertical-align:center; align:center' src=img/fixation3.jpg></div><div class='cl'><div class='vertical-center'>$41<br><br>now</div></div><div class='cr'><div class='vertical-center'><font style='color:orange'>$75<br>in<br>3 weeks</font></div></div><div class='respDivL'><div class='vertical-center'>(E)</div></div><div class='respDivR'><div class='vertical-center'><font style='color:orange'>(I)</font></div></div></div>","null","$41<br><br>now","$75<br>in<br>3 weeks","0","41","75","3",""
"html-keyboard-response","37","74852","0.0-5.0-1.11","580777dd827ca10001db494b","bdp_td","Sun Mar 26 2023 01:59:34 GMT-0400 (Eastern Daylight Time)","117473","","null","","","","FIX","","<div class='trialBorder'><div class='vertical-center'><img style='vertical-align:center; align:center' src=img/fixation3.jpg></div></div>","null","","","","","","",""
"html-keyboard-response","38","76217","0.0-5.0-2.11","580777dd827ca10001db494b","bdp_td","Sun Mar 26 2023 01:59:34 GMT-0400 (Eastern Daylight Time)","117473","","1362","","","","offer","","<div class='trialBorder'><div class='vertical-center'><img style='vertical-align:center; align:center' src=img/fixation3.jpg></div><div class='cl'><div class='vertical-center'>$31<br><br>now</div></div><div class='cr'><div class='vertical-center'>$85<br>in<br>1 week</div></div><div class='respDivL'><div class='vertical-center'>(E)</div></div><div class='respDivR'><div class='vertical-center'>(I)</div></div></div>","I","$31<br><br>now","$85<br>in<br>1 week","0","31","85","1","THEN"
"html-keyboard-response","39","76469","0.0-5.0-3.11","580777dd827ca10001db494b","bdp_td","Sun Mar 26 2023 01:59:34 GMT-0400 (Eastern Daylight Time)","117473","","null","","","","offerFB","","<div class='trialBorder'><div class='vertical-center'><img style='vertical-align:center; align:center' src=img/fixation3.jpg></div><div class='cl'><div class='vertical-center'>$31<br><br>now</div></div><div class='cr'><div class='vertical-center'><font style='color:orange'>$85<br>in<br>1 week</font></div></div><div class='respDivL'><div class='vertical-center'>(E)</div></div><div class='respDivR'><div class='vertical-center'><font style='color:orange'>(I)</font></div></div></div>","null","$31<br><br>now","$85<br>in<br>1 week","0","31","85","1",""
"html-keyboard-response","40","76971","0.0-5.0-1.12","580777dd827ca10001db494b","bdp_td","Sun Mar 26 2023 01:59:34 GMT-0400 (Eastern Daylight Time)","117473","","null","","","","FIX","","<div class='trialBorder'><div class='vertical-center'><img style='vertical-align:center; align:center' src=img/fixation3.jpg></div></div>","null","","","","","","",""
"html-keyboard-response","41","78215","0.0-5.0-2.12","580777dd827ca10001db494b","bdp_td","Sun Mar 26 2023 01:59:34 GMT-0400 (Eastern Daylight Time)","117473","","1243","","","","offer","","<div class='trialBorder'><div class='vertical-center'><img style='vertical-align:center; align:center' src=img/fixation3.jpg></div><div class='cl'><div class='vertical-center'>$54<br><br>now</div></div><div class='cr'><div class='vertical-center'>$60<br>in<br>12 weeks</div></div><div class='respDivL'><div class='vertical-center'>(E)</div></div><div class='respDivR'><div class='vertical-center'>(I)</div></div></div>","E","$54<br><br>now","$60<br>in<br>12 weeks","0","54","60","12","NOW"
"html-keyboard-response","42","78468","0.0-5.0-3.12","580777dd827ca10001db494b","bdp_td","Sun Mar 26 2023 01:59:34 GMT-0400 (Eastern Daylight Time)","117473","","null","","","","offerFB","","<div class='trialBorder'><div class='vertical-center'><img style='vertical-align:center; align:center' src=img/fixation3.jpg></div><div class='cl'><div class='vertical-center'><font style='color:orange'>$54<br><br>now</font></div></div><div class='cr'><div class='vertical-center'>$60<br>in<br>12 weeks</div></div><div class='respDivL'><div class='vertical-center'><font style='color:orange'>(E)</font></div></div><div class='respDivR'><div class='vertical-center'>(I)</div></div></div>","null","$54<br><br>now","$60<br>in<br>12 weeks","0","54","60","12",""
"html-keyboard-response","43","78970","0.0-5.0-1.13","580777dd827ca10001db494b","bdp_td","Sun Mar 26 2023 01:59:34 GMT-0400 (Eastern Daylight Time)","117473","","null","","","","FIX","","<div class='trialBorder'><div class='vertical-center'><img style='vertical-align:center; align:center' src=img/fixation3.jpg></div></div>","null","","","","","","",""
"html-keyboard-response","44","81822","0.0-5.0-2.13","580777dd827ca10001db494b","bdp_td","Sun Mar 26 2023 01:59:34 GMT-0400 (Eastern Daylight Time)","117473","","2849","","","","offer","","<div class='trialBorder'><div class='vertical-center'><img style='vertical-align:center; align:center' src=img/fixation3.jpg></div><div class='cl'><div class='vertical-center'>$50<br>in<br>6 weeks</div></div><div class='cr'><div class='vertical-center'>$34<br><br>now</div></div><div class='respDivL'><div class='vertical-center'>(E)</div></div><div class='respDivR'><div class='vertical-center'>(I)</div></div></div>","I","$34<br><br>now","$50<br>in<br>6 weeks","1","34","50","6","NOW"
"html-keyboard-response","45","82076","0.0-5.0-3.13","580777dd827ca10001db494b","bdp_td","Sun Mar 26 2023 01:59:34 GMT-0400 (Eastern Daylight Time)","117473","","null","","","","offerFB","","<div class='trialBorder'><div class='vertical-center'><img style='vertical-align:center; align:center' src=img/fixation3.jpg></div><div class='cl'><div class='vertical-center'>$50<br>in<br>6 weeks</div></div><div class='cr'><div class='vertical-center'><font style='color:orange'>$34<br><br>now</font></div></div><div class='respDivL'><div class='vertical-center'>(E)</div></div><div class='respDivR'><div class='vertical-center'><font style='color:orange'>(I)</font></div></div></div>","null","$34<br><br>now","$50<br>in<br>6 weeks","1","34","50","6",""
"html-keyboard-response","46","82578","0.0-5.0-1.14","580777dd827ca10001db494b","bdp_td","Sun Mar 26 2023 01:59:34 GMT-0400 (Eastern Daylight Time)","117473","","null","","","","FIX","","<div class='trialBorder'><div class='vertical-center'><img style='vertical-align:center; align:center' src=img/fixation3.jpg></div></div>","null","","","","","","",""
"html-keyboard-response","47","85530","0.0-5.0-2.14","580777dd827ca10001db494b","bdp_td","Sun Mar 26 2023 01:59:34 GMT-0400 (Eastern Daylight Time)","117473","","2950","","","","offer","","<div class='trialBorder'><div class='vertical-center'><img style='vertical-align:center; align:center' src=img/fixation3.jpg></div><div class='cl'><div class='vertical-center'>$75<br>in<br>6 weeks</div></div><div class='cr'><div class='vertical-center'>$55<br><br>now</div></div><div class='respDivL'><div class='vertical-center'>(E)</div></div><div class='respDivR'><div class='vertical-center'>(I)</div></div></div>","I","$55<br><br>now","$75<br>in<br>6 weeks","1","55","75","6","NOW"
"html-keyboard-response","48","85784","0.0-5.0-3.14","580777dd827ca10001db494b","bdp_td","Sun Mar 26 2023 01:59:34 GMT-0400 (Eastern Daylight Time)","117473","","null","","","","offerFB","","<div class='trialBorder'><div class='vertical-center'><img style='vertical-align:center; align:center' src=img/fixation3.jpg></div><div class='cl'><div class='vertical-center'>$75<br>in<br>6 weeks</div></div><div class='cr'><div class='vertical-center'><font style='color:orange'>$55<br><br>now</font></div></div><div class='respDivL'><div class='vertical-center'>(E)</div></div><div class='respDivR'><div class='vertical-center'><font style='color:orange'>(I)</font></div></div></div>","null","$55<br><br>now","$75<br>in<br>6 weeks","1","55","75","6",""
"html-keyboard-response","49","86286","0.0-5.0-1.15","580777dd827ca10001db494b","bdp_td","Sun Mar 26 2023 01:59:34 GMT-0400 (Eastern Daylight Time)","117473","","null","","","","FIX","","<div class='trialBorder'><div class='vertical-center'><img style='vertical-align:center; align:center' src=img/fixation3.jpg></div></div>","null","","","","","","",""
"html-keyboard-response","50","88017","0.0-5.0-2.15","580777dd827ca10001db494b","bdp_td","Sun Mar 26 2023 01:59:34 GMT-0400 (Eastern Daylight Time)","117473","","1729","","","","offer","","<div class='trialBorder'><div class='vertical-center'><img style='vertical-align:center; align:center' src=img/fixation3.jpg></div><div class='cl'><div class='vertical-center'>$69<br><br>now</div></div><div class='cr'><div class='vertical-center'>$85<br>in<br>6 weeks</div></div><div class='respDivL'><div class='vertical-center'>(E)</div></div><div class='respDivR'><div class='vertical-center'>(I)</div></div></div>","E","$69<br><br>now","$85<br>in<br>6 weeks","0","69","85","6","NOW"
"html-keyboard-response","51","88270","0.0-5.0-3.15","580777dd827ca10001db494b","bdp_td","Sun Mar 26 2023 01:59:34 GMT-0400 (Eastern Daylight Time)","117473","","null","","","","offerFB","","<div class='trialBorder'><div class='vertical-center'><img style='vertical-align:center; align:center' src=img/fixation3.jpg></div><div class='cl'><div class='vertical-center'><font style='color:orange'>$69<br><br>now</font></div></div><div class='cr'><div class='vertical-center'>$85<br>in<br>6 weeks</div></div><div class='respDivL'><div class='vertical-center'><font style='color:orange'>(E)</font></div></div><div class='respDivR'><div class='vertical-center'>(I)</div></div></div>","null","$69<br><br>now","$85<br>in<br>6 weeks","0","69","85","6",""
"html-keyboard-response","52","88771","0.0-5.0-1.16","580777dd827ca10001db494b","bdp_td","Sun Mar 26 2023 01:59:34 GMT-0400 (Eastern Daylight Time)","117473","","null","","","","FIX","","<div class='trialBorder'><div class='vertical-center'><img style='vertical-align:center; align:center' src=img/fixation3.jpg></div></div>","null","","","","","","",""
"html-keyboard-response","53","93089","0.0-5.0-2.16","580777dd827ca10001db494b","bdp_td","Sun Mar 26 2023 01:59:34 GMT-0400 (Eastern Daylight Time)","117473","","4314","","","","offer","","<div class='trialBorder'><div class='vertical-center'><img style='vertical-align:center; align:center' src=img/fixation3.jpg></div><div class='cl'><div class='vertical-center'>$25<br>in<br>3 weeks</div></div><div class='cr'><div class='vertical-center'>$14<br><br>now</div></div><div class='respDivL'><div class='vertical-center'>(E)</div></div><div class='respDivR'><div class='vertical-center'>(I)</div></div></div>","E","$14<br><br>now","$25<br>in<br>3 weeks","1","14","25","3","THEN"
"html-keyboard-response","54","93342","0.0-5.0-3.16","580777dd827ca10001db494b","bdp_td","Sun Mar 26 2023 01:59:34 GMT-0400 (Eastern Daylight Time)","117473","","null","","","","offerFB","","<div class='trialBorder'><div class='vertical-center'><img style='vertical-align:center; align:center' src=img/fixation3.jpg></div><div class='cl'><div class='vertical-center'><font style='color:orange'>$25<br>in<br>3 weeks</font></div></div><div class='cr'><div class='vertical-center'>$14<br><br>now</div></div><div class='respDivL'><div class='vertical-center'><font style='color:orange'>(E)</font></div></div><div class='respDivR'><div class='vertical-center'>(I)</div></div></div>","null","$14<br><br>now","$25<br>in<br>3 weeks","1","14","25","3",""
"html-keyboard-response","55","93844","0.0-5.0-1.17","580777dd827ca10001db494b","bdp_td","Sun Mar 26 2023 01:59:34 GMT-0400 (Eastern Daylight Time)","117473","","null","","","","FIX","","<div class='trialBorder'><div class='vertical-center'><img style='vertical-align:center; align:center' src=img/fixation3.jpg></div></div>","null","","","","","","",""
"html-keyboard-response","56","95153","0.0-5.0-2.17","580777dd827ca10001db494b","bdp_td","Sun Mar 26 2023 01:59:34 GMT-0400 (Eastern Daylight Time)","117473","","1306","","","","offer","","<div class='trialBorder'><div class='vertical-center'><img style='vertical-align:center; align:center' src=img/fixation3.jpg></div><div class='cl'><div class='vertical-center'>$80<br>in<br>12 weeks</div></div><div class='cr'><div class='vertical-center'>$78<br><br>now</div></div><div class='respDivL'><div class='vertical-center'>(E)</div></div><div class='respDivR'><div class='vertical-center'>(I)</div></div></div>","I","$78<br><br>now","$80<br>in<br>12 weeks","1","78","80","12","NOW"
"html-keyboard-response","57","95406","0.0-5.0-3.17","580777dd827ca10001db494b","bdp_td","Sun Mar 26 2023 01:59:34 GMT-0400 (Eastern Daylight Time)","117473","","null","","","","offerFB","","<div class='trialBorder'><div class='vertical-center'><img style='vertical-align:center; align:center' src=img/fixation3.jpg></div><div class='cl'><div class='vertical-center'>$80<br>in<br>12 weeks</div></div><div class='cr'><div class='vertical-center'><font style='color:orange'>$78<br><br>now</font></div></div><div class='respDivL'><div class='vertical-center'>(E)</div></div><div class='respDivR'><div class='vertical-center'><font style='color:orange'>(I)</font></div></div></div>","null","$78<br><br>now","$80<br>in<br>12 weeks","1","78","80","12",""
"html-keyboard-response","58","95908","0.0-5.0-1.18","580777dd827ca10001db494b","bdp_td","Sun Mar 26 2023 01:59:34 GMT-0400 (Eastern Daylight Time)","117473","","null","","","","FIX","","<div class='trialBorder'><div class='vertical-center'><img style='vertical-align:center; align:center' src=img/fixation3.jpg></div></div>","null","","","","","","",""
"html-keyboard-response","59","97346","0.0-5.0-2.18","580777dd827ca10001db494b","bdp_td","Sun Mar 26 2023 01:59:34 GMT-0400 (Eastern Daylight Time)","117473","","1435","","","","offer","","<div class='trialBorder'><div class='vertical-center'><img style='vertical-align:center; align:center' src=img/fixation3.jpg></div><div class='cl'><div class='vertical-center'>$75<br>in<br>12 weeks</div></div><div class='cr'><div class='vertical-center'>$67<br><br>now</div></div><div class='respDivL'><div class='vertical-center'>(E)</div></div><div class='respDivR'><div class='vertical-center'>(I)</div></div></div>","I","$67<br><br>now","$75<br>in<br>12 weeks","1","67","75","12","NOW"
"html-keyboard-response","60","97598","0.0-5.0-3.18","580777dd827ca10001db494b","bdp_td","Sun Mar 26 2023 01:59:34 GMT-0400 (Eastern Daylight Time)","117473","","null","","","","offerFB","","<div class='trialBorder'><div class='vertical-center'><img style='vertical-align:center; align:center' src=img/fixation3.jpg></div><div class='cl'><div class='vertical-center'>$75<br>in<br>12 weeks</div></div><div class='cr'><div class='vertical-center'><font style='color:orange'>$67<br><br>now</font></div></div><div class='respDivL'><div class='vertical-center'>(E)</div></div><div class='respDivR'><div class='vertical-center'><font style='color:orange'>(I)</font></div></div></div>","null","$67<br><br>now","$75<br>in<br>12 weeks","1","67","75","12",""
"html-keyboard-response","61","98100","0.0-5.0-1.19","580777dd827ca10001db494b","bdp_td","Sun Mar 26 2023 01:59:34 GMT-0400 (Eastern Daylight Time)","117473","","null","","","","FIX","","<div class='trialBorder'><div class='vertical-center'><img style='vertical-align:center; align:center' src=img/fixation3.jpg></div></div>","null","","","","","","",""
"html-keyboard-response","62","99285","0.0-5.0-2.19","580777dd827ca10001db494b","bdp_td","Sun Mar 26 2023 01:59:34 GMT-0400 (Eastern Daylight Time)","117473","","1183","","","","offer","","<div class='trialBorder'><div class='vertical-center'><img style='vertical-align:center; align:center' src=img/fixation3.jpg></div><div class='cl'><div class='vertical-center'>$35<br>in<br>3 weeks</div></div><div class='cr'><div class='vertical-center'>$24<br><br>now</div></div><div class='respDivL'><div class='vertical-center'>(E)</div></div><div class='respDivR'><div class='vertical-center'>(I)</div></div></div>","I","$24<br><br>now","$35<br>in<br>3 weeks","1","24","35","3","NOW"
"html-keyboard-response","63","99538","0.0-5.0-3.19","580777dd827ca10001db494b","bdp_td","Sun Mar 26 2023 01:59:34 GMT-0400 (Eastern Daylight Time)","117473","","null","","","","offerFB","","<div class='trialBorder'><div class='vertical-center'><img style='vertical-align:center; align:center' src=img/fixation3.jpg></div><div class='cl'><div class='vertical-center'>$35<br>in<br>3 weeks</div></div><div class='cr'><div class='vertical-center'><font style='color:orange'>$24<br><br>now</font></div></div><div class='respDivL'><div class='vertical-center'>(E)</div></div><div class='respDivR'><div class='vertical-center'><font style='color:orange'>(I)</font></div></div></div>","null","$24<br><br>now","$35<br>in<br>3 weeks","1","24","35","3",""
"html-keyboard-response","64","100040","0.0-5.0-1.20","580777dd827ca10001db494b","bdp_td","Sun Mar 26 2023 01:59:34 GMT-0400 (Eastern Daylight Time)","117473","","null","","","","FIX","","<div class='trialBorder'><div class='vertical-center'><img style='vertical-align:center; align:center' src=img/fixation3.jpg></div></div>","null","","","","","","",""
"html-keyboard-response","65","100969","0.0-5.0-2.20","580777dd827ca10001db494b","bdp_td","Sun Mar 26 2023 01:59:34 GMT-0400 (Eastern Daylight Time)","117473","","925","","","","offer","","<div class='trialBorder'><div class='vertical-center'><img style='vertical-align:center; align:center' src=img/fixation3.jpg></div><div class='cl'><div class='vertical-center'>$25<br>in<br>12 weeks</div></div><div class='cr'><div class='vertical-center'>$22<br><br>now</div></div><div class='respDivL'><div class='vertical-center'>(E)</div></div><div class='respDivR'><div class='vertical-center'>(I)</div></div></div>","I","$22<br><br>now","$25<br>in<br>12 weeks","1","22","25","12","NOW"
"html-keyboard-response","66","101221","0.0-5.0-3.20","580777dd827ca10001db494b","bdp_td","Sun Mar 26 2023 01:59:34 GMT-0400 (Eastern Daylight Time)","117473","","null","","","","offerFB","","<div class='trialBorder'><div class='vertical-center'><img style='vertical-align:center; align:center' src=img/fixation3.jpg></div><div class='cl'><div class='vertical-center'>$25<br>in<br>12 weeks</div></div><div class='cr'><div class='vertical-center'><font style='color:orange'>$22<br><br>now</font></div></div><div class='respDivL'><div class='vertical-center'>(E)</div></div><div class='respDivR'><div class='vertical-center'><font style='color:orange'>(I)</font></div></div></div>","null","$22<br><br>now","$25<br>in<br>12 weeks","1","22","25","12",""
"html-keyboard-response","67","101723","0.0-5.0-1.21","580777dd827ca10001db494b","bdp_td","Sun Mar 26 2023 01:59:34 GMT-0400 (Eastern Daylight Time)","117473","","null","","","","FIX","","<div class='trialBorder'><div class='vertical-center'><img style='vertical-align:center; align:center' src=img/fixation3.jpg></div></div>","null","","","","","","",""
"html-keyboard-response","68","104582","0.0-5.0-2.21","580777dd827ca10001db494b","bdp_td","Sun Mar 26 2023 01:59:34 GMT-0400 (Eastern Daylight Time)","117473","","2857","","","","offer","","<div class='trialBorder'><div class='vertical-center'><img style='vertical-align:center; align:center' src=img/fixation3.jpg></div><div class='cl'><div class='vertical-center'>$27<br><br>now</div></div><div class='cr'><div class='vertical-center'>$50<br>in<br>3 weeks</div></div><div class='respDivL'><div class='vertical-center'>(E)</div></div><div class='respDivR'><div class='vertical-center'>(I)</div></div></div>","I","$27<br><br>now","$50<br>in<br>3 weeks","0","27","50","3","THEN"
"html-keyboard-response","69","104840","0.0-5.0-3.21","580777dd827ca10001db494b","bdp_td","Sun Mar 26 2023 01:59:34 GMT-0400 (Eastern Daylight Time)","117473","","null","","","","offerFB","","<div class='trialBorder'><div class='vertical-center'><img style='vertical-align:center; align:center' src=img/fixation3.jpg></div><div class='cl'><div class='vertical-center'>$27<br><br>now</div></div><div class='cr'><div class='vertical-center'><font style='color:orange'>$50<br>in<br>3 weeks</font></div></div><div class='respDivL'><div class='vertical-center'>(E)</div></div><div class='respDivR'><div class='vertical-center'><font style='color:orange'>(I)</font></div></div></div>","null","$27<br><br>now","$50<br>in<br>3 weeks","0","27","50","3",""
"html-keyboard-response","70","105342","0.0-5.0-1.22","580777dd827ca10001db494b","bdp_td","Sun Mar 26 2023 01:59:34 GMT-0400 (Eastern Daylight Time)","117473","","null","","","","FIX","","<div class='trialBorder'><div class='vertical-center'><img style='vertical-align:center; align:center' src=img/fixation3.jpg></div></div>","null","","","","","","",""
"html-keyboard-response","71","106657","0.0-5.0-2.22","580777dd827ca10001db494b","bdp_td","Sun Mar 26 2023 01:59:34 GMT-0400 (Eastern Daylight Time)","117473","","1313","","","","offer","","<div class='trialBorder'><div class='vertical-center'><img style='vertical-align:center; align:center' src=img/fixation3.jpg></div><div class='cl'><div class='vertical-center'>$30<br>in<br>12 weeks</div></div><div class='cr'><div class='vertical-center'>$28<br><br>now</div></div><div class='respDivL'><div class='vertical-center'>(E)</div></div><div class='respDivR'><div class='vertical-center'>(I)</div></div></div>","I","$28<br><br>now","$30<br>in<br>12 weeks","1","28","30","12","NOW"
"html-keyboard-response","72","106909","0.0-5.0-3.22","580777dd827ca10001db494b","bdp_td","Sun Mar 26 2023 01:59:34 GMT-0400 (Eastern Daylight Time)","117473","","null","","","","offerFB","","<div class='trialBorder'><div class='vertical-center'><img style='vertical-align:center; align:center' src=img/fixation3.jpg></div><div class='cl'><div class='vertical-center'>$30<br>in<br>12 weeks</div></div><div class='cr'><div class='vertical-center'><font style='color:orange'>$28<br><br>now</font></div></div><div class='respDivL'><div class='vertical-center'>(E)</div></div><div class='respDivR'><div class='vertical-center'><font style='color:orange'>(I)</font></div></div></div>","null","$28<br><br>now","$30<br>in<br>12 weeks","1","28","30","12",""
"html-keyboard-response","73","107411","0.0-5.0-1.23","580777dd827ca10001db494b","bdp_td","Sun Mar 26 2023 01:59:34 GMT-0400 (Eastern Daylight Time)","117473","","null","","","","FIX","","<div class='trialBorder'><div class='vertical-center'><img style='vertical-align:center; align:center' src=img/fixation3.jpg></div></div>","null","","","","","","",""
"html-keyboard-response","74","109399","0.0-5.0-2.23","580777dd827ca10001db494b","bdp_td","Sun Mar 26 2023 01:59:34 GMT-0400 (Eastern Daylight Time)","117473","","1986","","","","offer","","<div class='trialBorder'><div class='vertical-center'><img style='vertical-align:center; align:center' src=img/fixation3.jpg></div><div class='cl'><div class='vertical-center'>$19<br><br>now</div></div><div class='cr'><div class='vertical-center'>$25<br>in<br>6 weeks</div></div><div class='respDivL'><div class='vertical-center'>(E)</div></div><div class='respDivR'><div class='vertical-center'>(I)</div></div></div>","E","$19<br><br>now","$25<br>in<br>6 weeks","0","19","25","6","NOW"
"html-keyboard-response","75","109652","0.0-5.0-3.23","580777dd827ca10001db494b","bdp_td","Sun Mar 26 2023 01:59:34 GMT-0400 (Eastern Daylight Time)","117473","","null","","","","offerFB","","<div class='trialBorder'><div class='vertical-center'><img style='vertical-align:center; align:center' src=img/fixation3.jpg></div><div class='cl'><div class='vertical-center'><font style='color:orange'>$19<br><br>now</font></div></div><div class='cr'><div class='vertical-center'>$25<br>in<br>6 weeks</div></div><div class='respDivL'><div class='vertical-center'><font style='color:orange'>(E)</font></div></div><div class='respDivR'><div class='vertical-center'>(I)</div></div></div>","null","$19<br><br>now","$25<br>in<br>6 weeks","0","19","25","6",""
"html-keyboard-response","76","110154","0.0-5.0-1.24","580777dd827ca10001db494b","bdp_td","Sun Mar 26 2023 01:59:34 GMT-0400 (Eastern Daylight Time)","117473","","null","","","","FIX","","<div class='trialBorder'><div class='vertical-center'><img style='vertical-align:center; align:center' src=img/fixation3.jpg></div></div>","null","","","","","","",""
"html-keyboard-response","77","111661","0.0-5.0-2.24","580777dd827ca10001db494b","bdp_td","Sun Mar 26 2023 01:59:34 GMT-0400 (Eastern Daylight Time)","117473","","1505","","","","offer","","<div class='trialBorder'><div class='vertical-center'><img style='vertical-align:center; align:center' src=img/fixation3.jpg></div><div class='cl'><div class='vertical-center'>$80<br>in<br>2 weeks</div></div><div class='cr'><div class='vertical-center'>$33<br><br>now</div></div><div class='respDivL'><div class='vertical-center'>(E)</div></div><div class='respDivR'><div class='vertical-center'>(I)</div></div></div>","E","$33<br><br>now","$80<br>in<br>2 weeks","1","33","80","2","THEN"
"html-keyboard-response","78","111913","0.0-5.0-3.24","580777dd827ca10001db494b","bdp_td","Sun Mar 26 2023 01:59:34 GMT-0400 (Eastern Daylight Time)","117473","","null","","","","offerFB","","<div class='trialBorder'><div class='vertical-center'><img style='vertical-align:center; align:center' src=img/fixation3.jpg></div><div class='cl'><div class='vertical-center'><font style='color:orange'>$80<br>in<br>2 weeks</font></div></div><div class='cr'><div class='vertical-center'>$33<br><br>now</div></div><div class='respDivL'><div class='vertical-center'><font style='color:orange'>(E)</font></div></div><div class='respDivR'><div class='vertical-center'>(I)</div></div></div>","null","$33<br><br>now","$80<br>in<br>2 weeks","1","33","80","2",""
"html-keyboard-response","79","112415","0.0-5.0-1.25","580777dd827ca10001db494b","bdp_td","Sun Mar 26 2023 01:59:34 GMT-0400 (Eastern Daylight Time)","117473","","null","","","","FIX","","<div class='trialBorder'><div class='vertical-center'><img style='vertical-align:center; align:center' src=img/fixation3.jpg></div></div>","null","","","","","","",""
"html-keyboard-response","80","114120","0.0-5.0-2.25","580777dd827ca10001db494b","bdp_td","Sun Mar 26 2023 01:59:34 GMT-0400 (Eastern Daylight Time)","117473","","1704","","","","offer","","<div class='trialBorder'><div class='vertical-center'><img style='vertical-align:center; align:center' src=img/fixation3.jpg></div><div class='cl'><div class='vertical-center'>$49<br><br>now</div></div><div class='cr'><div class='vertical-center'>$60<br>in<br>6 weeks</div></div><div class='respDivL'><div class='vertical-center'>(E)</div></div><div class='respDivR'><div class='vertical-center'>(I)</div></div></div>","E","$49<br><br>now","$60<br>in<br>6 weeks","0","49","60","6","NOW"
"html-keyboard-response","81","114373","0.0-5.0-3.25","580777dd827ca10001db494b","bdp_td","Sun Mar 26 2023 01:59:34 GMT-0400 (Eastern Daylight Time)","117473","","null","","","","offerFB","","<div class='trialBorder'><div class='vertical-center'><img style='vertical-align:center; align:center' src=img/fixation3.jpg></div><div class='cl'><div class='vertical-center'><font style='color:orange'>$49<br><br>now</font></div></div><div class='cr'><div class='vertical-center'>$60<br>in<br>6 weeks</div></div><div class='respDivL'><div class='vertical-center'><font style='color:orange'>(E)</font></div></div><div class='respDivR'><div class='vertical-center'>(I)</div></div></div>","null","$49<br><br>now","$60<br>in<br>6 weeks","0","49","60","6",""
"html-keyboard-response","82","114875","0.0-5.0-1.26","580777dd827ca10001db494b","bdp_td","Sun Mar 26 2023 01:59:34 GMT-0400 (Eastern Daylight Time)","117473","","null","","","","FIX","","<div class='trialBorder'><div class='vertical-center'><img style='vertical-align:center; align:center' src=img/fixation3.jpg></div></div>","null","","","","","","",""
"html-keyboard-response","83","116219","0.0-5.0-2.26","580777dd827ca10001db494b","bdp_td","Sun Mar 26 2023 01:59:34 GMT-0400 (Eastern Daylight Time)","117473","","1343","","","","offer","","<div class='trialBorder'><div class='vertical-center'><img style='vertical-align:center; align:center' src=img/fixation3.jpg></div><div class='cl'><div class='vertical-center'>$47<br><br>now</div></div><div class='cr'><div class='vertical-center'>$50<br>in<br>12 weeks</div></div><div class='respDivL'><div class='vertical-center'>(E)</div></div><div class='respDivR'><div class='vertical-center'>(I)</div></div></div>","E","$47<br><br>now","$50<br>in<br>12 weeks","0","47","50","12","NOW"
"html-keyboard-response","84","116471","0.0-5.0-3.26","580777dd827ca10001db494b","bdp_td","Sun Mar 26 2023 01:59:34 GMT-0400 (Eastern Daylight Time)","117473","","null","","","","offerFB","","<div class='trialBorder'><div class='vertical-center'><img style='vertical-align:center; align:center' src=img/fixation3.jpg></div><div class='cl'><div class='vertical-center'><font style='color:orange'>$47<br><br>now</font></div></div><div class='cr'><div class='vertical-center'>$50<br>in<br>12 weeks</div></div><div class='respDivL'><div class='vertical-center'><font style='color:orange'>(E)</font></div></div><div class='respDivR'><div class='vertical-center'>(I)</div></div></div>","null","$47<br><br>now","$50<br>in<br>12 weeks","0","47","50","12",""
"","","","","580777dd827ca10001db494b","bdp_td","Sun Mar 26 2023 01:59:34 GMT-0400 (Eastern Daylight Time)","117473","","","fullscreenexit","85","116508","fullscreenexit","","","","","","","","","",""
"fullscreen","85","117472","0.0-6.0","580777dd827ca10001db494b","bdp_td","Sun Mar 26 2023 01:59:34 GMT-0400 (Eastern Daylight Time)","117473","","","","","","","true","","","","","","","","",""
"html-keyboard-response","86","117974","0.0-7.0","","","","","","null","","","","","","","null","","","","","","",""
