"trial_type","trial_index","time_elapsed","internal_node_id","subject_id","task","startTime","totalTime","view_history","rt","event","trial","time","trialtype","success","stimulus","key_press","nowOffer","thenOffer","thenLeft","nowAmt","thenAmt","thenWeeks","chosen"
"pavlovia","0","4","0.0-0.0","63d17cf704d2d7053d56b962","bdp_td","Sat Apr 01 2023 18:52:27 GMT-0400 (Eastern Daylight Time)","74588","","","","","","","","","","","","","","","",""
"instructions","1","1270","0.0-1.0","63d17cf704d2d7053d56b962","bdp_td","Sat Apr 01 2023 18:52:27 GMT-0400 (Eastern Daylight Time)","74588","[{""page_index"":0,""viewing_time"":1265}]","1266","","","","","","","","","","","","","",""
"","","","","63d17cf704d2d7053d56b962","bdp_td","Sat Apr 01 2023 18:52:27 GMT-0400 (Eastern Daylight Time)","74588","","","fullscreenenter","2","2784","fullscreenenter","","","","","","","","","",""
"fullscreen","2","3772","0.0-2.0","63d17cf704d2d7053d56b962","bdp_td","Sat Apr 01 2023 18:52:27 GMT-0400 (Eastern Daylight Time)","74588","","","","","","","true","","","","","","","","",""
"instructions","3","20383","0.0-4.0","63d17cf704d2d7053d56b962","bdp_td","Sat Apr 01 2023 18:52:27 GMT-0400 (Eastern Daylight Time)","74588","[{""page_index"":0,""viewing_time"":7519},{""page_index"":1,""viewing_time"":5864},{""page_index"":2,""viewing_time"":3227}]","16610","","","","","","","","","","","","","",""
"html-keyboard-response","4","20884","0.0-5.0-1.0","63d17cf704d2d7053d56b962","bdp_td","Sat Apr 01 2023 18:52:27 GMT-0400 (Eastern Daylight Time)","74588","","null","","","","FIX","","<div class='trialBorder'><div class='vertical-center'><img style='vertical-align:center; align:center' src=img/fixation3.jpg></div></div>","null","","","","","","",""
"html-keyboard-response","5","25993","0.0-5.0-2.0","63d17cf704d2d7053d56b962","bdp_td","Sat Apr 01 2023 18:52:27 GMT-0400 (Eastern Daylight Time)","74588","","5108","","","","offer","","<div class='trialBorder'><div class='vertical-center'><img style='vertical-align:center; align:center' src=img/fixation3.jpg></div><div class='cl'><div class='vertical-center'>$25<br><br>now</div></div><div class='cr'><div class='vertical-center'>$60<br>in<br>3 weeks</div></div><div class='respDivL'><div class='vertical-center'>(E)</div></div><div class='respDivR'><div class='vertical-center'>(I)</div></div></div>","I","$25<br><br>now","$60<br>in<br>3 weeks","0","25","60","3","THEN"
"html-keyboard-response","6","26245","0.0-5.0-3.0","63d17cf704d2d7053d56b962","bdp_td","Sat Apr 01 2023 18:52:27 GMT-0400 (Eastern Daylight Time)","74588","","null","","","","offerFB","","<div class='trialBorder'><div class='vertical-center'><img style='vertical-align:center; align:center' src=img/fixation3.jpg></div><div class='cl'><div class='vertical-center'>$25<br><br>now</div></div><div class='cr'><div class='vertical-center'><font style='color:orange'>$60<br>in<br>3 weeks</font></div></div><div class='respDivL'><div class='vertical-center'>(E)</div></div><div class='respDivR'><div class='vertical-center'><font style='color:orange'>(I)</font></div></div></div>","null","$25<br><br>now","$60<br>in<br>3 weeks","0","25","60","3",""
"html-keyboard-response","7","26748","0.0-5.0-1.1","63d17cf704d2d7053d56b962","bdp_td","Sat Apr 01 2023 18:52:27 GMT-0400 (Eastern Daylight Time)","74588","","null","","","","FIX","","<div class='trialBorder'><div class='vertical-center'><img style='vertical-align:center; align:center' src=img/fixation3.jpg></div></div>","null","","","","","","",""
"html-keyboard-response","8","27991","0.0-5.0-2.1","63d17cf704d2d7053d56b962","bdp_td","Sat Apr 01 2023 18:52:27 GMT-0400 (Eastern Daylight Time)","74588","","1243","","","","offer","","<div class='trialBorder'><div class='vertical-center'><img style='vertical-align:center; align:center' src=img/fixation3.jpg></div><div class='cl'><div class='vertical-center'>$50<br>in<br>3 weeks</div></div><div class='cr'><div class='vertical-center'>$27<br><br>now</div></div><div class='respDivL'><div class='vertical-center'>(E)</div></div><div class='respDivR'><div class='vertical-center'>(I)</div></div></div>","E","$27<br><br>now","$50<br>in<br>3 weeks","1","27","50","3","THEN"
"html-keyboard-response","9","28243","0.0-5.0-3.1","63d17cf704d2d7053d56b962","bdp_td","Sat Apr 01 2023 18:52:27 GMT-0400 (Eastern Daylight Time)","74588","","null","","","","offerFB","","<div class='trialBorder'><div class='vertical-center'><img style='vertical-align:center; align:center' src=img/fixation3.jpg></div><div class='cl'><div class='vertical-center'><font style='color:orange'>$50<br>in<br>3 weeks</font></div></div><div class='cr'><div class='vertical-center'>$27<br><br>now</div></div><div class='respDivL'><div class='vertical-center'><font style='color:orange'>(E)</font></div></div><div class='respDivR'><div class='vertical-center'>(I)</div></div></div>","null","$27<br><br>now","$50<br>in<br>3 weeks","1","27","50","3",""
"html-keyboard-response","10","28746","0.0-5.0-1.2","63d17cf704d2d7053d56b962","bdp_td","Sat Apr 01 2023 18:52:27 GMT-0400 (Eastern Daylight Time)","74588","","null","","","","FIX","","<div class='trialBorder'><div class='vertical-center'><img style='vertical-align:center; align:center' src=img/fixation3.jpg></div></div>","null","","","","","","",""
"html-keyboard-response","11","29903","0.0-5.0-2.2","63d17cf704d2d7053d56b962","bdp_td","Sat Apr 01 2023 18:52:27 GMT-0400 (Eastern Daylight Time)","74588","","1157","","","","offer","","<div class='trialBorder'><div class='vertical-center'><img style='vertical-align:center; align:center' src=img/fixation3.jpg></div><div class='cl'><div class='vertical-center'>$55<br>in<br>6 weeks</div></div><div class='cr'><div class='vertical-center'>$40<br><br>now</div></div><div class='respDivL'><div class='vertical-center'>(E)</div></div><div class='respDivR'><div class='vertical-center'>(I)</div></div></div>","E","$40<br><br>now","$55<br>in<br>6 weeks","1","40","55","6","THEN"
"html-keyboard-response","12","30154","0.0-5.0-3.2","63d17cf704d2d7053d56b962","bdp_td","Sat Apr 01 2023 18:52:27 GMT-0400 (Eastern Daylight Time)","74588","","null","","","","offerFB","","<div class='trialBorder'><div class='vertical-center'><img style='vertical-align:center; align:center' src=img/fixation3.jpg></div><div class='cl'><div class='vertical-center'><font style='color:orange'>$55<br>in<br>6 weeks</font></div></div><div class='cr'><div class='vertical-center'>$40<br><br>now</div></div><div class='respDivL'><div class='vertical-center'><font style='color:orange'>(E)</font></div></div><div class='respDivR'><div class='vertical-center'>(I)</div></div></div>","null","$40<br><br>now","$55<br>in<br>6 weeks","1","40","55","6",""
"html-keyboard-response","13","30656","0.0-5.0-1.3","63d17cf704d2d7053d56b962","bdp_td","Sat Apr 01 2023 18:52:27 GMT-0400 (Eastern Daylight Time)","74588","","null","","","","FIX","","<div class='trialBorder'><div class='vertical-center'><img style='vertical-align:center; align:center' src=img/fixation3.jpg></div></div>","null","","","","","","",""
"html-keyboard-response","14","32922","0.0-5.0-2.3","63d17cf704d2d7053d56b962","bdp_td","Sat Apr 01 2023 18:52:27 GMT-0400 (Eastern Daylight Time)","74588","","2265","","","","offer","","<div class='trialBorder'><div class='vertical-center'><img style='vertical-align:center; align:center' src=img/fixation3.jpg></div><div class='cl'><div class='vertical-center'>$85<br>in<br>12 weeks</div></div><div class='cr'><div class='vertical-center'>$80<br><br>now</div></div><div class='respDivL'><div class='vertical-center'>(E)</div></div><div class='respDivR'><div class='vertical-center'>(I)</div></div></div>","I","$80<br><br>now","$85<br>in<br>12 weeks","1","80","85","12","NOW"
"html-keyboard-response","15","33174","0.0-5.0-3.3","63d17cf704d2d7053d56b962","bdp_td","Sat Apr 01 2023 18:52:27 GMT-0400 (Eastern Daylight Time)","74588","","null","","","","offerFB","","<div class='trialBorder'><div class='vertical-center'><img style='vertical-align:center; align:center' src=img/fixation3.jpg></div><div class='cl'><div class='vertical-center'>$85<br>in<br>12 weeks</div></div><div class='cr'><div class='vertical-center'><font style='color:orange'>$80<br><br>now</font></div></div><div class='respDivL'><div class='vertical-center'>(E)</div></div><div class='respDivR'><div class='vertical-center'><font style='color:orange'>(I)</font></div></div></div>","null","$80<br><br>now","$85<br>in<br>12 weeks","1","80","85","12",""
"html-keyboard-response","16","33676","0.0-5.0-1.4","63d17cf704d2d7053d56b962","bdp_td","Sat Apr 01 2023 18:52:27 GMT-0400 (Eastern Daylight Time)","74588","","null","","","","FIX","","<div class='trialBorder'><div class='vertical-center'><img style='vertical-align:center; align:center' src=img/fixation3.jpg></div></div>","null","","","","","","",""
"html-keyboard-response","17","35073","0.0-5.0-2.4","63d17cf704d2d7053d56b962","bdp_td","Sat Apr 01 2023 18:52:27 GMT-0400 (Eastern Daylight Time)","74588","","1396","","","","offer","","<div class='trialBorder'><div class='vertical-center'><img style='vertical-align:center; align:center' src=img/fixation3.jpg></div><div class='cl'><div class='vertical-center'>$54<br><br>now</div></div><div class='cr'><div class='vertical-center'>$55<br>in<br>12 weeks</div></div><div class='respDivL'><div class='vertical-center'>(E)</div></div><div class='respDivR'><div class='vertical-center'>(I)</div></div></div>","E","$54<br><br>now","$55<br>in<br>12 weeks","0","54","55","12","NOW"
"html-keyboard-response","18","35324","0.0-5.0-3.4","63d17cf704d2d7053d56b962","bdp_td","Sat Apr 01 2023 18:52:27 GMT-0400 (Eastern Daylight Time)","74588","","null","","","","offerFB","","<div class='trialBorder'><div class='vertical-center'><img style='vertical-align:center; align:center' src=img/fixation3.jpg></div><div class='cl'><div class='vertical-center'><font style='color:orange'>$54<br><br>now</font></div></div><div class='cr'><div class='vertical-center'>$55<br>in<br>12 weeks</div></div><div class='respDivL'><div class='vertical-center'><font style='color:orange'>(E)</font></div></div><div class='respDivR'><div class='vertical-center'>(I)</div></div></div>","null","$54<br><br>now","$55<br>in<br>12 weeks","0","54","55","12",""
"html-keyboard-response","19","35829","0.0-5.0-1.5","63d17cf704d2d7053d56b962","bdp_td","Sat Apr 01 2023 18:52:27 GMT-0400 (Eastern Daylight Time)","74588","","null","","","","FIX","","<div class='trialBorder'><div class='vertical-center'><img style='vertical-align:center; align:center' src=img/fixation3.jpg></div></div>","null","","","","","","",""
"html-keyboard-response","20","37265","0.0-5.0-2.5","63d17cf704d2d7053d56b962","bdp_td","Sat Apr 01 2023 18:52:27 GMT-0400 (Eastern Daylight Time)","74588","","1436","","","","offer","","<div class='trialBorder'><div class='vertical-center'><img style='vertical-align:center; align:center' src=img/fixation3.jpg></div><div class='cl'><div class='vertical-center'>$25<br>in<br>6 weeks</div></div><div class='cr'><div class='vertical-center'>$19<br><br>now</div></div><div class='respDivL'><div class='vertical-center'>(E)</div></div><div class='respDivR'><div class='vertical-center'>(I)</div></div></div>","I","$19<br><br>now","$25<br>in<br>6 weeks","1","19","25","6","NOW"
"html-keyboard-response","21","37517","0.0-5.0-3.5","63d17cf704d2d7053d56b962","bdp_td","Sat Apr 01 2023 18:52:27 GMT-0400 (Eastern Daylight Time)","74588","","null","","","","offerFB","","<div class='trialBorder'><div class='vertical-center'><img style='vertical-align:center; align:center' src=img/fixation3.jpg></div><div class='cl'><div class='vertical-center'>$25<br>in<br>6 weeks</div></div><div class='cr'><div class='vertical-center'><font style='color:orange'>$19<br><br>now</font></div></div><div class='respDivL'><div class='vertical-center'>(E)</div></div><div class='respDivR'><div class='vertical-center'><font style='color:orange'>(I)</font></div></div></div>","null","$19<br><br>now","$25<br>in<br>6 weeks","1","19","25","6",""
"html-keyboard-response","22","38019","0.0-5.0-1.6","63d17cf704d2d7053d56b962","bdp_td","Sat Apr 01 2023 18:52:27 GMT-0400 (Eastern Daylight Time)","74588","","null","","","","FIX","","<div class='trialBorder'><div class='vertical-center'><img style='vertical-align:center; align:center' src=img/fixation3.jpg></div></div>","null","","","","","","",""
"html-keyboard-response","23","40377","0.0-5.0-2.6","63d17cf704d2d7053d56b962","bdp_td","Sat Apr 01 2023 18:52:27 GMT-0400 (Eastern Daylight Time)","74588","","2356","","","","offer","","<div class='trialBorder'><div class='vertical-center'><img style='vertical-align:center; align:center' src=img/fixation3.jpg></div><div class='cl'><div class='vertical-center'>$24<br><br>now</div></div><div class='cr'><div class='vertical-center'>$35<br>in<br>3 weeks</div></div><div class='respDivL'><div class='vertical-center'>(E)</div></div><div class='respDivR'><div class='vertical-center'>(I)</div></div></div>","I","$24<br><br>now","$35<br>in<br>3 weeks","0","24","35","3","THEN"
"html-keyboard-response","24","40629","0.0-5.0-3.6","63d17cf704d2d7053d56b962","bdp_td","Sat Apr 01 2023 18:52:27 GMT-0400 (Eastern Daylight Time)","74588","","null","","","","offerFB","","<div class='trialBorder'><div class='vertical-center'><img style='vertical-align:center; align:center' src=img/fixation3.jpg></div><div class='cl'><div class='vertical-center'>$24<br><br>now</div></div><div class='cr'><div class='vertical-center'><font style='color:orange'>$35<br>in<br>3 weeks</font></div></div><div class='respDivL'><div class='vertical-center'>(E)</div></div><div class='respDivR'><div class='vertical-center'><font style='color:orange'>(I)</font></div></div></div>","null","$24<br><br>now","$35<br>in<br>3 weeks","0","24","35","3",""
"html-keyboard-response","25","41130","0.0-5.0-1.7","63d17cf704d2d7053d56b962","bdp_td","Sat Apr 01 2023 18:52:27 GMT-0400 (Eastern Daylight Time)","74588","","null","","","","FIX","","<div class='trialBorder'><div class='vertical-center'><img style='vertical-align:center; align:center' src=img/fixation3.jpg></div></div>","null","","","","","","",""
"html-keyboard-response","26","41986","0.0-5.0-2.7","63d17cf704d2d7053d56b962","bdp_td","Sat Apr 01 2023 18:52:27 GMT-0400 (Eastern Daylight Time)","74588","","855","","","","offer","","<div class='trialBorder'><div class='vertical-center'><img style='vertical-align:center; align:center' src=img/fixation3.jpg></div><div class='cl'><div class='vertical-center'>$85<br>in<br>1 week</div></div><div class='cr'><div class='vertical-center'>$31<br><br>now</div></div><div class='respDivL'><div class='vertical-center'>(E)</div></div><div class='respDivR'><div class='vertical-center'>(I)</div></div></div>","E","$31<br><br>now","$85<br>in<br>1 week","1","31","85","1","THEN"
"html-keyboard-response","27","42238","0.0-5.0-3.7","63d17cf704d2d7053d56b962","bdp_td","Sat Apr 01 2023 18:52:27 GMT-0400 (Eastern Daylight Time)","74588","","null","","","","offerFB","","<div class='trialBorder'><div class='vertical-center'><img style='vertical-align:center; align:center' src=img/fixation3.jpg></div><div class='cl'><div class='vertical-center'><font style='color:orange'>$85<br>in<br>1 week</font></div></div><div class='cr'><div class='vertical-center'>$31<br><br>now</div></div><div class='respDivL'><div class='vertical-center'><font style='color:orange'>(E)</font></div></div><div class='respDivR'><div class='vertical-center'>(I)</div></div></div>","null","$31<br><br>now","$85<br>in<br>1 week","1","31","85","1",""
"html-keyboard-response","28","42740","0.0-5.0-1.8","63d17cf704d2d7053d56b962","bdp_td","Sat Apr 01 2023 18:52:27 GMT-0400 (Eastern Daylight Time)","74588","","null","","","","FIX","","<div class='trialBorder'><div class='vertical-center'><img style='vertical-align:center; align:center' src=img/fixation3.jpg></div></div>","null","","","","","","",""
"html-keyboard-response","29","43907","0.0-5.0-2.8","63d17cf704d2d7053d56b962","bdp_td","Sat Apr 01 2023 18:52:27 GMT-0400 (Eastern Daylight Time)","74588","","1166","","","","offer","","<div class='trialBorder'><div class='vertical-center'><img style='vertical-align:center; align:center' src=img/fixation3.jpg></div><div class='cl'><div class='vertical-center'>$75<br>in<br>3 weeks</div></div><div class='cr'><div class='vertical-center'>$41<br><br>now</div></div><div class='respDivL'><div class='vertical-center'>(E)</div></div><div class='respDivR'><div class='vertical-center'>(I)</div></div></div>","E","$41<br><br>now","$75<br>in<br>3 weeks","1","41","75","3","THEN"
"html-keyboard-response","30","44159","0.0-5.0-3.8","63d17cf704d2d7053d56b962","bdp_td","Sat Apr 01 2023 18:52:27 GMT-0400 (Eastern Daylight Time)","74588","","null","","","","offerFB","","<div class='trialBorder'><div class='vertical-center'><img style='vertical-align:center; align:center' src=img/fixation3.jpg></div><div class='cl'><div class='vertical-center'><font style='color:orange'>$75<br>in<br>3 weeks</font></div></div><div class='cr'><div class='vertical-center'>$41<br><br>now</div></div><div class='respDivL'><div class='vertical-center'><font style='color:orange'>(E)</font></div></div><div class='respDivR'><div class='vertical-center'>(I)</div></div></div>","null","$41<br><br>now","$75<br>in<br>3 weeks","1","41","75","3",""
"html-keyboard-response","31","44660","0.0-5.0-1.9","63d17cf704d2d7053d56b962","bdp_td","Sat Apr 01 2023 18:52:27 GMT-0400 (Eastern Daylight Time)","74588","","null","","","","FIX","","<div class='trialBorder'><div class='vertical-center'><img style='vertical-align:center; align:center' src=img/fixation3.jpg></div></div>","null","","","","","","",""
"html-keyboard-response","32","45437","0.0-5.0-2.9","63d17cf704d2d7053d56b962","bdp_td","Sat Apr 01 2023 18:52:27 GMT-0400 (Eastern Daylight Time)","74588","","776","","","","offer","","<div class='trialBorder'><div class='vertical-center'><img style='vertical-align:center; align:center' src=img/fixation3.jpg></div><div class='cl'><div class='vertical-center'>$14<br><br>now</div></div><div class='cr'><div class='vertical-center'>$25<br>in<br>3 weeks</div></div><div class='respDivL'><div class='vertical-center'>(E)</div></div><div class='respDivR'><div class='vertical-center'>(I)</div></div></div>","I","$14<br><br>now","$25<br>in<br>3 weeks","0","14","25","3","THEN"
"html-keyboard-response","33","45689","0.0-5.0-3.9","63d17cf704d2d7053d56b962","bdp_td","Sat Apr 01 2023 18:52:27 GMT-0400 (Eastern Daylight Time)","74588","","null","","","","offerFB","","<div class='trialBorder'><div class='vertical-center'><img style='vertical-align:center; align:center' src=img/fixation3.jpg></div><div class='cl'><div class='vertical-center'>$14<br><br>now</div></div><div class='cr'><div class='vertical-center'><font style='color:orange'>$25<br>in<br>3 weeks</font></div></div><div class='respDivL'><div class='vertical-center'>(E)</div></div><div class='respDivR'><div class='vertical-center'><font style='color:orange'>(I)</font></div></div></div>","null","$14<br><br>now","$25<br>in<br>3 weeks","0","14","25","3",""
"html-keyboard-response","34","46190","0.0-5.0-1.10","63d17cf704d2d7053d56b962","bdp_td","Sat Apr 01 2023 18:52:27 GMT-0400 (Eastern Daylight Time)","74588","","null","","","","FIX","","<div class='trialBorder'><div class='vertical-center'><img style='vertical-align:center; align:center' src=img/fixation3.jpg></div></div>","null","","","","","","",""
"html-keyboard-response","35","47097","0.0-5.0-2.10","63d17cf704d2d7053d56b962","bdp_td","Sat Apr 01 2023 18:52:27 GMT-0400 (Eastern Daylight Time)","74588","","905","","","","offer","","<div class='trialBorder'><div class='vertical-center'><img style='vertical-align:center; align:center' src=img/fixation3.jpg></div><div class='cl'><div class='vertical-center'>$47<br><br>now</div></div><div class='cr'><div class='vertical-center'>$50<br>in<br>12 weeks</div></div><div class='respDivL'><div class='vertical-center'>(E)</div></div><div class='respDivR'><div class='vertical-center'>(I)</div></div></div>","I","$47<br><br>now","$50<br>in<br>12 weeks","0","47","50","12","THEN"
"html-keyboard-response","36","47349","0.0-5.0-3.10","63d17cf704d2d7053d56b962","bdp_td","Sat Apr 01 2023 18:52:27 GMT-0400 (Eastern Daylight Time)","74588","","null","","","","offerFB","","<div class='trialBorder'><div class='vertical-center'><img style='vertical-align:center; align:center' src=img/fixation3.jpg></div><div class='cl'><div class='vertical-center'>$47<br><br>now</div></div><div class='cr'><div class='vertical-center'><font style='color:orange'>$50<br>in<br>12 weeks</font></div></div><div class='respDivL'><div class='vertical-center'>(E)</div></div><div class='respDivR'><div class='vertical-center'><font style='color:orange'>(I)</font></div></div></div>","null","$47<br><br>now","$50<br>in<br>12 weeks","0","47","50","12",""
"html-keyboard-response","37","47851","0.0-5.0-1.11","63d17cf704d2d7053d56b962","bdp_td","Sat Apr 01 2023 18:52:27 GMT-0400 (Eastern Daylight Time)","74588","","null","","","","FIX","","<div class='trialBorder'><div class='vertical-center'><img style='vertical-align:center; align:center' src=img/fixation3.jpg></div></div>","null","","","","","","",""
"html-keyboard-response","38","48598","0.0-5.0-2.11","63d17cf704d2d7053d56b962","bdp_td","Sat Apr 01 2023 18:52:27 GMT-0400 (Eastern Daylight Time)","74588","","747","","","","offer","","<div class='trialBorder'><div class='vertical-center'><img style='vertical-align:center; align:center' src=img/fixation3.jpg></div><div class='cl'><div class='vertical-center'>$80<br>in<br>3 weeks</div></div><div class='cr'><div class='vertical-center'>$54<br><br>now</div></div><div class='respDivL'><div class='vertical-center'>(E)</div></div><div class='respDivR'><div class='vertical-center'>(I)</div></div></div>","E","$54<br><br>now","$80<br>in<br>3 weeks","1","54","80","3","THEN"
"html-keyboard-response","39","48849","0.0-5.0-3.11","63d17cf704d2d7053d56b962","bdp_td","Sat Apr 01 2023 18:52:27 GMT-0400 (Eastern Daylight Time)","74588","","null","","","","offerFB","","<div class='trialBorder'><div class='vertical-center'><img style='vertical-align:center; align:center' src=img/fixation3.jpg></div><div class='cl'><div class='vertical-center'><font style='color:orange'>$80<br>in<br>3 weeks</font></div></div><div class='cr'><div class='vertical-center'>$54<br><br>now</div></div><div class='respDivL'><div class='vertical-center'><font style='color:orange'>(E)</font></div></div><div class='respDivR'><div class='vertical-center'>(I)</div></div></div>","null","$54<br><br>now","$80<br>in<br>3 weeks","1","54","80","3",""
"html-keyboard-response","40","49350","0.0-5.0-1.12","63d17cf704d2d7053d56b962","bdp_td","Sat Apr 01 2023 18:52:27 GMT-0400 (Eastern Daylight Time)","74588","","null","","","","FIX","","<div class='trialBorder'><div class='vertical-center'><img style='vertical-align:center; align:center' src=img/fixation3.jpg></div></div>","null","","","","","","",""
"html-keyboard-response","41","49980","0.0-5.0-2.12","63d17cf704d2d7053d56b962","bdp_td","Sat Apr 01 2023 18:52:27 GMT-0400 (Eastern Daylight Time)","74588","","629","","","","offer","","<div class='trialBorder'><div class='vertical-center'><img style='vertical-align:center; align:center' src=img/fixation3.jpg></div><div class='cl'><div class='vertical-center'>$50<br>in<br>6 weeks</div></div><div class='cr'><div class='vertical-center'>$34<br><br>now</div></div><div class='respDivL'><div class='vertical-center'>(E)</div></div><div class='respDivR'><div class='vertical-center'>(I)</div></div></div>","E","$34<br><br>now","$50<br>in<br>6 weeks","1","34","50","6","THEN"
"html-keyboard-response","42","50232","0.0-5.0-3.12","63d17cf704d2d7053d56b962","bdp_td","Sat Apr 01 2023 18:52:27 GMT-0400 (Eastern Daylight Time)","74588","","null","","","","offerFB","","<div class='trialBorder'><div class='vertical-center'><img style='vertical-align:center; align:center' src=img/fixation3.jpg></div><div class='cl'><div class='vertical-center'><font style='color:orange'>$50<br>in<br>6 weeks</font></div></div><div class='cr'><div class='vertical-center'>$34<br><br>now</div></div><div class='respDivL'><div class='vertical-center'><font style='color:orange'>(E)</font></div></div><div class='respDivR'><div class='vertical-center'>(I)</div></div></div>","null","$34<br><br>now","$50<br>in<br>6 weeks","1","34","50","6",""
"html-keyboard-response","43","50733","0.0-5.0-1.13","63d17cf704d2d7053d56b962","bdp_td","Sat Apr 01 2023 18:52:27 GMT-0400 (Eastern Daylight Time)","74588","","null","","","","FIX","","<div class='trialBorder'><div class='vertical-center'><img style='vertical-align:center; align:center' src=img/fixation3.jpg></div></div>","null","","","","","","",""
"html-keyboard-response","44","51794","0.0-5.0-2.13","63d17cf704d2d7053d56b962","bdp_td","Sat Apr 01 2023 18:52:27 GMT-0400 (Eastern Daylight Time)","74588","","1059","","","","offer","","<div class='trialBorder'><div class='vertical-center'><img style='vertical-align:center; align:center' src=img/fixation3.jpg></div><div class='cl'><div class='vertical-center'>$67<br><br>now</div></div><div class='cr'><div class='vertical-center'>$75<br>in<br>12 weeks</div></div><div class='respDivL'><div class='vertical-center'>(E)</div></div><div class='respDivR'><div class='vertical-center'>(I)</div></div></div>","I","$67<br><br>now","$75<br>in<br>12 weeks","0","67","75","12","THEN"
"html-keyboard-response","45","52046","0.0-5.0-3.13","63d17cf704d2d7053d56b962","bdp_td","Sat Apr 01 2023 18:52:27 GMT-0400 (Eastern Daylight Time)","74588","","null","","","","offerFB","","<div class='trialBorder'><div class='vertical-center'><img style='vertical-align:center; align:center' src=img/fixation3.jpg></div><div class='cl'><div class='vertical-center'>$67<br><br>now</div></div><div class='cr'><div class='vertical-center'><font style='color:orange'>$75<br>in<br>12 weeks</font></div></div><div class='respDivL'><div class='vertical-center'>(E)</div></div><div class='respDivR'><div class='vertical-center'><font style='color:orange'>(I)</font></div></div></div>","null","$67<br><br>now","$75<br>in<br>12 weeks","0","67","75","12",""
"html-keyboard-response","46","52548","0.0-5.0-1.14","63d17cf704d2d7053d56b962","bdp_td","Sat Apr 01 2023 18:52:27 GMT-0400 (Eastern Daylight Time)","74588","","null","","","","FIX","","<div class='trialBorder'><div class='vertical-center'><img style='vertical-align:center; align:center' src=img/fixation3.jpg></div></div>","null","","","","","","",""
"html-keyboard-response","47","53232","0.0-5.0-2.14","63d17cf704d2d7053d56b962","bdp_td","Sat Apr 01 2023 18:52:27 GMT-0400 (Eastern Daylight Time)","74588","","684","","","","offer","","<div class='trialBorder'><div class='vertical-center'><img style='vertical-align:center; align:center' src=img/fixation3.jpg></div><div class='cl'><div class='vertical-center'>$54<br><br>now</div></div><div class='cr'><div class='vertical-center'>$60<br>in<br>12 weeks</div></div><div class='respDivL'><div class='vertical-center'>(E)</div></div><div class='respDivR'><div class='vertical-center'>(I)</div></div></div>","I","$54<br><br>now","$60<br>in<br>12 weeks","0","54","60","12","THEN"
"html-keyboard-response","48","53484","0.0-5.0-3.14","63d17cf704d2d7053d56b962","bdp_td","Sat Apr 01 2023 18:52:27 GMT-0400 (Eastern Daylight Time)","74588","","null","","","","offerFB","","<div class='trialBorder'><div class='vertical-center'><img style='vertical-align:center; align:center' src=img/fixation3.jpg></div><div class='cl'><div class='vertical-center'>$54<br><br>now</div></div><div class='cr'><div class='vertical-center'><font style='color:orange'>$60<br>in<br>12 weeks</font></div></div><div class='respDivL'><div class='vertical-center'>(E)</div></div><div class='respDivR'><div class='vertical-center'><font style='color:orange'>(I)</font></div></div></div>","null","$54<br><br>now","$60<br>in<br>12 weeks","0","54","60","12",""
"html-keyboard-response","49","53986","0.0-5.0-1.15","63d17cf704d2d7053d56b962","bdp_td","Sat Apr 01 2023 18:52:27 GMT-0400 (Eastern Daylight Time)","74588","","null","","","","FIX","","<div class='trialBorder'><div class='vertical-center'><img style='vertical-align:center; align:center' src=img/fixation3.jpg></div></div>","null","","","","","","",""
"html-keyboard-response","50","54766","0.0-5.0-2.15","63d17cf704d2d7053d56b962","bdp_td","Sat Apr 01 2023 18:52:27 GMT-0400 (Eastern Daylight Time)","74588","","778","","","","offer","","<div class='trialBorder'><div class='vertical-center'><img style='vertical-align:center; align:center' src=img/fixation3.jpg></div><div class='cl'><div class='vertical-center'>$35<br>in<br>12 weeks</div></div><div class='cr'><div class='vertical-center'>$34<br><br>now</div></div><div class='respDivL'><div class='vertical-center'>(E)</div></div><div class='respDivR'><div class='vertical-center'>(I)</div></div></div>","E","$34<br><br>now","$35<br>in<br>12 weeks","1","34","35","12","THEN"
"html-keyboard-response","51","55017","0.0-5.0-3.15","63d17cf704d2d7053d56b962","bdp_td","Sat Apr 01 2023 18:52:27 GMT-0400 (Eastern Daylight Time)","74588","","null","","","","offerFB","","<div class='trialBorder'><div class='vertical-center'><img style='vertical-align:center; align:center' src=img/fixation3.jpg></div><div class='cl'><div class='vertical-center'><font style='color:orange'>$35<br>in<br>12 weeks</font></div></div><div class='cr'><div class='vertical-center'>$34<br><br>now</div></div><div class='respDivL'><div class='vertical-center'><font style='color:orange'>(E)</font></div></div><div class='respDivR'><div class='vertical-center'>(I)</div></div></div>","null","$34<br><br>now","$35<br>in<br>12 weeks","1","34","35","12",""
"html-keyboard-response","52","55518","0.0-5.0-1.16","63d17cf704d2d7053d56b962","bdp_td","Sat Apr 01 2023 18:52:27 GMT-0400 (Eastern Daylight Time)","74588","","null","","","","FIX","","<div class='trialBorder'><div class='vertical-center'><img style='vertical-align:center; align:center' src=img/fixation3.jpg></div></div>","null","","","","","","",""
"html-keyboard-response","53","56711","0.0-5.0-2.16","63d17cf704d2d7053d56b962","bdp_td","Sat Apr 01 2023 18:52:27 GMT-0400 (Eastern Daylight Time)","74588","","1192","","","","offer","","<div class='trialBorder'><div class='vertical-center'><img style='vertical-align:center; align:center' src=img/fixation3.jpg></div><div class='cl'><div class='vertical-center'>$35<br>in<br>2 weeks</div></div><div class='cr'><div class='vertical-center'>$15<br><br>now</div></div><div class='respDivL'><div class='vertical-center'>(E)</div></div><div class='respDivR'><div class='vertical-center'>(I)</div></div></div>","E","$15<br><br>now","$35<br>in<br>2 weeks","1","15","35","2","THEN"
"html-keyboard-response","54","56963","0.0-5.0-3.16","63d17cf704d2d7053d56b962","bdp_td","Sat Apr 01 2023 18:52:27 GMT-0400 (Eastern Daylight Time)","74588","","null","","","","offerFB","","<div class='trialBorder'><div class='vertical-center'><img style='vertical-align:center; align:center' src=img/fixation3.jpg></div><div class='cl'><div class='vertical-center'><font style='color:orange'>$35<br>in<br>2 weeks</font></div></div><div class='cr'><div class='vertical-center'>$15<br><br>now</div></div><div class='respDivL'><div class='vertical-center'><font style='color:orange'>(E)</font></div></div><div class='respDivR'><div class='vertical-center'>(I)</div></div></div>","null","$15<br><br>now","$35<br>in<br>2 weeks","1","15","35","2",""
"html-keyboard-response","55","57464","0.0-5.0-1.17","63d17cf704d2d7053d56b962","bdp_td","Sat Apr 01 2023 18:52:27 GMT-0400 (Eastern Daylight Time)","74588","","null","","","","FIX","","<div class='trialBorder'><div class='vertical-center'><img style='vertical-align:center; align:center' src=img/fixation3.jpg></div></div>","null","","","","","","",""
"html-keyboard-response","56","58475","0.0-5.0-2.17","63d17cf704d2d7053d56b962","bdp_td","Sat Apr 01 2023 18:52:27 GMT-0400 (Eastern Daylight Time)","74588","","1010","","","","offer","","<div class='trialBorder'><div class='vertical-center'><img style='vertical-align:center; align:center' src=img/fixation3.jpg></div><div class='cl'><div class='vertical-center'>$11<br><br>now</div></div><div class='cr'><div class='vertical-center'>$30<br>in<br>2 weeks</div></div><div class='respDivL'><div class='vertical-center'>(E)</div></div><div class='respDivR'><div class='vertical-center'>(I)</div></div></div>","I","$11<br><br>now","$30<br>in<br>2 weeks","0","11","30","2","THEN"
"html-keyboard-response","57","58727","0.0-5.0-3.17","63d17cf704d2d7053d56b962","bdp_td","Sat Apr 01 2023 18:52:27 GMT-0400 (Eastern Daylight Time)","74588","","null","","","","offerFB","","<div class='trialBorder'><div class='vertical-center'><img style='vertical-align:center; align:center' src=img/fixation3.jpg></div><div class='cl'><div class='vertical-center'>$11<br><br>now</div></div><div class='cr'><div class='vertical-center'><font style='color:orange'>$30<br>in<br>2 weeks</font></div></div><div class='respDivL'><div class='vertical-center'>(E)</div></div><div class='respDivR'><div class='vertical-center'><font style='color:orange'>(I)</font></div></div></div>","null","$11<br><br>now","$30<br>in<br>2 weeks","0","11","30","2",""
"html-keyboard-response","58","59229","0.0-5.0-1.18","63d17cf704d2d7053d56b962","bdp_td","Sat Apr 01 2023 18:52:27 GMT-0400 (Eastern Daylight Time)","74588","","null","","","","FIX","","<div class='trialBorder'><div class='vertical-center'><img style='vertical-align:center; align:center' src=img/fixation3.jpg></div></div>","null","","","","","","",""
"html-keyboard-response","59","60420","0.0-5.0-2.18","63d17cf704d2d7053d56b962","bdp_td","Sat Apr 01 2023 18:52:27 GMT-0400 (Eastern Daylight Time)","74588","","1190","","","","offer","","<div class='trialBorder'><div class='vertical-center'><img style='vertical-align:center; align:center' src=img/fixation3.jpg></div><div class='cl'><div class='vertical-center'>$25<br>in<br>12 weeks</div></div><div class='cr'><div class='vertical-center'>$22<br><br>now</div></div><div class='respDivL'><div class='vertical-center'>(E)</div></div><div class='respDivR'><div class='vertical-center'>(I)</div></div></div>","I","$22<br><br>now","$25<br>in<br>12 weeks","1","22","25","12","NOW"
"html-keyboard-response","60","60672","0.0-5.0-3.18","63d17cf704d2d7053d56b962","bdp_td","Sat Apr 01 2023 18:52:27 GMT-0400 (Eastern Daylight Time)","74588","","null","","","","offerFB","","<div class='trialBorder'><div class='vertical-center'><img style='vertical-align:center; align:center' src=img/fixation3.jpg></div><div class='cl'><div class='vertical-center'>$25<br>in<br>12 weeks</div></div><div class='cr'><div class='vertical-center'><font style='color:orange'>$22<br><br>now</font></div></div><div class='respDivL'><div class='vertical-center'>(E)</div></div><div class='respDivR'><div class='vertical-center'><font style='color:orange'>(I)</font></div></div></div>","null","$22<br><br>now","$25<br>in<br>12 weeks","1","22","25","12",""
"html-keyboard-response","61","61173","0.0-5.0-1.19","63d17cf704d2d7053d56b962","bdp_td","Sat Apr 01 2023 18:52:27 GMT-0400 (Eastern Daylight Time)","74588","","null","","","","FIX","","<div class='trialBorder'><div class='vertical-center'><img style='vertical-align:center; align:center' src=img/fixation3.jpg></div></div>","null","","","","","","",""
"html-keyboard-response","62","63337","0.0-5.0-2.19","63d17cf704d2d7053d56b962","bdp_td","Sat Apr 01 2023 18:52:27 GMT-0400 (Eastern Daylight Time)","74588","","2162","","","","offer","","<div class='trialBorder'><div class='vertical-center'><img style='vertical-align:center; align:center' src=img/fixation3.jpg></div><div class='cl'><div class='vertical-center'>$85<br>in<br>6 weeks</div></div><div class='cr'><div class='vertical-center'>$69<br><br>now</div></div><div class='respDivL'><div class='vertical-center'>(E)</div></div><div class='respDivR'><div class='vertical-center'>(I)</div></div></div>","E","$69<br><br>now","$85<br>in<br>6 weeks","1","69","85","6","THEN"
"html-keyboard-response","63","63589","0.0-5.0-3.19","63d17cf704d2d7053d56b962","bdp_td","Sat Apr 01 2023 18:52:27 GMT-0400 (Eastern Daylight Time)","74588","","null","","","","offerFB","","<div class='trialBorder'><div class='vertical-center'><img style='vertical-align:center; align:center' src=img/fixation3.jpg></div><div class='cl'><div class='vertical-center'><font style='color:orange'>$85<br>in<br>6 weeks</font></div></div><div class='cr'><div class='vertical-center'>$69<br><br>now</div></div><div class='respDivL'><div class='vertical-center'><font style='color:orange'>(E)</font></div></div><div class='respDivR'><div class='vertical-center'>(I)</div></div></div>","null","$69<br><br>now","$85<br>in<br>6 weeks","1","69","85","6",""
"html-keyboard-response","64","64090","0.0-5.0-1.20","63d17cf704d2d7053d56b962","bdp_td","Sat Apr 01 2023 18:52:27 GMT-0400 (Eastern Daylight Time)","74588","","null","","","","FIX","","<div class='trialBorder'><div class='vertical-center'><img style='vertical-align:center; align:center' src=img/fixation3.jpg></div></div>","null","","","","","","",""
"html-keyboard-response","65","64790","0.0-5.0-2.20","63d17cf704d2d7053d56b962","bdp_td","Sat Apr 01 2023 18:52:27 GMT-0400 (Eastern Daylight Time)","74588","","699","","","","offer","","<div class='trialBorder'><div class='vertical-center'><img style='vertical-align:center; align:center' src=img/fixation3.jpg></div><div class='cl'><div class='vertical-center'>$55<br>in<br>1 week</div></div><div class='cr'><div class='vertical-center'>$20<br><br>now</div></div><div class='respDivL'><div class='vertical-center'>(E)</div></div><div class='respDivR'><div class='vertical-center'>(I)</div></div></div>","E","$20<br><br>now","$55<br>in<br>1 week","1","20","55","1","THEN"
"html-keyboard-response","66","65042","0.0-5.0-3.20","63d17cf704d2d7053d56b962","bdp_td","Sat Apr 01 2023 18:52:27 GMT-0400 (Eastern Daylight Time)","74588","","null","","","","offerFB","","<div class='trialBorder'><div class='vertical-center'><img style='vertical-align:center; align:center' src=img/fixation3.jpg></div><div class='cl'><div class='vertical-center'><font style='color:orange'>$55<br>in<br>1 week</font></div></div><div class='cr'><div class='vertical-center'>$20<br><br>now</div></div><div class='respDivL'><div class='vertical-center'><font style='color:orange'>(E)</font></div></div><div class='respDivR'><div class='vertical-center'>(I)</div></div></div>","null","$20<br><br>now","$55<br>in<br>1 week","1","20","55","1",""
"html-keyboard-response","67","65543","0.0-5.0-1.21","63d17cf704d2d7053d56b962","bdp_td","Sat Apr 01 2023 18:52:27 GMT-0400 (Eastern Daylight Time)","74588","","null","","","","FIX","","<div class='trialBorder'><div class='vertical-center'><img style='vertical-align:center; align:center' src=img/fixation3.jpg></div></div>","null","","","","","","",""
"html-keyboard-response","68","66664","0.0-5.0-2.21","63d17cf704d2d7053d56b962","bdp_td","Sat Apr 01 2023 18:52:27 GMT-0400 (Eastern Daylight Time)","74588","","1120","","","","offer","","<div class='trialBorder'><div class='vertical-center'><img style='vertical-align:center; align:center' src=img/fixation3.jpg></div><div class='cl'><div class='vertical-center'>$49<br><br>now</div></div><div class='cr'><div class='vertical-center'>$60<br>in<br>6 weeks</div></div><div class='respDivL'><div class='vertical-center'>(E)</div></div><div class='respDivR'><div class='vertical-center'>(I)</div></div></div>","I","$49<br><br>now","$60<br>in<br>6 weeks","0","49","60","6","THEN"
"html-keyboard-response","69","66917","0.0-5.0-3.21","63d17cf704d2d7053d56b962","bdp_td","Sat Apr 01 2023 18:52:27 GMT-0400 (Eastern Daylight Time)","74588","","null","","","","offerFB","","<div class='trialBorder'><div class='vertical-center'><img style='vertical-align:center; align:center' src=img/fixation3.jpg></div><div class='cl'><div class='vertical-center'>$49<br><br>now</div></div><div class='cr'><div class='vertical-center'><font style='color:orange'>$60<br>in<br>6 weeks</font></div></div><div class='respDivL'><div class='vertical-center'>(E)</div></div><div class='respDivR'><div class='vertical-center'><font style='color:orange'>(I)</font></div></div></div>","null","$49<br><br>now","$60<br>in<br>6 weeks","0","49","60","6",""
"html-keyboard-response","70","67418","0.0-5.0-1.22","63d17cf704d2d7053d56b962","bdp_td","Sat Apr 01 2023 18:52:27 GMT-0400 (Eastern Daylight Time)","74588","","null","","","","FIX","","<div class='trialBorder'><div class='vertical-center'><img style='vertical-align:center; align:center' src=img/fixation3.jpg></div></div>","null","","","","","","",""
"html-keyboard-response","71","68268","0.0-5.0-2.22","63d17cf704d2d7053d56b962","bdp_td","Sat Apr 01 2023 18:52:27 GMT-0400 (Eastern Daylight Time)","74588","","848","","","","offer","","<div class='trialBorder'><div class='vertical-center'><img style='vertical-align:center; align:center' src=img/fixation3.jpg></div><div class='cl'><div class='vertical-center'>$28<br><br>now</div></div><div class='cr'><div class='vertical-center'>$30<br>in<br>12 weeks</div></div><div class='respDivL'><div class='vertical-center'>(E)</div></div><div class='respDivR'><div class='vertical-center'>(I)</div></div></div>","I","$28<br><br>now","$30<br>in<br>12 weeks","0","28","30","12","THEN"
"html-keyboard-response","72","68520","0.0-5.0-3.22","63d17cf704d2d7053d56b962","bdp_td","Sat Apr 01 2023 18:52:27 GMT-0400 (Eastern Daylight Time)","74588","","null","","","","offerFB","","<div class='trialBorder'><div class='vertical-center'><img style='vertical-align:center; align:center' src=img/fixation3.jpg></div><div class='cl'><div class='vertical-center'>$28<br><br>now</div></div><div class='cr'><div class='vertical-center'><font style='color:orange'>$30<br>in<br>12 weeks</font></div></div><div class='respDivL'><div class='vertical-center'>(E)</div></div><div class='respDivR'><div class='vertical-center'><font style='color:orange'>(I)</font></div></div></div>","null","$28<br><br>now","$30<br>in<br>12 weeks","0","28","30","12",""
"html-keyboard-response","73","69021","0.0-5.0-1.23","63d17cf704d2d7053d56b962","bdp_td","Sat Apr 01 2023 18:52:27 GMT-0400 (Eastern Daylight Time)","74588","","null","","","","FIX","","<div class='trialBorder'><div class='vertical-center'><img style='vertical-align:center; align:center' src=img/fixation3.jpg></div></div>","null","","","","","","",""
"html-keyboard-response","74","69641","0.0-5.0-2.23","63d17cf704d2d7053d56b962","bdp_td","Sat Apr 01 2023 18:52:27 GMT-0400 (Eastern Daylight Time)","74588","","619","","","","offer","","<div class='trialBorder'><div class='vertical-center'><img style='vertical-align:center; align:center' src=img/fixation3.jpg></div><div class='cl'><div class='vertical-center'>$55<br><br>now</div></div><div class='cr'><div class='vertical-center'>$75<br>in<br>6 weeks</div></div><div class='respDivL'><div class='vertical-center'>(E)</div></div><div class='respDivR'><div class='vertical-center'>(I)</div></div></div>","I","$55<br><br>now","$75<br>in<br>6 weeks","0","55","75","6","THEN"
"html-keyboard-response","75","69893","0.0-5.0-3.23","63d17cf704d2d7053d56b962","bdp_td","Sat Apr 01 2023 18:52:27 GMT-0400 (Eastern Daylight Time)","74588","","null","","","","offerFB","","<div class='trialBorder'><div class='vertical-center'><img style='vertical-align:center; align:center' src=img/fixation3.jpg></div><div class='cl'><div class='vertical-center'>$55<br><br>now</div></div><div class='cr'><div class='vertical-center'><font style='color:orange'>$75<br>in<br>6 weeks</font></div></div><div class='respDivL'><div class='vertical-center'>(E)</div></div><div class='respDivR'><div class='vertical-center'><font style='color:orange'>(I)</font></div></div></div>","null","$55<br><br>now","$75<br>in<br>6 weeks","0","55","75","6",""
"html-keyboard-response","76","70395","0.0-5.0-1.24","63d17cf704d2d7053d56b962","bdp_td","Sat Apr 01 2023 18:52:27 GMT-0400 (Eastern Daylight Time)","74588","","null","","","","FIX","","<div class='trialBorder'><div class='vertical-center'><img style='vertical-align:center; align:center' src=img/fixation3.jpg></div></div>","null","","","","","","",""
"html-keyboard-response","77","70936","0.0-5.0-2.24","63d17cf704d2d7053d56b962","bdp_td","Sat Apr 01 2023 18:52:27 GMT-0400 (Eastern Daylight Time)","74588","","540","","","","offer","","<div class='trialBorder'><div class='vertical-center'><img style='vertical-align:center; align:center' src=img/fixation3.jpg></div><div class='cl'><div class='vertical-center'>$33<br><br>now</div></div><div class='cr'><div class='vertical-center'>$80<br>in<br>2 weeks</div></div><div class='respDivL'><div class='vertical-center'>(E)</div></div><div class='respDivR'><div class='vertical-center'>(I)</div></div></div>","I","$33<br><br>now","$80<br>in<br>2 weeks","0","33","80","2","THEN"
"html-keyboard-response","78","71187","0.0-5.0-3.24","63d17cf704d2d7053d56b962","bdp_td","Sat Apr 01 2023 18:52:27 GMT-0400 (Eastern Daylight Time)","74588","","null","","","","offerFB","","<div class='trialBorder'><div class='vertical-center'><img style='vertical-align:center; align:center' src=img/fixation3.jpg></div><div class='cl'><div class='vertical-center'>$33<br><br>now</div></div><div class='cr'><div class='vertical-center'><font style='color:orange'>$80<br>in<br>2 weeks</font></div></div><div class='respDivL'><div class='vertical-center'>(E)</div></div><div class='respDivR'><div class='vertical-center'><font style='color:orange'>(I)</font></div></div></div>","null","$33<br><br>now","$80<br>in<br>2 weeks","0","33","80","2",""
"html-keyboard-response","79","71688","0.0-5.0-1.25","63d17cf704d2d7053d56b962","bdp_td","Sat Apr 01 2023 18:52:27 GMT-0400 (Eastern Daylight Time)","74588","","null","","","","FIX","","<div class='trialBorder'><div class='vertical-center'><img style='vertical-align:center; align:center' src=img/fixation3.jpg></div></div>","null","","","","","","",""
"html-keyboard-response","80","72109","0.0-5.0-2.25","63d17cf704d2d7053d56b962","bdp_td","Sat Apr 01 2023 18:52:27 GMT-0400 (Eastern Daylight Time)","74588","","420","","","","offer","","<div class='trialBorder'><div class='vertical-center'><img style='vertical-align:center; align:center' src=img/fixation3.jpg></div><div class='cl'><div class='vertical-center'>$30<br>in<br>6 weeks</div></div><div class='cr'><div class='vertical-center'>$25<br><br>now</div></div><div class='respDivL'><div class='vertical-center'>(E)</div></div><div class='respDivR'><div class='vertical-center'>(I)</div></div></div>","E","$25<br><br>now","$30<br>in<br>6 weeks","1","25","30","6","THEN"
"html-keyboard-response","81","72361","0.0-5.0-3.25","63d17cf704d2d7053d56b962","bdp_td","Sat Apr 01 2023 18:52:27 GMT-0400 (Eastern Daylight Time)","74588","","null","","","","offerFB","","<div class='trialBorder'><div class='vertical-center'><img style='vertical-align:center; align:center' src=img/fixation3.jpg></div><div class='cl'><div class='vertical-center'><font style='color:orange'>$30<br>in<br>6 weeks</font></div></div><div class='cr'><div class='vertical-center'>$25<br><br>now</div></div><div class='respDivL'><div class='vertical-center'><font style='color:orange'>(E)</font></div></div><div class='respDivR'><div class='vertical-center'>(I)</div></div></div>","null","$25<br><br>now","$30<br>in<br>6 weeks","1","25","30","6",""
"html-keyboard-response","82","72862","0.0-5.0-1.26","63d17cf704d2d7053d56b962","bdp_td","Sat Apr 01 2023 18:52:27 GMT-0400 (Eastern Daylight Time)","74588","","null","","","","FIX","","<div class='trialBorder'><div class='vertical-center'><img style='vertical-align:center; align:center' src=img/fixation3.jpg></div></div>","null","","","","","","",""
"html-keyboard-response","83","73335","0.0-5.0-2.26","63d17cf704d2d7053d56b962","bdp_td","Sat Apr 01 2023 18:52:27 GMT-0400 (Eastern Daylight Time)","74588","","471","","","","offer","","<div class='trialBorder'><div class='vertical-center'><img style='vertical-align:center; align:center' src=img/fixation3.jpg></div><div class='cl'><div class='vertical-center'>$78<br><br>now</div></div><div class='cr'><div class='vertical-center'>$80<br>in<br>12 weeks</div></div><div class='respDivL'><div class='vertical-center'>(E)</div></div><div class='respDivR'><div class='vertical-center'>(I)</div></div></div>","I","$78<br><br>now","$80<br>in<br>12 weeks","0","78","80","12","THEN"
"html-keyboard-response","84","73586","0.0-5.0-3.26","63d17cf704d2d7053d56b962","bdp_td","Sat Apr 01 2023 18:52:27 GMT-0400 (Eastern Daylight Time)","74588","","null","","","","offerFB","","<div class='trialBorder'><div class='vertical-center'><img style='vertical-align:center; align:center' src=img/fixation3.jpg></div><div class='cl'><div class='vertical-center'>$78<br><br>now</div></div><div class='cr'><div class='vertical-center'><font style='color:orange'>$80<br>in<br>12 weeks</font></div></div><div class='respDivL'><div class='vertical-center'>(E)</div></div><div class='respDivR'><div class='vertical-center'><font style='color:orange'>(I)</font></div></div></div>","null","$78<br><br>now","$80<br>in<br>12 weeks","0","78","80","12",""
"","","","","63d17cf704d2d7053d56b962","bdp_td","Sat Apr 01 2023 18:52:27 GMT-0400 (Eastern Daylight Time)","74588","","","fullscreenexit","85","73611","fullscreenexit","","","","","","","","","",""
"fullscreen","85","74588","0.0-6.0","63d17cf704d2d7053d56b962","bdp_td","Sat Apr 01 2023 18:52:27 GMT-0400 (Eastern Daylight Time)","74588","","","","","","","true","","","","","","","","",""
"html-keyboard-response","86","75089","0.0-7.0","","","","","","null","","","","","","","null","","","","","","",""
