"trial_type","trial_index","time_elapsed","internal_node_id","subject_id","task","startTime","totalTime","view_history","rt","event","trial","time","trialtype","success","stimulus","key_press","nowOffer","thenOffer","thenLeft","nowAmt","thenAmt","thenWeeks","chosen"
"pavlovia","0","4","0.0-0.0","62acc04d0a7788636b0e9915","bdp_td","Sun Apr 16 2023 11:02:17 GMT-0400 (Eastern Daylight Time)","136039","","","","","","","","","","","","","","","",""
"instructions","1","2305","0.0-1.0","62acc04d0a7788636b0e9915","bdp_td","Sun Apr 16 2023 11:02:17 GMT-0400 (Eastern Daylight Time)","136039","[{""page_index"":0,""viewing_time"":2300}]","2300","","","","","","","","","","","","","",""
"","","","","62acc04d0a7788636b0e9915","bdp_td","Sun Apr 16 2023 11:02:17 GMT-0400 (Eastern Daylight Time)","136039","","","fullscreenenter","2","5895","fullscreenenter","","","","","","","","","",""
"fullscreen","2","6887","0.0-2.0","62acc04d0a7788636b0e9915","bdp_td","Sun Apr 16 2023 11:02:17 GMT-0400 (Eastern Daylight Time)","136039","","","","","","","true","","","","","","","","",""
"instructions","3","45533","0.0-4.0","62acc04d0a7788636b0e9915","bdp_td","Sun Apr 16 2023 11:02:17 GMT-0400 (Eastern Daylight Time)","136039","[{""page_index"":0,""viewing_time"":24778},{""page_index"":1,""viewing_time"":10636},{""page_index"":2,""viewing_time"":3231}]","38645","","","","","","","","","","","","","",""
"html-keyboard-response","4","46036","0.0-5.0-1.0","62acc04d0a7788636b0e9915","bdp_td","Sun Apr 16 2023 11:02:17 GMT-0400 (Eastern Daylight Time)","136039","","null","","","","FIX","","<div class='trialBorder'><div class='vertical-center'><img style='vertical-align:center; align:center' src=img/fixation3.jpg></div></div>","null","","","","","","",""
"html-keyboard-response","5","49389","0.0-5.0-2.0","62acc04d0a7788636b0e9915","bdp_td","Sun Apr 16 2023 11:02:17 GMT-0400 (Eastern Daylight Time)","136039","","3351","","","","offer","","<div class='trialBorder'><div class='vertical-center'><img style='vertical-align:center; align:center' src=img/fixation3.jpg></div><div class='cl'><div class='vertical-center'>$54<br><br>now</div></div><div class='cr'><div class='vertical-center'>$55<br>in<br>12 weeks</div></div><div class='respDivL'><div class='vertical-center'>(E)</div></div><div class='respDivR'><div class='vertical-center'>(I)</div></div></div>","E","$54<br><br>now","$55<br>in<br>12 weeks","0","54","55","12","NOW"
"html-keyboard-response","6","49640","0.0-5.0-3.0","62acc04d0a7788636b0e9915","bdp_td","Sun Apr 16 2023 11:02:17 GMT-0400 (Eastern Daylight Time)","136039","","null","","","","offerFB","","<div class='trialBorder'><div class='vertical-center'><img style='vertical-align:center; align:center' src=img/fixation3.jpg></div><div class='cl'><div class='vertical-center'><font style='color:orange'>$54<br><br>now</font></div></div><div class='cr'><div class='vertical-center'>$55<br>in<br>12 weeks</div></div><div class='respDivL'><div class='vertical-center'><font style='color:orange'>(E)</font></div></div><div class='respDivR'><div class='vertical-center'>(I)</div></div></div>","null","$54<br><br>now","$55<br>in<br>12 weeks","0","54","55","12",""
"html-keyboard-response","7","50142","0.0-5.0-1.1","62acc04d0a7788636b0e9915","bdp_td","Sun Apr 16 2023 11:02:17 GMT-0400 (Eastern Daylight Time)","136039","","null","","","","FIX","","<div class='trialBorder'><div class='vertical-center'><img style='vertical-align:center; align:center' src=img/fixation3.jpg></div></div>","null","","","","","","",""
"html-keyboard-response","8","55353","0.0-5.0-2.1","62acc04d0a7788636b0e9915","bdp_td","Sun Apr 16 2023 11:02:17 GMT-0400 (Eastern Daylight Time)","136039","","5211","","","","offer","","<div class='trialBorder'><div class='vertical-center'><img style='vertical-align:center; align:center' src=img/fixation3.jpg></div><div class='cl'><div class='vertical-center'>$54<br><br>now</div></div><div class='cr'><div class='vertical-center'>$80<br>in<br>3 weeks</div></div><div class='respDivL'><div class='vertical-center'>(E)</div></div><div class='respDivR'><div class='vertical-center'>(I)</div></div></div>","E","$54<br><br>now","$80<br>in<br>3 weeks","0","54","80","3","NOW"
"html-keyboard-response","9","55605","0.0-5.0-3.1","62acc04d0a7788636b0e9915","bdp_td","Sun Apr 16 2023 11:02:17 GMT-0400 (Eastern Daylight Time)","136039","","null","","","","offerFB","","<div class='trialBorder'><div class='vertical-center'><img style='vertical-align:center; align:center' src=img/fixation3.jpg></div><div class='cl'><div class='vertical-center'><font style='color:orange'>$54<br><br>now</font></div></div><div class='cr'><div class='vertical-center'>$80<br>in<br>3 weeks</div></div><div class='respDivL'><div class='vertical-center'><font style='color:orange'>(E)</font></div></div><div class='respDivR'><div class='vertical-center'>(I)</div></div></div>","null","$54<br><br>now","$80<br>in<br>3 weeks","0","54","80","3",""
"html-keyboard-response","10","56106","0.0-5.0-1.2","62acc04d0a7788636b0e9915","bdp_td","Sun Apr 16 2023 11:02:17 GMT-0400 (Eastern Daylight Time)","136039","","null","","","","FIX","","<div class='trialBorder'><div class='vertical-center'><img style='vertical-align:center; align:center' src=img/fixation3.jpg></div></div>","null","","","","","","",""
"html-keyboard-response","11","59059","0.0-5.0-2.2","62acc04d0a7788636b0e9915","bdp_td","Sun Apr 16 2023 11:02:17 GMT-0400 (Eastern Daylight Time)","136039","","2952","","","","offer","","<div class='trialBorder'><div class='vertical-center'><img style='vertical-align:center; align:center' src=img/fixation3.jpg></div><div class='cl'><div class='vertical-center'>$25<br>in<br>6 weeks</div></div><div class='cr'><div class='vertical-center'>$19<br><br>now</div></div><div class='respDivL'><div class='vertical-center'>(E)</div></div><div class='respDivR'><div class='vertical-center'>(I)</div></div></div>","I","$19<br><br>now","$25<br>in<br>6 weeks","1","19","25","6","NOW"
"html-keyboard-response","12","59310","0.0-5.0-3.2","62acc04d0a7788636b0e9915","bdp_td","Sun Apr 16 2023 11:02:17 GMT-0400 (Eastern Daylight Time)","136039","","null","","","","offerFB","","<div class='trialBorder'><div class='vertical-center'><img style='vertical-align:center; align:center' src=img/fixation3.jpg></div><div class='cl'><div class='vertical-center'>$25<br>in<br>6 weeks</div></div><div class='cr'><div class='vertical-center'><font style='color:orange'>$19<br><br>now</font></div></div><div class='respDivL'><div class='vertical-center'>(E)</div></div><div class='respDivR'><div class='vertical-center'><font style='color:orange'>(I)</font></div></div></div>","null","$19<br><br>now","$25<br>in<br>6 weeks","1","19","25","6",""
"html-keyboard-response","13","59812","0.0-5.0-1.3","62acc04d0a7788636b0e9915","bdp_td","Sun Apr 16 2023 11:02:17 GMT-0400 (Eastern Daylight Time)","136039","","null","","","","FIX","","<div class='trialBorder'><div class='vertical-center'><img style='vertical-align:center; align:center' src=img/fixation3.jpg></div></div>","null","","","","","","",""
"html-keyboard-response","14","62416","0.0-5.0-2.3","62acc04d0a7788636b0e9915","bdp_td","Sun Apr 16 2023 11:02:17 GMT-0400 (Eastern Daylight Time)","136039","","2603","","","","offer","","<div class='trialBorder'><div class='vertical-center'><img style='vertical-align:center; align:center' src=img/fixation3.jpg></div><div class='cl'><div class='vertical-center'>$75<br>in<br>3 weeks</div></div><div class='cr'><div class='vertical-center'>$41<br><br>now</div></div><div class='respDivL'><div class='vertical-center'>(E)</div></div><div class='respDivR'><div class='vertical-center'>(I)</div></div></div>","I","$41<br><br>now","$75<br>in<br>3 weeks","1","41","75","3","NOW"
"html-keyboard-response","15","62667","0.0-5.0-3.3","62acc04d0a7788636b0e9915","bdp_td","Sun Apr 16 2023 11:02:17 GMT-0400 (Eastern Daylight Time)","136039","","null","","","","offerFB","","<div class='trialBorder'><div class='vertical-center'><img style='vertical-align:center; align:center' src=img/fixation3.jpg></div><div class='cl'><div class='vertical-center'>$75<br>in<br>3 weeks</div></div><div class='cr'><div class='vertical-center'><font style='color:orange'>$41<br><br>now</font></div></div><div class='respDivL'><div class='vertical-center'>(E)</div></div><div class='respDivR'><div class='vertical-center'><font style='color:orange'>(I)</font></div></div></div>","null","$41<br><br>now","$75<br>in<br>3 weeks","1","41","75","3",""
"html-keyboard-response","16","63169","0.0-5.0-1.4","62acc04d0a7788636b0e9915","bdp_td","Sun Apr 16 2023 11:02:17 GMT-0400 (Eastern Daylight Time)","136039","","null","","","","FIX","","<div class='trialBorder'><div class='vertical-center'><img style='vertical-align:center; align:center' src=img/fixation3.jpg></div></div>","null","","","","","","",""
"html-keyboard-response","17","65057","0.0-5.0-2.4","62acc04d0a7788636b0e9915","bdp_td","Sun Apr 16 2023 11:02:17 GMT-0400 (Eastern Daylight Time)","136039","","1888","","","","offer","","<div class='trialBorder'><div class='vertical-center'><img style='vertical-align:center; align:center' src=img/fixation3.jpg></div><div class='cl'><div class='vertical-center'>$14<br><br>now</div></div><div class='cr'><div class='vertical-center'>$25<br>in<br>3 weeks</div></div><div class='respDivL'><div class='vertical-center'>(E)</div></div><div class='respDivR'><div class='vertical-center'>(I)</div></div></div>","E","$14<br><br>now","$25<br>in<br>3 weeks","0","14","25","3","NOW"
"html-keyboard-response","18","65309","0.0-5.0-3.4","62acc04d0a7788636b0e9915","bdp_td","Sun Apr 16 2023 11:02:17 GMT-0400 (Eastern Daylight Time)","136039","","null","","","","offerFB","","<div class='trialBorder'><div class='vertical-center'><img style='vertical-align:center; align:center' src=img/fixation3.jpg></div><div class='cl'><div class='vertical-center'><font style='color:orange'>$14<br><br>now</font></div></div><div class='cr'><div class='vertical-center'>$25<br>in<br>3 weeks</div></div><div class='respDivL'><div class='vertical-center'><font style='color:orange'>(E)</font></div></div><div class='respDivR'><div class='vertical-center'>(I)</div></div></div>","null","$14<br><br>now","$25<br>in<br>3 weeks","0","14","25","3",""
"html-keyboard-response","19","65812","0.0-5.0-1.5","62acc04d0a7788636b0e9915","bdp_td","Sun Apr 16 2023 11:02:17 GMT-0400 (Eastern Daylight Time)","136039","","null","","","","FIX","","<div class='trialBorder'><div class='vertical-center'><img style='vertical-align:center; align:center' src=img/fixation3.jpg></div></div>","null","","","","","","",""
"html-keyboard-response","20","68550","0.0-5.0-2.5","62acc04d0a7788636b0e9915","bdp_td","Sun Apr 16 2023 11:02:17 GMT-0400 (Eastern Daylight Time)","136039","","2736","","","","offer","","<div class='trialBorder'><div class='vertical-center'><img style='vertical-align:center; align:center' src=img/fixation3.jpg></div><div class='cl'><div class='vertical-center'>$55<br>in<br>1 week</div></div><div class='cr'><div class='vertical-center'>$20<br><br>now</div></div><div class='respDivL'><div class='vertical-center'>(E)</div></div><div class='respDivR'><div class='vertical-center'>(I)</div></div></div>","I","$20<br><br>now","$55<br>in<br>1 week","1","20","55","1","NOW"
"html-keyboard-response","21","68802","0.0-5.0-3.5","62acc04d0a7788636b0e9915","bdp_td","Sun Apr 16 2023 11:02:17 GMT-0400 (Eastern Daylight Time)","136039","","null","","","","offerFB","","<div class='trialBorder'><div class='vertical-center'><img style='vertical-align:center; align:center' src=img/fixation3.jpg></div><div class='cl'><div class='vertical-center'>$55<br>in<br>1 week</div></div><div class='cr'><div class='vertical-center'><font style='color:orange'>$20<br><br>now</font></div></div><div class='respDivL'><div class='vertical-center'>(E)</div></div><div class='respDivR'><div class='vertical-center'><font style='color:orange'>(I)</font></div></div></div>","null","$20<br><br>now","$55<br>in<br>1 week","1","20","55","1",""
"html-keyboard-response","22","69304","0.0-5.0-1.6","62acc04d0a7788636b0e9915","bdp_td","Sun Apr 16 2023 11:02:17 GMT-0400 (Eastern Daylight Time)","136039","","null","","","","FIX","","<div class='trialBorder'><div class='vertical-center'><img style='vertical-align:center; align:center' src=img/fixation3.jpg></div></div>","null","","","","","","",""
"html-keyboard-response","23","72454","0.0-5.0-2.6","62acc04d0a7788636b0e9915","bdp_td","Sun Apr 16 2023 11:02:17 GMT-0400 (Eastern Daylight Time)","136039","","3149","","","","offer","","<div class='trialBorder'><div class='vertical-center'><img style='vertical-align:center; align:center' src=img/fixation3.jpg></div><div class='cl'><div class='vertical-center'>$35<br>in<br>12 weeks</div></div><div class='cr'><div class='vertical-center'>$34<br><br>now</div></div><div class='respDivL'><div class='vertical-center'>(E)</div></div><div class='respDivR'><div class='vertical-center'>(I)</div></div></div>","I","$34<br><br>now","$35<br>in<br>12 weeks","1","34","35","12","NOW"
"html-keyboard-response","24","72706","0.0-5.0-3.6","62acc04d0a7788636b0e9915","bdp_td","Sun Apr 16 2023 11:02:17 GMT-0400 (Eastern Daylight Time)","136039","","null","","","","offerFB","","<div class='trialBorder'><div class='vertical-center'><img style='vertical-align:center; align:center' src=img/fixation3.jpg></div><div class='cl'><div class='vertical-center'>$35<br>in<br>12 weeks</div></div><div class='cr'><div class='vertical-center'><font style='color:orange'>$34<br><br>now</font></div></div><div class='respDivL'><div class='vertical-center'>(E)</div></div><div class='respDivR'><div class='vertical-center'><font style='color:orange'>(I)</font></div></div></div>","null","$34<br><br>now","$35<br>in<br>12 weeks","1","34","35","12",""
"html-keyboard-response","25","73207","0.0-5.0-1.7","62acc04d0a7788636b0e9915","bdp_td","Sun Apr 16 2023 11:02:17 GMT-0400 (Eastern Daylight Time)","136039","","null","","","","FIX","","<div class='trialBorder'><div class='vertical-center'><img style='vertical-align:center; align:center' src=img/fixation3.jpg></div></div>","null","","","","","","",""
"html-keyboard-response","26","74623","0.0-5.0-2.7","62acc04d0a7788636b0e9915","bdp_td","Sun Apr 16 2023 11:02:17 GMT-0400 (Eastern Daylight Time)","136039","","1415","","","","offer","","<div class='trialBorder'><div class='vertical-center'><img style='vertical-align:center; align:center' src=img/fixation3.jpg></div><div class='cl'><div class='vertical-center'>$50<br>in<br>6 weeks</div></div><div class='cr'><div class='vertical-center'>$34<br><br>now</div></div><div class='respDivL'><div class='vertical-center'>(E)</div></div><div class='respDivR'><div class='vertical-center'>(I)</div></div></div>","I","$34<br><br>now","$50<br>in<br>6 weeks","1","34","50","6","NOW"
"html-keyboard-response","27","74875","0.0-5.0-3.7","62acc04d0a7788636b0e9915","bdp_td","Sun Apr 16 2023 11:02:17 GMT-0400 (Eastern Daylight Time)","136039","","null","","","","offerFB","","<div class='trialBorder'><div class='vertical-center'><img style='vertical-align:center; align:center' src=img/fixation3.jpg></div><div class='cl'><div class='vertical-center'>$50<br>in<br>6 weeks</div></div><div class='cr'><div class='vertical-center'><font style='color:orange'>$34<br><br>now</font></div></div><div class='respDivL'><div class='vertical-center'>(E)</div></div><div class='respDivR'><div class='vertical-center'><font style='color:orange'>(I)</font></div></div></div>","null","$34<br><br>now","$50<br>in<br>6 weeks","1","34","50","6",""
"html-keyboard-response","28","75377","0.0-5.0-1.8","62acc04d0a7788636b0e9915","bdp_td","Sun Apr 16 2023 11:02:17 GMT-0400 (Eastern Daylight Time)","136039","","null","","","","FIX","","<div class='trialBorder'><div class='vertical-center'><img style='vertical-align:center; align:center' src=img/fixation3.jpg></div></div>","null","","","","","","",""
"html-keyboard-response","29","78643","0.0-5.0-2.8","62acc04d0a7788636b0e9915","bdp_td","Sun Apr 16 2023 11:02:17 GMT-0400 (Eastern Daylight Time)","136039","","3266","","","","offer","","<div class='trialBorder'><div class='vertical-center'><img style='vertical-align:center; align:center' src=img/fixation3.jpg></div><div class='cl'><div class='vertical-center'>$33<br><br>now</div></div><div class='cr'><div class='vertical-center'>$80<br>in<br>2 weeks</div></div><div class='respDivL'><div class='vertical-center'>(E)</div></div><div class='respDivR'><div class='vertical-center'>(I)</div></div></div>","I","$33<br><br>now","$80<br>in<br>2 weeks","0","33","80","2","THEN"
"html-keyboard-response","30","78896","0.0-5.0-3.8","62acc04d0a7788636b0e9915","bdp_td","Sun Apr 16 2023 11:02:17 GMT-0400 (Eastern Daylight Time)","136039","","null","","","","offerFB","","<div class='trialBorder'><div class='vertical-center'><img style='vertical-align:center; align:center' src=img/fixation3.jpg></div><div class='cl'><div class='vertical-center'>$33<br><br>now</div></div><div class='cr'><div class='vertical-center'><font style='color:orange'>$80<br>in<br>2 weeks</font></div></div><div class='respDivL'><div class='vertical-center'>(E)</div></div><div class='respDivR'><div class='vertical-center'><font style='color:orange'>(I)</font></div></div></div>","null","$33<br><br>now","$80<br>in<br>2 weeks","0","33","80","2",""
"html-keyboard-response","31","79399","0.0-5.0-1.9","62acc04d0a7788636b0e9915","bdp_td","Sun Apr 16 2023 11:02:17 GMT-0400 (Eastern Daylight Time)","136039","","null","","","","FIX","","<div class='trialBorder'><div class='vertical-center'><img style='vertical-align:center; align:center' src=img/fixation3.jpg></div></div>","null","","","","","","",""
"html-keyboard-response","32","80771","0.0-5.0-2.9","62acc04d0a7788636b0e9915","bdp_td","Sun Apr 16 2023 11:02:17 GMT-0400 (Eastern Daylight Time)","136039","","1372","","","","offer","","<div class='trialBorder'><div class='vertical-center'><img style='vertical-align:center; align:center' src=img/fixation3.jpg></div><div class='cl'><div class='vertical-center'>$22<br><br>now</div></div><div class='cr'><div class='vertical-center'>$25<br>in<br>12 weeks</div></div><div class='respDivL'><div class='vertical-center'>(E)</div></div><div class='respDivR'><div class='vertical-center'>(I)</div></div></div>","E","$22<br><br>now","$25<br>in<br>12 weeks","0","22","25","12","NOW"
"html-keyboard-response","33","81023","0.0-5.0-3.9","62acc04d0a7788636b0e9915","bdp_td","Sun Apr 16 2023 11:02:17 GMT-0400 (Eastern Daylight Time)","136039","","null","","","","offerFB","","<div class='trialBorder'><div class='vertical-center'><img style='vertical-align:center; align:center' src=img/fixation3.jpg></div><div class='cl'><div class='vertical-center'><font style='color:orange'>$22<br><br>now</font></div></div><div class='cr'><div class='vertical-center'>$25<br>in<br>12 weeks</div></div><div class='respDivL'><div class='vertical-center'><font style='color:orange'>(E)</font></div></div><div class='respDivR'><div class='vertical-center'>(I)</div></div></div>","null","$22<br><br>now","$25<br>in<br>12 weeks","0","22","25","12",""
"html-keyboard-response","34","81524","0.0-5.0-1.10","62acc04d0a7788636b0e9915","bdp_td","Sun Apr 16 2023 11:02:17 GMT-0400 (Eastern Daylight Time)","136039","","null","","","","FIX","","<div class='trialBorder'><div class='vertical-center'><img style='vertical-align:center; align:center' src=img/fixation3.jpg></div></div>","null","","","","","","",""
"html-keyboard-response","35","84314","0.0-5.0-2.10","62acc04d0a7788636b0e9915","bdp_td","Sun Apr 16 2023 11:02:17 GMT-0400 (Eastern Daylight Time)","136039","","2789","","","","offer","","<div class='trialBorder'><div class='vertical-center'><img style='vertical-align:center; align:center' src=img/fixation3.jpg></div><div class='cl'><div class='vertical-center'>$50<br>in<br>12 weeks</div></div><div class='cr'><div class='vertical-center'>$47<br><br>now</div></div><div class='respDivL'><div class='vertical-center'>(E)</div></div><div class='respDivR'><div class='vertical-center'>(I)</div></div></div>","I","$47<br><br>now","$50<br>in<br>12 weeks","1","47","50","12","NOW"
"html-keyboard-response","36","84566","0.0-5.0-3.10","62acc04d0a7788636b0e9915","bdp_td","Sun Apr 16 2023 11:02:17 GMT-0400 (Eastern Daylight Time)","136039","","null","","","","offerFB","","<div class='trialBorder'><div class='vertical-center'><img style='vertical-align:center; align:center' src=img/fixation3.jpg></div><div class='cl'><div class='vertical-center'>$50<br>in<br>12 weeks</div></div><div class='cr'><div class='vertical-center'><font style='color:orange'>$47<br><br>now</font></div></div><div class='respDivL'><div class='vertical-center'>(E)</div></div><div class='respDivR'><div class='vertical-center'><font style='color:orange'>(I)</font></div></div></div>","null","$47<br><br>now","$50<br>in<br>12 weeks","1","47","50","12",""
"html-keyboard-response","37","85067","0.0-5.0-1.11","62acc04d0a7788636b0e9915","bdp_td","Sun Apr 16 2023 11:02:17 GMT-0400 (Eastern Daylight Time)","136039","","null","","","","FIX","","<div class='trialBorder'><div class='vertical-center'><img style='vertical-align:center; align:center' src=img/fixation3.jpg></div></div>","null","","","","","","",""
"html-keyboard-response","38","87308","0.0-5.0-2.11","62acc04d0a7788636b0e9915","bdp_td","Sun Apr 16 2023 11:02:17 GMT-0400 (Eastern Daylight Time)","136039","","2240","","","","offer","","<div class='trialBorder'><div class='vertical-center'><img style='vertical-align:center; align:center' src=img/fixation3.jpg></div><div class='cl'><div class='vertical-center'>$85<br>in<br>1 week</div></div><div class='cr'><div class='vertical-center'>$31<br><br>now</div></div><div class='respDivL'><div class='vertical-center'>(E)</div></div><div class='respDivR'><div class='vertical-center'>(I)</div></div></div>","E","$31<br><br>now","$85<br>in<br>1 week","1","31","85","1","THEN"
"html-keyboard-response","39","87559","0.0-5.0-3.11","62acc04d0a7788636b0e9915","bdp_td","Sun Apr 16 2023 11:02:17 GMT-0400 (Eastern Daylight Time)","136039","","null","","","","offerFB","","<div class='trialBorder'><div class='vertical-center'><img style='vertical-align:center; align:center' src=img/fixation3.jpg></div><div class='cl'><div class='vertical-center'><font style='color:orange'>$85<br>in<br>1 week</font></div></div><div class='cr'><div class='vertical-center'>$31<br><br>now</div></div><div class='respDivL'><div class='vertical-center'><font style='color:orange'>(E)</font></div></div><div class='respDivR'><div class='vertical-center'>(I)</div></div></div>","null","$31<br><br>now","$85<br>in<br>1 week","1","31","85","1",""
"html-keyboard-response","40","88061","0.0-5.0-1.12","62acc04d0a7788636b0e9915","bdp_td","Sun Apr 16 2023 11:02:17 GMT-0400 (Eastern Daylight Time)","136039","","null","","","","FIX","","<div class='trialBorder'><div class='vertical-center'><img style='vertical-align:center; align:center' src=img/fixation3.jpg></div></div>","null","","","","","","",""
"html-keyboard-response","41","91063","0.0-5.0-2.12","62acc04d0a7788636b0e9915","bdp_td","Sun Apr 16 2023 11:02:17 GMT-0400 (Eastern Daylight Time)","136039","","3001","","","","offer","","<div class='trialBorder'><div class='vertical-center'><img style='vertical-align:center; align:center' src=img/fixation3.jpg></div><div class='cl'><div class='vertical-center'>$78<br><br>now</div></div><div class='cr'><div class='vertical-center'>$80<br>in<br>12 weeks</div></div><div class='respDivL'><div class='vertical-center'>(E)</div></div><div class='respDivR'><div class='vertical-center'>(I)</div></div></div>","E","$78<br><br>now","$80<br>in<br>12 weeks","0","78","80","12","NOW"
"html-keyboard-response","42","91315","0.0-5.0-3.12","62acc04d0a7788636b0e9915","bdp_td","Sun Apr 16 2023 11:02:17 GMT-0400 (Eastern Daylight Time)","136039","","null","","","","offerFB","","<div class='trialBorder'><div class='vertical-center'><img style='vertical-align:center; align:center' src=img/fixation3.jpg></div><div class='cl'><div class='vertical-center'><font style='color:orange'>$78<br><br>now</font></div></div><div class='cr'><div class='vertical-center'>$80<br>in<br>12 weeks</div></div><div class='respDivL'><div class='vertical-center'><font style='color:orange'>(E)</font></div></div><div class='respDivR'><div class='vertical-center'>(I)</div></div></div>","null","$78<br><br>now","$80<br>in<br>12 weeks","0","78","80","12",""
"html-keyboard-response","43","91816","0.0-5.0-1.13","62acc04d0a7788636b0e9915","bdp_td","Sun Apr 16 2023 11:02:17 GMT-0400 (Eastern Daylight Time)","136039","","null","","","","FIX","","<div class='trialBorder'><div class='vertical-center'><img style='vertical-align:center; align:center' src=img/fixation3.jpg></div></div>","null","","","","","","",""
"html-keyboard-response","44","93463","0.0-5.0-2.13","62acc04d0a7788636b0e9915","bdp_td","Sun Apr 16 2023 11:02:17 GMT-0400 (Eastern Daylight Time)","136039","","1646","","","","offer","","<div class='trialBorder'><div class='vertical-center'><img style='vertical-align:center; align:center' src=img/fixation3.jpg></div><div class='cl'><div class='vertical-center'>$80<br><br>now</div></div><div class='cr'><div class='vertical-center'>$85<br>in<br>12 weeks</div></div><div class='respDivL'><div class='vertical-center'>(E)</div></div><div class='respDivR'><div class='vertical-center'>(I)</div></div></div>","E","$80<br><br>now","$85<br>in<br>12 weeks","0","80","85","12","NOW"
"html-keyboard-response","45","93715","0.0-5.0-3.13","62acc04d0a7788636b0e9915","bdp_td","Sun Apr 16 2023 11:02:17 GMT-0400 (Eastern Daylight Time)","136039","","null","","","","offerFB","","<div class='trialBorder'><div class='vertical-center'><img style='vertical-align:center; align:center' src=img/fixation3.jpg></div><div class='cl'><div class='vertical-center'><font style='color:orange'>$80<br><br>now</font></div></div><div class='cr'><div class='vertical-center'>$85<br>in<br>12 weeks</div></div><div class='respDivL'><div class='vertical-center'><font style='color:orange'>(E)</font></div></div><div class='respDivR'><div class='vertical-center'>(I)</div></div></div>","null","$80<br><br>now","$85<br>in<br>12 weeks","0","80","85","12",""
"html-keyboard-response","46","94217","0.0-5.0-1.14","62acc04d0a7788636b0e9915","bdp_td","Sun Apr 16 2023 11:02:17 GMT-0400 (Eastern Daylight Time)","136039","","null","","","","FIX","","<div class='trialBorder'><div class='vertical-center'><img style='vertical-align:center; align:center' src=img/fixation3.jpg></div></div>","null","","","","","","",""
"html-keyboard-response","47","96193","0.0-5.0-2.14","62acc04d0a7788636b0e9915","bdp_td","Sun Apr 16 2023 11:02:17 GMT-0400 (Eastern Daylight Time)","136039","","1975","","","","offer","","<div class='trialBorder'><div class='vertical-center'><img style='vertical-align:center; align:center' src=img/fixation3.jpg></div><div class='cl'><div class='vertical-center'>$30<br>in<br>2 weeks</div></div><div class='cr'><div class='vertical-center'>$11<br><br>now</div></div><div class='respDivL'><div class='vertical-center'>(E)</div></div><div class='respDivR'><div class='vertical-center'>(I)</div></div></div>","I","$11<br><br>now","$30<br>in<br>2 weeks","1","11","30","2","NOW"
"html-keyboard-response","48","96445","0.0-5.0-3.14","62acc04d0a7788636b0e9915","bdp_td","Sun Apr 16 2023 11:02:17 GMT-0400 (Eastern Daylight Time)","136039","","null","","","","offerFB","","<div class='trialBorder'><div class='vertical-center'><img style='vertical-align:center; align:center' src=img/fixation3.jpg></div><div class='cl'><div class='vertical-center'>$30<br>in<br>2 weeks</div></div><div class='cr'><div class='vertical-center'><font style='color:orange'>$11<br><br>now</font></div></div><div class='respDivL'><div class='vertical-center'>(E)</div></div><div class='respDivR'><div class='vertical-center'><font style='color:orange'>(I)</font></div></div></div>","null","$11<br><br>now","$30<br>in<br>2 weeks","1","11","30","2",""
"html-keyboard-response","49","96947","0.0-5.0-1.15","62acc04d0a7788636b0e9915","bdp_td","Sun Apr 16 2023 11:02:17 GMT-0400 (Eastern Daylight Time)","136039","","null","","","","FIX","","<div class='trialBorder'><div class='vertical-center'><img style='vertical-align:center; align:center' src=img/fixation3.jpg></div></div>","null","","","","","","",""
"html-keyboard-response","50","99115","0.0-5.0-2.15","62acc04d0a7788636b0e9915","bdp_td","Sun Apr 16 2023 11:02:17 GMT-0400 (Eastern Daylight Time)","136039","","2167","","","","offer","","<div class='trialBorder'><div class='vertical-center'><img style='vertical-align:center; align:center' src=img/fixation3.jpg></div><div class='cl'><div class='vertical-center'>$35<br>in<br>3 weeks</div></div><div class='cr'><div class='vertical-center'>$24<br><br>now</div></div><div class='respDivL'><div class='vertical-center'>(E)</div></div><div class='respDivR'><div class='vertical-center'>(I)</div></div></div>","I","$24<br><br>now","$35<br>in<br>3 weeks","1","24","35","3","NOW"
"html-keyboard-response","51","99366","0.0-5.0-3.15","62acc04d0a7788636b0e9915","bdp_td","Sun Apr 16 2023 11:02:17 GMT-0400 (Eastern Daylight Time)","136039","","null","","","","offerFB","","<div class='trialBorder'><div class='vertical-center'><img style='vertical-align:center; align:center' src=img/fixation3.jpg></div><div class='cl'><div class='vertical-center'>$35<br>in<br>3 weeks</div></div><div class='cr'><div class='vertical-center'><font style='color:orange'>$24<br><br>now</font></div></div><div class='respDivL'><div class='vertical-center'>(E)</div></div><div class='respDivR'><div class='vertical-center'><font style='color:orange'>(I)</font></div></div></div>","null","$24<br><br>now","$35<br>in<br>3 weeks","1","24","35","3",""
"html-keyboard-response","52","99868","0.0-5.0-1.16","62acc04d0a7788636b0e9915","bdp_td","Sun Apr 16 2023 11:02:17 GMT-0400 (Eastern Daylight Time)","136039","","null","","","","FIX","","<div class='trialBorder'><div class='vertical-center'><img style='vertical-align:center; align:center' src=img/fixation3.jpg></div></div>","null","","","","","","",""
"html-keyboard-response","53","102047","0.0-5.0-2.16","62acc04d0a7788636b0e9915","bdp_td","Sun Apr 16 2023 11:02:17 GMT-0400 (Eastern Daylight Time)","136039","","2177","","","","offer","","<div class='trialBorder'><div class='vertical-center'><img style='vertical-align:center; align:center' src=img/fixation3.jpg></div><div class='cl'><div class='vertical-center'>$30<br>in<br>12 weeks</div></div><div class='cr'><div class='vertical-center'>$28<br><br>now</div></div><div class='respDivL'><div class='vertical-center'>(E)</div></div><div class='respDivR'><div class='vertical-center'>(I)</div></div></div>","I","$28<br><br>now","$30<br>in<br>12 weeks","1","28","30","12","NOW"
"html-keyboard-response","54","102299","0.0-5.0-3.16","62acc04d0a7788636b0e9915","bdp_td","Sun Apr 16 2023 11:02:17 GMT-0400 (Eastern Daylight Time)","136039","","null","","","","offerFB","","<div class='trialBorder'><div class='vertical-center'><img style='vertical-align:center; align:center' src=img/fixation3.jpg></div><div class='cl'><div class='vertical-center'>$30<br>in<br>12 weeks</div></div><div class='cr'><div class='vertical-center'><font style='color:orange'>$28<br><br>now</font></div></div><div class='respDivL'><div class='vertical-center'>(E)</div></div><div class='respDivR'><div class='vertical-center'><font style='color:orange'>(I)</font></div></div></div>","null","$28<br><br>now","$30<br>in<br>12 weeks","1","28","30","12",""
"html-keyboard-response","55","102800","0.0-5.0-1.17","62acc04d0a7788636b0e9915","bdp_td","Sun Apr 16 2023 11:02:17 GMT-0400 (Eastern Daylight Time)","136039","","null","","","","FIX","","<div class='trialBorder'><div class='vertical-center'><img style='vertical-align:center; align:center' src=img/fixation3.jpg></div></div>","null","","","","","","",""
"html-keyboard-response","56","104260","0.0-5.0-2.17","62acc04d0a7788636b0e9915","bdp_td","Sun Apr 16 2023 11:02:17 GMT-0400 (Eastern Daylight Time)","136039","","1459","","","","offer","","<div class='trialBorder'><div class='vertical-center'><img style='vertical-align:center; align:center' src=img/fixation3.jpg></div><div class='cl'><div class='vertical-center'>$54<br><br>now</div></div><div class='cr'><div class='vertical-center'>$60<br>in<br>12 weeks</div></div><div class='respDivL'><div class='vertical-center'>(E)</div></div><div class='respDivR'><div class='vertical-center'>(I)</div></div></div>","E","$54<br><br>now","$60<br>in<br>12 weeks","0","54","60","12","NOW"
"html-keyboard-response","57","104512","0.0-5.0-3.17","62acc04d0a7788636b0e9915","bdp_td","Sun Apr 16 2023 11:02:17 GMT-0400 (Eastern Daylight Time)","136039","","null","","","","offerFB","","<div class='trialBorder'><div class='vertical-center'><img style='vertical-align:center; align:center' src=img/fixation3.jpg></div><div class='cl'><div class='vertical-center'><font style='color:orange'>$54<br><br>now</font></div></div><div class='cr'><div class='vertical-center'>$60<br>in<br>12 weeks</div></div><div class='respDivL'><div class='vertical-center'><font style='color:orange'>(E)</font></div></div><div class='respDivR'><div class='vertical-center'>(I)</div></div></div>","null","$54<br><br>now","$60<br>in<br>12 weeks","0","54","60","12",""
"html-keyboard-response","58","105014","0.0-5.0-1.18","62acc04d0a7788636b0e9915","bdp_td","Sun Apr 16 2023 11:02:17 GMT-0400 (Eastern Daylight Time)","136039","","null","","","","FIX","","<div class='trialBorder'><div class='vertical-center'><img style='vertical-align:center; align:center' src=img/fixation3.jpg></div></div>","null","","","","","","",""
"html-keyboard-response","59","109967","0.0-5.0-2.18","62acc04d0a7788636b0e9915","bdp_td","Sun Apr 16 2023 11:02:17 GMT-0400 (Eastern Daylight Time)","136039","","4952","","","","offer","","<div class='trialBorder'><div class='vertical-center'><img style='vertical-align:center; align:center' src=img/fixation3.jpg></div><div class='cl'><div class='vertical-center'>$75<br>in<br>12 weeks</div></div><div class='cr'><div class='vertical-center'>$67<br><br>now</div></div><div class='respDivL'><div class='vertical-center'>(E)</div></div><div class='respDivR'><div class='vertical-center'>(I)</div></div></div>","I","$67<br><br>now","$75<br>in<br>12 weeks","1","67","75","12","NOW"
"html-keyboard-response","60","110219","0.0-5.0-3.18","62acc04d0a7788636b0e9915","bdp_td","Sun Apr 16 2023 11:02:17 GMT-0400 (Eastern Daylight Time)","136039","","null","","","","offerFB","","<div class='trialBorder'><div class='vertical-center'><img style='vertical-align:center; align:center' src=img/fixation3.jpg></div><div class='cl'><div class='vertical-center'>$75<br>in<br>12 weeks</div></div><div class='cr'><div class='vertical-center'><font style='color:orange'>$67<br><br>now</font></div></div><div class='respDivL'><div class='vertical-center'>(E)</div></div><div class='respDivR'><div class='vertical-center'><font style='color:orange'>(I)</font></div></div></div>","null","$67<br><br>now","$75<br>in<br>12 weeks","1","67","75","12",""
"html-keyboard-response","61","110721","0.0-5.0-1.19","62acc04d0a7788636b0e9915","bdp_td","Sun Apr 16 2023 11:02:17 GMT-0400 (Eastern Daylight Time)","136039","","null","","","","FIX","","<div class='trialBorder'><div class='vertical-center'><img style='vertical-align:center; align:center' src=img/fixation3.jpg></div></div>","null","","","","","","",""
"html-keyboard-response","62","115490","0.0-5.0-2.19","62acc04d0a7788636b0e9915","bdp_td","Sun Apr 16 2023 11:02:17 GMT-0400 (Eastern Daylight Time)","136039","","4769","","","","offer","","<div class='trialBorder'><div class='vertical-center'><img style='vertical-align:center; align:center' src=img/fixation3.jpg></div><div class='cl'><div class='vertical-center'>$85<br>in<br>6 weeks</div></div><div class='cr'><div class='vertical-center'>$69<br><br>now</div></div><div class='respDivL'><div class='vertical-center'>(E)</div></div><div class='respDivR'><div class='vertical-center'>(I)</div></div></div>","E","$69<br><br>now","$85<br>in<br>6 weeks","1","69","85","6","THEN"
"html-keyboard-response","63","115743","0.0-5.0-3.19","62acc04d0a7788636b0e9915","bdp_td","Sun Apr 16 2023 11:02:17 GMT-0400 (Eastern Daylight Time)","136039","","null","","","","offerFB","","<div class='trialBorder'><div class='vertical-center'><img style='vertical-align:center; align:center' src=img/fixation3.jpg></div><div class='cl'><div class='vertical-center'><font style='color:orange'>$85<br>in<br>6 weeks</font></div></div><div class='cr'><div class='vertical-center'>$69<br><br>now</div></div><div class='respDivL'><div class='vertical-center'><font style='color:orange'>(E)</font></div></div><div class='respDivR'><div class='vertical-center'>(I)</div></div></div>","null","$69<br><br>now","$85<br>in<br>6 weeks","1","69","85","6",""
"html-keyboard-response","64","116244","0.0-5.0-1.20","62acc04d0a7788636b0e9915","bdp_td","Sun Apr 16 2023 11:02:17 GMT-0400 (Eastern Daylight Time)","136039","","null","","","","FIX","","<div class='trialBorder'><div class='vertical-center'><img style='vertical-align:center; align:center' src=img/fixation3.jpg></div></div>","null","","","","","","",""
"html-keyboard-response","65","118605","0.0-5.0-2.20","62acc04d0a7788636b0e9915","bdp_td","Sun Apr 16 2023 11:02:17 GMT-0400 (Eastern Daylight Time)","136039","","2361","","","","offer","","<div class='trialBorder'><div class='vertical-center'><img style='vertical-align:center; align:center' src=img/fixation3.jpg></div><div class='cl'><div class='vertical-center'>$60<br>in<br>6 weeks</div></div><div class='cr'><div class='vertical-center'>$49<br><br>now</div></div><div class='respDivL'><div class='vertical-center'>(E)</div></div><div class='respDivR'><div class='vertical-center'>(I)</div></div></div>","I","$49<br><br>now","$60<br>in<br>6 weeks","1","49","60","6","NOW"
"html-keyboard-response","66","118857","0.0-5.0-3.20","62acc04d0a7788636b0e9915","bdp_td","Sun Apr 16 2023 11:02:17 GMT-0400 (Eastern Daylight Time)","136039","","null","","","","offerFB","","<div class='trialBorder'><div class='vertical-center'><img style='vertical-align:center; align:center' src=img/fixation3.jpg></div><div class='cl'><div class='vertical-center'>$60<br>in<br>6 weeks</div></div><div class='cr'><div class='vertical-center'><font style='color:orange'>$49<br><br>now</font></div></div><div class='respDivL'><div class='vertical-center'>(E)</div></div><div class='respDivR'><div class='vertical-center'><font style='color:orange'>(I)</font></div></div></div>","null","$49<br><br>now","$60<br>in<br>6 weeks","1","49","60","6",""
"html-keyboard-response","67","119358","0.0-5.0-1.21","62acc04d0a7788636b0e9915","bdp_td","Sun Apr 16 2023 11:02:17 GMT-0400 (Eastern Daylight Time)","136039","","null","","","","FIX","","<div class='trialBorder'><div class='vertical-center'><img style='vertical-align:center; align:center' src=img/fixation3.jpg></div></div>","null","","","","","","",""
"html-keyboard-response","68","121512","0.0-5.0-2.21","62acc04d0a7788636b0e9915","bdp_td","Sun Apr 16 2023 11:02:17 GMT-0400 (Eastern Daylight Time)","136039","","2152","","","","offer","","<div class='trialBorder'><div class='vertical-center'><img style='vertical-align:center; align:center' src=img/fixation3.jpg></div><div class='cl'><div class='vertical-center'>$40<br><br>now</div></div><div class='cr'><div class='vertical-center'>$55<br>in<br>6 weeks</div></div><div class='respDivL'><div class='vertical-center'>(E)</div></div><div class='respDivR'><div class='vertical-center'>(I)</div></div></div>","E","$40<br><br>now","$55<br>in<br>6 weeks","0","40","55","6","NOW"
"html-keyboard-response","69","121763","0.0-5.0-3.21","62acc04d0a7788636b0e9915","bdp_td","Sun Apr 16 2023 11:02:17 GMT-0400 (Eastern Daylight Time)","136039","","null","","","","offerFB","","<div class='trialBorder'><div class='vertical-center'><img style='vertical-align:center; align:center' src=img/fixation3.jpg></div><div class='cl'><div class='vertical-center'><font style='color:orange'>$40<br><br>now</font></div></div><div class='cr'><div class='vertical-center'>$55<br>in<br>6 weeks</div></div><div class='respDivL'><div class='vertical-center'><font style='color:orange'>(E)</font></div></div><div class='respDivR'><div class='vertical-center'>(I)</div></div></div>","null","$40<br><br>now","$55<br>in<br>6 weeks","0","40","55","6",""
"html-keyboard-response","70","122265","0.0-5.0-1.22","62acc04d0a7788636b0e9915","bdp_td","Sun Apr 16 2023 11:02:17 GMT-0400 (Eastern Daylight Time)","136039","","null","","","","FIX","","<div class='trialBorder'><div class='vertical-center'><img style='vertical-align:center; align:center' src=img/fixation3.jpg></div></div>","null","","","","","","",""
"html-keyboard-response","71","123849","0.0-5.0-2.22","62acc04d0a7788636b0e9915","bdp_td","Sun Apr 16 2023 11:02:17 GMT-0400 (Eastern Daylight Time)","136039","","1582","","","","offer","","<div class='trialBorder'><div class='vertical-center'><img style='vertical-align:center; align:center' src=img/fixation3.jpg></div><div class='cl'><div class='vertical-center'>$30<br>in<br>6 weeks</div></div><div class='cr'><div class='vertical-center'>$25<br><br>now</div></div><div class='respDivL'><div class='vertical-center'>(E)</div></div><div class='respDivR'><div class='vertical-center'>(I)</div></div></div>","I","$25<br><br>now","$30<br>in<br>6 weeks","1","25","30","6","NOW"
"html-keyboard-response","72","124101","0.0-5.0-3.22","62acc04d0a7788636b0e9915","bdp_td","Sun Apr 16 2023 11:02:17 GMT-0400 (Eastern Daylight Time)","136039","","null","","","","offerFB","","<div class='trialBorder'><div class='vertical-center'><img style='vertical-align:center; align:center' src=img/fixation3.jpg></div><div class='cl'><div class='vertical-center'>$30<br>in<br>6 weeks</div></div><div class='cr'><div class='vertical-center'><font style='color:orange'>$25<br><br>now</font></div></div><div class='respDivL'><div class='vertical-center'>(E)</div></div><div class='respDivR'><div class='vertical-center'><font style='color:orange'>(I)</font></div></div></div>","null","$25<br><br>now","$30<br>in<br>6 weeks","1","25","30","6",""
"html-keyboard-response","73","124602","0.0-5.0-1.23","62acc04d0a7788636b0e9915","bdp_td","Sun Apr 16 2023 11:02:17 GMT-0400 (Eastern Daylight Time)","136039","","null","","","","FIX","","<div class='trialBorder'><div class='vertical-center'><img style='vertical-align:center; align:center' src=img/fixation3.jpg></div></div>","null","","","","","","",""
"html-keyboard-response","74","127621","0.0-5.0-2.23","62acc04d0a7788636b0e9915","bdp_td","Sun Apr 16 2023 11:02:17 GMT-0400 (Eastern Daylight Time)","136039","","3017","","","","offer","","<div class='trialBorder'><div class='vertical-center'><img style='vertical-align:center; align:center' src=img/fixation3.jpg></div><div class='cl'><div class='vertical-center'>$15<br><br>now</div></div><div class='cr'><div class='vertical-center'>$35<br>in<br>2 weeks</div></div><div class='respDivL'><div class='vertical-center'>(E)</div></div><div class='respDivR'><div class='vertical-center'>(I)</div></div></div>","E","$15<br><br>now","$35<br>in<br>2 weeks","0","15","35","2","NOW"
"html-keyboard-response","75","127872","0.0-5.0-3.23","62acc04d0a7788636b0e9915","bdp_td","Sun Apr 16 2023 11:02:17 GMT-0400 (Eastern Daylight Time)","136039","","null","","","","offerFB","","<div class='trialBorder'><div class='vertical-center'><img style='vertical-align:center; align:center' src=img/fixation3.jpg></div><div class='cl'><div class='vertical-center'><font style='color:orange'>$15<br><br>now</font></div></div><div class='cr'><div class='vertical-center'>$35<br>in<br>2 weeks</div></div><div class='respDivL'><div class='vertical-center'><font style='color:orange'>(E)</font></div></div><div class='respDivR'><div class='vertical-center'>(I)</div></div></div>","null","$15<br><br>now","$35<br>in<br>2 weeks","0","15","35","2",""
"html-keyboard-response","76","128375","0.0-5.0-1.24","62acc04d0a7788636b0e9915","bdp_td","Sun Apr 16 2023 11:02:17 GMT-0400 (Eastern Daylight Time)","136039","","null","","","","FIX","","<div class='trialBorder'><div class='vertical-center'><img style='vertical-align:center; align:center' src=img/fixation3.jpg></div></div>","null","","","","","","",""
"html-keyboard-response","77","130356","0.0-5.0-2.24","62acc04d0a7788636b0e9915","bdp_td","Sun Apr 16 2023 11:02:17 GMT-0400 (Eastern Daylight Time)","136039","","1981","","","","offer","","<div class='trialBorder'><div class='vertical-center'><img style='vertical-align:center; align:center' src=img/fixation3.jpg></div><div class='cl'><div class='vertical-center'>$27<br><br>now</div></div><div class='cr'><div class='vertical-center'>$50<br>in<br>3 weeks</div></div><div class='respDivL'><div class='vertical-center'>(E)</div></div><div class='respDivR'><div class='vertical-center'>(I)</div></div></div>","I","$27<br><br>now","$50<br>in<br>3 weeks","0","27","50","3","THEN"
"html-keyboard-response","78","130608","0.0-5.0-3.24","62acc04d0a7788636b0e9915","bdp_td","Sun Apr 16 2023 11:02:17 GMT-0400 (Eastern Daylight Time)","136039","","null","","","","offerFB","","<div class='trialBorder'><div class='vertical-center'><img style='vertical-align:center; align:center' src=img/fixation3.jpg></div><div class='cl'><div class='vertical-center'>$27<br><br>now</div></div><div class='cr'><div class='vertical-center'><font style='color:orange'>$50<br>in<br>3 weeks</font></div></div><div class='respDivL'><div class='vertical-center'>(E)</div></div><div class='respDivR'><div class='vertical-center'><font style='color:orange'>(I)</font></div></div></div>","null","$27<br><br>now","$50<br>in<br>3 weeks","0","27","50","3",""
"html-keyboard-response","79","131110","0.0-5.0-1.25","62acc04d0a7788636b0e9915","bdp_td","Sun Apr 16 2023 11:02:17 GMT-0400 (Eastern Daylight Time)","136039","","null","","","","FIX","","<div class='trialBorder'><div class='vertical-center'><img style='vertical-align:center; align:center' src=img/fixation3.jpg></div></div>","null","","","","","","",""
"html-keyboard-response","80","133096","0.0-5.0-2.25","62acc04d0a7788636b0e9915","bdp_td","Sun Apr 16 2023 11:02:17 GMT-0400 (Eastern Daylight Time)","136039","","1986","","","","offer","","<div class='trialBorder'><div class='vertical-center'><img style='vertical-align:center; align:center' src=img/fixation3.jpg></div><div class='cl'><div class='vertical-center'>$55<br><br>now</div></div><div class='cr'><div class='vertical-center'>$75<br>in<br>6 weeks</div></div><div class='respDivL'><div class='vertical-center'>(E)</div></div><div class='respDivR'><div class='vertical-center'>(I)</div></div></div>","I","$55<br><br>now","$75<br>in<br>6 weeks","0","55","75","6","THEN"
"html-keyboard-response","81","133348","0.0-5.0-3.25","62acc04d0a7788636b0e9915","bdp_td","Sun Apr 16 2023 11:02:17 GMT-0400 (Eastern Daylight Time)","136039","","null","","","","offerFB","","<div class='trialBorder'><div class='vertical-center'><img style='vertical-align:center; align:center' src=img/fixation3.jpg></div><div class='cl'><div class='vertical-center'>$55<br><br>now</div></div><div class='cr'><div class='vertical-center'><font style='color:orange'>$75<br>in<br>6 weeks</font></div></div><div class='respDivL'><div class='vertical-center'>(E)</div></div><div class='respDivR'><div class='vertical-center'><font style='color:orange'>(I)</font></div></div></div>","null","$55<br><br>now","$75<br>in<br>6 weeks","0","55","75","6",""
"html-keyboard-response","82","133849","0.0-5.0-1.26","62acc04d0a7788636b0e9915","bdp_td","Sun Apr 16 2023 11:02:17 GMT-0400 (Eastern Daylight Time)","136039","","null","","","","FIX","","<div class='trialBorder'><div class='vertical-center'><img style='vertical-align:center; align:center' src=img/fixation3.jpg></div></div>","null","","","","","","",""
"html-keyboard-response","83","134785","0.0-5.0-2.26","62acc04d0a7788636b0e9915","bdp_td","Sun Apr 16 2023 11:02:17 GMT-0400 (Eastern Daylight Time)","136039","","935","","","","offer","","<div class='trialBorder'><div class='vertical-center'><img style='vertical-align:center; align:center' src=img/fixation3.jpg></div><div class='cl'><div class='vertical-center'>$25<br><br>now</div></div><div class='cr'><div class='vertical-center'>$60<br>in<br>3 weeks</div></div><div class='respDivL'><div class='vertical-center'>(E)</div></div><div class='respDivR'><div class='vertical-center'>(I)</div></div></div>","E","$25<br><br>now","$60<br>in<br>3 weeks","0","25","60","3","NOW"
"html-keyboard-response","84","135037","0.0-5.0-3.26","62acc04d0a7788636b0e9915","bdp_td","Sun Apr 16 2023 11:02:17 GMT-0400 (Eastern Daylight Time)","136039","","null","","","","offerFB","","<div class='trialBorder'><div class='vertical-center'><img style='vertical-align:center; align:center' src=img/fixation3.jpg></div><div class='cl'><div class='vertical-center'><font style='color:orange'>$25<br><br>now</font></div></div><div class='cr'><div class='vertical-center'>$60<br>in<br>3 weeks</div></div><div class='respDivL'><div class='vertical-center'><font style='color:orange'>(E)</font></div></div><div class='respDivR'><div class='vertical-center'>(I)</div></div></div>","null","$25<br><br>now","$60<br>in<br>3 weeks","0","25","60","3",""
"","","","","62acc04d0a7788636b0e9915","bdp_td","Sun Apr 16 2023 11:02:17 GMT-0400 (Eastern Daylight Time)","136039","","","fullscreenexit","85","135048","fullscreenexit","","","","","","","","","",""
"fullscreen","85","136038","0.0-6.0","62acc04d0a7788636b0e9915","bdp_td","Sun Apr 16 2023 11:02:17 GMT-0400 (Eastern Daylight Time)","136039","","","","","","","true","","","","","","","","",""
"html-keyboard-response","86","136540","0.0-7.0","","","","","","null","","","","","","","null","","","","","","",""
