"trial_type","trial_index","time_elapsed","internal_node_id","subject_id","task","startTime","totalTime","view_history","rt","event","trial","time","trialtype","success","stimulus","key_press","nowOffer","thenOffer","thenLeft","nowAmt","thenAmt","thenWeeks","chosen"
"pavlovia","0","4","0.0-0.0","63d82d20ed2b67b4f77f1fc7","bdp_td","Mon Mar 27 2023 07:24:55 GMT-0700 (Pacific Daylight Time)","62503","","","","","","","","","","","","","","","",""
"instructions","1","1421","0.0-1.0","63d82d20ed2b67b4f77f1fc7","bdp_td","Mon Mar 27 2023 07:24:55 GMT-0700 (Pacific Daylight Time)","62503","[{""page_index"":0,""viewing_time"":1417}]","1417","","","","","","","","","","","","","",""
"","","","","63d82d20ed2b67b4f77f1fc7","bdp_td","Mon Mar 27 2023 07:24:55 GMT-0700 (Pacific Daylight Time)","62503","","","fullscreenenter","2","3314","fullscreenenter","","","","","","","","","",""
"","","","","63d82d20ed2b67b4f77f1fc7","bdp_td","Mon Mar 27 2023 07:24:55 GMT-0700 (Pacific Daylight Time)","62503","","","fullscreenexit","2","4124","fullscreenexit","","","","","","","","","",""
"fullscreen","2","4306","0.0-2.0","63d82d20ed2b67b4f77f1fc7","bdp_td","Mon Mar 27 2023 07:24:55 GMT-0700 (Pacific Daylight Time)","62503","","","","","","","true","","","","","","","","",""
"image-keyboard-response","3","21762","0.0-3.0-0.0","63d82d20ed2b67b4f77f1fc7","bdp_td","Mon Mar 27 2023 07:24:55 GMT-0700 (Pacific Daylight Time)","62503","","17454","","","","fullscreenfail","","","32","","","","","","",""
"instructions","4","26126","0.0-4.0","63d82d20ed2b67b4f77f1fc7","bdp_td","Mon Mar 27 2023 07:24:55 GMT-0700 (Pacific Daylight Time)","62503","[{""page_index"":0,""viewing_time"":958},{""page_index"":1,""viewing_time"":1868},{""page_index"":2,""viewing_time"":1283}]","4109","","","","","","","","","","","","","",""
"html-keyboard-response","5","26632","0.0-5.0-1.0","63d82d20ed2b67b4f77f1fc7","bdp_td","Mon Mar 27 2023 07:24:55 GMT-0700 (Pacific Daylight Time)","62503","","null","","","","FIX","","<div class='trialBorder'><div class='vertical-center'><img style='vertical-align:center; align:center' src=img/fixation3.jpg></div></div>","null","","","","","","",""
"html-keyboard-response","6","28218","0.0-5.0-2.0","63d82d20ed2b67b4f77f1fc7","bdp_td","Mon Mar 27 2023 07:24:55 GMT-0700 (Pacific Daylight Time)","62503","","1585","","","","offer","","<div class='trialBorder'><div class='vertical-center'><img style='vertical-align:center; align:center' src=img/fixation3.jpg></div><div class='cl'><div class='vertical-center'>$25<br><br>now</div></div><div class='cr'><div class='vertical-center'>$60<br>in<br>3 weeks</div></div><div class='respDivL'><div class='vertical-center'>(E)</div></div><div class='respDivR'><div class='vertical-center'>(I)</div></div></div>","E","$25<br><br>now","$60<br>in<br>3 weeks","0","25","60","3","NOW"
"html-keyboard-response","7","28476","0.0-5.0-3.0","63d82d20ed2b67b4f77f1fc7","bdp_td","Mon Mar 27 2023 07:24:55 GMT-0700 (Pacific Daylight Time)","62503","","null","","","","offerFB","","<div class='trialBorder'><div class='vertical-center'><img style='vertical-align:center; align:center' src=img/fixation3.jpg></div><div class='cl'><div class='vertical-center'><font style='color:orange'>$25<br><br>now</font></div></div><div class='cr'><div class='vertical-center'>$60<br>in<br>3 weeks</div></div><div class='respDivL'><div class='vertical-center'><font style='color:orange'>(E)</font></div></div><div class='respDivR'><div class='vertical-center'>(I)</div></div></div>","null","$25<br><br>now","$60<br>in<br>3 weeks","0","25","60","3",""
"html-keyboard-response","8","28986","0.0-5.0-1.1","63d82d20ed2b67b4f77f1fc7","bdp_td","Mon Mar 27 2023 07:24:55 GMT-0700 (Pacific Daylight Time)","62503","","null","","","","FIX","","<div class='trialBorder'><div class='vertical-center'><img style='vertical-align:center; align:center' src=img/fixation3.jpg></div></div>","null","","","","","","",""
"html-keyboard-response","9","31031","0.0-5.0-2.1","63d82d20ed2b67b4f77f1fc7","bdp_td","Mon Mar 27 2023 07:24:55 GMT-0700 (Pacific Daylight Time)","62503","","2043","","","","offer","","<div class='trialBorder'><div class='vertical-center'><img style='vertical-align:center; align:center' src=img/fixation3.jpg></div><div class='cl'><div class='vertical-center'>$28<br><br>now</div></div><div class='cr'><div class='vertical-center'>$30<br>in<br>12 weeks</div></div><div class='respDivL'><div class='vertical-center'>(E)</div></div><div class='respDivR'><div class='vertical-center'>(I)</div></div></div>","E","$28<br><br>now","$30<br>in<br>12 weeks","0","28","30","12","NOW"
"html-keyboard-response","10","31287","0.0-5.0-3.1","63d82d20ed2b67b4f77f1fc7","bdp_td","Mon Mar 27 2023 07:24:55 GMT-0700 (Pacific Daylight Time)","62503","","null","","","","offerFB","","<div class='trialBorder'><div class='vertical-center'><img style='vertical-align:center; align:center' src=img/fixation3.jpg></div><div class='cl'><div class='vertical-center'><font style='color:orange'>$28<br><br>now</font></div></div><div class='cr'><div class='vertical-center'>$30<br>in<br>12 weeks</div></div><div class='respDivL'><div class='vertical-center'><font style='color:orange'>(E)</font></div></div><div class='respDivR'><div class='vertical-center'>(I)</div></div></div>","null","$28<br><br>now","$30<br>in<br>12 weeks","0","28","30","12",""
"html-keyboard-response","11","31792","0.0-5.0-1.2","63d82d20ed2b67b4f77f1fc7","bdp_td","Mon Mar 27 2023 07:24:55 GMT-0700 (Pacific Daylight Time)","62503","","null","","","","FIX","","<div class='trialBorder'><div class='vertical-center'><img style='vertical-align:center; align:center' src=img/fixation3.jpg></div></div>","null","","","","","","",""
"html-keyboard-response","12","33528","0.0-5.0-2.2","63d82d20ed2b67b4f77f1fc7","bdp_td","Mon Mar 27 2023 07:24:55 GMT-0700 (Pacific Daylight Time)","62503","","1735","","","","offer","","<div class='trialBorder'><div class='vertical-center'><img style='vertical-align:center; align:center' src=img/fixation3.jpg></div><div class='cl'><div class='vertical-center'>$55<br>in<br>12 weeks</div></div><div class='cr'><div class='vertical-center'>$54<br><br>now</div></div><div class='respDivL'><div class='vertical-center'>(E)</div></div><div class='respDivR'><div class='vertical-center'>(I)</div></div></div>","I","$54<br><br>now","$55<br>in<br>12 weeks","1","54","55","12","NOW"
"html-keyboard-response","13","33783","0.0-5.0-3.2","63d82d20ed2b67b4f77f1fc7","bdp_td","Mon Mar 27 2023 07:24:55 GMT-0700 (Pacific Daylight Time)","62503","","null","","","","offerFB","","<div class='trialBorder'><div class='vertical-center'><img style='vertical-align:center; align:center' src=img/fixation3.jpg></div><div class='cl'><div class='vertical-center'>$55<br>in<br>12 weeks</div></div><div class='cr'><div class='vertical-center'><font style='color:orange'>$54<br><br>now</font></div></div><div class='respDivL'><div class='vertical-center'>(E)</div></div><div class='respDivR'><div class='vertical-center'><font style='color:orange'>(I)</font></div></div></div>","null","$54<br><br>now","$55<br>in<br>12 weeks","1","54","55","12",""
"html-keyboard-response","14","34292","0.0-5.0-1.3","63d82d20ed2b67b4f77f1fc7","bdp_td","Mon Mar 27 2023 07:24:55 GMT-0700 (Pacific Daylight Time)","62503","","null","","","","FIX","","<div class='trialBorder'><div class='vertical-center'><img style='vertical-align:center; align:center' src=img/fixation3.jpg></div></div>","null","","","","","","",""
"html-keyboard-response","15","35294","0.0-5.0-2.3","63d82d20ed2b67b4f77f1fc7","bdp_td","Mon Mar 27 2023 07:24:55 GMT-0700 (Pacific Daylight Time)","62503","","1002","","","","offer","","<div class='trialBorder'><div class='vertical-center'><img style='vertical-align:center; align:center' src=img/fixation3.jpg></div><div class='cl'><div class='vertical-center'>$75<br>in<br>6 weeks</div></div><div class='cr'><div class='vertical-center'>$55<br><br>now</div></div><div class='respDivL'><div class='vertical-center'>(E)</div></div><div class='respDivR'><div class='vertical-center'>(I)</div></div></div>","I","$55<br><br>now","$75<br>in<br>6 weeks","1","55","75","6","NOW"
"html-keyboard-response","16","35556","0.0-5.0-3.3","63d82d20ed2b67b4f77f1fc7","bdp_td","Mon Mar 27 2023 07:24:55 GMT-0700 (Pacific Daylight Time)","62503","","null","","","","offerFB","","<div class='trialBorder'><div class='vertical-center'><img style='vertical-align:center; align:center' src=img/fixation3.jpg></div><div class='cl'><div class='vertical-center'>$75<br>in<br>6 weeks</div></div><div class='cr'><div class='vertical-center'><font style='color:orange'>$55<br><br>now</font></div></div><div class='respDivL'><div class='vertical-center'>(E)</div></div><div class='respDivR'><div class='vertical-center'><font style='color:orange'>(I)</font></div></div></div>","null","$55<br><br>now","$75<br>in<br>6 weeks","1","55","75","6",""
"html-keyboard-response","17","36065","0.0-5.0-1.4","63d82d20ed2b67b4f77f1fc7","bdp_td","Mon Mar 27 2023 07:24:55 GMT-0700 (Pacific Daylight Time)","62503","","null","","","","FIX","","<div class='trialBorder'><div class='vertical-center'><img style='vertical-align:center; align:center' src=img/fixation3.jpg></div></div>","null","","","","","","",""
"html-keyboard-response","18","36442","0.0-5.0-2.4","63d82d20ed2b67b4f77f1fc7","bdp_td","Mon Mar 27 2023 07:24:55 GMT-0700 (Pacific Daylight Time)","62503","","377","","","","offer","","<div class='trialBorder'><div class='vertical-center'><img style='vertical-align:center; align:center' src=img/fixation3.jpg></div><div class='cl'><div class='vertical-center'>$20<br><br>now</div></div><div class='cr'><div class='vertical-center'>$55<br>in<br>1 week</div></div><div class='respDivL'><div class='vertical-center'>(E)</div></div><div class='respDivR'><div class='vertical-center'>(I)</div></div></div>","E","$20<br><br>now","$55<br>in<br>1 week","0","20","55","1","NOW"
"html-keyboard-response","19","36697","0.0-5.0-3.4","63d82d20ed2b67b4f77f1fc7","bdp_td","Mon Mar 27 2023 07:24:55 GMT-0700 (Pacific Daylight Time)","62503","","null","","","","offerFB","","<div class='trialBorder'><div class='vertical-center'><img style='vertical-align:center; align:center' src=img/fixation3.jpg></div><div class='cl'><div class='vertical-center'><font style='color:orange'>$20<br><br>now</font></div></div><div class='cr'><div class='vertical-center'>$55<br>in<br>1 week</div></div><div class='respDivL'><div class='vertical-center'><font style='color:orange'>(E)</font></div></div><div class='respDivR'><div class='vertical-center'>(I)</div></div></div>","null","$20<br><br>now","$55<br>in<br>1 week","0","20","55","1",""
"html-keyboard-response","20","37199","0.0-5.0-1.5","63d82d20ed2b67b4f77f1fc7","bdp_td","Mon Mar 27 2023 07:24:55 GMT-0700 (Pacific Daylight Time)","62503","","null","","","","FIX","","<div class='trialBorder'><div class='vertical-center'><img style='vertical-align:center; align:center' src=img/fixation3.jpg></div></div>","null","","","","","","",""
"html-keyboard-response","21","37421","0.0-5.0-2.5","63d82d20ed2b67b4f77f1fc7","bdp_td","Mon Mar 27 2023 07:24:55 GMT-0700 (Pacific Daylight Time)","62503","","221","","","","offer","","<div class='trialBorder'><div class='vertical-center'><img style='vertical-align:center; align:center' src=img/fixation3.jpg></div><div class='cl'><div class='vertical-center'>$80<br>in<br>3 weeks</div></div><div class='cr'><div class='vertical-center'>$54<br><br>now</div></div><div class='respDivL'><div class='vertical-center'>(E)</div></div><div class='respDivR'><div class='vertical-center'>(I)</div></div></div>","I","$54<br><br>now","$80<br>in<br>3 weeks","1","54","80","3","NOW"
"html-keyboard-response","22","37682","0.0-5.0-3.5","63d82d20ed2b67b4f77f1fc7","bdp_td","Mon Mar 27 2023 07:24:55 GMT-0700 (Pacific Daylight Time)","62503","","null","","","","offerFB","","<div class='trialBorder'><div class='vertical-center'><img style='vertical-align:center; align:center' src=img/fixation3.jpg></div><div class='cl'><div class='vertical-center'>$80<br>in<br>3 weeks</div></div><div class='cr'><div class='vertical-center'><font style='color:orange'>$54<br><br>now</font></div></div><div class='respDivL'><div class='vertical-center'>(E)</div></div><div class='respDivR'><div class='vertical-center'><font style='color:orange'>(I)</font></div></div></div>","null","$54<br><br>now","$80<br>in<br>3 weeks","1","54","80","3",""
"html-keyboard-response","23","38183","0.0-5.0-1.6","63d82d20ed2b67b4f77f1fc7","bdp_td","Mon Mar 27 2023 07:24:55 GMT-0700 (Pacific Daylight Time)","62503","","null","","","","FIX","","<div class='trialBorder'><div class='vertical-center'><img style='vertical-align:center; align:center' src=img/fixation3.jpg></div></div>","null","","","","","","",""
"html-keyboard-response","24","38928","0.0-5.0-2.6","63d82d20ed2b67b4f77f1fc7","bdp_td","Mon Mar 27 2023 07:24:55 GMT-0700 (Pacific Daylight Time)","62503","","744","","","","offer","","<div class='trialBorder'><div class='vertical-center'><img style='vertical-align:center; align:center' src=img/fixation3.jpg></div><div class='cl'><div class='vertical-center'>$30<br>in<br>2 weeks</div></div><div class='cr'><div class='vertical-center'>$11<br><br>now</div></div><div class='respDivL'><div class='vertical-center'>(E)</div></div><div class='respDivR'><div class='vertical-center'>(I)</div></div></div>","I","$11<br><br>now","$30<br>in<br>2 weeks","1","11","30","2","NOW"
"html-keyboard-response","25","39185","0.0-5.0-3.6","63d82d20ed2b67b4f77f1fc7","bdp_td","Mon Mar 27 2023 07:24:55 GMT-0700 (Pacific Daylight Time)","62503","","null","","","","offerFB","","<div class='trialBorder'><div class='vertical-center'><img style='vertical-align:center; align:center' src=img/fixation3.jpg></div><div class='cl'><div class='vertical-center'>$30<br>in<br>2 weeks</div></div><div class='cr'><div class='vertical-center'><font style='color:orange'>$11<br><br>now</font></div></div><div class='respDivL'><div class='vertical-center'>(E)</div></div><div class='respDivR'><div class='vertical-center'><font style='color:orange'>(I)</font></div></div></div>","null","$11<br><br>now","$30<br>in<br>2 weeks","1","11","30","2",""
"html-keyboard-response","26","39690","0.0-5.0-1.7","63d82d20ed2b67b4f77f1fc7","bdp_td","Mon Mar 27 2023 07:24:55 GMT-0700 (Pacific Daylight Time)","62503","","null","","","","FIX","","<div class='trialBorder'><div class='vertical-center'><img style='vertical-align:center; align:center' src=img/fixation3.jpg></div></div>","null","","","","","","",""
"html-keyboard-response","27","40458","0.0-5.0-2.7","63d82d20ed2b67b4f77f1fc7","bdp_td","Mon Mar 27 2023 07:24:55 GMT-0700 (Pacific Daylight Time)","62503","","767","","","","offer","","<div class='trialBorder'><div class='vertical-center'><img style='vertical-align:center; align:center' src=img/fixation3.jpg></div><div class='cl'><div class='vertical-center'>$50<br>in<br>6 weeks</div></div><div class='cr'><div class='vertical-center'>$34<br><br>now</div></div><div class='respDivL'><div class='vertical-center'>(E)</div></div><div class='respDivR'><div class='vertical-center'>(I)</div></div></div>","I","$34<br><br>now","$50<br>in<br>6 weeks","1","34","50","6","NOW"
"html-keyboard-response","28","40716","0.0-5.0-3.7","63d82d20ed2b67b4f77f1fc7","bdp_td","Mon Mar 27 2023 07:24:55 GMT-0700 (Pacific Daylight Time)","62503","","null","","","","offerFB","","<div class='trialBorder'><div class='vertical-center'><img style='vertical-align:center; align:center' src=img/fixation3.jpg></div><div class='cl'><div class='vertical-center'>$50<br>in<br>6 weeks</div></div><div class='cr'><div class='vertical-center'><font style='color:orange'>$34<br><br>now</font></div></div><div class='respDivL'><div class='vertical-center'>(E)</div></div><div class='respDivR'><div class='vertical-center'><font style='color:orange'>(I)</font></div></div></div>","null","$34<br><br>now","$50<br>in<br>6 weeks","1","34","50","6",""
"html-keyboard-response","29","41225","0.0-5.0-1.8","63d82d20ed2b67b4f77f1fc7","bdp_td","Mon Mar 27 2023 07:24:55 GMT-0700 (Pacific Daylight Time)","62503","","null","","","","FIX","","<div class='trialBorder'><div class='vertical-center'><img style='vertical-align:center; align:center' src=img/fixation3.jpg></div></div>","null","","","","","","",""
"html-keyboard-response","30","41504","0.0-5.0-2.8","63d82d20ed2b67b4f77f1fc7","bdp_td","Mon Mar 27 2023 07:24:55 GMT-0700 (Pacific Daylight Time)","62503","","278","","","","offer","","<div class='trialBorder'><div class='vertical-center'><img style='vertical-align:center; align:center' src=img/fixation3.jpg></div><div class='cl'><div class='vertical-center'>$75<br>in<br>12 weeks</div></div><div class='cr'><div class='vertical-center'>$67<br><br>now</div></div><div class='respDivL'><div class='vertical-center'>(E)</div></div><div class='respDivR'><div class='vertical-center'>(I)</div></div></div>","E","$67<br><br>now","$75<br>in<br>12 weeks","1","67","75","12","THEN"
"html-keyboard-response","31","41759","0.0-5.0-3.8","63d82d20ed2b67b4f77f1fc7","bdp_td","Mon Mar 27 2023 07:24:55 GMT-0700 (Pacific Daylight Time)","62503","","null","","","","offerFB","","<div class='trialBorder'><div class='vertical-center'><img style='vertical-align:center; align:center' src=img/fixation3.jpg></div><div class='cl'><div class='vertical-center'><font style='color:orange'>$75<br>in<br>12 weeks</font></div></div><div class='cr'><div class='vertical-center'>$67<br><br>now</div></div><div class='respDivL'><div class='vertical-center'><font style='color:orange'>(E)</font></div></div><div class='respDivR'><div class='vertical-center'>(I)</div></div></div>","null","$67<br><br>now","$75<br>in<br>12 weeks","1","67","75","12",""
"html-keyboard-response","32","42264","0.0-5.0-1.9","63d82d20ed2b67b4f77f1fc7","bdp_td","Mon Mar 27 2023 07:24:55 GMT-0700 (Pacific Daylight Time)","62503","","null","","","","FIX","","<div class='trialBorder'><div class='vertical-center'><img style='vertical-align:center; align:center' src=img/fixation3.jpg></div></div>","null","","","","","","",""
"html-keyboard-response","33","42348","0.0-5.0-2.9","63d82d20ed2b67b4f77f1fc7","bdp_td","Mon Mar 27 2023 07:24:55 GMT-0700 (Pacific Daylight Time)","62503","","83","","","","offer","","<div class='trialBorder'><div class='vertical-center'><img style='vertical-align:center; align:center' src=img/fixation3.jpg></div><div class='cl'><div class='vertical-center'>$35<br>in<br>2 weeks</div></div><div class='cr'><div class='vertical-center'>$15<br><br>now</div></div><div class='respDivL'><div class='vertical-center'>(E)</div></div><div class='respDivR'><div class='vertical-center'>(I)</div></div></div>","I","$15<br><br>now","$35<br>in<br>2 weeks","1","15","35","2","NOW"
"html-keyboard-response","34","42601","0.0-5.0-3.9","63d82d20ed2b67b4f77f1fc7","bdp_td","Mon Mar 27 2023 07:24:55 GMT-0700 (Pacific Daylight Time)","62503","","null","","","","offerFB","","<div class='trialBorder'><div class='vertical-center'><img style='vertical-align:center; align:center' src=img/fixation3.jpg></div><div class='cl'><div class='vertical-center'>$35<br>in<br>2 weeks</div></div><div class='cr'><div class='vertical-center'><font style='color:orange'>$15<br><br>now</font></div></div><div class='respDivL'><div class='vertical-center'>(E)</div></div><div class='respDivR'><div class='vertical-center'><font style='color:orange'>(I)</font></div></div></div>","null","$15<br><br>now","$35<br>in<br>2 weeks","1","15","35","2",""
"html-keyboard-response","35","43103","0.0-5.0-1.10","63d82d20ed2b67b4f77f1fc7","bdp_td","Mon Mar 27 2023 07:24:55 GMT-0700 (Pacific Daylight Time)","62503","","null","","","","FIX","","<div class='trialBorder'><div class='vertical-center'><img style='vertical-align:center; align:center' src=img/fixation3.jpg></div></div>","null","","","","","","",""
"html-keyboard-response","36","43293","0.0-5.0-2.10","63d82d20ed2b67b4f77f1fc7","bdp_td","Mon Mar 27 2023 07:24:55 GMT-0700 (Pacific Daylight Time)","62503","","189","","","","offer","","<div class='trialBorder'><div class='vertical-center'><img style='vertical-align:center; align:center' src=img/fixation3.jpg></div><div class='cl'><div class='vertical-center'>$25<br><br>now</div></div><div class='cr'><div class='vertical-center'>$30<br>in<br>6 weeks</div></div><div class='respDivL'><div class='vertical-center'>(E)</div></div><div class='respDivR'><div class='vertical-center'>(I)</div></div></div>","E","$25<br><br>now","$30<br>in<br>6 weeks","0","25","30","6","NOW"
"html-keyboard-response","37","43553","0.0-5.0-3.10","63d82d20ed2b67b4f77f1fc7","bdp_td","Mon Mar 27 2023 07:24:55 GMT-0700 (Pacific Daylight Time)","62503","","null","","","","offerFB","","<div class='trialBorder'><div class='vertical-center'><img style='vertical-align:center; align:center' src=img/fixation3.jpg></div><div class='cl'><div class='vertical-center'><font style='color:orange'>$25<br><br>now</font></div></div><div class='cr'><div class='vertical-center'>$30<br>in<br>6 weeks</div></div><div class='respDivL'><div class='vertical-center'><font style='color:orange'>(E)</font></div></div><div class='respDivR'><div class='vertical-center'>(I)</div></div></div>","null","$25<br><br>now","$30<br>in<br>6 weeks","0","25","30","6",""
"html-keyboard-response","38","44055","0.0-5.0-1.11","63d82d20ed2b67b4f77f1fc7","bdp_td","Mon Mar 27 2023 07:24:55 GMT-0700 (Pacific Daylight Time)","62503","","null","","","","FIX","","<div class='trialBorder'><div class='vertical-center'><img style='vertical-align:center; align:center' src=img/fixation3.jpg></div></div>","null","","","","","","",""
"html-keyboard-response","39","44171","0.0-5.0-2.11","63d82d20ed2b67b4f77f1fc7","bdp_td","Mon Mar 27 2023 07:24:55 GMT-0700 (Pacific Daylight Time)","62503","","115","","","","offer","","<div class='trialBorder'><div class='vertical-center'><img style='vertical-align:center; align:center' src=img/fixation3.jpg></div><div class='cl'><div class='vertical-center'>$49<br><br>now</div></div><div class='cr'><div class='vertical-center'>$60<br>in<br>6 weeks</div></div><div class='respDivL'><div class='vertical-center'>(E)</div></div><div class='respDivR'><div class='vertical-center'>(I)</div></div></div>","I","$49<br><br>now","$60<br>in<br>6 weeks","0","49","60","6","THEN"
"html-keyboard-response","40","44424","0.0-5.0-3.11","63d82d20ed2b67b4f77f1fc7","bdp_td","Mon Mar 27 2023 07:24:55 GMT-0700 (Pacific Daylight Time)","62503","","null","","","","offerFB","","<div class='trialBorder'><div class='vertical-center'><img style='vertical-align:center; align:center' src=img/fixation3.jpg></div><div class='cl'><div class='vertical-center'>$49<br><br>now</div></div><div class='cr'><div class='vertical-center'><font style='color:orange'>$60<br>in<br>6 weeks</font></div></div><div class='respDivL'><div class='vertical-center'>(E)</div></div><div class='respDivR'><div class='vertical-center'><font style='color:orange'>(I)</font></div></div></div>","null","$49<br><br>now","$60<br>in<br>6 weeks","0","49","60","6",""
"html-keyboard-response","41","44929","0.0-5.0-1.12","63d82d20ed2b67b4f77f1fc7","bdp_td","Mon Mar 27 2023 07:24:55 GMT-0700 (Pacific Daylight Time)","62503","","null","","","","FIX","","<div class='trialBorder'><div class='vertical-center'><img style='vertical-align:center; align:center' src=img/fixation3.jpg></div></div>","null","","","","","","",""
"html-keyboard-response","42","45543","0.0-5.0-2.12","63d82d20ed2b67b4f77f1fc7","bdp_td","Mon Mar 27 2023 07:24:55 GMT-0700 (Pacific Daylight Time)","62503","","614","","","","offer","","<div class='trialBorder'><div class='vertical-center'><img style='vertical-align:center; align:center' src=img/fixation3.jpg></div><div class='cl'><div class='vertical-center'>$55<br>in<br>6 weeks</div></div><div class='cr'><div class='vertical-center'>$40<br><br>now</div></div><div class='respDivL'><div class='vertical-center'>(E)</div></div><div class='respDivR'><div class='vertical-center'>(I)</div></div></div>","E","$40<br><br>now","$55<br>in<br>6 weeks","1","40","55","6","THEN"
"html-keyboard-response","43","45799","0.0-5.0-3.12","63d82d20ed2b67b4f77f1fc7","bdp_td","Mon Mar 27 2023 07:24:55 GMT-0700 (Pacific Daylight Time)","62503","","null","","","","offerFB","","<div class='trialBorder'><div class='vertical-center'><img style='vertical-align:center; align:center' src=img/fixation3.jpg></div><div class='cl'><div class='vertical-center'><font style='color:orange'>$55<br>in<br>6 weeks</font></div></div><div class='cr'><div class='vertical-center'>$40<br><br>now</div></div><div class='respDivL'><div class='vertical-center'><font style='color:orange'>(E)</font></div></div><div class='respDivR'><div class='vertical-center'>(I)</div></div></div>","null","$40<br><br>now","$55<br>in<br>6 weeks","1","40","55","6",""
"html-keyboard-response","44","46304","0.0-5.0-1.13","63d82d20ed2b67b4f77f1fc7","bdp_td","Mon Mar 27 2023 07:24:55 GMT-0700 (Pacific Daylight Time)","62503","","null","","","","FIX","","<div class='trialBorder'><div class='vertical-center'><img style='vertical-align:center; align:center' src=img/fixation3.jpg></div></div>","null","","","","","","",""
"html-keyboard-response","45","46353","0.0-5.0-2.13","63d82d20ed2b67b4f77f1fc7","bdp_td","Mon Mar 27 2023 07:24:55 GMT-0700 (Pacific Daylight Time)","62503","","48","","","","offer","","<div class='trialBorder'><div class='vertical-center'><img style='vertical-align:center; align:center' src=img/fixation3.jpg></div><div class='cl'><div class='vertical-center'>$27<br><br>now</div></div><div class='cr'><div class='vertical-center'>$50<br>in<br>3 weeks</div></div><div class='respDivL'><div class='vertical-center'>(E)</div></div><div class='respDivR'><div class='vertical-center'>(I)</div></div></div>","E","$27<br><br>now","$50<br>in<br>3 weeks","0","27","50","3","NOW"
"html-keyboard-response","46","46609","0.0-5.0-3.13","63d82d20ed2b67b4f77f1fc7","bdp_td","Mon Mar 27 2023 07:24:55 GMT-0700 (Pacific Daylight Time)","62503","","null","","","","offerFB","","<div class='trialBorder'><div class='vertical-center'><img style='vertical-align:center; align:center' src=img/fixation3.jpg></div><div class='cl'><div class='vertical-center'><font style='color:orange'>$27<br><br>now</font></div></div><div class='cr'><div class='vertical-center'>$50<br>in<br>3 weeks</div></div><div class='respDivL'><div class='vertical-center'><font style='color:orange'>(E)</font></div></div><div class='respDivR'><div class='vertical-center'>(I)</div></div></div>","null","$27<br><br>now","$50<br>in<br>3 weeks","0","27","50","3",""
"html-keyboard-response","47","47111","0.0-5.0-1.14","63d82d20ed2b67b4f77f1fc7","bdp_td","Mon Mar 27 2023 07:24:55 GMT-0700 (Pacific Daylight Time)","62503","","null","","","","FIX","","<div class='trialBorder'><div class='vertical-center'><img style='vertical-align:center; align:center' src=img/fixation3.jpg></div></div>","null","","","","","","",""
"html-keyboard-response","48","47523","0.0-5.0-2.14","63d82d20ed2b67b4f77f1fc7","bdp_td","Mon Mar 27 2023 07:24:55 GMT-0700 (Pacific Daylight Time)","62503","","411","","","","offer","","<div class='trialBorder'><div class='vertical-center'><img style='vertical-align:center; align:center' src=img/fixation3.jpg></div><div class='cl'><div class='vertical-center'>$50<br>in<br>12 weeks</div></div><div class='cr'><div class='vertical-center'>$47<br><br>now</div></div><div class='respDivL'><div class='vertical-center'>(E)</div></div><div class='respDivR'><div class='vertical-center'>(I)</div></div></div>","E","$47<br><br>now","$50<br>in<br>12 weeks","1","47","50","12","THEN"
"html-keyboard-response","49","47776","0.0-5.0-3.14","63d82d20ed2b67b4f77f1fc7","bdp_td","Mon Mar 27 2023 07:24:55 GMT-0700 (Pacific Daylight Time)","62503","","null","","","","offerFB","","<div class='trialBorder'><div class='vertical-center'><img style='vertical-align:center; align:center' src=img/fixation3.jpg></div><div class='cl'><div class='vertical-center'><font style='color:orange'>$50<br>in<br>12 weeks</font></div></div><div class='cr'><div class='vertical-center'>$47<br><br>now</div></div><div class='respDivL'><div class='vertical-center'><font style='color:orange'>(E)</font></div></div><div class='respDivR'><div class='vertical-center'>(I)</div></div></div>","null","$47<br><br>now","$50<br>in<br>12 weeks","1","47","50","12",""
"html-keyboard-response","50","48281","0.0-5.0-1.15","63d82d20ed2b67b4f77f1fc7","bdp_td","Mon Mar 27 2023 07:24:55 GMT-0700 (Pacific Daylight Time)","62503","","null","","","","FIX","","<div class='trialBorder'><div class='vertical-center'><img style='vertical-align:center; align:center' src=img/fixation3.jpg></div></div>","null","","","","","","",""
"html-keyboard-response","51","48603","0.0-5.0-2.15","63d82d20ed2b67b4f77f1fc7","bdp_td","Mon Mar 27 2023 07:24:55 GMT-0700 (Pacific Daylight Time)","62503","","321","","","","offer","","<div class='trialBorder'><div class='vertical-center'><img style='vertical-align:center; align:center' src=img/fixation3.jpg></div><div class='cl'><div class='vertical-center'>$19<br><br>now</div></div><div class='cr'><div class='vertical-center'>$25<br>in<br>6 weeks</div></div><div class='respDivL'><div class='vertical-center'>(E)</div></div><div class='respDivR'><div class='vertical-center'>(I)</div></div></div>","I","$19<br><br>now","$25<br>in<br>6 weeks","0","19","25","6","THEN"
"html-keyboard-response","52","48856","0.0-5.0-3.15","63d82d20ed2b67b4f77f1fc7","bdp_td","Mon Mar 27 2023 07:24:55 GMT-0700 (Pacific Daylight Time)","62503","","null","","","","offerFB","","<div class='trialBorder'><div class='vertical-center'><img style='vertical-align:center; align:center' src=img/fixation3.jpg></div><div class='cl'><div class='vertical-center'>$19<br><br>now</div></div><div class='cr'><div class='vertical-center'><font style='color:orange'>$25<br>in<br>6 weeks</font></div></div><div class='respDivL'><div class='vertical-center'>(E)</div></div><div class='respDivR'><div class='vertical-center'><font style='color:orange'>(I)</font></div></div></div>","null","$19<br><br>now","$25<br>in<br>6 weeks","0","19","25","6",""
"html-keyboard-response","53","49360","0.0-5.0-1.16","63d82d20ed2b67b4f77f1fc7","bdp_td","Mon Mar 27 2023 07:24:55 GMT-0700 (Pacific Daylight Time)","62503","","null","","","","FIX","","<div class='trialBorder'><div class='vertical-center'><img style='vertical-align:center; align:center' src=img/fixation3.jpg></div></div>","null","","","","","","",""
"html-keyboard-response","54","49638","0.0-5.0-2.16","63d82d20ed2b67b4f77f1fc7","bdp_td","Mon Mar 27 2023 07:24:55 GMT-0700 (Pacific Daylight Time)","62503","","277","","","","offer","","<div class='trialBorder'><div class='vertical-center'><img style='vertical-align:center; align:center' src=img/fixation3.jpg></div><div class='cl'><div class='vertical-center'>$35<br>in<br>3 weeks</div></div><div class='cr'><div class='vertical-center'>$24<br><br>now</div></div><div class='respDivL'><div class='vertical-center'>(E)</div></div><div class='respDivR'><div class='vertical-center'>(I)</div></div></div>","I","$24<br><br>now","$35<br>in<br>3 weeks","1","24","35","3","NOW"
"html-keyboard-response","55","49897","0.0-5.0-3.16","63d82d20ed2b67b4f77f1fc7","bdp_td","Mon Mar 27 2023 07:24:55 GMT-0700 (Pacific Daylight Time)","62503","","null","","","","offerFB","","<div class='trialBorder'><div class='vertical-center'><img style='vertical-align:center; align:center' src=img/fixation3.jpg></div><div class='cl'><div class='vertical-center'>$35<br>in<br>3 weeks</div></div><div class='cr'><div class='vertical-center'><font style='color:orange'>$24<br><br>now</font></div></div><div class='respDivL'><div class='vertical-center'>(E)</div></div><div class='respDivR'><div class='vertical-center'><font style='color:orange'>(I)</font></div></div></div>","null","$24<br><br>now","$35<br>in<br>3 weeks","1","24","35","3",""
"html-keyboard-response","56","50400","0.0-5.0-1.17","63d82d20ed2b67b4f77f1fc7","bdp_td","Mon Mar 27 2023 07:24:55 GMT-0700 (Pacific Daylight Time)","62503","","null","","","","FIX","","<div class='trialBorder'><div class='vertical-center'><img style='vertical-align:center; align:center' src=img/fixation3.jpg></div></div>","null","","","","","","",""
"html-keyboard-response","57","50606","0.0-5.0-2.17","63d82d20ed2b67b4f77f1fc7","bdp_td","Mon Mar 27 2023 07:24:55 GMT-0700 (Pacific Daylight Time)","62503","","204","","","","offer","","<div class='trialBorder'><div class='vertical-center'><img style='vertical-align:center; align:center' src=img/fixation3.jpg></div><div class='cl'><div class='vertical-center'>$14<br><br>now</div></div><div class='cr'><div class='vertical-center'>$25<br>in<br>3 weeks</div></div><div class='respDivL'><div class='vertical-center'>(E)</div></div><div class='respDivR'><div class='vertical-center'>(I)</div></div></div>","E","$14<br><br>now","$25<br>in<br>3 weeks","0","14","25","3","NOW"
"html-keyboard-response","58","50864","0.0-5.0-3.17","63d82d20ed2b67b4f77f1fc7","bdp_td","Mon Mar 27 2023 07:24:55 GMT-0700 (Pacific Daylight Time)","62503","","null","","","","offerFB","","<div class='trialBorder'><div class='vertical-center'><img style='vertical-align:center; align:center' src=img/fixation3.jpg></div><div class='cl'><div class='vertical-center'><font style='color:orange'>$14<br><br>now</font></div></div><div class='cr'><div class='vertical-center'>$25<br>in<br>3 weeks</div></div><div class='respDivL'><div class='vertical-center'><font style='color:orange'>(E)</font></div></div><div class='respDivR'><div class='vertical-center'>(I)</div></div></div>","null","$14<br><br>now","$25<br>in<br>3 weeks","0","14","25","3",""
"html-keyboard-response","59","51369","0.0-5.0-1.18","63d82d20ed2b67b4f77f1fc7","bdp_td","Mon Mar 27 2023 07:24:55 GMT-0700 (Pacific Daylight Time)","62503","","null","","","","FIX","","<div class='trialBorder'><div class='vertical-center'><img style='vertical-align:center; align:center' src=img/fixation3.jpg></div></div>","null","","","","","","",""
"html-keyboard-response","60","51753","0.0-5.0-2.18","63d82d20ed2b67b4f77f1fc7","bdp_td","Mon Mar 27 2023 07:24:55 GMT-0700 (Pacific Daylight Time)","62503","","383","","","","offer","","<div class='trialBorder'><div class='vertical-center'><img style='vertical-align:center; align:center' src=img/fixation3.jpg></div><div class='cl'><div class='vertical-center'>$33<br><br>now</div></div><div class='cr'><div class='vertical-center'>$80<br>in<br>2 weeks</div></div><div class='respDivL'><div class='vertical-center'>(E)</div></div><div class='respDivR'><div class='vertical-center'>(I)</div></div></div>","I","$33<br><br>now","$80<br>in<br>2 weeks","0","33","80","2","THEN"
"html-keyboard-response","61","52008","0.0-5.0-3.18","63d82d20ed2b67b4f77f1fc7","bdp_td","Mon Mar 27 2023 07:24:55 GMT-0700 (Pacific Daylight Time)","62503","","null","","","","offerFB","","<div class='trialBorder'><div class='vertical-center'><img style='vertical-align:center; align:center' src=img/fixation3.jpg></div><div class='cl'><div class='vertical-center'>$33<br><br>now</div></div><div class='cr'><div class='vertical-center'><font style='color:orange'>$80<br>in<br>2 weeks</font></div></div><div class='respDivL'><div class='vertical-center'>(E)</div></div><div class='respDivR'><div class='vertical-center'><font style='color:orange'>(I)</font></div></div></div>","null","$33<br><br>now","$80<br>in<br>2 weeks","0","33","80","2",""
"html-keyboard-response","62","52513","0.0-5.0-1.19","63d82d20ed2b67b4f77f1fc7","bdp_td","Mon Mar 27 2023 07:24:55 GMT-0700 (Pacific Daylight Time)","62503","","null","","","","FIX","","<div class='trialBorder'><div class='vertical-center'><img style='vertical-align:center; align:center' src=img/fixation3.jpg></div></div>","null","","","","","","",""
"html-keyboard-response","63","52732","0.0-5.0-2.19","63d82d20ed2b67b4f77f1fc7","bdp_td","Mon Mar 27 2023 07:24:55 GMT-0700 (Pacific Daylight Time)","62503","","218","","","","offer","","<div class='trialBorder'><div class='vertical-center'><img style='vertical-align:center; align:center' src=img/fixation3.jpg></div><div class='cl'><div class='vertical-center'>$41<br><br>now</div></div><div class='cr'><div class='vertical-center'>$75<br>in<br>3 weeks</div></div><div class='respDivL'><div class='vertical-center'>(E)</div></div><div class='respDivR'><div class='vertical-center'>(I)</div></div></div>","E","$41<br><br>now","$75<br>in<br>3 weeks","0","41","75","3","NOW"
"html-keyboard-response","64","52992","0.0-5.0-3.19","63d82d20ed2b67b4f77f1fc7","bdp_td","Mon Mar 27 2023 07:24:55 GMT-0700 (Pacific Daylight Time)","62503","","null","","","","offerFB","","<div class='trialBorder'><div class='vertical-center'><img style='vertical-align:center; align:center' src=img/fixation3.jpg></div><div class='cl'><div class='vertical-center'><font style='color:orange'>$41<br><br>now</font></div></div><div class='cr'><div class='vertical-center'>$75<br>in<br>3 weeks</div></div><div class='respDivL'><div class='vertical-center'><font style='color:orange'>(E)</font></div></div><div class='respDivR'><div class='vertical-center'>(I)</div></div></div>","null","$41<br><br>now","$75<br>in<br>3 weeks","0","41","75","3",""
"html-keyboard-response","65","53497","0.0-5.0-1.20","63d82d20ed2b67b4f77f1fc7","bdp_td","Mon Mar 27 2023 07:24:55 GMT-0700 (Pacific Daylight Time)","62503","","null","","","","FIX","","<div class='trialBorder'><div class='vertical-center'><img style='vertical-align:center; align:center' src=img/fixation3.jpg></div></div>","null","","","","","","",""
"html-keyboard-response","66","53879","0.0-5.0-2.20","63d82d20ed2b67b4f77f1fc7","bdp_td","Mon Mar 27 2023 07:24:55 GMT-0700 (Pacific Daylight Time)","62503","","382","","","","offer","","<div class='trialBorder'><div class='vertical-center'><img style='vertical-align:center; align:center' src=img/fixation3.jpg></div><div class='cl'><div class='vertical-center'>$85<br>in<br>12 weeks</div></div><div class='cr'><div class='vertical-center'>$80<br><br>now</div></div><div class='respDivL'><div class='vertical-center'>(E)</div></div><div class='respDivR'><div class='vertical-center'>(I)</div></div></div>","E","$80<br><br>now","$85<br>in<br>12 weeks","1","80","85","12","THEN"
"html-keyboard-response","67","54135","0.0-5.0-3.20","63d82d20ed2b67b4f77f1fc7","bdp_td","Mon Mar 27 2023 07:24:55 GMT-0700 (Pacific Daylight Time)","62503","","null","","","","offerFB","","<div class='trialBorder'><div class='vertical-center'><img style='vertical-align:center; align:center' src=img/fixation3.jpg></div><div class='cl'><div class='vertical-center'><font style='color:orange'>$85<br>in<br>12 weeks</font></div></div><div class='cr'><div class='vertical-center'>$80<br><br>now</div></div><div class='respDivL'><div class='vertical-center'><font style='color:orange'>(E)</font></div></div><div class='respDivR'><div class='vertical-center'>(I)</div></div></div>","null","$80<br><br>now","$85<br>in<br>12 weeks","1","80","85","12",""
"html-keyboard-response","68","54640","0.0-5.0-1.21","63d82d20ed2b67b4f77f1fc7","bdp_td","Mon Mar 27 2023 07:24:55 GMT-0700 (Pacific Daylight Time)","62503","","null","","","","FIX","","<div class='trialBorder'><div class='vertical-center'><img style='vertical-align:center; align:center' src=img/fixation3.jpg></div></div>","null","","","","","","",""
"html-keyboard-response","69","54960","0.0-5.0-2.21","63d82d20ed2b67b4f77f1fc7","bdp_td","Mon Mar 27 2023 07:24:55 GMT-0700 (Pacific Daylight Time)","62503","","319","","","","offer","","<div class='trialBorder'><div class='vertical-center'><img style='vertical-align:center; align:center' src=img/fixation3.jpg></div><div class='cl'><div class='vertical-center'>$25<br>in<br>12 weeks</div></div><div class='cr'><div class='vertical-center'>$22<br><br>now</div></div><div class='respDivL'><div class='vertical-center'>(E)</div></div><div class='respDivR'><div class='vertical-center'>(I)</div></div></div>","I","$22<br><br>now","$25<br>in<br>12 weeks","1","22","25","12","NOW"
"html-keyboard-response","70","55217","0.0-5.0-3.21","63d82d20ed2b67b4f77f1fc7","bdp_td","Mon Mar 27 2023 07:24:55 GMT-0700 (Pacific Daylight Time)","62503","","null","","","","offerFB","","<div class='trialBorder'><div class='vertical-center'><img style='vertical-align:center; align:center' src=img/fixation3.jpg></div><div class='cl'><div class='vertical-center'>$25<br>in<br>12 weeks</div></div><div class='cr'><div class='vertical-center'><font style='color:orange'>$22<br><br>now</font></div></div><div class='respDivL'><div class='vertical-center'>(E)</div></div><div class='respDivR'><div class='vertical-center'><font style='color:orange'>(I)</font></div></div></div>","null","$22<br><br>now","$25<br>in<br>12 weeks","1","22","25","12",""
"html-keyboard-response","71","55720","0.0-5.0-1.22","63d82d20ed2b67b4f77f1fc7","bdp_td","Mon Mar 27 2023 07:24:55 GMT-0700 (Pacific Daylight Time)","62503","","null","","","","FIX","","<div class='trialBorder'><div class='vertical-center'><img style='vertical-align:center; align:center' src=img/fixation3.jpg></div></div>","null","","","","","","",""
"html-keyboard-response","72","56355","0.0-5.0-2.22","63d82d20ed2b67b4f77f1fc7","bdp_td","Mon Mar 27 2023 07:24:55 GMT-0700 (Pacific Daylight Time)","62503","","634","","","","offer","","<div class='trialBorder'><div class='vertical-center'><img style='vertical-align:center; align:center' src=img/fixation3.jpg></div><div class='cl'><div class='vertical-center'>$31<br><br>now</div></div><div class='cr'><div class='vertical-center'>$85<br>in<br>1 week</div></div><div class='respDivL'><div class='vertical-center'>(E)</div></div><div class='respDivR'><div class='vertical-center'>(I)</div></div></div>","I","$31<br><br>now","$85<br>in<br>1 week","0","31","85","1","THEN"
"html-keyboard-response","73","56608","0.0-5.0-3.22","63d82d20ed2b67b4f77f1fc7","bdp_td","Mon Mar 27 2023 07:24:55 GMT-0700 (Pacific Daylight Time)","62503","","null","","","","offerFB","","<div class='trialBorder'><div class='vertical-center'><img style='vertical-align:center; align:center' src=img/fixation3.jpg></div><div class='cl'><div class='vertical-center'>$31<br><br>now</div></div><div class='cr'><div class='vertical-center'><font style='color:orange'>$85<br>in<br>1 week</font></div></div><div class='respDivL'><div class='vertical-center'>(E)</div></div><div class='respDivR'><div class='vertical-center'><font style='color:orange'>(I)</font></div></div></div>","null","$31<br><br>now","$85<br>in<br>1 week","0","31","85","1",""
"html-keyboard-response","74","57113","0.0-5.0-1.23","63d82d20ed2b67b4f77f1fc7","bdp_td","Mon Mar 27 2023 07:24:55 GMT-0700 (Pacific Daylight Time)","62503","","null","","","","FIX","","<div class='trialBorder'><div class='vertical-center'><img style='vertical-align:center; align:center' src=img/fixation3.jpg></div></div>","null","","","","","","",""
"html-keyboard-response","75","57761","0.0-5.0-2.23","63d82d20ed2b67b4f77f1fc7","bdp_td","Mon Mar 27 2023 07:24:55 GMT-0700 (Pacific Daylight Time)","62503","","646","","","","offer","","<div class='trialBorder'><div class='vertical-center'><img style='vertical-align:center; align:center' src=img/fixation3.jpg></div><div class='cl'><div class='vertical-center'>$69<br><br>now</div></div><div class='cr'><div class='vertical-center'>$85<br>in<br>6 weeks</div></div><div class='respDivL'><div class='vertical-center'>(E)</div></div><div class='respDivR'><div class='vertical-center'>(I)</div></div></div>","I","$69<br><br>now","$85<br>in<br>6 weeks","0","69","85","6","THEN"
"html-keyboard-response","76","58016","0.0-5.0-3.23","63d82d20ed2b67b4f77f1fc7","bdp_td","Mon Mar 27 2023 07:24:55 GMT-0700 (Pacific Daylight Time)","62503","","null","","","","offerFB","","<div class='trialBorder'><div class='vertical-center'><img style='vertical-align:center; align:center' src=img/fixation3.jpg></div><div class='cl'><div class='vertical-center'>$69<br><br>now</div></div><div class='cr'><div class='vertical-center'><font style='color:orange'>$85<br>in<br>6 weeks</font></div></div><div class='respDivL'><div class='vertical-center'>(E)</div></div><div class='respDivR'><div class='vertical-center'><font style='color:orange'>(I)</font></div></div></div>","null","$69<br><br>now","$85<br>in<br>6 weeks","0","69","85","6",""
"html-keyboard-response","77","58521","0.0-5.0-1.24","63d82d20ed2b67b4f77f1fc7","bdp_td","Mon Mar 27 2023 07:24:55 GMT-0700 (Pacific Daylight Time)","62503","","null","","","","FIX","","<div class='trialBorder'><div class='vertical-center'><img style='vertical-align:center; align:center' src=img/fixation3.jpg></div></div>","null","","","","","","",""
"html-keyboard-response","78","59189","0.0-5.0-2.24","63d82d20ed2b67b4f77f1fc7","bdp_td","Mon Mar 27 2023 07:24:55 GMT-0700 (Pacific Daylight Time)","62503","","667","","","","offer","","<div class='trialBorder'><div class='vertical-center'><img style='vertical-align:center; align:center' src=img/fixation3.jpg></div><div class='cl'><div class='vertical-center'>$80<br>in<br>12 weeks</div></div><div class='cr'><div class='vertical-center'>$78<br><br>now</div></div><div class='respDivL'><div class='vertical-center'>(E)</div></div><div class='respDivR'><div class='vertical-center'>(I)</div></div></div>","I","$78<br><br>now","$80<br>in<br>12 weeks","1","78","80","12","NOW"
"html-keyboard-response","79","59450","0.0-5.0-3.24","63d82d20ed2b67b4f77f1fc7","bdp_td","Mon Mar 27 2023 07:24:55 GMT-0700 (Pacific Daylight Time)","62503","","null","","","","offerFB","","<div class='trialBorder'><div class='vertical-center'><img style='vertical-align:center; align:center' src=img/fixation3.jpg></div><div class='cl'><div class='vertical-center'>$80<br>in<br>12 weeks</div></div><div class='cr'><div class='vertical-center'><font style='color:orange'>$78<br><br>now</font></div></div><div class='respDivL'><div class='vertical-center'>(E)</div></div><div class='respDivR'><div class='vertical-center'><font style='color:orange'>(I)</font></div></div></div>","null","$78<br><br>now","$80<br>in<br>12 weeks","1","78","80","12",""
"html-keyboard-response","80","59955","0.0-5.0-1.25","63d82d20ed2b67b4f77f1fc7","bdp_td","Mon Mar 27 2023 07:24:55 GMT-0700 (Pacific Daylight Time)","62503","","null","","","","FIX","","<div class='trialBorder'><div class='vertical-center'><img style='vertical-align:center; align:center' src=img/fixation3.jpg></div></div>","null","","","","","","",""
"html-keyboard-response","81","60236","0.0-5.0-2.25","63d82d20ed2b67b4f77f1fc7","bdp_td","Mon Mar 27 2023 07:24:55 GMT-0700 (Pacific Daylight Time)","62503","","281","","","","offer","","<div class='trialBorder'><div class='vertical-center'><img style='vertical-align:center; align:center' src=img/fixation3.jpg></div><div class='cl'><div class='vertical-center'>$35<br>in<br>12 weeks</div></div><div class='cr'><div class='vertical-center'>$34<br><br>now</div></div><div class='respDivL'><div class='vertical-center'>(E)</div></div><div class='respDivR'><div class='vertical-center'>(I)</div></div></div>","I","$34<br><br>now","$35<br>in<br>12 weeks","1","34","35","12","NOW"
"html-keyboard-response","82","60495","0.0-5.0-3.25","63d82d20ed2b67b4f77f1fc7","bdp_td","Mon Mar 27 2023 07:24:55 GMT-0700 (Pacific Daylight Time)","62503","","null","","","","offerFB","","<div class='trialBorder'><div class='vertical-center'><img style='vertical-align:center; align:center' src=img/fixation3.jpg></div><div class='cl'><div class='vertical-center'>$35<br>in<br>12 weeks</div></div><div class='cr'><div class='vertical-center'><font style='color:orange'>$34<br><br>now</font></div></div><div class='respDivL'><div class='vertical-center'>(E)</div></div><div class='respDivR'><div class='vertical-center'><font style='color:orange'>(I)</font></div></div></div>","null","$34<br><br>now","$35<br>in<br>12 weeks","1","34","35","12",""
"html-keyboard-response","83","61000","0.0-5.0-1.26","63d82d20ed2b67b4f77f1fc7","bdp_td","Mon Mar 27 2023 07:24:55 GMT-0700 (Pacific Daylight Time)","62503","","null","","","","FIX","","<div class='trialBorder'><div class='vertical-center'><img style='vertical-align:center; align:center' src=img/fixation3.jpg></div></div>","null","","","","","","",""
"html-keyboard-response","84","61237","0.0-5.0-2.26","63d82d20ed2b67b4f77f1fc7","bdp_td","Mon Mar 27 2023 07:24:55 GMT-0700 (Pacific Daylight Time)","62503","","237","","","","offer","","<div class='trialBorder'><div class='vertical-center'><img style='vertical-align:center; align:center' src=img/fixation3.jpg></div><div class='cl'><div class='vertical-center'>$54<br><br>now</div></div><div class='cr'><div class='vertical-center'>$60<br>in<br>12 weeks</div></div><div class='respDivL'><div class='vertical-center'>(E)</div></div><div class='respDivR'><div class='vertical-center'>(I)</div></div></div>","E","$54<br><br>now","$60<br>in<br>12 weeks","0","54","60","12","NOW"
"html-keyboard-response","85","61496","0.0-5.0-3.26","63d82d20ed2b67b4f77f1fc7","bdp_td","Mon Mar 27 2023 07:24:55 GMT-0700 (Pacific Daylight Time)","62503","","null","","","","offerFB","","<div class='trialBorder'><div class='vertical-center'><img style='vertical-align:center; align:center' src=img/fixation3.jpg></div><div class='cl'><div class='vertical-center'><font style='color:orange'>$54<br><br>now</font></div></div><div class='cr'><div class='vertical-center'>$60<br>in<br>12 weeks</div></div><div class='respDivL'><div class='vertical-center'><font style='color:orange'>(E)</font></div></div><div class='respDivR'><div class='vertical-center'>(I)</div></div></div>","null","$54<br><br>now","$60<br>in<br>12 weeks","0","54","60","12",""
"fullscreen","86","62503","0.0-6.0","63d82d20ed2b67b4f77f1fc7","bdp_td","Mon Mar 27 2023 07:24:55 GMT-0700 (Pacific Daylight Time)","62503","","","","","","","true","","","","","","","","",""
"html-keyboard-response","87","63008","0.0-7.0","","","","","","null","","","","","","","null","","","","","","",""
