"trial_type","trial_index","time_elapsed","internal_node_id","subject_id","task","startTime","totalTime","view_history","rt","event","trial","time","trialtype","success","stimulus","key_press","nowOffer","thenOffer","thenLeft","nowAmt","thenAmt","thenWeeks","chosen"
"pavlovia","0","15","0.0-0.0","63e5ffdf639ebdcf35aacb09","bdp_td","Sun Mar 26 2023 20:29:51 GMT+0200 (Central European Summer Time)","338415","","","","","","","","","","","","","","","",""
"instructions","1","4959","0.0-1.0","63e5ffdf639ebdcf35aacb09","bdp_td","Sun Mar 26 2023 20:29:51 GMT+0200 (Central European Summer Time)","338415","[{""page_index"":0,""viewing_time"":4942}]","4942","","","","","","","","","","","","","",""
"","","","","63e5ffdf639ebdcf35aacb09","bdp_td","Sun Mar 26 2023 20:29:51 GMT+0200 (Central European Summer Time)","338415","","","fullscreenenter","2","20732","fullscreenenter","","","","","","","","","",""
"fullscreen","2","21672","0.0-2.0","63e5ffdf639ebdcf35aacb09","bdp_td","Sun Mar 26 2023 20:29:51 GMT+0200 (Central European Summer Time)","338415","","","","","","","true","","","","","","","","",""
"instructions","3","255597","0.0-4.0","63e5ffdf639ebdcf35aacb09","bdp_td","Sun Mar 26 2023 20:29:51 GMT+0200 (Central European Summer Time)","338415","[{""page_index"":0,""viewing_time"":26188},{""page_index"":1,""viewing_time"":201598},{""page_index"":2,""viewing_time"":6135}]","233922","","","","","","","","","","","","","",""
"html-keyboard-response","4","256101","0.0-5.0-1.0","63e5ffdf639ebdcf35aacb09","bdp_td","Sun Mar 26 2023 20:29:51 GMT+0200 (Central European Summer Time)","338415","","null","","","","FIX","","<div class='trialBorder'><div class='vertical-center'><img style='vertical-align:center; align:center' src=img/fixation3.jpg></div></div>","null","","","","","","",""
"html-keyboard-response","5","260686","0.0-5.0-2.0","63e5ffdf639ebdcf35aacb09","bdp_td","Sun Mar 26 2023 20:29:51 GMT+0200 (Central European Summer Time)","338415","","4581","","","","offer","","<div class='trialBorder'><div class='vertical-center'><img style='vertical-align:center; align:center' src=img/fixation3.jpg></div><div class='cl'><div class='vertical-center'>$60<br>in<br>12 weeks</div></div><div class='cr'><div class='vertical-center'>$54<br><br>now</div></div><div class='respDivL'><div class='vertical-center'>(E)</div></div><div class='respDivR'><div class='vertical-center'>(I)</div></div></div>","I","$54<br><br>now","$60<br>in<br>12 weeks","1","54","60","12","NOW"
"html-keyboard-response","6","260944","0.0-5.0-3.0","63e5ffdf639ebdcf35aacb09","bdp_td","Sun Mar 26 2023 20:29:51 GMT+0200 (Central European Summer Time)","338415","","null","","","","offerFB","","<div class='trialBorder'><div class='vertical-center'><img style='vertical-align:center; align:center' src=img/fixation3.jpg></div><div class='cl'><div class='vertical-center'>$60<br>in<br>12 weeks</div></div><div class='cr'><div class='vertical-center'><font style='color:orange'>$54<br><br>now</font></div></div><div class='respDivL'><div class='vertical-center'>(E)</div></div><div class='respDivR'><div class='vertical-center'><font style='color:orange'>(I)</font></div></div></div>","null","$54<br><br>now","$60<br>in<br>12 weeks","1","54","60","12",""
"html-keyboard-response","7","261448","0.0-5.0-1.1","63e5ffdf639ebdcf35aacb09","bdp_td","Sun Mar 26 2023 20:29:51 GMT+0200 (Central European Summer Time)","338415","","null","","","","FIX","","<div class='trialBorder'><div class='vertical-center'><img style='vertical-align:center; align:center' src=img/fixation3.jpg></div></div>","null","","","","","","",""
"html-keyboard-response","8","263150","0.0-5.0-2.1","63e5ffdf639ebdcf35aacb09","bdp_td","Sun Mar 26 2023 20:29:51 GMT+0200 (Central European Summer Time)","338415","","1699","","","","offer","","<div class='trialBorder'><div class='vertical-center'><img style='vertical-align:center; align:center' src=img/fixation3.jpg></div><div class='cl'><div class='vertical-center'>$85<br>in<br>12 weeks</div></div><div class='cr'><div class='vertical-center'>$80<br><br>now</div></div><div class='respDivL'><div class='vertical-center'>(E)</div></div><div class='respDivR'><div class='vertical-center'>(I)</div></div></div>","I","$80<br><br>now","$85<br>in<br>12 weeks","1","80","85","12","NOW"
"html-keyboard-response","9","263404","0.0-5.0-3.1","63e5ffdf639ebdcf35aacb09","bdp_td","Sun Mar 26 2023 20:29:51 GMT+0200 (Central European Summer Time)","338415","","null","","","","offerFB","","<div class='trialBorder'><div class='vertical-center'><img style='vertical-align:center; align:center' src=img/fixation3.jpg></div><div class='cl'><div class='vertical-center'>$85<br>in<br>12 weeks</div></div><div class='cr'><div class='vertical-center'><font style='color:orange'>$80<br><br>now</font></div></div><div class='respDivL'><div class='vertical-center'>(E)</div></div><div class='respDivR'><div class='vertical-center'><font style='color:orange'>(I)</font></div></div></div>","null","$80<br><br>now","$85<br>in<br>12 weeks","1","80","85","12",""
"html-keyboard-response","10","263907","0.0-5.0-1.2","63e5ffdf639ebdcf35aacb09","bdp_td","Sun Mar 26 2023 20:29:51 GMT+0200 (Central European Summer Time)","338415","","null","","","","FIX","","<div class='trialBorder'><div class='vertical-center'><img style='vertical-align:center; align:center' src=img/fixation3.jpg></div></div>","null","","","","","","",""
"html-keyboard-response","11","267054","0.0-5.0-2.2","63e5ffdf639ebdcf35aacb09","bdp_td","Sun Mar 26 2023 20:29:51 GMT+0200 (Central European Summer Time)","338415","","3145","","","","offer","","<div class='trialBorder'><div class='vertical-center'><img style='vertical-align:center; align:center' src=img/fixation3.jpg></div><div class='cl'><div class='vertical-center'>$67<br><br>now</div></div><div class='cr'><div class='vertical-center'>$75<br>in<br>12 weeks</div></div><div class='respDivL'><div class='vertical-center'>(E)</div></div><div class='respDivR'><div class='vertical-center'>(I)</div></div></div>","E","$67<br><br>now","$75<br>in<br>12 weeks","0","67","75","12","NOW"
"html-keyboard-response","12","267310","0.0-5.0-3.2","63e5ffdf639ebdcf35aacb09","bdp_td","Sun Mar 26 2023 20:29:51 GMT+0200 (Central European Summer Time)","338415","","null","","","","offerFB","","<div class='trialBorder'><div class='vertical-center'><img style='vertical-align:center; align:center' src=img/fixation3.jpg></div><div class='cl'><div class='vertical-center'><font style='color:orange'>$67<br><br>now</font></div></div><div class='cr'><div class='vertical-center'>$75<br>in<br>12 weeks</div></div><div class='respDivL'><div class='vertical-center'><font style='color:orange'>(E)</font></div></div><div class='respDivR'><div class='vertical-center'>(I)</div></div></div>","null","$67<br><br>now","$75<br>in<br>12 weeks","0","67","75","12",""
"html-keyboard-response","13","267813","0.0-5.0-1.3","63e5ffdf639ebdcf35aacb09","bdp_td","Sun Mar 26 2023 20:29:51 GMT+0200 (Central European Summer Time)","338415","","null","","","","FIX","","<div class='trialBorder'><div class='vertical-center'><img style='vertical-align:center; align:center' src=img/fixation3.jpg></div></div>","null","","","","","","",""
"html-keyboard-response","14","270766","0.0-5.0-2.3","63e5ffdf639ebdcf35aacb09","bdp_td","Sun Mar 26 2023 20:29:51 GMT+0200 (Central European Summer Time)","338415","","2949","","","","offer","","<div class='trialBorder'><div class='vertical-center'><img style='vertical-align:center; align:center' src=img/fixation3.jpg></div><div class='cl'><div class='vertical-center'>$25<br><br>now</div></div><div class='cr'><div class='vertical-center'>$60<br>in<br>3 weeks</div></div><div class='respDivL'><div class='vertical-center'>(E)</div></div><div class='respDivR'><div class='vertical-center'>(I)</div></div></div>","I","$25<br><br>now","$60<br>in<br>3 weeks","0","25","60","3","THEN"
"html-keyboard-response","15","271020","0.0-5.0-3.3","63e5ffdf639ebdcf35aacb09","bdp_td","Sun Mar 26 2023 20:29:51 GMT+0200 (Central European Summer Time)","338415","","null","","","","offerFB","","<div class='trialBorder'><div class='vertical-center'><img style='vertical-align:center; align:center' src=img/fixation3.jpg></div><div class='cl'><div class='vertical-center'>$25<br><br>now</div></div><div class='cr'><div class='vertical-center'><font style='color:orange'>$60<br>in<br>3 weeks</font></div></div><div class='respDivL'><div class='vertical-center'>(E)</div></div><div class='respDivR'><div class='vertical-center'><font style='color:orange'>(I)</font></div></div></div>","null","$25<br><br>now","$60<br>in<br>3 weeks","0","25","60","3",""
"html-keyboard-response","16","271524","0.0-5.0-1.4","63e5ffdf639ebdcf35aacb09","bdp_td","Sun Mar 26 2023 20:29:51 GMT+0200 (Central European Summer Time)","338415","","null","","","","FIX","","<div class='trialBorder'><div class='vertical-center'><img style='vertical-align:center; align:center' src=img/fixation3.jpg></div></div>","null","","","","","","",""
"html-keyboard-response","17","274141","0.0-5.0-2.4","63e5ffdf639ebdcf35aacb09","bdp_td","Sun Mar 26 2023 20:29:51 GMT+0200 (Central European Summer Time)","338415","","2615","","","","offer","","<div class='trialBorder'><div class='vertical-center'><img style='vertical-align:center; align:center' src=img/fixation3.jpg></div><div class='cl'><div class='vertical-center'>$30<br>in<br>2 weeks</div></div><div class='cr'><div class='vertical-center'>$11<br><br>now</div></div><div class='respDivL'><div class='vertical-center'>(E)</div></div><div class='respDivR'><div class='vertical-center'>(I)</div></div></div>","E","$11<br><br>now","$30<br>in<br>2 weeks","1","11","30","2","THEN"
"html-keyboard-response","18","274396","0.0-5.0-3.4","63e5ffdf639ebdcf35aacb09","bdp_td","Sun Mar 26 2023 20:29:51 GMT+0200 (Central European Summer Time)","338415","","null","","","","offerFB","","<div class='trialBorder'><div class='vertical-center'><img style='vertical-align:center; align:center' src=img/fixation3.jpg></div><div class='cl'><div class='vertical-center'><font style='color:orange'>$30<br>in<br>2 weeks</font></div></div><div class='cr'><div class='vertical-center'>$11<br><br>now</div></div><div class='respDivL'><div class='vertical-center'><font style='color:orange'>(E)</font></div></div><div class='respDivR'><div class='vertical-center'>(I)</div></div></div>","null","$11<br><br>now","$30<br>in<br>2 weeks","1","11","30","2",""
"html-keyboard-response","19","274898","0.0-5.0-1.5","63e5ffdf639ebdcf35aacb09","bdp_td","Sun Mar 26 2023 20:29:51 GMT+0200 (Central European Summer Time)","338415","","null","","","","FIX","","<div class='trialBorder'><div class='vertical-center'><img style='vertical-align:center; align:center' src=img/fixation3.jpg></div></div>","null","","","","","","",""
"html-keyboard-response","20","280982","0.0-5.0-2.5","63e5ffdf639ebdcf35aacb09","bdp_td","Sun Mar 26 2023 20:29:51 GMT+0200 (Central European Summer Time)","338415","","6081","","","","offer","","<div class='trialBorder'><div class='vertical-center'><img style='vertical-align:center; align:center' src=img/fixation3.jpg></div><div class='cl'><div class='vertical-center'>$69<br><br>now</div></div><div class='cr'><div class='vertical-center'>$85<br>in<br>6 weeks</div></div><div class='respDivL'><div class='vertical-center'>(E)</div></div><div class='respDivR'><div class='vertical-center'>(I)</div></div></div>","E","$69<br><br>now","$85<br>in<br>6 weeks","0","69","85","6","NOW"
"html-keyboard-response","21","281236","0.0-5.0-3.5","63e5ffdf639ebdcf35aacb09","bdp_td","Sun Mar 26 2023 20:29:51 GMT+0200 (Central European Summer Time)","338415","","null","","","","offerFB","","<div class='trialBorder'><div class='vertical-center'><img style='vertical-align:center; align:center' src=img/fixation3.jpg></div><div class='cl'><div class='vertical-center'><font style='color:orange'>$69<br><br>now</font></div></div><div class='cr'><div class='vertical-center'>$85<br>in<br>6 weeks</div></div><div class='respDivL'><div class='vertical-center'><font style='color:orange'>(E)</font></div></div><div class='respDivR'><div class='vertical-center'>(I)</div></div></div>","null","$69<br><br>now","$85<br>in<br>6 weeks","0","69","85","6",""
"html-keyboard-response","22","281739","0.0-5.0-1.6","63e5ffdf639ebdcf35aacb09","bdp_td","Sun Mar 26 2023 20:29:51 GMT+0200 (Central European Summer Time)","338415","","null","","","","FIX","","<div class='trialBorder'><div class='vertical-center'><img style='vertical-align:center; align:center' src=img/fixation3.jpg></div></div>","null","","","","","","",""
"html-keyboard-response","23","284454","0.0-5.0-2.6","63e5ffdf639ebdcf35aacb09","bdp_td","Sun Mar 26 2023 20:29:51 GMT+0200 (Central European Summer Time)","338415","","2714","","","","offer","","<div class='trialBorder'><div class='vertical-center'><img style='vertical-align:center; align:center' src=img/fixation3.jpg></div><div class='cl'><div class='vertical-center'>$30<br>in<br>6 weeks</div></div><div class='cr'><div class='vertical-center'>$25<br><br>now</div></div><div class='respDivL'><div class='vertical-center'>(E)</div></div><div class='respDivR'><div class='vertical-center'>(I)</div></div></div>","I","$25<br><br>now","$30<br>in<br>6 weeks","1","25","30","6","NOW"
"html-keyboard-response","24","284708","0.0-5.0-3.6","63e5ffdf639ebdcf35aacb09","bdp_td","Sun Mar 26 2023 20:29:51 GMT+0200 (Central European Summer Time)","338415","","null","","","","offerFB","","<div class='trialBorder'><div class='vertical-center'><img style='vertical-align:center; align:center' src=img/fixation3.jpg></div><div class='cl'><div class='vertical-center'>$30<br>in<br>6 weeks</div></div><div class='cr'><div class='vertical-center'><font style='color:orange'>$25<br><br>now</font></div></div><div class='respDivL'><div class='vertical-center'>(E)</div></div><div class='respDivR'><div class='vertical-center'><font style='color:orange'>(I)</font></div></div></div>","null","$25<br><br>now","$30<br>in<br>6 weeks","1","25","30","6",""
"html-keyboard-response","25","285212","0.0-5.0-1.7","63e5ffdf639ebdcf35aacb09","bdp_td","Sun Mar 26 2023 20:29:51 GMT+0200 (Central European Summer Time)","338415","","null","","","","FIX","","<div class='trialBorder'><div class='vertical-center'><img style='vertical-align:center; align:center' src=img/fixation3.jpg></div></div>","null","","","","","","",""
"html-keyboard-response","26","286855","0.0-5.0-2.7","63e5ffdf639ebdcf35aacb09","bdp_td","Sun Mar 26 2023 20:29:51 GMT+0200 (Central European Summer Time)","338415","","1642","","","","offer","","<div class='trialBorder'><div class='vertical-center'><img style='vertical-align:center; align:center' src=img/fixation3.jpg></div><div class='cl'><div class='vertical-center'>$33<br><br>now</div></div><div class='cr'><div class='vertical-center'>$80<br>in<br>2 weeks</div></div><div class='respDivL'><div class='vertical-center'>(E)</div></div><div class='respDivR'><div class='vertical-center'>(I)</div></div></div>","E","$33<br><br>now","$80<br>in<br>2 weeks","0","33","80","2","NOW"
"html-keyboard-response","27","287109","0.0-5.0-3.7","63e5ffdf639ebdcf35aacb09","bdp_td","Sun Mar 26 2023 20:29:51 GMT+0200 (Central European Summer Time)","338415","","null","","","","offerFB","","<div class='trialBorder'><div class='vertical-center'><img style='vertical-align:center; align:center' src=img/fixation3.jpg></div><div class='cl'><div class='vertical-center'><font style='color:orange'>$33<br><br>now</font></div></div><div class='cr'><div class='vertical-center'>$80<br>in<br>2 weeks</div></div><div class='respDivL'><div class='vertical-center'><font style='color:orange'>(E)</font></div></div><div class='respDivR'><div class='vertical-center'>(I)</div></div></div>","null","$33<br><br>now","$80<br>in<br>2 weeks","0","33","80","2",""
"html-keyboard-response","28","287613","0.0-5.0-1.8","63e5ffdf639ebdcf35aacb09","bdp_td","Sun Mar 26 2023 20:29:51 GMT+0200 (Central European Summer Time)","338415","","null","","","","FIX","","<div class='trialBorder'><div class='vertical-center'><img style='vertical-align:center; align:center' src=img/fixation3.jpg></div></div>","null","","","","","","",""
"html-keyboard-response","29","289446","0.0-5.0-2.8","63e5ffdf639ebdcf35aacb09","bdp_td","Sun Mar 26 2023 20:29:51 GMT+0200 (Central European Summer Time)","338415","","1831","","","","offer","","<div class='trialBorder'><div class='vertical-center'><img style='vertical-align:center; align:center' src=img/fixation3.jpg></div><div class='cl'><div class='vertical-center'>$78<br><br>now</div></div><div class='cr'><div class='vertical-center'>$80<br>in<br>12 weeks</div></div><div class='respDivL'><div class='vertical-center'>(E)</div></div><div class='respDivR'><div class='vertical-center'>(I)</div></div></div>","E","$78<br><br>now","$80<br>in<br>12 weeks","0","78","80","12","NOW"
"html-keyboard-response","30","289700","0.0-5.0-3.8","63e5ffdf639ebdcf35aacb09","bdp_td","Sun Mar 26 2023 20:29:51 GMT+0200 (Central European Summer Time)","338415","","null","","","","offerFB","","<div class='trialBorder'><div class='vertical-center'><img style='vertical-align:center; align:center' src=img/fixation3.jpg></div><div class='cl'><div class='vertical-center'><font style='color:orange'>$78<br><br>now</font></div></div><div class='cr'><div class='vertical-center'>$80<br>in<br>12 weeks</div></div><div class='respDivL'><div class='vertical-center'><font style='color:orange'>(E)</font></div></div><div class='respDivR'><div class='vertical-center'>(I)</div></div></div>","null","$78<br><br>now","$80<br>in<br>12 weeks","0","78","80","12",""
"html-keyboard-response","31","290204","0.0-5.0-1.9","63e5ffdf639ebdcf35aacb09","bdp_td","Sun Mar 26 2023 20:29:51 GMT+0200 (Central European Summer Time)","338415","","null","","","","FIX","","<div class='trialBorder'><div class='vertical-center'><img style='vertical-align:center; align:center' src=img/fixation3.jpg></div></div>","null","","","","","","",""
"html-keyboard-response","32","293535","0.0-5.0-2.9","63e5ffdf639ebdcf35aacb09","bdp_td","Sun Mar 26 2023 20:29:51 GMT+0200 (Central European Summer Time)","338415","","3329","","","","offer","","<div class='trialBorder'><div class='vertical-center'><img style='vertical-align:center; align:center' src=img/fixation3.jpg></div><div class='cl'><div class='vertical-center'>$55<br>in<br>12 weeks</div></div><div class='cr'><div class='vertical-center'>$54<br><br>now</div></div><div class='respDivL'><div class='vertical-center'>(E)</div></div><div class='respDivR'><div class='vertical-center'>(I)</div></div></div>","I","$54<br><br>now","$55<br>in<br>12 weeks","1","54","55","12","NOW"
"html-keyboard-response","33","293788","0.0-5.0-3.9","63e5ffdf639ebdcf35aacb09","bdp_td","Sun Mar 26 2023 20:29:51 GMT+0200 (Central European Summer Time)","338415","","null","","","","offerFB","","<div class='trialBorder'><div class='vertical-center'><img style='vertical-align:center; align:center' src=img/fixation3.jpg></div><div class='cl'><div class='vertical-center'>$55<br>in<br>12 weeks</div></div><div class='cr'><div class='vertical-center'><font style='color:orange'>$54<br><br>now</font></div></div><div class='respDivL'><div class='vertical-center'>(E)</div></div><div class='respDivR'><div class='vertical-center'><font style='color:orange'>(I)</font></div></div></div>","null","$54<br><br>now","$55<br>in<br>12 weeks","1","54","55","12",""
"html-keyboard-response","34","294291","0.0-5.0-1.10","63e5ffdf639ebdcf35aacb09","bdp_td","Sun Mar 26 2023 20:29:51 GMT+0200 (Central European Summer Time)","338415","","null","","","","FIX","","<div class='trialBorder'><div class='vertical-center'><img style='vertical-align:center; align:center' src=img/fixation3.jpg></div></div>","null","","","","","","",""
"html-keyboard-response","35","296118","0.0-5.0-2.10","63e5ffdf639ebdcf35aacb09","bdp_td","Sun Mar 26 2023 20:29:51 GMT+0200 (Central European Summer Time)","338415","","1825","","","","offer","","<div class='trialBorder'><div class='vertical-center'><img style='vertical-align:center; align:center' src=img/fixation3.jpg></div><div class='cl'><div class='vertical-center'>$27<br><br>now</div></div><div class='cr'><div class='vertical-center'>$50<br>in<br>3 weeks</div></div><div class='respDivL'><div class='vertical-center'>(E)</div></div><div class='respDivR'><div class='vertical-center'>(I)</div></div></div>","I","$27<br><br>now","$50<br>in<br>3 weeks","0","27","50","3","THEN"
"html-keyboard-response","36","296372","0.0-5.0-3.10","63e5ffdf639ebdcf35aacb09","bdp_td","Sun Mar 26 2023 20:29:51 GMT+0200 (Central European Summer Time)","338415","","null","","","","offerFB","","<div class='trialBorder'><div class='vertical-center'><img style='vertical-align:center; align:center' src=img/fixation3.jpg></div><div class='cl'><div class='vertical-center'>$27<br><br>now</div></div><div class='cr'><div class='vertical-center'><font style='color:orange'>$50<br>in<br>3 weeks</font></div></div><div class='respDivL'><div class='vertical-center'>(E)</div></div><div class='respDivR'><div class='vertical-center'><font style='color:orange'>(I)</font></div></div></div>","null","$27<br><br>now","$50<br>in<br>3 weeks","0","27","50","3",""
"html-keyboard-response","37","296875","0.0-5.0-1.11","63e5ffdf639ebdcf35aacb09","bdp_td","Sun Mar 26 2023 20:29:51 GMT+0200 (Central European Summer Time)","338415","","null","","","","FIX","","<div class='trialBorder'><div class='vertical-center'><img style='vertical-align:center; align:center' src=img/fixation3.jpg></div></div>","null","","","","","","",""
"html-keyboard-response","38","299239","0.0-5.0-2.11","63e5ffdf639ebdcf35aacb09","bdp_td","Sun Mar 26 2023 20:29:51 GMT+0200 (Central European Summer Time)","338415","","2362","","","","offer","","<div class='trialBorder'><div class='vertical-center'><img style='vertical-align:center; align:center' src=img/fixation3.jpg></div><div class='cl'><div class='vertical-center'>$25<br>in<br>6 weeks</div></div><div class='cr'><div class='vertical-center'>$19<br><br>now</div></div><div class='respDivL'><div class='vertical-center'>(E)</div></div><div class='respDivR'><div class='vertical-center'>(I)</div></div></div>","I","$19<br><br>now","$25<br>in<br>6 weeks","1","19","25","6","NOW"
"html-keyboard-response","39","299498","0.0-5.0-3.11","63e5ffdf639ebdcf35aacb09","bdp_td","Sun Mar 26 2023 20:29:51 GMT+0200 (Central European Summer Time)","338415","","null","","","","offerFB","","<div class='trialBorder'><div class='vertical-center'><img style='vertical-align:center; align:center' src=img/fixation3.jpg></div><div class='cl'><div class='vertical-center'>$25<br>in<br>6 weeks</div></div><div class='cr'><div class='vertical-center'><font style='color:orange'>$19<br><br>now</font></div></div><div class='respDivL'><div class='vertical-center'>(E)</div></div><div class='respDivR'><div class='vertical-center'><font style='color:orange'>(I)</font></div></div></div>","null","$19<br><br>now","$25<br>in<br>6 weeks","1","19","25","6",""
"html-keyboard-response","40","300000","0.0-5.0-1.12","63e5ffdf639ebdcf35aacb09","bdp_td","Sun Mar 26 2023 20:29:51 GMT+0200 (Central European Summer Time)","338415","","null","","","","FIX","","<div class='trialBorder'><div class='vertical-center'><img style='vertical-align:center; align:center' src=img/fixation3.jpg></div></div>","null","","","","","","",""
"html-keyboard-response","41","301646","0.0-5.0-2.12","63e5ffdf639ebdcf35aacb09","bdp_td","Sun Mar 26 2023 20:29:51 GMT+0200 (Central European Summer Time)","338415","","1645","","","","offer","","<div class='trialBorder'><div class='vertical-center'><img style='vertical-align:center; align:center' src=img/fixation3.jpg></div><div class='cl'><div class='vertical-center'>$60<br>in<br>6 weeks</div></div><div class='cr'><div class='vertical-center'>$49<br><br>now</div></div><div class='respDivL'><div class='vertical-center'>(E)</div></div><div class='respDivR'><div class='vertical-center'>(I)</div></div></div>","I","$49<br><br>now","$60<br>in<br>6 weeks","1","49","60","6","NOW"
"html-keyboard-response","42","301900","0.0-5.0-3.12","63e5ffdf639ebdcf35aacb09","bdp_td","Sun Mar 26 2023 20:29:51 GMT+0200 (Central European Summer Time)","338415","","null","","","","offerFB","","<div class='trialBorder'><div class='vertical-center'><img style='vertical-align:center; align:center' src=img/fixation3.jpg></div><div class='cl'><div class='vertical-center'>$60<br>in<br>6 weeks</div></div><div class='cr'><div class='vertical-center'><font style='color:orange'>$49<br><br>now</font></div></div><div class='respDivL'><div class='vertical-center'>(E)</div></div><div class='respDivR'><div class='vertical-center'><font style='color:orange'>(I)</font></div></div></div>","null","$49<br><br>now","$60<br>in<br>6 weeks","1","49","60","6",""
"html-keyboard-response","43","302403","0.0-5.0-1.13","63e5ffdf639ebdcf35aacb09","bdp_td","Sun Mar 26 2023 20:29:51 GMT+0200 (Central European Summer Time)","338415","","null","","","","FIX","","<div class='trialBorder'><div class='vertical-center'><img style='vertical-align:center; align:center' src=img/fixation3.jpg></div></div>","null","","","","","","",""
"html-keyboard-response","44","304263","0.0-5.0-2.13","63e5ffdf639ebdcf35aacb09","bdp_td","Sun Mar 26 2023 20:29:51 GMT+0200 (Central European Summer Time)","338415","","1857","","","","offer","","<div class='trialBorder'><div class='vertical-center'><img style='vertical-align:center; align:center' src=img/fixation3.jpg></div><div class='cl'><div class='vertical-center'>$50<br>in<br>6 weeks</div></div><div class='cr'><div class='vertical-center'>$34<br><br>now</div></div><div class='respDivL'><div class='vertical-center'>(E)</div></div><div class='respDivR'><div class='vertical-center'>(I)</div></div></div>","I","$34<br><br>now","$50<br>in<br>6 weeks","1","34","50","6","NOW"
"html-keyboard-response","45","304520","0.0-5.0-3.13","63e5ffdf639ebdcf35aacb09","bdp_td","Sun Mar 26 2023 20:29:51 GMT+0200 (Central European Summer Time)","338415","","null","","","","offerFB","","<div class='trialBorder'><div class='vertical-center'><img style='vertical-align:center; align:center' src=img/fixation3.jpg></div><div class='cl'><div class='vertical-center'>$50<br>in<br>6 weeks</div></div><div class='cr'><div class='vertical-center'><font style='color:orange'>$34<br><br>now</font></div></div><div class='respDivL'><div class='vertical-center'>(E)</div></div><div class='respDivR'><div class='vertical-center'><font style='color:orange'>(I)</font></div></div></div>","null","$34<br><br>now","$50<br>in<br>6 weeks","1","34","50","6",""
"html-keyboard-response","46","305024","0.0-5.0-1.14","63e5ffdf639ebdcf35aacb09","bdp_td","Sun Mar 26 2023 20:29:51 GMT+0200 (Central European Summer Time)","338415","","null","","","","FIX","","<div class='trialBorder'><div class='vertical-center'><img style='vertical-align:center; align:center' src=img/fixation3.jpg></div></div>","null","","","","","","",""
"html-keyboard-response","47","306311","0.0-5.0-2.14","63e5ffdf639ebdcf35aacb09","bdp_td","Sun Mar 26 2023 20:29:51 GMT+0200 (Central European Summer Time)","338415","","1283","","","","offer","","<div class='trialBorder'><div class='vertical-center'><img style='vertical-align:center; align:center' src=img/fixation3.jpg></div><div class='cl'><div class='vertical-center'>$85<br>in<br>1 week</div></div><div class='cr'><div class='vertical-center'>$31<br><br>now</div></div><div class='respDivL'><div class='vertical-center'>(E)</div></div><div class='respDivR'><div class='vertical-center'>(I)</div></div></div>","E","$31<br><br>now","$85<br>in<br>1 week","1","31","85","1","THEN"
"html-keyboard-response","48","306566","0.0-5.0-3.14","63e5ffdf639ebdcf35aacb09","bdp_td","Sun Mar 26 2023 20:29:51 GMT+0200 (Central European Summer Time)","338415","","null","","","","offerFB","","<div class='trialBorder'><div class='vertical-center'><img style='vertical-align:center; align:center' src=img/fixation3.jpg></div><div class='cl'><div class='vertical-center'><font style='color:orange'>$85<br>in<br>1 week</font></div></div><div class='cr'><div class='vertical-center'>$31<br><br>now</div></div><div class='respDivL'><div class='vertical-center'><font style='color:orange'>(E)</font></div></div><div class='respDivR'><div class='vertical-center'>(I)</div></div></div>","null","$31<br><br>now","$85<br>in<br>1 week","1","31","85","1",""
"html-keyboard-response","49","307068","0.0-5.0-1.15","63e5ffdf639ebdcf35aacb09","bdp_td","Sun Mar 26 2023 20:29:51 GMT+0200 (Central European Summer Time)","338415","","null","","","","FIX","","<div class='trialBorder'><div class='vertical-center'><img style='vertical-align:center; align:center' src=img/fixation3.jpg></div></div>","null","","","","","","",""
"html-keyboard-response","50","308686","0.0-5.0-2.15","63e5ffdf639ebdcf35aacb09","bdp_td","Sun Mar 26 2023 20:29:51 GMT+0200 (Central European Summer Time)","338415","","1615","","","","offer","","<div class='trialBorder'><div class='vertical-center'><img style='vertical-align:center; align:center' src=img/fixation3.jpg></div><div class='cl'><div class='vertical-center'>$14<br><br>now</div></div><div class='cr'><div class='vertical-center'>$25<br>in<br>3 weeks</div></div><div class='respDivL'><div class='vertical-center'>(E)</div></div><div class='respDivR'><div class='vertical-center'>(I)</div></div></div>","I","$14<br><br>now","$25<br>in<br>3 weeks","0","14","25","3","THEN"
"html-keyboard-response","51","308940","0.0-5.0-3.15","63e5ffdf639ebdcf35aacb09","bdp_td","Sun Mar 26 2023 20:29:51 GMT+0200 (Central European Summer Time)","338415","","null","","","","offerFB","","<div class='trialBorder'><div class='vertical-center'><img style='vertical-align:center; align:center' src=img/fixation3.jpg></div><div class='cl'><div class='vertical-center'>$14<br><br>now</div></div><div class='cr'><div class='vertical-center'><font style='color:orange'>$25<br>in<br>3 weeks</font></div></div><div class='respDivL'><div class='vertical-center'>(E)</div></div><div class='respDivR'><div class='vertical-center'><font style='color:orange'>(I)</font></div></div></div>","null","$14<br><br>now","$25<br>in<br>3 weeks","0","14","25","3",""
"html-keyboard-response","52","309443","0.0-5.0-1.16","63e5ffdf639ebdcf35aacb09","bdp_td","Sun Mar 26 2023 20:29:51 GMT+0200 (Central European Summer Time)","338415","","null","","","","FIX","","<div class='trialBorder'><div class='vertical-center'><img style='vertical-align:center; align:center' src=img/fixation3.jpg></div></div>","null","","","","","","",""
"html-keyboard-response","53","311222","0.0-5.0-2.16","63e5ffdf639ebdcf35aacb09","bdp_td","Sun Mar 26 2023 20:29:51 GMT+0200 (Central European Summer Time)","338415","","1777","","","","offer","","<div class='trialBorder'><div class='vertical-center'><img style='vertical-align:center; align:center' src=img/fixation3.jpg></div><div class='cl'><div class='vertical-center'>$28<br><br>now</div></div><div class='cr'><div class='vertical-center'>$30<br>in<br>12 weeks</div></div><div class='respDivL'><div class='vertical-center'>(E)</div></div><div class='respDivR'><div class='vertical-center'>(I)</div></div></div>","E","$28<br><br>now","$30<br>in<br>12 weeks","0","28","30","12","NOW"
"html-keyboard-response","54","311475","0.0-5.0-3.16","63e5ffdf639ebdcf35aacb09","bdp_td","Sun Mar 26 2023 20:29:51 GMT+0200 (Central European Summer Time)","338415","","null","","","","offerFB","","<div class='trialBorder'><div class='vertical-center'><img style='vertical-align:center; align:center' src=img/fixation3.jpg></div><div class='cl'><div class='vertical-center'><font style='color:orange'>$28<br><br>now</font></div></div><div class='cr'><div class='vertical-center'>$30<br>in<br>12 weeks</div></div><div class='respDivL'><div class='vertical-center'><font style='color:orange'>(E)</font></div></div><div class='respDivR'><div class='vertical-center'>(I)</div></div></div>","null","$28<br><br>now","$30<br>in<br>12 weeks","0","28","30","12",""
"html-keyboard-response","55","311978","0.0-5.0-1.17","63e5ffdf639ebdcf35aacb09","bdp_td","Sun Mar 26 2023 20:29:51 GMT+0200 (Central European Summer Time)","338415","","null","","","","FIX","","<div class='trialBorder'><div class='vertical-center'><img style='vertical-align:center; align:center' src=img/fixation3.jpg></div></div>","null","","","","","","",""
"html-keyboard-response","56","313686","0.0-5.0-2.17","63e5ffdf639ebdcf35aacb09","bdp_td","Sun Mar 26 2023 20:29:51 GMT+0200 (Central European Summer Time)","338415","","1706","","","","offer","","<div class='trialBorder'><div class='vertical-center'><img style='vertical-align:center; align:center' src=img/fixation3.jpg></div><div class='cl'><div class='vertical-center'>$50<br>in<br>12 weeks</div></div><div class='cr'><div class='vertical-center'>$47<br><br>now</div></div><div class='respDivL'><div class='vertical-center'>(E)</div></div><div class='respDivR'><div class='vertical-center'>(I)</div></div></div>","I","$47<br><br>now","$50<br>in<br>12 weeks","1","47","50","12","NOW"
"html-keyboard-response","57","313940","0.0-5.0-3.17","63e5ffdf639ebdcf35aacb09","bdp_td","Sun Mar 26 2023 20:29:51 GMT+0200 (Central European Summer Time)","338415","","null","","","","offerFB","","<div class='trialBorder'><div class='vertical-center'><img style='vertical-align:center; align:center' src=img/fixation3.jpg></div><div class='cl'><div class='vertical-center'>$50<br>in<br>12 weeks</div></div><div class='cr'><div class='vertical-center'><font style='color:orange'>$47<br><br>now</font></div></div><div class='respDivL'><div class='vertical-center'>(E)</div></div><div class='respDivR'><div class='vertical-center'><font style='color:orange'>(I)</font></div></div></div>","null","$47<br><br>now","$50<br>in<br>12 weeks","1","47","50","12",""
"html-keyboard-response","58","314442","0.0-5.0-1.18","63e5ffdf639ebdcf35aacb09","bdp_td","Sun Mar 26 2023 20:29:51 GMT+0200 (Central European Summer Time)","338415","","null","","","","FIX","","<div class='trialBorder'><div class='vertical-center'><img style='vertical-align:center; align:center' src=img/fixation3.jpg></div></div>","null","","","","","","",""
"html-keyboard-response","59","316399","0.0-5.0-2.18","63e5ffdf639ebdcf35aacb09","bdp_td","Sun Mar 26 2023 20:29:51 GMT+0200 (Central European Summer Time)","338415","","1954","","","","offer","","<div class='trialBorder'><div class='vertical-center'><img style='vertical-align:center; align:center' src=img/fixation3.jpg></div><div class='cl'><div class='vertical-center'>$41<br><br>now</div></div><div class='cr'><div class='vertical-center'>$75<br>in<br>3 weeks</div></div><div class='respDivL'><div class='vertical-center'>(E)</div></div><div class='respDivR'><div class='vertical-center'>(I)</div></div></div>","I","$41<br><br>now","$75<br>in<br>3 weeks","0","41","75","3","THEN"
"html-keyboard-response","60","316653","0.0-5.0-3.18","63e5ffdf639ebdcf35aacb09","bdp_td","Sun Mar 26 2023 20:29:51 GMT+0200 (Central European Summer Time)","338415","","null","","","","offerFB","","<div class='trialBorder'><div class='vertical-center'><img style='vertical-align:center; align:center' src=img/fixation3.jpg></div><div class='cl'><div class='vertical-center'>$41<br><br>now</div></div><div class='cr'><div class='vertical-center'><font style='color:orange'>$75<br>in<br>3 weeks</font></div></div><div class='respDivL'><div class='vertical-center'>(E)</div></div><div class='respDivR'><div class='vertical-center'><font style='color:orange'>(I)</font></div></div></div>","null","$41<br><br>now","$75<br>in<br>3 weeks","0","41","75","3",""
"html-keyboard-response","61","317155","0.0-5.0-1.19","63e5ffdf639ebdcf35aacb09","bdp_td","Sun Mar 26 2023 20:29:51 GMT+0200 (Central European Summer Time)","338415","","null","","","","FIX","","<div class='trialBorder'><div class='vertical-center'><img style='vertical-align:center; align:center' src=img/fixation3.jpg></div></div>","null","","","","","","",""
"html-keyboard-response","62","319248","0.0-5.0-2.19","63e5ffdf639ebdcf35aacb09","bdp_td","Sun Mar 26 2023 20:29:51 GMT+0200 (Central European Summer Time)","338415","","2090","","","","offer","","<div class='trialBorder'><div class='vertical-center'><img style='vertical-align:center; align:center' src=img/fixation3.jpg></div><div class='cl'><div class='vertical-center'>$24<br><br>now</div></div><div class='cr'><div class='vertical-center'>$35<br>in<br>3 weeks</div></div><div class='respDivL'><div class='vertical-center'>(E)</div></div><div class='respDivR'><div class='vertical-center'>(I)</div></div></div>","E","$24<br><br>now","$35<br>in<br>3 weeks","0","24","35","3","NOW"
"html-keyboard-response","63","319502","0.0-5.0-3.19","63e5ffdf639ebdcf35aacb09","bdp_td","Sun Mar 26 2023 20:29:51 GMT+0200 (Central European Summer Time)","338415","","null","","","","offerFB","","<div class='trialBorder'><div class='vertical-center'><img style='vertical-align:center; align:center' src=img/fixation3.jpg></div><div class='cl'><div class='vertical-center'><font style='color:orange'>$24<br><br>now</font></div></div><div class='cr'><div class='vertical-center'>$35<br>in<br>3 weeks</div></div><div class='respDivL'><div class='vertical-center'><font style='color:orange'>(E)</font></div></div><div class='respDivR'><div class='vertical-center'>(I)</div></div></div>","null","$24<br><br>now","$35<br>in<br>3 weeks","0","24","35","3",""
"html-keyboard-response","64","320005","0.0-5.0-1.20","63e5ffdf639ebdcf35aacb09","bdp_td","Sun Mar 26 2023 20:29:51 GMT+0200 (Central European Summer Time)","338415","","null","","","","FIX","","<div class='trialBorder'><div class='vertical-center'><img style='vertical-align:center; align:center' src=img/fixation3.jpg></div></div>","null","","","","","","",""
"html-keyboard-response","65","321910","0.0-5.0-2.20","63e5ffdf639ebdcf35aacb09","bdp_td","Sun Mar 26 2023 20:29:51 GMT+0200 (Central European Summer Time)","338415","","1903","","","","offer","","<div class='trialBorder'><div class='vertical-center'><img style='vertical-align:center; align:center' src=img/fixation3.jpg></div><div class='cl'><div class='vertical-center'>$15<br><br>now</div></div><div class='cr'><div class='vertical-center'>$35<br>in<br>2 weeks</div></div><div class='respDivL'><div class='vertical-center'>(E)</div></div><div class='respDivR'><div class='vertical-center'>(I)</div></div></div>","I","$15<br><br>now","$35<br>in<br>2 weeks","0","15","35","2","THEN"
"html-keyboard-response","66","322164","0.0-5.0-3.20","63e5ffdf639ebdcf35aacb09","bdp_td","Sun Mar 26 2023 20:29:51 GMT+0200 (Central European Summer Time)","338415","","null","","","","offerFB","","<div class='trialBorder'><div class='vertical-center'><img style='vertical-align:center; align:center' src=img/fixation3.jpg></div><div class='cl'><div class='vertical-center'>$15<br><br>now</div></div><div class='cr'><div class='vertical-center'><font style='color:orange'>$35<br>in<br>2 weeks</font></div></div><div class='respDivL'><div class='vertical-center'>(E)</div></div><div class='respDivR'><div class='vertical-center'><font style='color:orange'>(I)</font></div></div></div>","null","$15<br><br>now","$35<br>in<br>2 weeks","0","15","35","2",""
"html-keyboard-response","67","322666","0.0-5.0-1.21","63e5ffdf639ebdcf35aacb09","bdp_td","Sun Mar 26 2023 20:29:51 GMT+0200 (Central European Summer Time)","338415","","null","","","","FIX","","<div class='trialBorder'><div class='vertical-center'><img style='vertical-align:center; align:center' src=img/fixation3.jpg></div></div>","null","","","","","","",""
"html-keyboard-response","68","323982","0.0-5.0-2.21","63e5ffdf639ebdcf35aacb09","bdp_td","Sun Mar 26 2023 20:29:51 GMT+0200 (Central European Summer Time)","338415","","1314","","","","offer","","<div class='trialBorder'><div class='vertical-center'><img style='vertical-align:center; align:center' src=img/fixation3.jpg></div><div class='cl'><div class='vertical-center'>$55<br>in<br>1 week</div></div><div class='cr'><div class='vertical-center'>$20<br><br>now</div></div><div class='respDivL'><div class='vertical-center'>(E)</div></div><div class='respDivR'><div class='vertical-center'>(I)</div></div></div>","E","$20<br><br>now","$55<br>in<br>1 week","1","20","55","1","THEN"
"html-keyboard-response","69","324235","0.0-5.0-3.21","63e5ffdf639ebdcf35aacb09","bdp_td","Sun Mar 26 2023 20:29:51 GMT+0200 (Central European Summer Time)","338415","","null","","","","offerFB","","<div class='trialBorder'><div class='vertical-center'><img style='vertical-align:center; align:center' src=img/fixation3.jpg></div><div class='cl'><div class='vertical-center'><font style='color:orange'>$55<br>in<br>1 week</font></div></div><div class='cr'><div class='vertical-center'>$20<br><br>now</div></div><div class='respDivL'><div class='vertical-center'><font style='color:orange'>(E)</font></div></div><div class='respDivR'><div class='vertical-center'>(I)</div></div></div>","null","$20<br><br>now","$55<br>in<br>1 week","1","20","55","1",""
"html-keyboard-response","70","324739","0.0-5.0-1.22","63e5ffdf639ebdcf35aacb09","bdp_td","Sun Mar 26 2023 20:29:51 GMT+0200 (Central European Summer Time)","338415","","null","","","","FIX","","<div class='trialBorder'><div class='vertical-center'><img style='vertical-align:center; align:center' src=img/fixation3.jpg></div></div>","null","","","","","","",""
"html-keyboard-response","71","326871","0.0-5.0-2.22","63e5ffdf639ebdcf35aacb09","bdp_td","Sun Mar 26 2023 20:29:51 GMT+0200 (Central European Summer Time)","338415","","2130","","","","offer","","<div class='trialBorder'><div class='vertical-center'><img style='vertical-align:center; align:center' src=img/fixation3.jpg></div><div class='cl'><div class='vertical-center'>$40<br><br>now</div></div><div class='cr'><div class='vertical-center'>$55<br>in<br>6 weeks</div></div><div class='respDivL'><div class='vertical-center'>(E)</div></div><div class='respDivR'><div class='vertical-center'>(I)</div></div></div>","E","$40<br><br>now","$55<br>in<br>6 weeks","0","40","55","6","NOW"
"html-keyboard-response","72","327124","0.0-5.0-3.22","63e5ffdf639ebdcf35aacb09","bdp_td","Sun Mar 26 2023 20:29:51 GMT+0200 (Central European Summer Time)","338415","","null","","","","offerFB","","<div class='trialBorder'><div class='vertical-center'><img style='vertical-align:center; align:center' src=img/fixation3.jpg></div><div class='cl'><div class='vertical-center'><font style='color:orange'>$40<br><br>now</font></div></div><div class='cr'><div class='vertical-center'>$55<br>in<br>6 weeks</div></div><div class='respDivL'><div class='vertical-center'><font style='color:orange'>(E)</font></div></div><div class='respDivR'><div class='vertical-center'>(I)</div></div></div>","null","$40<br><br>now","$55<br>in<br>6 weeks","0","40","55","6",""
"html-keyboard-response","73","327627","0.0-5.0-1.23","63e5ffdf639ebdcf35aacb09","bdp_td","Sun Mar 26 2023 20:29:51 GMT+0200 (Central European Summer Time)","338415","","null","","","","FIX","","<div class='trialBorder'><div class='vertical-center'><img style='vertical-align:center; align:center' src=img/fixation3.jpg></div></div>","null","","","","","","",""
"html-keyboard-response","74","330319","0.0-5.0-2.23","63e5ffdf639ebdcf35aacb09","bdp_td","Sun Mar 26 2023 20:29:51 GMT+0200 (Central European Summer Time)","338415","","2690","","","","offer","","<div class='trialBorder'><div class='vertical-center'><img style='vertical-align:center; align:center' src=img/fixation3.jpg></div><div class='cl'><div class='vertical-center'>$25<br>in<br>12 weeks</div></div><div class='cr'><div class='vertical-center'>$22<br><br>now</div></div><div class='respDivL'><div class='vertical-center'>(E)</div></div><div class='respDivR'><div class='vertical-center'>(I)</div></div></div>","I","$22<br><br>now","$25<br>in<br>12 weeks","1","22","25","12","NOW"
"html-keyboard-response","75","330573","0.0-5.0-3.23","63e5ffdf639ebdcf35aacb09","bdp_td","Sun Mar 26 2023 20:29:51 GMT+0200 (Central European Summer Time)","338415","","null","","","","offerFB","","<div class='trialBorder'><div class='vertical-center'><img style='vertical-align:center; align:center' src=img/fixation3.jpg></div><div class='cl'><div class='vertical-center'>$25<br>in<br>12 weeks</div></div><div class='cr'><div class='vertical-center'><font style='color:orange'>$22<br><br>now</font></div></div><div class='respDivL'><div class='vertical-center'>(E)</div></div><div class='respDivR'><div class='vertical-center'><font style='color:orange'>(I)</font></div></div></div>","null","$22<br><br>now","$25<br>in<br>12 weeks","1","22","25","12",""
"html-keyboard-response","76","331076","0.0-5.0-1.24","63e5ffdf639ebdcf35aacb09","bdp_td","Sun Mar 26 2023 20:29:51 GMT+0200 (Central European Summer Time)","338415","","null","","","","FIX","","<div class='trialBorder'><div class='vertical-center'><img style='vertical-align:center; align:center' src=img/fixation3.jpg></div></div>","null","","","","","","",""
"html-keyboard-response","77","332527","0.0-5.0-2.24","63e5ffdf639ebdcf35aacb09","bdp_td","Sun Mar 26 2023 20:29:51 GMT+0200 (Central European Summer Time)","338415","","1449","","","","offer","","<div class='trialBorder'><div class='vertical-center'><img style='vertical-align:center; align:center' src=img/fixation3.jpg></div><div class='cl'><div class='vertical-center'>$54<br><br>now</div></div><div class='cr'><div class='vertical-center'>$80<br>in<br>3 weeks</div></div><div class='respDivL'><div class='vertical-center'>(E)</div></div><div class='respDivR'><div class='vertical-center'>(I)</div></div></div>","I","$54<br><br>now","$80<br>in<br>3 weeks","0","54","80","3","THEN"
"html-keyboard-response","78","332780","0.0-5.0-3.24","63e5ffdf639ebdcf35aacb09","bdp_td","Sun Mar 26 2023 20:29:51 GMT+0200 (Central European Summer Time)","338415","","null","","","","offerFB","","<div class='trialBorder'><div class='vertical-center'><img style='vertical-align:center; align:center' src=img/fixation3.jpg></div><div class='cl'><div class='vertical-center'>$54<br><br>now</div></div><div class='cr'><div class='vertical-center'><font style='color:orange'>$80<br>in<br>3 weeks</font></div></div><div class='respDivL'><div class='vertical-center'>(E)</div></div><div class='respDivR'><div class='vertical-center'><font style='color:orange'>(I)</font></div></div></div>","null","$54<br><br>now","$80<br>in<br>3 weeks","0","54","80","3",""
"html-keyboard-response","79","333283","0.0-5.0-1.25","63e5ffdf639ebdcf35aacb09","bdp_td","Sun Mar 26 2023 20:29:51 GMT+0200 (Central European Summer Time)","338415","","null","","","","FIX","","<div class='trialBorder'><div class='vertical-center'><img style='vertical-align:center; align:center' src=img/fixation3.jpg></div></div>","null","","","","","","",""
"html-keyboard-response","80","334511","0.0-5.0-2.25","63e5ffdf639ebdcf35aacb09","bdp_td","Sun Mar 26 2023 20:29:51 GMT+0200 (Central European Summer Time)","338415","","1225","","","","offer","","<div class='trialBorder'><div class='vertical-center'><img style='vertical-align:center; align:center' src=img/fixation3.jpg></div><div class='cl'><div class='vertical-center'>$75<br>in<br>6 weeks</div></div><div class='cr'><div class='vertical-center'>$55<br><br>now</div></div><div class='respDivL'><div class='vertical-center'>(E)</div></div><div class='respDivR'><div class='vertical-center'>(I)</div></div></div>","I","$55<br><br>now","$75<br>in<br>6 weeks","1","55","75","6","NOW"
"html-keyboard-response","81","334764","0.0-5.0-3.25","63e5ffdf639ebdcf35aacb09","bdp_td","Sun Mar 26 2023 20:29:51 GMT+0200 (Central European Summer Time)","338415","","null","","","","offerFB","","<div class='trialBorder'><div class='vertical-center'><img style='vertical-align:center; align:center' src=img/fixation3.jpg></div><div class='cl'><div class='vertical-center'>$75<br>in<br>6 weeks</div></div><div class='cr'><div class='vertical-center'><font style='color:orange'>$55<br><br>now</font></div></div><div class='respDivL'><div class='vertical-center'>(E)</div></div><div class='respDivR'><div class='vertical-center'><font style='color:orange'>(I)</font></div></div></div>","null","$55<br><br>now","$75<br>in<br>6 weeks","1","55","75","6",""
"html-keyboard-response","82","335267","0.0-5.0-1.26","63e5ffdf639ebdcf35aacb09","bdp_td","Sun Mar 26 2023 20:29:51 GMT+0200 (Central European Summer Time)","338415","","null","","","","FIX","","<div class='trialBorder'><div class='vertical-center'><img style='vertical-align:center; align:center' src=img/fixation3.jpg></div></div>","null","","","","","","",""
"html-keyboard-response","83","337159","0.0-5.0-2.26","63e5ffdf639ebdcf35aacb09","bdp_td","Sun Mar 26 2023 20:29:51 GMT+0200 (Central European Summer Time)","338415","","1890","","","","offer","","<div class='trialBorder'><div class='vertical-center'><img style='vertical-align:center; align:center' src=img/fixation3.jpg></div><div class='cl'><div class='vertical-center'>$35<br>in<br>12 weeks</div></div><div class='cr'><div class='vertical-center'>$34<br><br>now</div></div><div class='respDivL'><div class='vertical-center'>(E)</div></div><div class='respDivR'><div class='vertical-center'>(I)</div></div></div>","I","$34<br><br>now","$35<br>in<br>12 weeks","1","34","35","12","NOW"
"html-keyboard-response","84","337413","0.0-5.0-3.26","63e5ffdf639ebdcf35aacb09","bdp_td","Sun Mar 26 2023 20:29:51 GMT+0200 (Central European Summer Time)","338415","","null","","","","offerFB","","<div class='trialBorder'><div class='vertical-center'><img style='vertical-align:center; align:center' src=img/fixation3.jpg></div><div class='cl'><div class='vertical-center'>$35<br>in<br>12 weeks</div></div><div class='cr'><div class='vertical-center'><font style='color:orange'>$34<br><br>now</font></div></div><div class='respDivL'><div class='vertical-center'>(E)</div></div><div class='respDivR'><div class='vertical-center'><font style='color:orange'>(I)</font></div></div></div>","null","$34<br><br>now","$35<br>in<br>12 weeks","1","34","35","12",""
"","","","","63e5ffdf639ebdcf35aacb09","bdp_td","Sun Mar 26 2023 20:29:51 GMT+0200 (Central European Summer Time)","338415","","","fullscreenexit","85","337449","fullscreenexit","","","","","","","","","",""
"fullscreen","85","338415","0.0-6.0","63e5ffdf639ebdcf35aacb09","bdp_td","Sun Mar 26 2023 20:29:51 GMT+0200 (Central European Summer Time)","338415","","","","","","","true","","","","","","","","",""
"html-keyboard-response","86","338917","0.0-7.0","","","","","","null","","","","","","","null","","","","","","",""
