"trial_type","trial_index","time_elapsed","internal_node_id","subject_id","task","startTime","totalTime","view_history","rt","event","trial","time","trialtype","success","stimulus","key_press","nowOffer","thenOffer","thenLeft","nowAmt","thenAmt","thenWeeks","chosen"
"pavlovia","0","10","0.0-0.0","5ede9b80b8a141131edabbe1","bdp_td","Wed Mar 29 2023 19:54:28 GMT-0700 (Pacific Daylight Time)","112010","","","","","","","","","","","","","","","",""
"instructions","1","2469","0.0-1.0","5ede9b80b8a141131edabbe1","bdp_td","Wed Mar 29 2023 19:54:28 GMT-0700 (Pacific Daylight Time)","112010","[{""page_index"":0,""viewing_time"":2457}]","2458","","","","","","","","","","","","","",""
"","","","","5ede9b80b8a141131edabbe1","bdp_td","Wed Mar 29 2023 19:54:28 GMT-0700 (Pacific Daylight Time)","112010","","","fullscreenenter","2","5789","fullscreenenter","","","","","","","","","",""
"fullscreen","2","6748","0.0-2.0","5ede9b80b8a141131edabbe1","bdp_td","Wed Mar 29 2023 19:54:28 GMT-0700 (Pacific Daylight Time)","112010","","","","","","","true","","","","","","","","",""
"instructions","3","50239","0.0-4.0","5ede9b80b8a141131edabbe1","bdp_td","Wed Mar 29 2023 19:54:28 GMT-0700 (Pacific Daylight Time)","112010","[{""page_index"":0,""viewing_time"":8743},{""page_index"":1,""viewing_time"":28420},{""page_index"":2,""viewing_time"":6324}]","43488","","","","","","","","","","","","","",""
"html-keyboard-response","4","50748","0.0-5.0-1.0","5ede9b80b8a141131edabbe1","bdp_td","Wed Mar 29 2023 19:54:28 GMT-0700 (Pacific Daylight Time)","112010","","null","","","","FIX","","<div class='trialBorder'><div class='vertical-center'><img style='vertical-align:center; align:center' src=img/fixation3.jpg></div></div>","null","","","","","","",""
"html-keyboard-response","5","52172","0.0-5.0-2.0","5ede9b80b8a141131edabbe1","bdp_td","Wed Mar 29 2023 19:54:28 GMT-0700 (Pacific Daylight Time)","112010","","1419","","","","offer","","<div class='trialBorder'><div class='vertical-center'><img style='vertical-align:center; align:center' src=img/fixation3.jpg></div><div class='cl'><div class='vertical-center'>$50<br>in<br>12 weeks</div></div><div class='cr'><div class='vertical-center'>$47<br><br>now</div></div><div class='respDivL'><div class='vertical-center'>(E)</div></div><div class='respDivR'><div class='vertical-center'>(I)</div></div></div>","I","$47<br><br>now","$50<br>in<br>12 weeks","1","47","50","12","NOW"
"html-keyboard-response","6","52456","0.0-5.0-3.0","5ede9b80b8a141131edabbe1","bdp_td","Wed Mar 29 2023 19:54:28 GMT-0700 (Pacific Daylight Time)","112010","","null","","","","offerFB","","<div class='trialBorder'><div class='vertical-center'><img style='vertical-align:center; align:center' src=img/fixation3.jpg></div><div class='cl'><div class='vertical-center'>$50<br>in<br>12 weeks</div></div><div class='cr'><div class='vertical-center'><font style='color:orange'>$47<br><br>now</font></div></div><div class='respDivL'><div class='vertical-center'>(E)</div></div><div class='respDivR'><div class='vertical-center'><font style='color:orange'>(I)</font></div></div></div>","null","$47<br><br>now","$50<br>in<br>12 weeks","1","47","50","12",""
"html-keyboard-response","7","52961","0.0-5.0-1.1","5ede9b80b8a141131edabbe1","bdp_td","Wed Mar 29 2023 19:54:28 GMT-0700 (Pacific Daylight Time)","112010","","null","","","","FIX","","<div class='trialBorder'><div class='vertical-center'><img style='vertical-align:center; align:center' src=img/fixation3.jpg></div></div>","null","","","","","","",""
"html-keyboard-response","8","54710","0.0-5.0-2.1","5ede9b80b8a141131edabbe1","bdp_td","Wed Mar 29 2023 19:54:28 GMT-0700 (Pacific Daylight Time)","112010","","1745","","","","offer","","<div class='trialBorder'><div class='vertical-center'><img style='vertical-align:center; align:center' src=img/fixation3.jpg></div><div class='cl'><div class='vertical-center'>$75<br>in<br>3 weeks</div></div><div class='cr'><div class='vertical-center'>$41<br><br>now</div></div><div class='respDivL'><div class='vertical-center'>(E)</div></div><div class='respDivR'><div class='vertical-center'>(I)</div></div></div>","E","$41<br><br>now","$75<br>in<br>3 weeks","1","41","75","3","THEN"
"html-keyboard-response","9","54965","0.0-5.0-3.1","5ede9b80b8a141131edabbe1","bdp_td","Wed Mar 29 2023 19:54:28 GMT-0700 (Pacific Daylight Time)","112010","","null","","","","offerFB","","<div class='trialBorder'><div class='vertical-center'><img style='vertical-align:center; align:center' src=img/fixation3.jpg></div><div class='cl'><div class='vertical-center'><font style='color:orange'>$75<br>in<br>3 weeks</font></div></div><div class='cr'><div class='vertical-center'>$41<br><br>now</div></div><div class='respDivL'><div class='vertical-center'><font style='color:orange'>(E)</font></div></div><div class='respDivR'><div class='vertical-center'>(I)</div></div></div>","null","$41<br><br>now","$75<br>in<br>3 weeks","1","41","75","3",""
"html-keyboard-response","10","55469","0.0-5.0-1.2","5ede9b80b8a141131edabbe1","bdp_td","Wed Mar 29 2023 19:54:28 GMT-0700 (Pacific Daylight Time)","112010","","null","","","","FIX","","<div class='trialBorder'><div class='vertical-center'><img style='vertical-align:center; align:center' src=img/fixation3.jpg></div></div>","null","","","","","","",""
"html-keyboard-response","11","56678","0.0-5.0-2.2","5ede9b80b8a141131edabbe1","bdp_td","Wed Mar 29 2023 19:54:28 GMT-0700 (Pacific Daylight Time)","112010","","1205","","","","offer","","<div class='trialBorder'><div class='vertical-center'><img style='vertical-align:center; align:center' src=img/fixation3.jpg></div><div class='cl'><div class='vertical-center'>$85<br>in<br>12 weeks</div></div><div class='cr'><div class='vertical-center'>$80<br><br>now</div></div><div class='respDivL'><div class='vertical-center'>(E)</div></div><div class='respDivR'><div class='vertical-center'>(I)</div></div></div>","I","$80<br><br>now","$85<br>in<br>12 weeks","1","80","85","12","NOW"
"html-keyboard-response","12","56933","0.0-5.0-3.2","5ede9b80b8a141131edabbe1","bdp_td","Wed Mar 29 2023 19:54:28 GMT-0700 (Pacific Daylight Time)","112010","","null","","","","offerFB","","<div class='trialBorder'><div class='vertical-center'><img style='vertical-align:center; align:center' src=img/fixation3.jpg></div><div class='cl'><div class='vertical-center'>$85<br>in<br>12 weeks</div></div><div class='cr'><div class='vertical-center'><font style='color:orange'>$80<br><br>now</font></div></div><div class='respDivL'><div class='vertical-center'>(E)</div></div><div class='respDivR'><div class='vertical-center'><font style='color:orange'>(I)</font></div></div></div>","null","$80<br><br>now","$85<br>in<br>12 weeks","1","80","85","12",""
"html-keyboard-response","13","57437","0.0-5.0-1.3","5ede9b80b8a141131edabbe1","bdp_td","Wed Mar 29 2023 19:54:28 GMT-0700 (Pacific Daylight Time)","112010","","null","","","","FIX","","<div class='trialBorder'><div class='vertical-center'><img style='vertical-align:center; align:center' src=img/fixation3.jpg></div></div>","null","","","","","","",""
"html-keyboard-response","14","58866","0.0-5.0-2.3","5ede9b80b8a141131edabbe1","bdp_td","Wed Mar 29 2023 19:54:28 GMT-0700 (Pacific Daylight Time)","112010","","1425","","","","offer","","<div class='trialBorder'><div class='vertical-center'><img style='vertical-align:center; align:center' src=img/fixation3.jpg></div><div class='cl'><div class='vertical-center'>$80<br>in<br>12 weeks</div></div><div class='cr'><div class='vertical-center'>$78<br><br>now</div></div><div class='respDivL'><div class='vertical-center'>(E)</div></div><div class='respDivR'><div class='vertical-center'>(I)</div></div></div>","I","$78<br><br>now","$80<br>in<br>12 weeks","1","78","80","12","NOW"
"html-keyboard-response","15","59120","0.0-5.0-3.3","5ede9b80b8a141131edabbe1","bdp_td","Wed Mar 29 2023 19:54:28 GMT-0700 (Pacific Daylight Time)","112010","","null","","","","offerFB","","<div class='trialBorder'><div class='vertical-center'><img style='vertical-align:center; align:center' src=img/fixation3.jpg></div><div class='cl'><div class='vertical-center'>$80<br>in<br>12 weeks</div></div><div class='cr'><div class='vertical-center'><font style='color:orange'>$78<br><br>now</font></div></div><div class='respDivL'><div class='vertical-center'>(E)</div></div><div class='respDivR'><div class='vertical-center'><font style='color:orange'>(I)</font></div></div></div>","null","$78<br><br>now","$80<br>in<br>12 weeks","1","78","80","12",""
"html-keyboard-response","16","59625","0.0-5.0-1.4","5ede9b80b8a141131edabbe1","bdp_td","Wed Mar 29 2023 19:54:28 GMT-0700 (Pacific Daylight Time)","112010","","null","","","","FIX","","<div class='trialBorder'><div class='vertical-center'><img style='vertical-align:center; align:center' src=img/fixation3.jpg></div></div>","null","","","","","","",""
"html-keyboard-response","17","61364","0.0-5.0-2.4","5ede9b80b8a141131edabbe1","bdp_td","Wed Mar 29 2023 19:54:28 GMT-0700 (Pacific Daylight Time)","112010","","1735","","","","offer","","<div class='trialBorder'><div class='vertical-center'><img style='vertical-align:center; align:center' src=img/fixation3.jpg></div><div class='cl'><div class='vertical-center'>$15<br><br>now</div></div><div class='cr'><div class='vertical-center'>$35<br>in<br>2 weeks</div></div><div class='respDivL'><div class='vertical-center'>(E)</div></div><div class='respDivR'><div class='vertical-center'>(I)</div></div></div>","I","$15<br><br>now","$35<br>in<br>2 weeks","0","15","35","2","THEN"
"html-keyboard-response","18","61619","0.0-5.0-3.4","5ede9b80b8a141131edabbe1","bdp_td","Wed Mar 29 2023 19:54:28 GMT-0700 (Pacific Daylight Time)","112010","","null","","","","offerFB","","<div class='trialBorder'><div class='vertical-center'><img style='vertical-align:center; align:center' src=img/fixation3.jpg></div><div class='cl'><div class='vertical-center'>$15<br><br>now</div></div><div class='cr'><div class='vertical-center'><font style='color:orange'>$35<br>in<br>2 weeks</font></div></div><div class='respDivL'><div class='vertical-center'>(E)</div></div><div class='respDivR'><div class='vertical-center'><font style='color:orange'>(I)</font></div></div></div>","null","$15<br><br>now","$35<br>in<br>2 weeks","0","15","35","2",""
"html-keyboard-response","19","62122","0.0-5.0-1.5","5ede9b80b8a141131edabbe1","bdp_td","Wed Mar 29 2023 19:54:28 GMT-0700 (Pacific Daylight Time)","112010","","null","","","","FIX","","<div class='trialBorder'><div class='vertical-center'><img style='vertical-align:center; align:center' src=img/fixation3.jpg></div></div>","null","","","","","","",""
"html-keyboard-response","20","63763","0.0-5.0-2.5","5ede9b80b8a141131edabbe1","bdp_td","Wed Mar 29 2023 19:54:28 GMT-0700 (Pacific Daylight Time)","112010","","1636","","","","offer","","<div class='trialBorder'><div class='vertical-center'><img style='vertical-align:center; align:center' src=img/fixation3.jpg></div><div class='cl'><div class='vertical-center'>$25<br>in<br>3 weeks</div></div><div class='cr'><div class='vertical-center'>$14<br><br>now</div></div><div class='respDivL'><div class='vertical-center'>(E)</div></div><div class='respDivR'><div class='vertical-center'>(I)</div></div></div>","I","$14<br><br>now","$25<br>in<br>3 weeks","1","14","25","3","NOW"
"html-keyboard-response","21","64018","0.0-5.0-3.5","5ede9b80b8a141131edabbe1","bdp_td","Wed Mar 29 2023 19:54:28 GMT-0700 (Pacific Daylight Time)","112010","","null","","","","offerFB","","<div class='trialBorder'><div class='vertical-center'><img style='vertical-align:center; align:center' src=img/fixation3.jpg></div><div class='cl'><div class='vertical-center'>$25<br>in<br>3 weeks</div></div><div class='cr'><div class='vertical-center'><font style='color:orange'>$14<br><br>now</font></div></div><div class='respDivL'><div class='vertical-center'>(E)</div></div><div class='respDivR'><div class='vertical-center'><font style='color:orange'>(I)</font></div></div></div>","null","$14<br><br>now","$25<br>in<br>3 weeks","1","14","25","3",""
"html-keyboard-response","22","64522","0.0-5.0-1.6","5ede9b80b8a141131edabbe1","bdp_td","Wed Mar 29 2023 19:54:28 GMT-0700 (Pacific Daylight Time)","112010","","null","","","","FIX","","<div class='trialBorder'><div class='vertical-center'><img style='vertical-align:center; align:center' src=img/fixation3.jpg></div></div>","null","","","","","","",""
"html-keyboard-response","23","65911","0.0-5.0-2.6","5ede9b80b8a141131edabbe1","bdp_td","Wed Mar 29 2023 19:54:28 GMT-0700 (Pacific Daylight Time)","112010","","1384","","","","offer","","<div class='trialBorder'><div class='vertical-center'><img style='vertical-align:center; align:center' src=img/fixation3.jpg></div><div class='cl'><div class='vertical-center'>$34<br><br>now</div></div><div class='cr'><div class='vertical-center'>$35<br>in<br>12 weeks</div></div><div class='respDivL'><div class='vertical-center'>(E)</div></div><div class='respDivR'><div class='vertical-center'>(I)</div></div></div>","E","$34<br><br>now","$35<br>in<br>12 weeks","0","34","35","12","NOW"
"html-keyboard-response","24","66167","0.0-5.0-3.6","5ede9b80b8a141131edabbe1","bdp_td","Wed Mar 29 2023 19:54:28 GMT-0700 (Pacific Daylight Time)","112010","","null","","","","offerFB","","<div class='trialBorder'><div class='vertical-center'><img style='vertical-align:center; align:center' src=img/fixation3.jpg></div><div class='cl'><div class='vertical-center'><font style='color:orange'>$34<br><br>now</font></div></div><div class='cr'><div class='vertical-center'>$35<br>in<br>12 weeks</div></div><div class='respDivL'><div class='vertical-center'><font style='color:orange'>(E)</font></div></div><div class='respDivR'><div class='vertical-center'>(I)</div></div></div>","null","$34<br><br>now","$35<br>in<br>12 weeks","0","34","35","12",""
"html-keyboard-response","25","66670","0.0-5.0-1.7","5ede9b80b8a141131edabbe1","bdp_td","Wed Mar 29 2023 19:54:28 GMT-0700 (Pacific Daylight Time)","112010","","null","","","","FIX","","<div class='trialBorder'><div class='vertical-center'><img style='vertical-align:center; align:center' src=img/fixation3.jpg></div></div>","null","","","","","","",""
"html-keyboard-response","26","68043","0.0-5.0-2.7","5ede9b80b8a141131edabbe1","bdp_td","Wed Mar 29 2023 19:54:28 GMT-0700 (Pacific Daylight Time)","112010","","1368","","","","offer","","<div class='trialBorder'><div class='vertical-center'><img style='vertical-align:center; align:center' src=img/fixation3.jpg></div><div class='cl'><div class='vertical-center'>$27<br><br>now</div></div><div class='cr'><div class='vertical-center'>$50<br>in<br>3 weeks</div></div><div class='respDivL'><div class='vertical-center'>(E)</div></div><div class='respDivR'><div class='vertical-center'>(I)</div></div></div>","I","$27<br><br>now","$50<br>in<br>3 weeks","0","27","50","3","THEN"
"html-keyboard-response","27","68299","0.0-5.0-3.7","5ede9b80b8a141131edabbe1","bdp_td","Wed Mar 29 2023 19:54:28 GMT-0700 (Pacific Daylight Time)","112010","","null","","","","offerFB","","<div class='trialBorder'><div class='vertical-center'><img style='vertical-align:center; align:center' src=img/fixation3.jpg></div><div class='cl'><div class='vertical-center'>$27<br><br>now</div></div><div class='cr'><div class='vertical-center'><font style='color:orange'>$50<br>in<br>3 weeks</font></div></div><div class='respDivL'><div class='vertical-center'>(E)</div></div><div class='respDivR'><div class='vertical-center'><font style='color:orange'>(I)</font></div></div></div>","null","$27<br><br>now","$50<br>in<br>3 weeks","0","27","50","3",""
"html-keyboard-response","28","68802","0.0-5.0-1.8","5ede9b80b8a141131edabbe1","bdp_td","Wed Mar 29 2023 19:54:28 GMT-0700 (Pacific Daylight Time)","112010","","null","","","","FIX","","<div class='trialBorder'><div class='vertical-center'><img style='vertical-align:center; align:center' src=img/fixation3.jpg></div></div>","null","","","","","","",""
"html-keyboard-response","29","70108","0.0-5.0-2.8","5ede9b80b8a141131edabbe1","bdp_td","Wed Mar 29 2023 19:54:28 GMT-0700 (Pacific Daylight Time)","112010","","1301","","","","offer","","<div class='trialBorder'><div class='vertical-center'><img style='vertical-align:center; align:center' src=img/fixation3.jpg></div><div class='cl'><div class='vertical-center'>$67<br><br>now</div></div><div class='cr'><div class='vertical-center'>$75<br>in<br>12 weeks</div></div><div class='respDivL'><div class='vertical-center'>(E)</div></div><div class='respDivR'><div class='vertical-center'>(I)</div></div></div>","E","$67<br><br>now","$75<br>in<br>12 weeks","0","67","75","12","NOW"
"html-keyboard-response","30","70365","0.0-5.0-3.8","5ede9b80b8a141131edabbe1","bdp_td","Wed Mar 29 2023 19:54:28 GMT-0700 (Pacific Daylight Time)","112010","","null","","","","offerFB","","<div class='trialBorder'><div class='vertical-center'><img style='vertical-align:center; align:center' src=img/fixation3.jpg></div><div class='cl'><div class='vertical-center'><font style='color:orange'>$67<br><br>now</font></div></div><div class='cr'><div class='vertical-center'>$75<br>in<br>12 weeks</div></div><div class='respDivL'><div class='vertical-center'><font style='color:orange'>(E)</font></div></div><div class='respDivR'><div class='vertical-center'>(I)</div></div></div>","null","$67<br><br>now","$75<br>in<br>12 weeks","0","67","75","12",""
"html-keyboard-response","31","70869","0.0-5.0-1.9","5ede9b80b8a141131edabbe1","bdp_td","Wed Mar 29 2023 19:54:28 GMT-0700 (Pacific Daylight Time)","112010","","null","","","","FIX","","<div class='trialBorder'><div class='vertical-center'><img style='vertical-align:center; align:center' src=img/fixation3.jpg></div></div>","null","","","","","","",""
"html-keyboard-response","32","72376","0.0-5.0-2.9","5ede9b80b8a141131edabbe1","bdp_td","Wed Mar 29 2023 19:54:28 GMT-0700 (Pacific Daylight Time)","112010","","1503","","","","offer","","<div class='trialBorder'><div class='vertical-center'><img style='vertical-align:center; align:center' src=img/fixation3.jpg></div><div class='cl'><div class='vertical-center'>$24<br><br>now</div></div><div class='cr'><div class='vertical-center'>$35<br>in<br>3 weeks</div></div><div class='respDivL'><div class='vertical-center'>(E)</div></div><div class='respDivR'><div class='vertical-center'>(I)</div></div></div>","I","$24<br><br>now","$35<br>in<br>3 weeks","0","24","35","3","THEN"
"html-keyboard-response","33","72630","0.0-5.0-3.9","5ede9b80b8a141131edabbe1","bdp_td","Wed Mar 29 2023 19:54:28 GMT-0700 (Pacific Daylight Time)","112010","","null","","","","offerFB","","<div class='trialBorder'><div class='vertical-center'><img style='vertical-align:center; align:center' src=img/fixation3.jpg></div><div class='cl'><div class='vertical-center'>$24<br><br>now</div></div><div class='cr'><div class='vertical-center'><font style='color:orange'>$35<br>in<br>3 weeks</font></div></div><div class='respDivL'><div class='vertical-center'>(E)</div></div><div class='respDivR'><div class='vertical-center'><font style='color:orange'>(I)</font></div></div></div>","null","$24<br><br>now","$35<br>in<br>3 weeks","0","24","35","3",""
"html-keyboard-response","34","73133","0.0-5.0-1.10","5ede9b80b8a141131edabbe1","bdp_td","Wed Mar 29 2023 19:54:28 GMT-0700 (Pacific Daylight Time)","112010","","null","","","","FIX","","<div class='trialBorder'><div class='vertical-center'><img style='vertical-align:center; align:center' src=img/fixation3.jpg></div></div>","null","","","","","","",""
"html-keyboard-response","35","75889","0.0-5.0-2.10","5ede9b80b8a141131edabbe1","bdp_td","Wed Mar 29 2023 19:54:28 GMT-0700 (Pacific Daylight Time)","112010","","2752","","","","offer","","<div class='trialBorder'><div class='vertical-center'><img style='vertical-align:center; align:center' src=img/fixation3.jpg></div><div class='cl'><div class='vertical-center'>$55<br>in<br>6 weeks</div></div><div class='cr'><div class='vertical-center'>$40<br><br>now</div></div><div class='respDivL'><div class='vertical-center'>(E)</div></div><div class='respDivR'><div class='vertical-center'>(I)</div></div></div>","E","$40<br><br>now","$55<br>in<br>6 weeks","1","40","55","6","THEN"
"html-keyboard-response","36","76144","0.0-5.0-3.10","5ede9b80b8a141131edabbe1","bdp_td","Wed Mar 29 2023 19:54:28 GMT-0700 (Pacific Daylight Time)","112010","","null","","","","offerFB","","<div class='trialBorder'><div class='vertical-center'><img style='vertical-align:center; align:center' src=img/fixation3.jpg></div><div class='cl'><div class='vertical-center'><font style='color:orange'>$55<br>in<br>6 weeks</font></div></div><div class='cr'><div class='vertical-center'>$40<br><br>now</div></div><div class='respDivL'><div class='vertical-center'><font style='color:orange'>(E)</font></div></div><div class='respDivR'><div class='vertical-center'>(I)</div></div></div>","null","$40<br><br>now","$55<br>in<br>6 weeks","1","40","55","6",""
"html-keyboard-response","37","76648","0.0-5.0-1.11","5ede9b80b8a141131edabbe1","bdp_td","Wed Mar 29 2023 19:54:28 GMT-0700 (Pacific Daylight Time)","112010","","null","","","","FIX","","<div class='trialBorder'><div class='vertical-center'><img style='vertical-align:center; align:center' src=img/fixation3.jpg></div></div>","null","","","","","","",""
"html-keyboard-response","38","77869","0.0-5.0-2.11","5ede9b80b8a141131edabbe1","bdp_td","Wed Mar 29 2023 19:54:28 GMT-0700 (Pacific Daylight Time)","112010","","1217","","","","offer","","<div class='trialBorder'><div class='vertical-center'><img style='vertical-align:center; align:center' src=img/fixation3.jpg></div><div class='cl'><div class='vertical-center'>$20<br><br>now</div></div><div class='cr'><div class='vertical-center'>$55<br>in<br>1 week</div></div><div class='respDivL'><div class='vertical-center'>(E)</div></div><div class='respDivR'><div class='vertical-center'>(I)</div></div></div>","I","$20<br><br>now","$55<br>in<br>1 week","0","20","55","1","THEN"
"html-keyboard-response","39","78124","0.0-5.0-3.11","5ede9b80b8a141131edabbe1","bdp_td","Wed Mar 29 2023 19:54:28 GMT-0700 (Pacific Daylight Time)","112010","","null","","","","offerFB","","<div class='trialBorder'><div class='vertical-center'><img style='vertical-align:center; align:center' src=img/fixation3.jpg></div><div class='cl'><div class='vertical-center'>$20<br><br>now</div></div><div class='cr'><div class='vertical-center'><font style='color:orange'>$55<br>in<br>1 week</font></div></div><div class='respDivL'><div class='vertical-center'>(E)</div></div><div class='respDivR'><div class='vertical-center'><font style='color:orange'>(I)</font></div></div></div>","null","$20<br><br>now","$55<br>in<br>1 week","0","20","55","1",""
"html-keyboard-response","40","78628","0.0-5.0-1.12","5ede9b80b8a141131edabbe1","bdp_td","Wed Mar 29 2023 19:54:28 GMT-0700 (Pacific Daylight Time)","112010","","null","","","","FIX","","<div class='trialBorder'><div class='vertical-center'><img style='vertical-align:center; align:center' src=img/fixation3.jpg></div></div>","null","","","","","","",""
"html-keyboard-response","41","79956","0.0-5.0-2.12","5ede9b80b8a141131edabbe1","bdp_td","Wed Mar 29 2023 19:54:28 GMT-0700 (Pacific Daylight Time)","112010","","1325","","","","offer","","<div class='trialBorder'><div class='vertical-center'><img style='vertical-align:center; align:center' src=img/fixation3.jpg></div><div class='cl'><div class='vertical-center'>$69<br><br>now</div></div><div class='cr'><div class='vertical-center'>$85<br>in<br>6 weeks</div></div><div class='respDivL'><div class='vertical-center'>(E)</div></div><div class='respDivR'><div class='vertical-center'>(I)</div></div></div>","E","$69<br><br>now","$85<br>in<br>6 weeks","0","69","85","6","NOW"
"html-keyboard-response","42","80213","0.0-5.0-3.12","5ede9b80b8a141131edabbe1","bdp_td","Wed Mar 29 2023 19:54:28 GMT-0700 (Pacific Daylight Time)","112010","","null","","","","offerFB","","<div class='trialBorder'><div class='vertical-center'><img style='vertical-align:center; align:center' src=img/fixation3.jpg></div><div class='cl'><div class='vertical-center'><font style='color:orange'>$69<br><br>now</font></div></div><div class='cr'><div class='vertical-center'>$85<br>in<br>6 weeks</div></div><div class='respDivL'><div class='vertical-center'><font style='color:orange'>(E)</font></div></div><div class='respDivR'><div class='vertical-center'>(I)</div></div></div>","null","$69<br><br>now","$85<br>in<br>6 weeks","0","69","85","6",""
"html-keyboard-response","43","80717","0.0-5.0-1.13","5ede9b80b8a141131edabbe1","bdp_td","Wed Mar 29 2023 19:54:28 GMT-0700 (Pacific Daylight Time)","112010","","null","","","","FIX","","<div class='trialBorder'><div class='vertical-center'><img style='vertical-align:center; align:center' src=img/fixation3.jpg></div></div>","null","","","","","","",""
"html-keyboard-response","44","81576","0.0-5.0-2.13","5ede9b80b8a141131edabbe1","bdp_td","Wed Mar 29 2023 19:54:28 GMT-0700 (Pacific Daylight Time)","112010","","856","","","","offer","","<div class='trialBorder'><div class='vertical-center'><img style='vertical-align:center; align:center' src=img/fixation3.jpg></div><div class='cl'><div class='vertical-center'>$33<br><br>now</div></div><div class='cr'><div class='vertical-center'>$80<br>in<br>2 weeks</div></div><div class='respDivL'><div class='vertical-center'>(E)</div></div><div class='respDivR'><div class='vertical-center'>(I)</div></div></div>","I","$33<br><br>now","$80<br>in<br>2 weeks","0","33","80","2","THEN"
"html-keyboard-response","45","81831","0.0-5.0-3.13","5ede9b80b8a141131edabbe1","bdp_td","Wed Mar 29 2023 19:54:28 GMT-0700 (Pacific Daylight Time)","112010","","null","","","","offerFB","","<div class='trialBorder'><div class='vertical-center'><img style='vertical-align:center; align:center' src=img/fixation3.jpg></div><div class='cl'><div class='vertical-center'>$33<br><br>now</div></div><div class='cr'><div class='vertical-center'><font style='color:orange'>$80<br>in<br>2 weeks</font></div></div><div class='respDivL'><div class='vertical-center'>(E)</div></div><div class='respDivR'><div class='vertical-center'><font style='color:orange'>(I)</font></div></div></div>","null","$33<br><br>now","$80<br>in<br>2 weeks","0","33","80","2",""
"html-keyboard-response","46","82336","0.0-5.0-1.14","5ede9b80b8a141131edabbe1","bdp_td","Wed Mar 29 2023 19:54:28 GMT-0700 (Pacific Daylight Time)","112010","","null","","","","FIX","","<div class='trialBorder'><div class='vertical-center'><img style='vertical-align:center; align:center' src=img/fixation3.jpg></div></div>","null","","","","","","",""
"html-keyboard-response","47","83687","0.0-5.0-2.14","5ede9b80b8a141131edabbe1","bdp_td","Wed Mar 29 2023 19:54:28 GMT-0700 (Pacific Daylight Time)","112010","","1347","","","","offer","","<div class='trialBorder'><div class='vertical-center'><img style='vertical-align:center; align:center' src=img/fixation3.jpg></div><div class='cl'><div class='vertical-center'>$54<br><br>now</div></div><div class='cr'><div class='vertical-center'>$60<br>in<br>12 weeks</div></div><div class='respDivL'><div class='vertical-center'>(E)</div></div><div class='respDivR'><div class='vertical-center'>(I)</div></div></div>","E","$54<br><br>now","$60<br>in<br>12 weeks","0","54","60","12","NOW"
"html-keyboard-response","48","83943","0.0-5.0-3.14","5ede9b80b8a141131edabbe1","bdp_td","Wed Mar 29 2023 19:54:28 GMT-0700 (Pacific Daylight Time)","112010","","null","","","","offerFB","","<div class='trialBorder'><div class='vertical-center'><img style='vertical-align:center; align:center' src=img/fixation3.jpg></div><div class='cl'><div class='vertical-center'><font style='color:orange'>$54<br><br>now</font></div></div><div class='cr'><div class='vertical-center'>$60<br>in<br>12 weeks</div></div><div class='respDivL'><div class='vertical-center'><font style='color:orange'>(E)</font></div></div><div class='respDivR'><div class='vertical-center'>(I)</div></div></div>","null","$54<br><br>now","$60<br>in<br>12 weeks","0","54","60","12",""
"html-keyboard-response","49","84447","0.0-5.0-1.15","5ede9b80b8a141131edabbe1","bdp_td","Wed Mar 29 2023 19:54:28 GMT-0700 (Pacific Daylight Time)","112010","","null","","","","FIX","","<div class='trialBorder'><div class='vertical-center'><img style='vertical-align:center; align:center' src=img/fixation3.jpg></div></div>","null","","","","","","",""
"html-keyboard-response","50","86217","0.0-5.0-2.15","5ede9b80b8a141131edabbe1","bdp_td","Wed Mar 29 2023 19:54:28 GMT-0700 (Pacific Daylight Time)","112010","","1767","","","","offer","","<div class='trialBorder'><div class='vertical-center'><img style='vertical-align:center; align:center' src=img/fixation3.jpg></div><div class='cl'><div class='vertical-center'>$54<br><br>now</div></div><div class='cr'><div class='vertical-center'>$80<br>in<br>3 weeks</div></div><div class='respDivL'><div class='vertical-center'>(E)</div></div><div class='respDivR'><div class='vertical-center'>(I)</div></div></div>","E","$54<br><br>now","$80<br>in<br>3 weeks","0","54","80","3","NOW"
"html-keyboard-response","51","86474","0.0-5.0-3.15","5ede9b80b8a141131edabbe1","bdp_td","Wed Mar 29 2023 19:54:28 GMT-0700 (Pacific Daylight Time)","112010","","null","","","","offerFB","","<div class='trialBorder'><div class='vertical-center'><img style='vertical-align:center; align:center' src=img/fixation3.jpg></div><div class='cl'><div class='vertical-center'><font style='color:orange'>$54<br><br>now</font></div></div><div class='cr'><div class='vertical-center'>$80<br>in<br>3 weeks</div></div><div class='respDivL'><div class='vertical-center'><font style='color:orange'>(E)</font></div></div><div class='respDivR'><div class='vertical-center'>(I)</div></div></div>","null","$54<br><br>now","$80<br>in<br>3 weeks","0","54","80","3",""
"html-keyboard-response","52","86977","0.0-5.0-1.16","5ede9b80b8a141131edabbe1","bdp_td","Wed Mar 29 2023 19:54:28 GMT-0700 (Pacific Daylight Time)","112010","","null","","","","FIX","","<div class='trialBorder'><div class='vertical-center'><img style='vertical-align:center; align:center' src=img/fixation3.jpg></div></div>","null","","","","","","",""
"html-keyboard-response","53","88364","0.0-5.0-2.16","5ede9b80b8a141131edabbe1","bdp_td","Wed Mar 29 2023 19:54:28 GMT-0700 (Pacific Daylight Time)","112010","","1383","","","","offer","","<div class='trialBorder'><div class='vertical-center'><img style='vertical-align:center; align:center' src=img/fixation3.jpg></div><div class='cl'><div class='vertical-center'>$25<br>in<br>12 weeks</div></div><div class='cr'><div class='vertical-center'>$22<br><br>now</div></div><div class='respDivL'><div class='vertical-center'>(E)</div></div><div class='respDivR'><div class='vertical-center'>(I)</div></div></div>","E","$22<br><br>now","$25<br>in<br>12 weeks","1","22","25","12","THEN"
"html-keyboard-response","54","88619","0.0-5.0-3.16","5ede9b80b8a141131edabbe1","bdp_td","Wed Mar 29 2023 19:54:28 GMT-0700 (Pacific Daylight Time)","112010","","null","","","","offerFB","","<div class='trialBorder'><div class='vertical-center'><img style='vertical-align:center; align:center' src=img/fixation3.jpg></div><div class='cl'><div class='vertical-center'><font style='color:orange'>$25<br>in<br>12 weeks</font></div></div><div class='cr'><div class='vertical-center'>$22<br><br>now</div></div><div class='respDivL'><div class='vertical-center'><font style='color:orange'>(E)</font></div></div><div class='respDivR'><div class='vertical-center'>(I)</div></div></div>","null","$22<br><br>now","$25<br>in<br>12 weeks","1","22","25","12",""
"html-keyboard-response","55","89124","0.0-5.0-1.17","5ede9b80b8a141131edabbe1","bdp_td","Wed Mar 29 2023 19:54:28 GMT-0700 (Pacific Daylight Time)","112010","","null","","","","FIX","","<div class='trialBorder'><div class='vertical-center'><img style='vertical-align:center; align:center' src=img/fixation3.jpg></div></div>","null","","","","","","",""
"html-keyboard-response","56","91081","0.0-5.0-2.17","5ede9b80b8a141131edabbe1","bdp_td","Wed Mar 29 2023 19:54:28 GMT-0700 (Pacific Daylight Time)","112010","","1953","","","","offer","","<div class='trialBorder'><div class='vertical-center'><img style='vertical-align:center; align:center' src=img/fixation3.jpg></div><div class='cl'><div class='vertical-center'>$60<br>in<br>3 weeks</div></div><div class='cr'><div class='vertical-center'>$25<br><br>now</div></div><div class='respDivL'><div class='vertical-center'>(E)</div></div><div class='respDivR'><div class='vertical-center'>(I)</div></div></div>","E","$25<br><br>now","$60<br>in<br>3 weeks","1","25","60","3","THEN"
"html-keyboard-response","57","91336","0.0-5.0-3.17","5ede9b80b8a141131edabbe1","bdp_td","Wed Mar 29 2023 19:54:28 GMT-0700 (Pacific Daylight Time)","112010","","null","","","","offerFB","","<div class='trialBorder'><div class='vertical-center'><img style='vertical-align:center; align:center' src=img/fixation3.jpg></div><div class='cl'><div class='vertical-center'><font style='color:orange'>$60<br>in<br>3 weeks</font></div></div><div class='cr'><div class='vertical-center'>$25<br><br>now</div></div><div class='respDivL'><div class='vertical-center'><font style='color:orange'>(E)</font></div></div><div class='respDivR'><div class='vertical-center'>(I)</div></div></div>","null","$25<br><br>now","$60<br>in<br>3 weeks","1","25","60","3",""
"html-keyboard-response","58","91840","0.0-5.0-1.18","5ede9b80b8a141131edabbe1","bdp_td","Wed Mar 29 2023 19:54:28 GMT-0700 (Pacific Daylight Time)","112010","","null","","","","FIX","","<div class='trialBorder'><div class='vertical-center'><img style='vertical-align:center; align:center' src=img/fixation3.jpg></div></div>","null","","","","","","",""
"html-keyboard-response","59","93874","0.0-5.0-2.18","5ede9b80b8a141131edabbe1","bdp_td","Wed Mar 29 2023 19:54:28 GMT-0700 (Pacific Daylight Time)","112010","","2030","","","","offer","","<div class='trialBorder'><div class='vertical-center'><img style='vertical-align:center; align:center' src=img/fixation3.jpg></div><div class='cl'><div class='vertical-center'>$19<br><br>now</div></div><div class='cr'><div class='vertical-center'>$25<br>in<br>6 weeks</div></div><div class='respDivL'><div class='vertical-center'>(E)</div></div><div class='respDivR'><div class='vertical-center'>(I)</div></div></div>","I","$19<br><br>now","$25<br>in<br>6 weeks","0","19","25","6","THEN"
"html-keyboard-response","60","94129","0.0-5.0-3.18","5ede9b80b8a141131edabbe1","bdp_td","Wed Mar 29 2023 19:54:28 GMT-0700 (Pacific Daylight Time)","112010","","null","","","","offerFB","","<div class='trialBorder'><div class='vertical-center'><img style='vertical-align:center; align:center' src=img/fixation3.jpg></div><div class='cl'><div class='vertical-center'>$19<br><br>now</div></div><div class='cr'><div class='vertical-center'><font style='color:orange'>$25<br>in<br>6 weeks</font></div></div><div class='respDivL'><div class='vertical-center'>(E)</div></div><div class='respDivR'><div class='vertical-center'><font style='color:orange'>(I)</font></div></div></div>","null","$19<br><br>now","$25<br>in<br>6 weeks","0","19","25","6",""
"html-keyboard-response","61","94633","0.0-5.0-1.19","5ede9b80b8a141131edabbe1","bdp_td","Wed Mar 29 2023 19:54:28 GMT-0700 (Pacific Daylight Time)","112010","","null","","","","FIX","","<div class='trialBorder'><div class='vertical-center'><img style='vertical-align:center; align:center' src=img/fixation3.jpg></div></div>","null","","","","","","",""
"html-keyboard-response","62","96561","0.0-5.0-2.19","5ede9b80b8a141131edabbe1","bdp_td","Wed Mar 29 2023 19:54:28 GMT-0700 (Pacific Daylight Time)","112010","","1924","","","","offer","","<div class='trialBorder'><div class='vertical-center'><img style='vertical-align:center; align:center' src=img/fixation3.jpg></div><div class='cl'><div class='vertical-center'>$30<br>in<br>2 weeks</div></div><div class='cr'><div class='vertical-center'>$11<br><br>now</div></div><div class='respDivL'><div class='vertical-center'>(E)</div></div><div class='respDivR'><div class='vertical-center'>(I)</div></div></div>","E","$11<br><br>now","$30<br>in<br>2 weeks","1","11","30","2","THEN"
"html-keyboard-response","63","96815","0.0-5.0-3.19","5ede9b80b8a141131edabbe1","bdp_td","Wed Mar 29 2023 19:54:28 GMT-0700 (Pacific Daylight Time)","112010","","null","","","","offerFB","","<div class='trialBorder'><div class='vertical-center'><img style='vertical-align:center; align:center' src=img/fixation3.jpg></div><div class='cl'><div class='vertical-center'><font style='color:orange'>$30<br>in<br>2 weeks</font></div></div><div class='cr'><div class='vertical-center'>$11<br><br>now</div></div><div class='respDivL'><div class='vertical-center'><font style='color:orange'>(E)</font></div></div><div class='respDivR'><div class='vertical-center'>(I)</div></div></div>","null","$11<br><br>now","$30<br>in<br>2 weeks","1","11","30","2",""
"html-keyboard-response","64","97320","0.0-5.0-1.20","5ede9b80b8a141131edabbe1","bdp_td","Wed Mar 29 2023 19:54:28 GMT-0700 (Pacific Daylight Time)","112010","","null","","","","FIX","","<div class='trialBorder'><div class='vertical-center'><img style='vertical-align:center; align:center' src=img/fixation3.jpg></div></div>","null","","","","","","",""
"html-keyboard-response","65","98497","0.0-5.0-2.20","5ede9b80b8a141131edabbe1","bdp_td","Wed Mar 29 2023 19:54:28 GMT-0700 (Pacific Daylight Time)","112010","","1172","","","","offer","","<div class='trialBorder'><div class='vertical-center'><img style='vertical-align:center; align:center' src=img/fixation3.jpg></div><div class='cl'><div class='vertical-center'>$55<br>in<br>12 weeks</div></div><div class='cr'><div class='vertical-center'>$54<br><br>now</div></div><div class='respDivL'><div class='vertical-center'>(E)</div></div><div class='respDivR'><div class='vertical-center'>(I)</div></div></div>","I","$54<br><br>now","$55<br>in<br>12 weeks","1","54","55","12","NOW"
"html-keyboard-response","66","98752","0.0-5.0-3.20","5ede9b80b8a141131edabbe1","bdp_td","Wed Mar 29 2023 19:54:28 GMT-0700 (Pacific Daylight Time)","112010","","null","","","","offerFB","","<div class='trialBorder'><div class='vertical-center'><img style='vertical-align:center; align:center' src=img/fixation3.jpg></div><div class='cl'><div class='vertical-center'>$55<br>in<br>12 weeks</div></div><div class='cr'><div class='vertical-center'><font style='color:orange'>$54<br><br>now</font></div></div><div class='respDivL'><div class='vertical-center'>(E)</div></div><div class='respDivR'><div class='vertical-center'><font style='color:orange'>(I)</font></div></div></div>","null","$54<br><br>now","$55<br>in<br>12 weeks","1","54","55","12",""
"html-keyboard-response","67","99255","0.0-5.0-1.21","5ede9b80b8a141131edabbe1","bdp_td","Wed Mar 29 2023 19:54:28 GMT-0700 (Pacific Daylight Time)","112010","","null","","","","FIX","","<div class='trialBorder'><div class='vertical-center'><img style='vertical-align:center; align:center' src=img/fixation3.jpg></div></div>","null","","","","","","",""
"html-keyboard-response","68","100417","0.0-5.0-2.21","5ede9b80b8a141131edabbe1","bdp_td","Wed Mar 29 2023 19:54:28 GMT-0700 (Pacific Daylight Time)","112010","","1158","","","","offer","","<div class='trialBorder'><div class='vertical-center'><img style='vertical-align:center; align:center' src=img/fixation3.jpg></div><div class='cl'><div class='vertical-center'>$50<br>in<br>6 weeks</div></div><div class='cr'><div class='vertical-center'>$34<br><br>now</div></div><div class='respDivL'><div class='vertical-center'>(E)</div></div><div class='respDivR'><div class='vertical-center'>(I)</div></div></div>","I","$34<br><br>now","$50<br>in<br>6 weeks","1","34","50","6","NOW"
"html-keyboard-response","69","100671","0.0-5.0-3.21","5ede9b80b8a141131edabbe1","bdp_td","Wed Mar 29 2023 19:54:28 GMT-0700 (Pacific Daylight Time)","112010","","null","","","","offerFB","","<div class='trialBorder'><div class='vertical-center'><img style='vertical-align:center; align:center' src=img/fixation3.jpg></div><div class='cl'><div class='vertical-center'>$50<br>in<br>6 weeks</div></div><div class='cr'><div class='vertical-center'><font style='color:orange'>$34<br><br>now</font></div></div><div class='respDivL'><div class='vertical-center'>(E)</div></div><div class='respDivR'><div class='vertical-center'><font style='color:orange'>(I)</font></div></div></div>","null","$34<br><br>now","$50<br>in<br>6 weeks","1","34","50","6",""
"html-keyboard-response","70","101175","0.0-5.0-1.22","5ede9b80b8a141131edabbe1","bdp_td","Wed Mar 29 2023 19:54:28 GMT-0700 (Pacific Daylight Time)","112010","","null","","","","FIX","","<div class='trialBorder'><div class='vertical-center'><img style='vertical-align:center; align:center' src=img/fixation3.jpg></div></div>","null","","","","","","",""
"html-keyboard-response","71","102342","0.0-5.0-2.22","5ede9b80b8a141131edabbe1","bdp_td","Wed Mar 29 2023 19:54:28 GMT-0700 (Pacific Daylight Time)","112010","","1164","","","","offer","","<div class='trialBorder'><div class='vertical-center'><img style='vertical-align:center; align:center' src=img/fixation3.jpg></div><div class='cl'><div class='vertical-center'>$31<br><br>now</div></div><div class='cr'><div class='vertical-center'>$85<br>in<br>1 week</div></div><div class='respDivL'><div class='vertical-center'>(E)</div></div><div class='respDivR'><div class='vertical-center'>(I)</div></div></div>","E","$31<br><br>now","$85<br>in<br>1 week","0","31","85","1","NOW"
"html-keyboard-response","72","102597","0.0-5.0-3.22","5ede9b80b8a141131edabbe1","bdp_td","Wed Mar 29 2023 19:54:28 GMT-0700 (Pacific Daylight Time)","112010","","null","","","","offerFB","","<div class='trialBorder'><div class='vertical-center'><img style='vertical-align:center; align:center' src=img/fixation3.jpg></div><div class='cl'><div class='vertical-center'><font style='color:orange'>$31<br><br>now</font></div></div><div class='cr'><div class='vertical-center'>$85<br>in<br>1 week</div></div><div class='respDivL'><div class='vertical-center'><font style='color:orange'>(E)</font></div></div><div class='respDivR'><div class='vertical-center'>(I)</div></div></div>","null","$31<br><br>now","$85<br>in<br>1 week","0","31","85","1",""
"html-keyboard-response","73","103101","0.0-5.0-1.23","5ede9b80b8a141131edabbe1","bdp_td","Wed Mar 29 2023 19:54:28 GMT-0700 (Pacific Daylight Time)","112010","","null","","","","FIX","","<div class='trialBorder'><div class='vertical-center'><img style='vertical-align:center; align:center' src=img/fixation3.jpg></div></div>","null","","","","","","",""
"html-keyboard-response","74","104489","0.0-5.0-2.23","5ede9b80b8a141131edabbe1","bdp_td","Wed Mar 29 2023 19:54:28 GMT-0700 (Pacific Daylight Time)","112010","","1383","","","","offer","","<div class='trialBorder'><div class='vertical-center'><img style='vertical-align:center; align:center' src=img/fixation3.jpg></div><div class='cl'><div class='vertical-center'>$60<br>in<br>6 weeks</div></div><div class='cr'><div class='vertical-center'>$49<br><br>now</div></div><div class='respDivL'><div class='vertical-center'>(E)</div></div><div class='respDivR'><div class='vertical-center'>(I)</div></div></div>","I","$49<br><br>now","$60<br>in<br>6 weeks","1","49","60","6","NOW"
"html-keyboard-response","75","104745","0.0-5.0-3.23","5ede9b80b8a141131edabbe1","bdp_td","Wed Mar 29 2023 19:54:28 GMT-0700 (Pacific Daylight Time)","112010","","null","","","","offerFB","","<div class='trialBorder'><div class='vertical-center'><img style='vertical-align:center; align:center' src=img/fixation3.jpg></div><div class='cl'><div class='vertical-center'>$60<br>in<br>6 weeks</div></div><div class='cr'><div class='vertical-center'><font style='color:orange'>$49<br><br>now</font></div></div><div class='respDivL'><div class='vertical-center'>(E)</div></div><div class='respDivR'><div class='vertical-center'><font style='color:orange'>(I)</font></div></div></div>","null","$49<br><br>now","$60<br>in<br>6 weeks","1","49","60","6",""
"html-keyboard-response","76","105249","0.0-5.0-1.24","5ede9b80b8a141131edabbe1","bdp_td","Wed Mar 29 2023 19:54:28 GMT-0700 (Pacific Daylight Time)","112010","","null","","","","FIX","","<div class='trialBorder'><div class='vertical-center'><img style='vertical-align:center; align:center' src=img/fixation3.jpg></div></div>","null","","","","","","",""
"html-keyboard-response","77","107056","0.0-5.0-2.24","5ede9b80b8a141131edabbe1","bdp_td","Wed Mar 29 2023 19:54:28 GMT-0700 (Pacific Daylight Time)","112010","","1803","","","","offer","","<div class='trialBorder'><div class='vertical-center'><img style='vertical-align:center; align:center' src=img/fixation3.jpg></div><div class='cl'><div class='vertical-center'>$28<br><br>now</div></div><div class='cr'><div class='vertical-center'>$30<br>in<br>12 weeks</div></div><div class='respDivL'><div class='vertical-center'>(E)</div></div><div class='respDivR'><div class='vertical-center'>(I)</div></div></div>","E","$28<br><br>now","$30<br>in<br>12 weeks","0","28","30","12","NOW"
"html-keyboard-response","78","107311","0.0-5.0-3.24","5ede9b80b8a141131edabbe1","bdp_td","Wed Mar 29 2023 19:54:28 GMT-0700 (Pacific Daylight Time)","112010","","null","","","","offerFB","","<div class='trialBorder'><div class='vertical-center'><img style='vertical-align:center; align:center' src=img/fixation3.jpg></div><div class='cl'><div class='vertical-center'><font style='color:orange'>$28<br><br>now</font></div></div><div class='cr'><div class='vertical-center'>$30<br>in<br>12 weeks</div></div><div class='respDivL'><div class='vertical-center'><font style='color:orange'>(E)</font></div></div><div class='respDivR'><div class='vertical-center'>(I)</div></div></div>","null","$28<br><br>now","$30<br>in<br>12 weeks","0","28","30","12",""
"html-keyboard-response","79","107816","0.0-5.0-1.25","5ede9b80b8a141131edabbe1","bdp_td","Wed Mar 29 2023 19:54:28 GMT-0700 (Pacific Daylight Time)","112010","","null","","","","FIX","","<div class='trialBorder'><div class='vertical-center'><img style='vertical-align:center; align:center' src=img/fixation3.jpg></div></div>","null","","","","","","",""
"html-keyboard-response","80","108905","0.0-5.0-2.25","5ede9b80b8a141131edabbe1","bdp_td","Wed Mar 29 2023 19:54:28 GMT-0700 (Pacific Daylight Time)","112010","","1085","","","","offer","","<div class='trialBorder'><div class='vertical-center'><img style='vertical-align:center; align:center' src=img/fixation3.jpg></div><div class='cl'><div class='vertical-center'>$25<br><br>now</div></div><div class='cr'><div class='vertical-center'>$30<br>in<br>6 weeks</div></div><div class='respDivL'><div class='vertical-center'>(E)</div></div><div class='respDivR'><div class='vertical-center'>(I)</div></div></div>","E","$25<br><br>now","$30<br>in<br>6 weeks","0","25","30","6","NOW"
"html-keyboard-response","81","109160","0.0-5.0-3.25","5ede9b80b8a141131edabbe1","bdp_td","Wed Mar 29 2023 19:54:28 GMT-0700 (Pacific Daylight Time)","112010","","null","","","","offerFB","","<div class='trialBorder'><div class='vertical-center'><img style='vertical-align:center; align:center' src=img/fixation3.jpg></div><div class='cl'><div class='vertical-center'><font style='color:orange'>$25<br><br>now</font></div></div><div class='cr'><div class='vertical-center'>$30<br>in<br>6 weeks</div></div><div class='respDivL'><div class='vertical-center'><font style='color:orange'>(E)</font></div></div><div class='respDivR'><div class='vertical-center'>(I)</div></div></div>","null","$25<br><br>now","$30<br>in<br>6 weeks","0","25","30","6",""
"html-keyboard-response","82","109664","0.0-5.0-1.26","5ede9b80b8a141131edabbe1","bdp_td","Wed Mar 29 2023 19:54:28 GMT-0700 (Pacific Daylight Time)","112010","","null","","","","FIX","","<div class='trialBorder'><div class='vertical-center'><img style='vertical-align:center; align:center' src=img/fixation3.jpg></div></div>","null","","","","","","",""
"html-keyboard-response","83","110750","0.0-5.0-2.26","5ede9b80b8a141131edabbe1","bdp_td","Wed Mar 29 2023 19:54:28 GMT-0700 (Pacific Daylight Time)","112010","","1082","","","","offer","","<div class='trialBorder'><div class='vertical-center'><img style='vertical-align:center; align:center' src=img/fixation3.jpg></div><div class='cl'><div class='vertical-center'>$75<br>in<br>6 weeks</div></div><div class='cr'><div class='vertical-center'>$55<br><br>now</div></div><div class='respDivL'><div class='vertical-center'>(E)</div></div><div class='respDivR'><div class='vertical-center'>(I)</div></div></div>","I","$55<br><br>now","$75<br>in<br>6 weeks","1","55","75","6","NOW"
"html-keyboard-response","84","111005","0.0-5.0-3.26","5ede9b80b8a141131edabbe1","bdp_td","Wed Mar 29 2023 19:54:28 GMT-0700 (Pacific Daylight Time)","112010","","null","","","","offerFB","","<div class='trialBorder'><div class='vertical-center'><img style='vertical-align:center; align:center' src=img/fixation3.jpg></div><div class='cl'><div class='vertical-center'>$75<br>in<br>6 weeks</div></div><div class='cr'><div class='vertical-center'><font style='color:orange'>$55<br><br>now</font></div></div><div class='respDivL'><div class='vertical-center'>(E)</div></div><div class='respDivR'><div class='vertical-center'><font style='color:orange'>(I)</font></div></div></div>","null","$55<br><br>now","$75<br>in<br>6 weeks","1","55","75","6",""
"","","","","5ede9b80b8a141131edabbe1","bdp_td","Wed Mar 29 2023 19:54:28 GMT-0700 (Pacific Daylight Time)","112010","","","fullscreenexit","85","111115","fullscreenexit","","","","","","","","","",""
"fullscreen","85","112008","0.0-6.0","5ede9b80b8a141131edabbe1","bdp_td","Wed Mar 29 2023 19:54:28 GMT-0700 (Pacific Daylight Time)","112010","","","","","","","true","","","","","","","","",""
"html-keyboard-response","86","112515","0.0-7.0","","","","","","null","","","","","","","null","","","","","","",""
