"trial_type","trial_index","time_elapsed","internal_node_id","subject_id","task","startTime","totalTime","view_history","rt","event","trial","time","trialtype","success","stimulus","key_press","nowOffer","thenOffer","thenLeft","nowAmt","thenAmt","thenWeeks","chosen"
"pavlovia","0","3","0.0-0.0","6400ea4cec0b310140841b2d","bdp_td","Sat Mar 25 2023 15:40:50 GMT-0400 (Eastern Daylight Time)","76493","","","","","","","","","","","","","","","",""
"instructions","1","1446","0.0-1.0","6400ea4cec0b310140841b2d","bdp_td","Sat Mar 25 2023 15:40:50 GMT-0400 (Eastern Daylight Time)","76493","[{""page_index"":0,""viewing_time"":1443}]","1443","","","","","","","","","","","","","",""
"","","","","6400ea4cec0b310140841b2d","bdp_td","Sat Mar 25 2023 15:40:50 GMT-0400 (Eastern Daylight Time)","76493","","","fullscreenenter","2","2323","fullscreenenter","","","","","","","","","",""
"fullscreen","2","3323","0.0-2.0","6400ea4cec0b310140841b2d","bdp_td","Sat Mar 25 2023 15:40:50 GMT-0400 (Eastern Daylight Time)","76493","","","","","","","true","","","","","","","","",""
"instructions","3","10541","0.0-4.0","6400ea4cec0b310140841b2d","bdp_td","Sat Mar 25 2023 15:40:50 GMT-0400 (Eastern Daylight Time)","76493","[{""page_index"":0,""viewing_time"":2160},{""page_index"":1,""viewing_time"":2672},{""page_index"":2,""viewing_time"":2385}]","7217","","","","","","","","","","","","","",""
"html-keyboard-response","4","11049","0.0-5.0-1.0","6400ea4cec0b310140841b2d","bdp_td","Sat Mar 25 2023 15:40:50 GMT-0400 (Eastern Daylight Time)","76493","","null","","","","FIX","","<div class='trialBorder'><div class='vertical-center'><img style='vertical-align:center; align:center' src=img/fixation3.jpg></div></div>","null","","","","","","",""
"html-keyboard-response","5","14105","0.0-5.0-2.0","6400ea4cec0b310140841b2d","bdp_td","Sat Mar 25 2023 15:40:50 GMT-0400 (Eastern Daylight Time)","76493","","3054","","","","offer","","<div class='trialBorder'><div class='vertical-center'><img style='vertical-align:center; align:center' src=img/fixation3.jpg></div><div class='cl'><div class='vertical-center'>$30<br>in<br>2 weeks</div></div><div class='cr'><div class='vertical-center'>$11<br><br>now</div></div><div class='respDivL'><div class='vertical-center'>(E)</div></div><div class='respDivR'><div class='vertical-center'>(I)</div></div></div>","E","$11<br><br>now","$30<br>in<br>2 weeks","1","11","30","2","THEN"
"html-keyboard-response","6","14363","0.0-5.0-3.0","6400ea4cec0b310140841b2d","bdp_td","Sat Mar 25 2023 15:40:50 GMT-0400 (Eastern Daylight Time)","76493","","null","","","","offerFB","","<div class='trialBorder'><div class='vertical-center'><img style='vertical-align:center; align:center' src=img/fixation3.jpg></div><div class='cl'><div class='vertical-center'><font style='color:orange'>$30<br>in<br>2 weeks</font></div></div><div class='cr'><div class='vertical-center'>$11<br><br>now</div></div><div class='respDivL'><div class='vertical-center'><font style='color:orange'>(E)</font></div></div><div class='respDivR'><div class='vertical-center'>(I)</div></div></div>","null","$11<br><br>now","$30<br>in<br>2 weeks","1","11","30","2",""
"html-keyboard-response","7","14866","0.0-5.0-1.1","6400ea4cec0b310140841b2d","bdp_td","Sat Mar 25 2023 15:40:50 GMT-0400 (Eastern Daylight Time)","76493","","null","","","","FIX","","<div class='trialBorder'><div class='vertical-center'><img style='vertical-align:center; align:center' src=img/fixation3.jpg></div></div>","null","","","","","","",""
"html-keyboard-response","8","17135","0.0-5.0-2.1","6400ea4cec0b310140841b2d","bdp_td","Sat Mar 25 2023 15:40:50 GMT-0400 (Eastern Daylight Time)","76493","","2267","","","","offer","","<div class='trialBorder'><div class='vertical-center'><img style='vertical-align:center; align:center' src=img/fixation3.jpg></div><div class='cl'><div class='vertical-center'>$85<br>in<br>12 weeks</div></div><div class='cr'><div class='vertical-center'>$80<br><br>now</div></div><div class='respDivL'><div class='vertical-center'>(E)</div></div><div class='respDivR'><div class='vertical-center'>(I)</div></div></div>","I","$80<br><br>now","$85<br>in<br>12 weeks","1","80","85","12","NOW"
"html-keyboard-response","9","17395","0.0-5.0-3.1","6400ea4cec0b310140841b2d","bdp_td","Sat Mar 25 2023 15:40:50 GMT-0400 (Eastern Daylight Time)","76493","","null","","","","offerFB","","<div class='trialBorder'><div class='vertical-center'><img style='vertical-align:center; align:center' src=img/fixation3.jpg></div><div class='cl'><div class='vertical-center'>$85<br>in<br>12 weeks</div></div><div class='cr'><div class='vertical-center'><font style='color:orange'>$80<br><br>now</font></div></div><div class='respDivL'><div class='vertical-center'>(E)</div></div><div class='respDivR'><div class='vertical-center'><font style='color:orange'>(I)</font></div></div></div>","null","$80<br><br>now","$85<br>in<br>12 weeks","1","80","85","12",""
"html-keyboard-response","10","17899","0.0-5.0-1.2","6400ea4cec0b310140841b2d","bdp_td","Sat Mar 25 2023 15:40:50 GMT-0400 (Eastern Daylight Time)","76493","","null","","","","FIX","","<div class='trialBorder'><div class='vertical-center'><img style='vertical-align:center; align:center' src=img/fixation3.jpg></div></div>","null","","","","","","",""
"html-keyboard-response","11","19207","0.0-5.0-2.2","6400ea4cec0b310140841b2d","bdp_td","Sat Mar 25 2023 15:40:50 GMT-0400 (Eastern Daylight Time)","76493","","1306","","","","offer","","<div class='trialBorder'><div class='vertical-center'><img style='vertical-align:center; align:center' src=img/fixation3.jpg></div><div class='cl'><div class='vertical-center'>$80<br>in<br>12 weeks</div></div><div class='cr'><div class='vertical-center'>$78<br><br>now</div></div><div class='respDivL'><div class='vertical-center'>(E)</div></div><div class='respDivR'><div class='vertical-center'>(I)</div></div></div>","I","$78<br><br>now","$80<br>in<br>12 weeks","1","78","80","12","NOW"
"html-keyboard-response","12","19458","0.0-5.0-3.2","6400ea4cec0b310140841b2d","bdp_td","Sat Mar 25 2023 15:40:50 GMT-0400 (Eastern Daylight Time)","76493","","null","","","","offerFB","","<div class='trialBorder'><div class='vertical-center'><img style='vertical-align:center; align:center' src=img/fixation3.jpg></div><div class='cl'><div class='vertical-center'>$80<br>in<br>12 weeks</div></div><div class='cr'><div class='vertical-center'><font style='color:orange'>$78<br><br>now</font></div></div><div class='respDivL'><div class='vertical-center'>(E)</div></div><div class='respDivR'><div class='vertical-center'><font style='color:orange'>(I)</font></div></div></div>","null","$78<br><br>now","$80<br>in<br>12 weeks","1","78","80","12",""
"html-keyboard-response","13","19963","0.0-5.0-1.3","6400ea4cec0b310140841b2d","bdp_td","Sat Mar 25 2023 15:40:50 GMT-0400 (Eastern Daylight Time)","76493","","null","","","","FIX","","<div class='trialBorder'><div class='vertical-center'><img style='vertical-align:center; align:center' src=img/fixation3.jpg></div></div>","null","","","","","","",""
"html-keyboard-response","14","21270","0.0-5.0-2.3","6400ea4cec0b310140841b2d","bdp_td","Sat Mar 25 2023 15:40:50 GMT-0400 (Eastern Daylight Time)","76493","","1306","","","","offer","","<div class='trialBorder'><div class='vertical-center'><img style='vertical-align:center; align:center' src=img/fixation3.jpg></div><div class='cl'><div class='vertical-center'>$30<br>in<br>6 weeks</div></div><div class='cr'><div class='vertical-center'>$25<br><br>now</div></div><div class='respDivL'><div class='vertical-center'>(E)</div></div><div class='respDivR'><div class='vertical-center'>(I)</div></div></div>","I","$25<br><br>now","$30<br>in<br>6 weeks","1","25","30","6","NOW"
"html-keyboard-response","15","21523","0.0-5.0-3.3","6400ea4cec0b310140841b2d","bdp_td","Sat Mar 25 2023 15:40:50 GMT-0400 (Eastern Daylight Time)","76493","","null","","","","offerFB","","<div class='trialBorder'><div class='vertical-center'><img style='vertical-align:center; align:center' src=img/fixation3.jpg></div><div class='cl'><div class='vertical-center'>$30<br>in<br>6 weeks</div></div><div class='cr'><div class='vertical-center'><font style='color:orange'>$25<br><br>now</font></div></div><div class='respDivL'><div class='vertical-center'>(E)</div></div><div class='respDivR'><div class='vertical-center'><font style='color:orange'>(I)</font></div></div></div>","null","$25<br><br>now","$30<br>in<br>6 weeks","1","25","30","6",""
"html-keyboard-response","16","22027","0.0-5.0-1.4","6400ea4cec0b310140841b2d","bdp_td","Sat Mar 25 2023 15:40:50 GMT-0400 (Eastern Daylight Time)","76493","","null","","","","FIX","","<div class='trialBorder'><div class='vertical-center'><img style='vertical-align:center; align:center' src=img/fixation3.jpg></div></div>","null","","","","","","",""
"html-keyboard-response","17","24107","0.0-5.0-2.4","6400ea4cec0b310140841b2d","bdp_td","Sat Mar 25 2023 15:40:50 GMT-0400 (Eastern Daylight Time)","76493","","2078","","","","offer","","<div class='trialBorder'><div class='vertical-center'><img style='vertical-align:center; align:center' src=img/fixation3.jpg></div><div class='cl'><div class='vertical-center'>$28<br><br>now</div></div><div class='cr'><div class='vertical-center'>$30<br>in<br>12 weeks</div></div><div class='respDivL'><div class='vertical-center'>(E)</div></div><div class='respDivR'><div class='vertical-center'>(I)</div></div></div>","E","$28<br><br>now","$30<br>in<br>12 weeks","0","28","30","12","NOW"
"html-keyboard-response","18","24363","0.0-5.0-3.4","6400ea4cec0b310140841b2d","bdp_td","Sat Mar 25 2023 15:40:50 GMT-0400 (Eastern Daylight Time)","76493","","null","","","","offerFB","","<div class='trialBorder'><div class='vertical-center'><img style='vertical-align:center; align:center' src=img/fixation3.jpg></div><div class='cl'><div class='vertical-center'><font style='color:orange'>$28<br><br>now</font></div></div><div class='cr'><div class='vertical-center'>$30<br>in<br>12 weeks</div></div><div class='respDivL'><div class='vertical-center'><font style='color:orange'>(E)</font></div></div><div class='respDivR'><div class='vertical-center'>(I)</div></div></div>","null","$28<br><br>now","$30<br>in<br>12 weeks","0","28","30","12",""
"html-keyboard-response","19","24867","0.0-5.0-1.5","6400ea4cec0b310140841b2d","bdp_td","Sat Mar 25 2023 15:40:50 GMT-0400 (Eastern Daylight Time)","76493","","null","","","","FIX","","<div class='trialBorder'><div class='vertical-center'><img style='vertical-align:center; align:center' src=img/fixation3.jpg></div></div>","null","","","","","","",""
"html-keyboard-response","20","27535","0.0-5.0-2.5","6400ea4cec0b310140841b2d","bdp_td","Sat Mar 25 2023 15:40:50 GMT-0400 (Eastern Daylight Time)","76493","","2667","","","","offer","","<div class='trialBorder'><div class='vertical-center'><img style='vertical-align:center; align:center' src=img/fixation3.jpg></div><div class='cl'><div class='vertical-center'>$33<br><br>now</div></div><div class='cr'><div class='vertical-center'>$80<br>in<br>2 weeks</div></div><div class='respDivL'><div class='vertical-center'>(E)</div></div><div class='respDivR'><div class='vertical-center'>(I)</div></div></div>","I","$33<br><br>now","$80<br>in<br>2 weeks","0","33","80","2","THEN"
"html-keyboard-response","21","27795","0.0-5.0-3.5","6400ea4cec0b310140841b2d","bdp_td","Sat Mar 25 2023 15:40:50 GMT-0400 (Eastern Daylight Time)","76493","","null","","","","offerFB","","<div class='trialBorder'><div class='vertical-center'><img style='vertical-align:center; align:center' src=img/fixation3.jpg></div><div class='cl'><div class='vertical-center'>$33<br><br>now</div></div><div class='cr'><div class='vertical-center'><font style='color:orange'>$80<br>in<br>2 weeks</font></div></div><div class='respDivL'><div class='vertical-center'>(E)</div></div><div class='respDivR'><div class='vertical-center'><font style='color:orange'>(I)</font></div></div></div>","null","$33<br><br>now","$80<br>in<br>2 weeks","0","33","80","2",""
"html-keyboard-response","22","28299","0.0-5.0-1.6","6400ea4cec0b310140841b2d","bdp_td","Sat Mar 25 2023 15:40:50 GMT-0400 (Eastern Daylight Time)","76493","","null","","","","FIX","","<div class='trialBorder'><div class='vertical-center'><img style='vertical-align:center; align:center' src=img/fixation3.jpg></div></div>","null","","","","","","",""
"html-keyboard-response","23","31508","0.0-5.0-2.6","6400ea4cec0b310140841b2d","bdp_td","Sat Mar 25 2023 15:40:50 GMT-0400 (Eastern Daylight Time)","76493","","3208","","","","offer","","<div class='trialBorder'><div class='vertical-center'><img style='vertical-align:center; align:center' src=img/fixation3.jpg></div><div class='cl'><div class='vertical-center'>$50<br>in<br>3 weeks</div></div><div class='cr'><div class='vertical-center'>$27<br><br>now</div></div><div class='respDivL'><div class='vertical-center'>(E)</div></div><div class='respDivR'><div class='vertical-center'>(I)</div></div></div>","E","$27<br><br>now","$50<br>in<br>3 weeks","1","27","50","3","THEN"
"html-keyboard-response","24","31763","0.0-5.0-3.6","6400ea4cec0b310140841b2d","bdp_td","Sat Mar 25 2023 15:40:50 GMT-0400 (Eastern Daylight Time)","76493","","null","","","","offerFB","","<div class='trialBorder'><div class='vertical-center'><img style='vertical-align:center; align:center' src=img/fixation3.jpg></div><div class='cl'><div class='vertical-center'><font style='color:orange'>$50<br>in<br>3 weeks</font></div></div><div class='cr'><div class='vertical-center'>$27<br><br>now</div></div><div class='respDivL'><div class='vertical-center'><font style='color:orange'>(E)</font></div></div><div class='respDivR'><div class='vertical-center'>(I)</div></div></div>","null","$27<br><br>now","$50<br>in<br>3 weeks","1","27","50","3",""
"html-keyboard-response","25","32267","0.0-5.0-1.7","6400ea4cec0b310140841b2d","bdp_td","Sat Mar 25 2023 15:40:50 GMT-0400 (Eastern Daylight Time)","76493","","null","","","","FIX","","<div class='trialBorder'><div class='vertical-center'><img style='vertical-align:center; align:center' src=img/fixation3.jpg></div></div>","null","","","","","","",""
"html-keyboard-response","26","33727","0.0-5.0-2.7","6400ea4cec0b310140841b2d","bdp_td","Sat Mar 25 2023 15:40:50 GMT-0400 (Eastern Daylight Time)","76493","","1458","","","","offer","","<div class='trialBorder'><div class='vertical-center'><img style='vertical-align:center; align:center' src=img/fixation3.jpg></div><div class='cl'><div class='vertical-center'>$55<br>in<br>6 weeks</div></div><div class='cr'><div class='vertical-center'>$40<br><br>now</div></div><div class='respDivL'><div class='vertical-center'>(E)</div></div><div class='respDivR'><div class='vertical-center'>(I)</div></div></div>","I","$40<br><br>now","$55<br>in<br>6 weeks","1","40","55","6","NOW"
"html-keyboard-response","27","33987","0.0-5.0-3.7","6400ea4cec0b310140841b2d","bdp_td","Sat Mar 25 2023 15:40:50 GMT-0400 (Eastern Daylight Time)","76493","","null","","","","offerFB","","<div class='trialBorder'><div class='vertical-center'><img style='vertical-align:center; align:center' src=img/fixation3.jpg></div><div class='cl'><div class='vertical-center'>$55<br>in<br>6 weeks</div></div><div class='cr'><div class='vertical-center'><font style='color:orange'>$40<br><br>now</font></div></div><div class='respDivL'><div class='vertical-center'>(E)</div></div><div class='respDivR'><div class='vertical-center'><font style='color:orange'>(I)</font></div></div></div>","null","$40<br><br>now","$55<br>in<br>6 weeks","1","40","55","6",""
"html-keyboard-response","28","34491","0.0-5.0-1.8","6400ea4cec0b310140841b2d","bdp_td","Sat Mar 25 2023 15:40:50 GMT-0400 (Eastern Daylight Time)","76493","","null","","","","FIX","","<div class='trialBorder'><div class='vertical-center'><img style='vertical-align:center; align:center' src=img/fixation3.jpg></div></div>","null","","","","","","",""
"html-keyboard-response","29","35903","0.0-5.0-2.8","6400ea4cec0b310140841b2d","bdp_td","Sat Mar 25 2023 15:40:50 GMT-0400 (Eastern Daylight Time)","76493","","1410","","","","offer","","<div class='trialBorder'><div class='vertical-center'><img style='vertical-align:center; align:center' src=img/fixation3.jpg></div><div class='cl'><div class='vertical-center'>$25<br>in<br>6 weeks</div></div><div class='cr'><div class='vertical-center'>$19<br><br>now</div></div><div class='respDivL'><div class='vertical-center'>(E)</div></div><div class='respDivR'><div class='vertical-center'>(I)</div></div></div>","I","$19<br><br>now","$25<br>in<br>6 weeks","1","19","25","6","NOW"
"html-keyboard-response","30","36163","0.0-5.0-3.8","6400ea4cec0b310140841b2d","bdp_td","Sat Mar 25 2023 15:40:50 GMT-0400 (Eastern Daylight Time)","76493","","null","","","","offerFB","","<div class='trialBorder'><div class='vertical-center'><img style='vertical-align:center; align:center' src=img/fixation3.jpg></div><div class='cl'><div class='vertical-center'>$25<br>in<br>6 weeks</div></div><div class='cr'><div class='vertical-center'><font style='color:orange'>$19<br><br>now</font></div></div><div class='respDivL'><div class='vertical-center'>(E)</div></div><div class='respDivR'><div class='vertical-center'><font style='color:orange'>(I)</font></div></div></div>","null","$19<br><br>now","$25<br>in<br>6 weeks","1","19","25","6",""
"html-keyboard-response","31","36668","0.0-5.0-1.9","6400ea4cec0b310140841b2d","bdp_td","Sat Mar 25 2023 15:40:50 GMT-0400 (Eastern Daylight Time)","76493","","null","","","","FIX","","<div class='trialBorder'><div class='vertical-center'><img style='vertical-align:center; align:center' src=img/fixation3.jpg></div></div>","null","","","","","","",""
"html-keyboard-response","32","38028","0.0-5.0-2.9","6400ea4cec0b310140841b2d","bdp_td","Sat Mar 25 2023 15:40:50 GMT-0400 (Eastern Daylight Time)","76493","","1358","","","","offer","","<div class='trialBorder'><div class='vertical-center'><img style='vertical-align:center; align:center' src=img/fixation3.jpg></div><div class='cl'><div class='vertical-center'>$14<br><br>now</div></div><div class='cr'><div class='vertical-center'>$25<br>in<br>3 weeks</div></div><div class='respDivL'><div class='vertical-center'>(E)</div></div><div class='respDivR'><div class='vertical-center'>(I)</div></div></div>","E","$14<br><br>now","$25<br>in<br>3 weeks","0","14","25","3","NOW"
"html-keyboard-response","33","38284","0.0-5.0-3.9","6400ea4cec0b310140841b2d","bdp_td","Sat Mar 25 2023 15:40:50 GMT-0400 (Eastern Daylight Time)","76493","","null","","","","offerFB","","<div class='trialBorder'><div class='vertical-center'><img style='vertical-align:center; align:center' src=img/fixation3.jpg></div><div class='cl'><div class='vertical-center'><font style='color:orange'>$14<br><br>now</font></div></div><div class='cr'><div class='vertical-center'>$25<br>in<br>3 weeks</div></div><div class='respDivL'><div class='vertical-center'><font style='color:orange'>(E)</font></div></div><div class='respDivR'><div class='vertical-center'>(I)</div></div></div>","null","$14<br><br>now","$25<br>in<br>3 weeks","0","14","25","3",""
"html-keyboard-response","34","38787","0.0-5.0-1.10","6400ea4cec0b310140841b2d","bdp_td","Sat Mar 25 2023 15:40:50 GMT-0400 (Eastern Daylight Time)","76493","","null","","","","FIX","","<div class='trialBorder'><div class='vertical-center'><img style='vertical-align:center; align:center' src=img/fixation3.jpg></div></div>","null","","","","","","",""
"html-keyboard-response","35","39876","0.0-5.0-2.10","6400ea4cec0b310140841b2d","bdp_td","Sat Mar 25 2023 15:40:50 GMT-0400 (Eastern Daylight Time)","76493","","1088","","","","offer","","<div class='trialBorder'><div class='vertical-center'><img style='vertical-align:center; align:center' src=img/fixation3.jpg></div><div class='cl'><div class='vertical-center'>$24<br><br>now</div></div><div class='cr'><div class='vertical-center'>$35<br>in<br>3 weeks</div></div><div class='respDivL'><div class='vertical-center'>(E)</div></div><div class='respDivR'><div class='vertical-center'>(I)</div></div></div>","E","$24<br><br>now","$35<br>in<br>3 weeks","0","24","35","3","NOW"
"html-keyboard-response","36","40131","0.0-5.0-3.10","6400ea4cec0b310140841b2d","bdp_td","Sat Mar 25 2023 15:40:50 GMT-0400 (Eastern Daylight Time)","76493","","null","","","","offerFB","","<div class='trialBorder'><div class='vertical-center'><img style='vertical-align:center; align:center' src=img/fixation3.jpg></div><div class='cl'><div class='vertical-center'><font style='color:orange'>$24<br><br>now</font></div></div><div class='cr'><div class='vertical-center'>$35<br>in<br>3 weeks</div></div><div class='respDivL'><div class='vertical-center'><font style='color:orange'>(E)</font></div></div><div class='respDivR'><div class='vertical-center'>(I)</div></div></div>","null","$24<br><br>now","$35<br>in<br>3 weeks","0","24","35","3",""
"html-keyboard-response","37","40635","0.0-5.0-1.11","6400ea4cec0b310140841b2d","bdp_td","Sat Mar 25 2023 15:40:50 GMT-0400 (Eastern Daylight Time)","76493","","null","","","","FIX","","<div class='trialBorder'><div class='vertical-center'><img style='vertical-align:center; align:center' src=img/fixation3.jpg></div></div>","null","","","","","","",""
"html-keyboard-response","38","41908","0.0-5.0-2.11","6400ea4cec0b310140841b2d","bdp_td","Sat Mar 25 2023 15:40:50 GMT-0400 (Eastern Daylight Time)","76493","","1272","","","","offer","","<div class='trialBorder'><div class='vertical-center'><img style='vertical-align:center; align:center' src=img/fixation3.jpg></div><div class='cl'><div class='vertical-center'>$54<br><br>now</div></div><div class='cr'><div class='vertical-center'>$55<br>in<br>12 weeks</div></div><div class='respDivL'><div class='vertical-center'>(E)</div></div><div class='respDivR'><div class='vertical-center'>(I)</div></div></div>","E","$54<br><br>now","$55<br>in<br>12 weeks","0","54","55","12","NOW"
"html-keyboard-response","39","42163","0.0-5.0-3.11","6400ea4cec0b310140841b2d","bdp_td","Sat Mar 25 2023 15:40:50 GMT-0400 (Eastern Daylight Time)","76493","","null","","","","offerFB","","<div class='trialBorder'><div class='vertical-center'><img style='vertical-align:center; align:center' src=img/fixation3.jpg></div><div class='cl'><div class='vertical-center'><font style='color:orange'>$54<br><br>now</font></div></div><div class='cr'><div class='vertical-center'>$55<br>in<br>12 weeks</div></div><div class='respDivL'><div class='vertical-center'><font style='color:orange'>(E)</font></div></div><div class='respDivR'><div class='vertical-center'>(I)</div></div></div>","null","$54<br><br>now","$55<br>in<br>12 weeks","0","54","55","12",""
"html-keyboard-response","40","42668","0.0-5.0-1.12","6400ea4cec0b310140841b2d","bdp_td","Sat Mar 25 2023 15:40:50 GMT-0400 (Eastern Daylight Time)","76493","","null","","","","FIX","","<div class='trialBorder'><div class='vertical-center'><img style='vertical-align:center; align:center' src=img/fixation3.jpg></div></div>","null","","","","","","",""
"html-keyboard-response","41","44216","0.0-5.0-2.12","6400ea4cec0b310140841b2d","bdp_td","Sat Mar 25 2023 15:40:50 GMT-0400 (Eastern Daylight Time)","76493","","1547","","","","offer","","<div class='trialBorder'><div class='vertical-center'><img style='vertical-align:center; align:center' src=img/fixation3.jpg></div><div class='cl'><div class='vertical-center'>$54<br><br>now</div></div><div class='cr'><div class='vertical-center'>$80<br>in<br>3 weeks</div></div><div class='respDivL'><div class='vertical-center'>(E)</div></div><div class='respDivR'><div class='vertical-center'>(I)</div></div></div>","E","$54<br><br>now","$80<br>in<br>3 weeks","0","54","80","3","NOW"
"html-keyboard-response","42","44476","0.0-5.0-3.12","6400ea4cec0b310140841b2d","bdp_td","Sat Mar 25 2023 15:40:50 GMT-0400 (Eastern Daylight Time)","76493","","null","","","","offerFB","","<div class='trialBorder'><div class='vertical-center'><img style='vertical-align:center; align:center' src=img/fixation3.jpg></div><div class='cl'><div class='vertical-center'><font style='color:orange'>$54<br><br>now</font></div></div><div class='cr'><div class='vertical-center'>$80<br>in<br>3 weeks</div></div><div class='respDivL'><div class='vertical-center'><font style='color:orange'>(E)</font></div></div><div class='respDivR'><div class='vertical-center'>(I)</div></div></div>","null","$54<br><br>now","$80<br>in<br>3 weeks","0","54","80","3",""
"html-keyboard-response","43","44979","0.0-5.0-1.13","6400ea4cec0b310140841b2d","bdp_td","Sat Mar 25 2023 15:40:50 GMT-0400 (Eastern Daylight Time)","76493","","null","","","","FIX","","<div class='trialBorder'><div class='vertical-center'><img style='vertical-align:center; align:center' src=img/fixation3.jpg></div></div>","null","","","","","","",""
"html-keyboard-response","44","46390","0.0-5.0-2.13","6400ea4cec0b310140841b2d","bdp_td","Sat Mar 25 2023 15:40:50 GMT-0400 (Eastern Daylight Time)","76493","","1409","","","","offer","","<div class='trialBorder'><div class='vertical-center'><img style='vertical-align:center; align:center' src=img/fixation3.jpg></div><div class='cl'><div class='vertical-center'>$60<br>in<br>12 weeks</div></div><div class='cr'><div class='vertical-center'>$54<br><br>now</div></div><div class='respDivL'><div class='vertical-center'>(E)</div></div><div class='respDivR'><div class='vertical-center'>(I)</div></div></div>","I","$54<br><br>now","$60<br>in<br>12 weeks","1","54","60","12","NOW"
"html-keyboard-response","45","46643","0.0-5.0-3.13","6400ea4cec0b310140841b2d","bdp_td","Sat Mar 25 2023 15:40:50 GMT-0400 (Eastern Daylight Time)","76493","","null","","","","offerFB","","<div class='trialBorder'><div class='vertical-center'><img style='vertical-align:center; align:center' src=img/fixation3.jpg></div><div class='cl'><div class='vertical-center'>$60<br>in<br>12 weeks</div></div><div class='cr'><div class='vertical-center'><font style='color:orange'>$54<br><br>now</font></div></div><div class='respDivL'><div class='vertical-center'>(E)</div></div><div class='respDivR'><div class='vertical-center'><font style='color:orange'>(I)</font></div></div></div>","null","$54<br><br>now","$60<br>in<br>12 weeks","1","54","60","12",""
"html-keyboard-response","46","47147","0.0-5.0-1.14","6400ea4cec0b310140841b2d","bdp_td","Sat Mar 25 2023 15:40:50 GMT-0400 (Eastern Daylight Time)","76493","","null","","","","FIX","","<div class='trialBorder'><div class='vertical-center'><img style='vertical-align:center; align:center' src=img/fixation3.jpg></div></div>","null","","","","","","",""
"html-keyboard-response","47","48081","0.0-5.0-2.14","6400ea4cec0b310140841b2d","bdp_td","Sat Mar 25 2023 15:40:50 GMT-0400 (Eastern Daylight Time)","76493","","933","","","","offer","","<div class='trialBorder'><div class='vertical-center'><img style='vertical-align:center; align:center' src=img/fixation3.jpg></div><div class='cl'><div class='vertical-center'>$35<br>in<br>12 weeks</div></div><div class='cr'><div class='vertical-center'>$34<br><br>now</div></div><div class='respDivL'><div class='vertical-center'>(E)</div></div><div class='respDivR'><div class='vertical-center'>(I)</div></div></div>","I","$34<br><br>now","$35<br>in<br>12 weeks","1","34","35","12","NOW"
"html-keyboard-response","48","48343","0.0-5.0-3.14","6400ea4cec0b310140841b2d","bdp_td","Sat Mar 25 2023 15:40:50 GMT-0400 (Eastern Daylight Time)","76493","","null","","","","offerFB","","<div class='trialBorder'><div class='vertical-center'><img style='vertical-align:center; align:center' src=img/fixation3.jpg></div><div class='cl'><div class='vertical-center'>$35<br>in<br>12 weeks</div></div><div class='cr'><div class='vertical-center'><font style='color:orange'>$34<br><br>now</font></div></div><div class='respDivL'><div class='vertical-center'>(E)</div></div><div class='respDivR'><div class='vertical-center'><font style='color:orange'>(I)</font></div></div></div>","null","$34<br><br>now","$35<br>in<br>12 weeks","1","34","35","12",""
"html-keyboard-response","49","48851","0.0-5.0-1.15","6400ea4cec0b310140841b2d","bdp_td","Sat Mar 25 2023 15:40:50 GMT-0400 (Eastern Daylight Time)","76493","","null","","","","FIX","","<div class='trialBorder'><div class='vertical-center'><img style='vertical-align:center; align:center' src=img/fixation3.jpg></div></div>","null","","","","","","",""
"html-keyboard-response","50","49704","0.0-5.0-2.15","6400ea4cec0b310140841b2d","bdp_td","Sat Mar 25 2023 15:40:50 GMT-0400 (Eastern Daylight Time)","76493","","852","","","","offer","","<div class='trialBorder'><div class='vertical-center'><img style='vertical-align:center; align:center' src=img/fixation3.jpg></div><div class='cl'><div class='vertical-center'>$34<br><br>now</div></div><div class='cr'><div class='vertical-center'>$50<br>in<br>6 weeks</div></div><div class='respDivL'><div class='vertical-center'>(E)</div></div><div class='respDivR'><div class='vertical-center'>(I)</div></div></div>","E","$34<br><br>now","$50<br>in<br>6 weeks","0","34","50","6","NOW"
"html-keyboard-response","51","49964","0.0-5.0-3.15","6400ea4cec0b310140841b2d","bdp_td","Sat Mar 25 2023 15:40:50 GMT-0400 (Eastern Daylight Time)","76493","","null","","","","offerFB","","<div class='trialBorder'><div class='vertical-center'><img style='vertical-align:center; align:center' src=img/fixation3.jpg></div><div class='cl'><div class='vertical-center'><font style='color:orange'>$34<br><br>now</font></div></div><div class='cr'><div class='vertical-center'>$50<br>in<br>6 weeks</div></div><div class='respDivL'><div class='vertical-center'><font style='color:orange'>(E)</font></div></div><div class='respDivR'><div class='vertical-center'>(I)</div></div></div>","null","$34<br><br>now","$50<br>in<br>6 weeks","0","34","50","6",""
"html-keyboard-response","52","50467","0.0-5.0-1.16","6400ea4cec0b310140841b2d","bdp_td","Sat Mar 25 2023 15:40:50 GMT-0400 (Eastern Daylight Time)","76493","","null","","","","FIX","","<div class='trialBorder'><div class='vertical-center'><img style='vertical-align:center; align:center' src=img/fixation3.jpg></div></div>","null","","","","","","",""
"html-keyboard-response","53","51279","0.0-5.0-2.16","6400ea4cec0b310140841b2d","bdp_td","Sat Mar 25 2023 15:40:50 GMT-0400 (Eastern Daylight Time)","76493","","809","","","","offer","","<div class='trialBorder'><div class='vertical-center'><img style='vertical-align:center; align:center' src=img/fixation3.jpg></div><div class='cl'><div class='vertical-center'>$60<br>in<br>6 weeks</div></div><div class='cr'><div class='vertical-center'>$49<br><br>now</div></div><div class='respDivL'><div class='vertical-center'>(E)</div></div><div class='respDivR'><div class='vertical-center'>(I)</div></div></div>","I","$49<br><br>now","$60<br>in<br>6 weeks","1","49","60","6","NOW"
"html-keyboard-response","54","51532","0.0-5.0-3.16","6400ea4cec0b310140841b2d","bdp_td","Sat Mar 25 2023 15:40:50 GMT-0400 (Eastern Daylight Time)","76493","","null","","","","offerFB","","<div class='trialBorder'><div class='vertical-center'><img style='vertical-align:center; align:center' src=img/fixation3.jpg></div><div class='cl'><div class='vertical-center'>$60<br>in<br>6 weeks</div></div><div class='cr'><div class='vertical-center'><font style='color:orange'>$49<br><br>now</font></div></div><div class='respDivL'><div class='vertical-center'>(E)</div></div><div class='respDivR'><div class='vertical-center'><font style='color:orange'>(I)</font></div></div></div>","null","$49<br><br>now","$60<br>in<br>6 weeks","1","49","60","6",""
"html-keyboard-response","55","52035","0.0-5.0-1.17","6400ea4cec0b310140841b2d","bdp_td","Sat Mar 25 2023 15:40:50 GMT-0400 (Eastern Daylight Time)","76493","","null","","","","FIX","","<div class='trialBorder'><div class='vertical-center'><img style='vertical-align:center; align:center' src=img/fixation3.jpg></div></div>","null","","","","","","",""
"html-keyboard-response","56","52994","0.0-5.0-2.17","6400ea4cec0b310140841b2d","bdp_td","Sat Mar 25 2023 15:40:50 GMT-0400 (Eastern Daylight Time)","76493","","958","","","","offer","","<div class='trialBorder'><div class='vertical-center'><img style='vertical-align:center; align:center' src=img/fixation3.jpg></div><div class='cl'><div class='vertical-center'>$25<br>in<br>12 weeks</div></div><div class='cr'><div class='vertical-center'>$22<br><br>now</div></div><div class='respDivL'><div class='vertical-center'>(E)</div></div><div class='respDivR'><div class='vertical-center'>(I)</div></div></div>","I","$22<br><br>now","$25<br>in<br>12 weeks","1","22","25","12","NOW"
"html-keyboard-response","57","53252","0.0-5.0-3.17","6400ea4cec0b310140841b2d","bdp_td","Sat Mar 25 2023 15:40:50 GMT-0400 (Eastern Daylight Time)","76493","","null","","","","offerFB","","<div class='trialBorder'><div class='vertical-center'><img style='vertical-align:center; align:center' src=img/fixation3.jpg></div><div class='cl'><div class='vertical-center'>$25<br>in<br>12 weeks</div></div><div class='cr'><div class='vertical-center'><font style='color:orange'>$22<br><br>now</font></div></div><div class='respDivL'><div class='vertical-center'>(E)</div></div><div class='respDivR'><div class='vertical-center'><font style='color:orange'>(I)</font></div></div></div>","null","$22<br><br>now","$25<br>in<br>12 weeks","1","22","25","12",""
"html-keyboard-response","58","53756","0.0-5.0-1.18","6400ea4cec0b310140841b2d","bdp_td","Sat Mar 25 2023 15:40:50 GMT-0400 (Eastern Daylight Time)","76493","","null","","","","FIX","","<div class='trialBorder'><div class='vertical-center'><img style='vertical-align:center; align:center' src=img/fixation3.jpg></div></div>","null","","","","","","",""
"html-keyboard-response","59","56657","0.0-5.0-2.18","6400ea4cec0b310140841b2d","bdp_td","Sat Mar 25 2023 15:40:50 GMT-0400 (Eastern Daylight Time)","76493","","2899","","","","offer","","<div class='trialBorder'><div class='vertical-center'><img style='vertical-align:center; align:center' src=img/fixation3.jpg></div><div class='cl'><div class='vertical-center'>$25<br><br>now</div></div><div class='cr'><div class='vertical-center'>$60<br>in<br>3 weeks</div></div><div class='respDivL'><div class='vertical-center'>(E)</div></div><div class='respDivR'><div class='vertical-center'>(I)</div></div></div>","E","$25<br><br>now","$60<br>in<br>3 weeks","0","25","60","3","NOW"
"html-keyboard-response","60","56916","0.0-5.0-3.18","6400ea4cec0b310140841b2d","bdp_td","Sat Mar 25 2023 15:40:50 GMT-0400 (Eastern Daylight Time)","76493","","null","","","","offerFB","","<div class='trialBorder'><div class='vertical-center'><img style='vertical-align:center; align:center' src=img/fixation3.jpg></div><div class='cl'><div class='vertical-center'><font style='color:orange'>$25<br><br>now</font></div></div><div class='cr'><div class='vertical-center'>$60<br>in<br>3 weeks</div></div><div class='respDivL'><div class='vertical-center'><font style='color:orange'>(E)</font></div></div><div class='respDivR'><div class='vertical-center'>(I)</div></div></div>","null","$25<br><br>now","$60<br>in<br>3 weeks","0","25","60","3",""
"html-keyboard-response","61","57423","0.0-5.0-1.19","6400ea4cec0b310140841b2d","bdp_td","Sat Mar 25 2023 15:40:50 GMT-0400 (Eastern Daylight Time)","76493","","null","","","","FIX","","<div class='trialBorder'><div class='vertical-center'><img style='vertical-align:center; align:center' src=img/fixation3.jpg></div></div>","null","","","","","","",""
"html-keyboard-response","62","59026","0.0-5.0-2.19","6400ea4cec0b310140841b2d","bdp_td","Sat Mar 25 2023 15:40:50 GMT-0400 (Eastern Daylight Time)","76493","","1602","","","","offer","","<div class='trialBorder'><div class='vertical-center'><img style='vertical-align:center; align:center' src=img/fixation3.jpg></div><div class='cl'><div class='vertical-center'>$67<br><br>now</div></div><div class='cr'><div class='vertical-center'>$75<br>in<br>12 weeks</div></div><div class='respDivL'><div class='vertical-center'>(E)</div></div><div class='respDivR'><div class='vertical-center'>(I)</div></div></div>","E","$67<br><br>now","$75<br>in<br>12 weeks","0","67","75","12","NOW"
"html-keyboard-response","63","59284","0.0-5.0-3.19","6400ea4cec0b310140841b2d","bdp_td","Sat Mar 25 2023 15:40:50 GMT-0400 (Eastern Daylight Time)","76493","","null","","","","offerFB","","<div class='trialBorder'><div class='vertical-center'><img style='vertical-align:center; align:center' src=img/fixation3.jpg></div><div class='cl'><div class='vertical-center'><font style='color:orange'>$67<br><br>now</font></div></div><div class='cr'><div class='vertical-center'>$75<br>in<br>12 weeks</div></div><div class='respDivL'><div class='vertical-center'><font style='color:orange'>(E)</font></div></div><div class='respDivR'><div class='vertical-center'>(I)</div></div></div>","null","$67<br><br>now","$75<br>in<br>12 weeks","0","67","75","12",""
"html-keyboard-response","64","59788","0.0-5.0-1.20","6400ea4cec0b310140841b2d","bdp_td","Sat Mar 25 2023 15:40:50 GMT-0400 (Eastern Daylight Time)","76493","","null","","","","FIX","","<div class='trialBorder'><div class='vertical-center'><img style='vertical-align:center; align:center' src=img/fixation3.jpg></div></div>","null","","","","","","",""
"html-keyboard-response","65","60937","0.0-5.0-2.20","6400ea4cec0b310140841b2d","bdp_td","Sat Mar 25 2023 15:40:50 GMT-0400 (Eastern Daylight Time)","76493","","1148","","","","offer","","<div class='trialBorder'><div class='vertical-center'><img style='vertical-align:center; align:center' src=img/fixation3.jpg></div><div class='cl'><div class='vertical-center'>$47<br><br>now</div></div><div class='cr'><div class='vertical-center'>$50<br>in<br>12 weeks</div></div><div class='respDivL'><div class='vertical-center'>(E)</div></div><div class='respDivR'><div class='vertical-center'>(I)</div></div></div>","E","$47<br><br>now","$50<br>in<br>12 weeks","0","47","50","12","NOW"
"html-keyboard-response","66","61196","0.0-5.0-3.20","6400ea4cec0b310140841b2d","bdp_td","Sat Mar 25 2023 15:40:50 GMT-0400 (Eastern Daylight Time)","76493","","null","","","","offerFB","","<div class='trialBorder'><div class='vertical-center'><img style='vertical-align:center; align:center' src=img/fixation3.jpg></div><div class='cl'><div class='vertical-center'><font style='color:orange'>$47<br><br>now</font></div></div><div class='cr'><div class='vertical-center'>$50<br>in<br>12 weeks</div></div><div class='respDivL'><div class='vertical-center'><font style='color:orange'>(E)</font></div></div><div class='respDivR'><div class='vertical-center'>(I)</div></div></div>","null","$47<br><br>now","$50<br>in<br>12 weeks","0","47","50","12",""
"html-keyboard-response","67","61700","0.0-5.0-1.21","6400ea4cec0b310140841b2d","bdp_td","Sat Mar 25 2023 15:40:50 GMT-0400 (Eastern Daylight Time)","76493","","null","","","","FIX","","<div class='trialBorder'><div class='vertical-center'><img style='vertical-align:center; align:center' src=img/fixation3.jpg></div></div>","null","","","","","","",""
"html-keyboard-response","68","63177","0.0-5.0-2.21","6400ea4cec0b310140841b2d","bdp_td","Sat Mar 25 2023 15:40:50 GMT-0400 (Eastern Daylight Time)","76493","","1475","","","","offer","","<div class='trialBorder'><div class='vertical-center'><img style='vertical-align:center; align:center' src=img/fixation3.jpg></div><div class='cl'><div class='vertical-center'>$41<br><br>now</div></div><div class='cr'><div class='vertical-center'>$75<br>in<br>3 weeks</div></div><div class='respDivL'><div class='vertical-center'>(E)</div></div><div class='respDivR'><div class='vertical-center'>(I)</div></div></div>","E","$41<br><br>now","$75<br>in<br>3 weeks","0","41","75","3","NOW"
"html-keyboard-response","69","63436","0.0-5.0-3.21","6400ea4cec0b310140841b2d","bdp_td","Sat Mar 25 2023 15:40:50 GMT-0400 (Eastern Daylight Time)","76493","","null","","","","offerFB","","<div class='trialBorder'><div class='vertical-center'><img style='vertical-align:center; align:center' src=img/fixation3.jpg></div><div class='cl'><div class='vertical-center'><font style='color:orange'>$41<br><br>now</font></div></div><div class='cr'><div class='vertical-center'>$75<br>in<br>3 weeks</div></div><div class='respDivL'><div class='vertical-center'><font style='color:orange'>(E)</font></div></div><div class='respDivR'><div class='vertical-center'>(I)</div></div></div>","null","$41<br><br>now","$75<br>in<br>3 weeks","0","41","75","3",""
"html-keyboard-response","70","63940","0.0-5.0-1.22","6400ea4cec0b310140841b2d","bdp_td","Sat Mar 25 2023 15:40:50 GMT-0400 (Eastern Daylight Time)","76493","","null","","","","FIX","","<div class='trialBorder'><div class='vertical-center'><img style='vertical-align:center; align:center' src=img/fixation3.jpg></div></div>","null","","","","","","",""
"html-keyboard-response","71","66066","0.0-5.0-2.22","6400ea4cec0b310140841b2d","bdp_td","Sat Mar 25 2023 15:40:50 GMT-0400 (Eastern Daylight Time)","76493","","2124","","","","offer","","<div class='trialBorder'><div class='vertical-center'><img style='vertical-align:center; align:center' src=img/fixation3.jpg></div><div class='cl'><div class='vertical-center'>$15<br><br>now</div></div><div class='cr'><div class='vertical-center'>$35<br>in<br>2 weeks</div></div><div class='respDivL'><div class='vertical-center'>(E)</div></div><div class='respDivR'><div class='vertical-center'>(I)</div></div></div>","I","$15<br><br>now","$35<br>in<br>2 weeks","0","15","35","2","THEN"
"html-keyboard-response","72","66324","0.0-5.0-3.22","6400ea4cec0b310140841b2d","bdp_td","Sat Mar 25 2023 15:40:50 GMT-0400 (Eastern Daylight Time)","76493","","null","","","","offerFB","","<div class='trialBorder'><div class='vertical-center'><img style='vertical-align:center; align:center' src=img/fixation3.jpg></div><div class='cl'><div class='vertical-center'>$15<br><br>now</div></div><div class='cr'><div class='vertical-center'><font style='color:orange'>$35<br>in<br>2 weeks</font></div></div><div class='respDivL'><div class='vertical-center'>(E)</div></div><div class='respDivR'><div class='vertical-center'><font style='color:orange'>(I)</font></div></div></div>","null","$15<br><br>now","$35<br>in<br>2 weeks","0","15","35","2",""
"html-keyboard-response","73","66828","0.0-5.0-1.23","6400ea4cec0b310140841b2d","bdp_td","Sat Mar 25 2023 15:40:50 GMT-0400 (Eastern Daylight Time)","76493","","null","","","","FIX","","<div class='trialBorder'><div class='vertical-center'><img style='vertical-align:center; align:center' src=img/fixation3.jpg></div></div>","null","","","","","","",""
"html-keyboard-response","74","68458","0.0-5.0-2.23","6400ea4cec0b310140841b2d","bdp_td","Sat Mar 25 2023 15:40:50 GMT-0400 (Eastern Daylight Time)","76493","","1628","","","","offer","","<div class='trialBorder'><div class='vertical-center'><img style='vertical-align:center; align:center' src=img/fixation3.jpg></div><div class='cl'><div class='vertical-center'>$75<br>in<br>6 weeks</div></div><div class='cr'><div class='vertical-center'>$55<br><br>now</div></div><div class='respDivL'><div class='vertical-center'>(E)</div></div><div class='respDivR'><div class='vertical-center'>(I)</div></div></div>","I","$55<br><br>now","$75<br>in<br>6 weeks","1","55","75","6","NOW"
"html-keyboard-response","75","68717","0.0-5.0-3.23","6400ea4cec0b310140841b2d","bdp_td","Sat Mar 25 2023 15:40:50 GMT-0400 (Eastern Daylight Time)","76493","","null","","","","offerFB","","<div class='trialBorder'><div class='vertical-center'><img style='vertical-align:center; align:center' src=img/fixation3.jpg></div><div class='cl'><div class='vertical-center'>$75<br>in<br>6 weeks</div></div><div class='cr'><div class='vertical-center'><font style='color:orange'>$55<br><br>now</font></div></div><div class='respDivL'><div class='vertical-center'>(E)</div></div><div class='respDivR'><div class='vertical-center'><font style='color:orange'>(I)</font></div></div></div>","null","$55<br><br>now","$75<br>in<br>6 weeks","1","55","75","6",""
"html-keyboard-response","76","69220","0.0-5.0-1.24","6400ea4cec0b310140841b2d","bdp_td","Sat Mar 25 2023 15:40:50 GMT-0400 (Eastern Daylight Time)","76493","","null","","","","FIX","","<div class='trialBorder'><div class='vertical-center'><img style='vertical-align:center; align:center' src=img/fixation3.jpg></div></div>","null","","","","","","",""
"html-keyboard-response","77","70677","0.0-5.0-2.24","6400ea4cec0b310140841b2d","bdp_td","Sat Mar 25 2023 15:40:50 GMT-0400 (Eastern Daylight Time)","76493","","1455","","","","offer","","<div class='trialBorder'><div class='vertical-center'><img style='vertical-align:center; align:center' src=img/fixation3.jpg></div><div class='cl'><div class='vertical-center'>$69<br><br>now</div></div><div class='cr'><div class='vertical-center'>$85<br>in<br>6 weeks</div></div><div class='respDivL'><div class='vertical-center'>(E)</div></div><div class='respDivR'><div class='vertical-center'>(I)</div></div></div>","E","$69<br><br>now","$85<br>in<br>6 weeks","0","69","85","6","NOW"
"html-keyboard-response","78","70932","0.0-5.0-3.24","6400ea4cec0b310140841b2d","bdp_td","Sat Mar 25 2023 15:40:50 GMT-0400 (Eastern Daylight Time)","76493","","null","","","","offerFB","","<div class='trialBorder'><div class='vertical-center'><img style='vertical-align:center; align:center' src=img/fixation3.jpg></div><div class='cl'><div class='vertical-center'><font style='color:orange'>$69<br><br>now</font></div></div><div class='cr'><div class='vertical-center'>$85<br>in<br>6 weeks</div></div><div class='respDivL'><div class='vertical-center'><font style='color:orange'>(E)</font></div></div><div class='respDivR'><div class='vertical-center'>(I)</div></div></div>","null","$69<br><br>now","$85<br>in<br>6 weeks","0","69","85","6",""
"html-keyboard-response","79","71437","0.0-5.0-1.25","6400ea4cec0b310140841b2d","bdp_td","Sat Mar 25 2023 15:40:50 GMT-0400 (Eastern Daylight Time)","76493","","null","","","","FIX","","<div class='trialBorder'><div class='vertical-center'><img style='vertical-align:center; align:center' src=img/fixation3.jpg></div></div>","null","","","","","","",""
"html-keyboard-response","80","73274","0.0-5.0-2.25","6400ea4cec0b310140841b2d","bdp_td","Sat Mar 25 2023 15:40:50 GMT-0400 (Eastern Daylight Time)","76493","","1837","","","","offer","","<div class='trialBorder'><div class='vertical-center'><img style='vertical-align:center; align:center' src=img/fixation3.jpg></div><div class='cl'><div class='vertical-center'>$55<br>in<br>1 week</div></div><div class='cr'><div class='vertical-center'>$20<br><br>now</div></div><div class='respDivL'><div class='vertical-center'>(E)</div></div><div class='respDivR'><div class='vertical-center'>(I)</div></div></div>","E","$20<br><br>now","$55<br>in<br>1 week","1","20","55","1","THEN"
"html-keyboard-response","81","73533","0.0-5.0-3.25","6400ea4cec0b310140841b2d","bdp_td","Sat Mar 25 2023 15:40:50 GMT-0400 (Eastern Daylight Time)","76493","","null","","","","offerFB","","<div class='trialBorder'><div class='vertical-center'><img style='vertical-align:center; align:center' src=img/fixation3.jpg></div><div class='cl'><div class='vertical-center'><font style='color:orange'>$55<br>in<br>1 week</font></div></div><div class='cr'><div class='vertical-center'>$20<br><br>now</div></div><div class='respDivL'><div class='vertical-center'><font style='color:orange'>(E)</font></div></div><div class='respDivR'><div class='vertical-center'>(I)</div></div></div>","null","$20<br><br>now","$55<br>in<br>1 week","1","20","55","1",""
"html-keyboard-response","82","74036","0.0-5.0-1.26","6400ea4cec0b310140841b2d","bdp_td","Sat Mar 25 2023 15:40:50 GMT-0400 (Eastern Daylight Time)","76493","","null","","","","FIX","","<div class='trialBorder'><div class='vertical-center'><img style='vertical-align:center; align:center' src=img/fixation3.jpg></div></div>","null","","","","","","",""
"html-keyboard-response","83","75225","0.0-5.0-2.26","6400ea4cec0b310140841b2d","bdp_td","Sat Mar 25 2023 15:40:50 GMT-0400 (Eastern Daylight Time)","76493","","1187","","","","offer","","<div class='trialBorder'><div class='vertical-center'><img style='vertical-align:center; align:center' src=img/fixation3.jpg></div><div class='cl'><div class='vertical-center'>$31<br><br>now</div></div><div class='cr'><div class='vertical-center'>$85<br>in<br>1 week</div></div><div class='respDivL'><div class='vertical-center'>(E)</div></div><div class='respDivR'><div class='vertical-center'>(I)</div></div></div>","I","$31<br><br>now","$85<br>in<br>1 week","0","31","85","1","THEN"
"html-keyboard-response","84","75485","0.0-5.0-3.26","6400ea4cec0b310140841b2d","bdp_td","Sat Mar 25 2023 15:40:50 GMT-0400 (Eastern Daylight Time)","76493","","null","","","","offerFB","","<div class='trialBorder'><div class='vertical-center'><img style='vertical-align:center; align:center' src=img/fixation3.jpg></div><div class='cl'><div class='vertical-center'>$31<br><br>now</div></div><div class='cr'><div class='vertical-center'><font style='color:orange'>$85<br>in<br>1 week</font></div></div><div class='respDivL'><div class='vertical-center'>(E)</div></div><div class='respDivR'><div class='vertical-center'><font style='color:orange'>(I)</font></div></div></div>","null","$31<br><br>now","$85<br>in<br>1 week","0","31","85","1",""
"","","","","6400ea4cec0b310140841b2d","bdp_td","Sat Mar 25 2023 15:40:50 GMT-0400 (Eastern Daylight Time)","76493","","","fullscreenexit","85","75490","fullscreenexit","","","","","","","","","",""
"fullscreen","85","76493","0.0-6.0","6400ea4cec0b310140841b2d","bdp_td","Sat Mar 25 2023 15:40:50 GMT-0400 (Eastern Daylight Time)","76493","","","","","","","true","","","","","","","","",""
"html-keyboard-response","86","76996","0.0-7.0","","","","","","null","","","","","","","null","","","","","","",""
