"trial_type","trial_index","time_elapsed","internal_node_id","subject_id","task","startTime","totalTime","view_history","rt","event","trial","time","trialtype","success","numBlurs","stimulus","key_press","nowOffer","thenOffer","thenLeft","nowAmt","thenAmt","thenWeeks","chosen"
"pavlovia","0","15","0.0-0.0","5f514708067fba172909261a","bdp_td","Sat Mar 25 2023 19:22:53 GMT-0400 (Eastern Daylight Time)","367810","","","","","","","","","","","","","","","","",""
"instructions","1","1615","0.0-1.0","5f514708067fba172909261a","bdp_td","Sat Mar 25 2023 19:22:53 GMT-0400 (Eastern Daylight Time)","367810","[{""page_index"":0,""viewing_time"":1597}]","1598","","","","","","","","","","","","","","",""
"","","","","5f514708067fba172909261a","bdp_td","Sat Mar 25 2023 19:22:53 GMT-0400 (Eastern Daylight Time)","367810","","","fullscreenenter","2","6173","fullscreenenter","","","","","","","","","","",""
"fullscreen","2","7166","0.0-2.0","5f514708067fba172909261a","bdp_td","Sat Mar 25 2023 19:22:53 GMT-0400 (Eastern Daylight Time)","367810","","","","","","","true","","","","","","","","","",""
"","","","","5f514708067fba172909261a","bdp_td","Sat Mar 25 2023 19:22:53 GMT-0400 (Eastern Daylight Time)","367810","","","fullscreenexit","3","13055","fullscreenexit","","","","","","","","","","",""
"","","","","5f514708067fba172909261a","bdp_td","Sat Mar 25 2023 19:22:53 GMT-0400 (Eastern Daylight Time)","367810","","","blur","3","18497","blurevent","","1","","","","","","","","",""
"","","","","5f514708067fba172909261a","bdp_td","Sat Mar 25 2023 19:22:53 GMT-0400 (Eastern Daylight Time)","367810","","","focus","3","95284","focusevent","","","","","","","","","","",""
"","","","","5f514708067fba172909261a","bdp_td","Sat Mar 25 2023 19:22:53 GMT-0400 (Eastern Daylight Time)","367810","","","blur","3","165142","blurevent","","","","","","","","","","",""
"","","","","5f514708067fba172909261a","bdp_td","Sat Mar 25 2023 19:22:53 GMT-0400 (Eastern Daylight Time)","367810","","","focus","3","172569","focusevent","","","","","","","","","","",""
"instructions","3","253305","0.0-4.0","5f514708067fba172909261a","bdp_td","Sat Mar 25 2023 19:22:53 GMT-0400 (Eastern Daylight Time)","367810","[{""page_index"":0,""viewing_time"":140159},{""page_index"":1,""viewing_time"":80994},{""page_index"":2,""viewing_time"":24977}]","246131","","","","","","","","","","","","","","",""
"image-keyboard-response","4","268109","0.0-5.0-0.0-0.0","5f514708067fba172909261a","bdp_td","Sat Mar 25 2023 19:22:53 GMT-0400 (Eastern Daylight Time)","367810","","14797","","","","blurwarn","","1","","49","","","","","","",""
"html-keyboard-response","5","268867","0.0-5.0-1.0","5f514708067fba172909261a","bdp_td","Sat Mar 25 2023 19:22:53 GMT-0400 (Eastern Daylight Time)","367810","","null","","","","FIX","","","<div class='trialBorder'><div class='vertical-center'><img style='vertical-align:center; align:center' src=img/fixation3.jpg></div></div>","null","","","","","","",""
"html-keyboard-response","6","274944","0.0-5.0-2.0","5f514708067fba172909261a","bdp_td","Sat Mar 25 2023 19:22:53 GMT-0400 (Eastern Daylight Time)","367810","","6068","","","","offer","","","<div class='trialBorder'><div class='vertical-center'><img style='vertical-align:center; align:center' src=img/fixation3.jpg></div><div class='cl'><div class='vertical-center'>$35<br>in<br>12 weeks</div></div><div class='cr'><div class='vertical-center'>$34<br><br>now</div></div><div class='respDivL'><div class='vertical-center'>(E)</div></div><div class='respDivR'><div class='vertical-center'>(I)</div></div></div>","I","$34<br><br>now","$35<br>in<br>12 weeks","1","34","35","12","NOW"
"html-keyboard-response","7","275202","0.0-5.0-3.0","5f514708067fba172909261a","bdp_td","Sat Mar 25 2023 19:22:53 GMT-0400 (Eastern Daylight Time)","367810","","null","","","","offerFB","","","<div class='trialBorder'><div class='vertical-center'><img style='vertical-align:center; align:center' src=img/fixation3.jpg></div><div class='cl'><div class='vertical-center'>$35<br>in<br>12 weeks</div></div><div class='cr'><div class='vertical-center'><font style='color:orange'>$34<br><br>now</font></div></div><div class='respDivL'><div class='vertical-center'>(E)</div></div><div class='respDivR'><div class='vertical-center'><font style='color:orange'>(I)</font></div></div></div>","null","$34<br><br>now","$35<br>in<br>12 weeks","1","34","35","12",""
"html-keyboard-response","8","275708","0.0-5.0-1.1","5f514708067fba172909261a","bdp_td","Sat Mar 25 2023 19:22:53 GMT-0400 (Eastern Daylight Time)","367810","","null","","","","FIX","","","<div class='trialBorder'><div class='vertical-center'><img style='vertical-align:center; align:center' src=img/fixation3.jpg></div></div>","null","","","","","","",""
"html-keyboard-response","9","278777","0.0-5.0-2.1","5f514708067fba172909261a","bdp_td","Sat Mar 25 2023 19:22:53 GMT-0400 (Eastern Daylight Time)","367810","","3066","","","","offer","","","<div class='trialBorder'><div class='vertical-center'><img style='vertical-align:center; align:center' src=img/fixation3.jpg></div><div class='cl'><div class='vertical-center'>$49<br><br>now</div></div><div class='cr'><div class='vertical-center'>$60<br>in<br>6 weeks</div></div><div class='respDivL'><div class='vertical-center'>(E)</div></div><div class='respDivR'><div class='vertical-center'>(I)</div></div></div>","E","$49<br><br>now","$60<br>in<br>6 weeks","0","49","60","6","NOW"
"html-keyboard-response","10","279034","0.0-5.0-3.1","5f514708067fba172909261a","bdp_td","Sat Mar 25 2023 19:22:53 GMT-0400 (Eastern Daylight Time)","367810","","null","","","","offerFB","","","<div class='trialBorder'><div class='vertical-center'><img style='vertical-align:center; align:center' src=img/fixation3.jpg></div><div class='cl'><div class='vertical-center'><font style='color:orange'>$49<br><br>now</font></div></div><div class='cr'><div class='vertical-center'>$60<br>in<br>6 weeks</div></div><div class='respDivL'><div class='vertical-center'><font style='color:orange'>(E)</font></div></div><div class='respDivR'><div class='vertical-center'>(I)</div></div></div>","null","$49<br><br>now","$60<br>in<br>6 weeks","0","49","60","6",""
"html-keyboard-response","11","279539","0.0-5.0-1.2","5f514708067fba172909261a","bdp_td","Sat Mar 25 2023 19:22:53 GMT-0400 (Eastern Daylight Time)","367810","","null","","","","FIX","","","<div class='trialBorder'><div class='vertical-center'><img style='vertical-align:center; align:center' src=img/fixation3.jpg></div></div>","null","","","","","","",""
"html-keyboard-response","12","280772","0.0-5.0-2.2","5f514708067fba172909261a","bdp_td","Sat Mar 25 2023 19:22:53 GMT-0400 (Eastern Daylight Time)","367810","","1228","","","","offer","","","<div class='trialBorder'><div class='vertical-center'><img style='vertical-align:center; align:center' src=img/fixation3.jpg></div><div class='cl'><div class='vertical-center'>$20<br><br>now</div></div><div class='cr'><div class='vertical-center'>$55<br>in<br>1 week</div></div><div class='respDivL'><div class='vertical-center'>(E)</div></div><div class='respDivR'><div class='vertical-center'>(I)</div></div></div>","E","$20<br><br>now","$55<br>in<br>1 week","0","20","55","1","NOW"
"html-keyboard-response","13","281029","0.0-5.0-3.2","5f514708067fba172909261a","bdp_td","Sat Mar 25 2023 19:22:53 GMT-0400 (Eastern Daylight Time)","367810","","null","","","","offerFB","","","<div class='trialBorder'><div class='vertical-center'><img style='vertical-align:center; align:center' src=img/fixation3.jpg></div><div class='cl'><div class='vertical-center'><font style='color:orange'>$20<br><br>now</font></div></div><div class='cr'><div class='vertical-center'>$55<br>in<br>1 week</div></div><div class='respDivL'><div class='vertical-center'><font style='color:orange'>(E)</font></div></div><div class='respDivR'><div class='vertical-center'>(I)</div></div></div>","null","$20<br><br>now","$55<br>in<br>1 week","0","20","55","1",""
"html-keyboard-response","14","281536","0.0-5.0-1.3","5f514708067fba172909261a","bdp_td","Sat Mar 25 2023 19:22:53 GMT-0400 (Eastern Daylight Time)","367810","","null","","","","FIX","","","<div class='trialBorder'><div class='vertical-center'><img style='vertical-align:center; align:center' src=img/fixation3.jpg></div></div>","null","","","","","","",""
"html-keyboard-response","15","282961","0.0-5.0-2.3","5f514708067fba172909261a","bdp_td","Sat Mar 25 2023 19:22:53 GMT-0400 (Eastern Daylight Time)","367810","","1418","","","","offer","","","<div class='trialBorder'><div class='vertical-center'><img style='vertical-align:center; align:center' src=img/fixation3.jpg></div><div class='cl'><div class='vertical-center'>$25<br><br>now</div></div><div class='cr'><div class='vertical-center'>$60<br>in<br>3 weeks</div></div><div class='respDivL'><div class='vertical-center'>(E)</div></div><div class='respDivR'><div class='vertical-center'>(I)</div></div></div>","E","$25<br><br>now","$60<br>in<br>3 weeks","0","25","60","3","NOW"
"html-keyboard-response","16","283218","0.0-5.0-3.3","5f514708067fba172909261a","bdp_td","Sat Mar 25 2023 19:22:53 GMT-0400 (Eastern Daylight Time)","367810","","null","","","","offerFB","","","<div class='trialBorder'><div class='vertical-center'><img style='vertical-align:center; align:center' src=img/fixation3.jpg></div><div class='cl'><div class='vertical-center'><font style='color:orange'>$25<br><br>now</font></div></div><div class='cr'><div class='vertical-center'>$60<br>in<br>3 weeks</div></div><div class='respDivL'><div class='vertical-center'><font style='color:orange'>(E)</font></div></div><div class='respDivR'><div class='vertical-center'>(I)</div></div></div>","null","$25<br><br>now","$60<br>in<br>3 weeks","0","25","60","3",""
"html-keyboard-response","17","283723","0.0-5.0-1.4","5f514708067fba172909261a","bdp_td","Sat Mar 25 2023 19:22:53 GMT-0400 (Eastern Daylight Time)","367810","","null","","","","FIX","","","<div class='trialBorder'><div class='vertical-center'><img style='vertical-align:center; align:center' src=img/fixation3.jpg></div></div>","null","","","","","","",""
"html-keyboard-response","18","285836","0.0-5.0-2.4","5f514708067fba172909261a","bdp_td","Sat Mar 25 2023 19:22:53 GMT-0400 (Eastern Daylight Time)","367810","","2109","","","","offer","","","<div class='trialBorder'><div class='vertical-center'><img style='vertical-align:center; align:center' src=img/fixation3.jpg></div><div class='cl'><div class='vertical-center'>$85<br>in<br>12 weeks</div></div><div class='cr'><div class='vertical-center'>$80<br><br>now</div></div><div class='respDivL'><div class='vertical-center'>(E)</div></div><div class='respDivR'><div class='vertical-center'>(I)</div></div></div>","I","$80<br><br>now","$85<br>in<br>12 weeks","1","80","85","12","NOW"
"html-keyboard-response","19","286091","0.0-5.0-3.4","5f514708067fba172909261a","bdp_td","Sat Mar 25 2023 19:22:53 GMT-0400 (Eastern Daylight Time)","367810","","null","","","","offerFB","","","<div class='trialBorder'><div class='vertical-center'><img style='vertical-align:center; align:center' src=img/fixation3.jpg></div><div class='cl'><div class='vertical-center'>$85<br>in<br>12 weeks</div></div><div class='cr'><div class='vertical-center'><font style='color:orange'>$80<br><br>now</font></div></div><div class='respDivL'><div class='vertical-center'>(E)</div></div><div class='respDivR'><div class='vertical-center'><font style='color:orange'>(I)</font></div></div></div>","null","$80<br><br>now","$85<br>in<br>12 weeks","1","80","85","12",""
"html-keyboard-response","20","286596","0.0-5.0-1.5","5f514708067fba172909261a","bdp_td","Sat Mar 25 2023 19:22:53 GMT-0400 (Eastern Daylight Time)","367810","","null","","","","FIX","","","<div class='trialBorder'><div class='vertical-center'><img style='vertical-align:center; align:center' src=img/fixation3.jpg></div></div>","null","","","","","","",""
"html-keyboard-response","21","287964","0.0-5.0-2.5","5f514708067fba172909261a","bdp_td","Sat Mar 25 2023 19:22:53 GMT-0400 (Eastern Daylight Time)","367810","","1361","","","","offer","","","<div class='trialBorder'><div class='vertical-center'><img style='vertical-align:center; align:center' src=img/fixation3.jpg></div><div class='cl'><div class='vertical-center'>$30<br>in<br>12 weeks</div></div><div class='cr'><div class='vertical-center'>$28<br><br>now</div></div><div class='respDivL'><div class='vertical-center'>(E)</div></div><div class='respDivR'><div class='vertical-center'>(I)</div></div></div>","I","$28<br><br>now","$30<br>in<br>12 weeks","1","28","30","12","NOW"
"html-keyboard-response","22","288222","0.0-5.0-3.5","5f514708067fba172909261a","bdp_td","Sat Mar 25 2023 19:22:53 GMT-0400 (Eastern Daylight Time)","367810","","null","","","","offerFB","","","<div class='trialBorder'><div class='vertical-center'><img style='vertical-align:center; align:center' src=img/fixation3.jpg></div><div class='cl'><div class='vertical-center'>$30<br>in<br>12 weeks</div></div><div class='cr'><div class='vertical-center'><font style='color:orange'>$28<br><br>now</font></div></div><div class='respDivL'><div class='vertical-center'>(E)</div></div><div class='respDivR'><div class='vertical-center'><font style='color:orange'>(I)</font></div></div></div>","null","$28<br><br>now","$30<br>in<br>12 weeks","1","28","30","12",""
"html-keyboard-response","23","288725","0.0-5.0-1.6","5f514708067fba172909261a","bdp_td","Sat Mar 25 2023 19:22:53 GMT-0400 (Eastern Daylight Time)","367810","","null","","","","FIX","","","<div class='trialBorder'><div class='vertical-center'><img style='vertical-align:center; align:center' src=img/fixation3.jpg></div></div>","null","","","","","","",""
"html-keyboard-response","24","289723","0.0-5.0-2.6","5f514708067fba172909261a","bdp_td","Sat Mar 25 2023 19:22:53 GMT-0400 (Eastern Daylight Time)","367810","","995","","","","offer","","","<div class='trialBorder'><div class='vertical-center'><img style='vertical-align:center; align:center' src=img/fixation3.jpg></div><div class='cl'><div class='vertical-center'>$85<br>in<br>6 weeks</div></div><div class='cr'><div class='vertical-center'>$69<br><br>now</div></div><div class='respDivL'><div class='vertical-center'>(E)</div></div><div class='respDivR'><div class='vertical-center'>(I)</div></div></div>","I","$69<br><br>now","$85<br>in<br>6 weeks","1","69","85","6","NOW"
"html-keyboard-response","25","289979","0.0-5.0-3.6","5f514708067fba172909261a","bdp_td","Sat Mar 25 2023 19:22:53 GMT-0400 (Eastern Daylight Time)","367810","","null","","","","offerFB","","","<div class='trialBorder'><div class='vertical-center'><img style='vertical-align:center; align:center' src=img/fixation3.jpg></div><div class='cl'><div class='vertical-center'>$85<br>in<br>6 weeks</div></div><div class='cr'><div class='vertical-center'><font style='color:orange'>$69<br><br>now</font></div></div><div class='respDivL'><div class='vertical-center'>(E)</div></div><div class='respDivR'><div class='vertical-center'><font style='color:orange'>(I)</font></div></div></div>","null","$69<br><br>now","$85<br>in<br>6 weeks","1","69","85","6",""
"html-keyboard-response","26","290484","0.0-5.0-1.7","5f514708067fba172909261a","bdp_td","Sat Mar 25 2023 19:22:53 GMT-0400 (Eastern Daylight Time)","367810","","null","","","","FIX","","","<div class='trialBorder'><div class='vertical-center'><img style='vertical-align:center; align:center' src=img/fixation3.jpg></div></div>","null","","","","","","",""
"html-keyboard-response","27","291639","0.0-5.0-2.7","5f514708067fba172909261a","bdp_td","Sat Mar 25 2023 19:22:53 GMT-0400 (Eastern Daylight Time)","367810","","1149","","","","offer","","","<div class='trialBorder'><div class='vertical-center'><img style='vertical-align:center; align:center' src=img/fixation3.jpg></div><div class='cl'><div class='vertical-center'>$54<br><br>now</div></div><div class='cr'><div class='vertical-center'>$55<br>in<br>12 weeks</div></div><div class='respDivL'><div class='vertical-center'>(E)</div></div><div class='respDivR'><div class='vertical-center'>(I)</div></div></div>","E","$54<br><br>now","$55<br>in<br>12 weeks","0","54","55","12","NOW"
"html-keyboard-response","28","291895","0.0-5.0-3.7","5f514708067fba172909261a","bdp_td","Sat Mar 25 2023 19:22:53 GMT-0400 (Eastern Daylight Time)","367810","","null","","","","offerFB","","","<div class='trialBorder'><div class='vertical-center'><img style='vertical-align:center; align:center' src=img/fixation3.jpg></div><div class='cl'><div class='vertical-center'><font style='color:orange'>$54<br><br>now</font></div></div><div class='cr'><div class='vertical-center'>$55<br>in<br>12 weeks</div></div><div class='respDivL'><div class='vertical-center'><font style='color:orange'>(E)</font></div></div><div class='respDivR'><div class='vertical-center'>(I)</div></div></div>","null","$54<br><br>now","$55<br>in<br>12 weeks","0","54","55","12",""
"html-keyboard-response","29","292400","0.0-5.0-1.8","5f514708067fba172909261a","bdp_td","Sat Mar 25 2023 19:22:53 GMT-0400 (Eastern Daylight Time)","367810","","null","","","","FIX","","","<div class='trialBorder'><div class='vertical-center'><img style='vertical-align:center; align:center' src=img/fixation3.jpg></div></div>","null","","","","","","",""
"html-keyboard-response","30","293552","0.0-5.0-2.8","5f514708067fba172909261a","bdp_td","Sat Mar 25 2023 19:22:53 GMT-0400 (Eastern Daylight Time)","367810","","1148","","","","offer","","","<div class='trialBorder'><div class='vertical-center'><img style='vertical-align:center; align:center' src=img/fixation3.jpg></div><div class='cl'><div class='vertical-center'>$54<br><br>now</div></div><div class='cr'><div class='vertical-center'>$60<br>in<br>12 weeks</div></div><div class='respDivL'><div class='vertical-center'>(E)</div></div><div class='respDivR'><div class='vertical-center'>(I)</div></div></div>","E","$54<br><br>now","$60<br>in<br>12 weeks","0","54","60","12","NOW"
"html-keyboard-response","31","293809","0.0-5.0-3.8","5f514708067fba172909261a","bdp_td","Sat Mar 25 2023 19:22:53 GMT-0400 (Eastern Daylight Time)","367810","","null","","","","offerFB","","","<div class='trialBorder'><div class='vertical-center'><img style='vertical-align:center; align:center' src=img/fixation3.jpg></div><div class='cl'><div class='vertical-center'><font style='color:orange'>$54<br><br>now</font></div></div><div class='cr'><div class='vertical-center'>$60<br>in<br>12 weeks</div></div><div class='respDivL'><div class='vertical-center'><font style='color:orange'>(E)</font></div></div><div class='respDivR'><div class='vertical-center'>(I)</div></div></div>","null","$54<br><br>now","$60<br>in<br>12 weeks","0","54","60","12",""
"html-keyboard-response","32","294314","0.0-5.0-1.9","5f514708067fba172909261a","bdp_td","Sat Mar 25 2023 19:22:53 GMT-0400 (Eastern Daylight Time)","367810","","null","","","","FIX","","","<div class='trialBorder'><div class='vertical-center'><img style='vertical-align:center; align:center' src=img/fixation3.jpg></div></div>","null","","","","","","",""
"html-keyboard-response","33","295236","0.0-5.0-2.9","5f514708067fba172909261a","bdp_td","Sat Mar 25 2023 19:22:53 GMT-0400 (Eastern Daylight Time)","367810","","917","","","","offer","","","<div class='trialBorder'><div class='vertical-center'><img style='vertical-align:center; align:center' src=img/fixation3.jpg></div><div class='cl'><div class='vertical-center'>$50<br>in<br>6 weeks</div></div><div class='cr'><div class='vertical-center'>$34<br><br>now</div></div><div class='respDivL'><div class='vertical-center'>(E)</div></div><div class='respDivR'><div class='vertical-center'>(I)</div></div></div>","I","$34<br><br>now","$50<br>in<br>6 weeks","1","34","50","6","NOW"
"html-keyboard-response","34","295493","0.0-5.0-3.9","5f514708067fba172909261a","bdp_td","Sat Mar 25 2023 19:22:53 GMT-0400 (Eastern Daylight Time)","367810","","null","","","","offerFB","","","<div class='trialBorder'><div class='vertical-center'><img style='vertical-align:center; align:center' src=img/fixation3.jpg></div><div class='cl'><div class='vertical-center'>$50<br>in<br>6 weeks</div></div><div class='cr'><div class='vertical-center'><font style='color:orange'>$34<br><br>now</font></div></div><div class='respDivL'><div class='vertical-center'>(E)</div></div><div class='respDivR'><div class='vertical-center'><font style='color:orange'>(I)</font></div></div></div>","null","$34<br><br>now","$50<br>in<br>6 weeks","1","34","50","6",""
"html-keyboard-response","35","295999","0.0-5.0-1.10","5f514708067fba172909261a","bdp_td","Sat Mar 25 2023 19:22:53 GMT-0400 (Eastern Daylight Time)","367810","","null","","","","FIX","","","<div class='trialBorder'><div class='vertical-center'><img style='vertical-align:center; align:center' src=img/fixation3.jpg></div></div>","null","","","","","","",""
"html-keyboard-response","36","298793","0.0-5.0-2.10","5f514708067fba172909261a","bdp_td","Sat Mar 25 2023 19:22:53 GMT-0400 (Eastern Daylight Time)","367810","","2788","","","","offer","","","<div class='trialBorder'><div class='vertical-center'><img style='vertical-align:center; align:center' src=img/fixation3.jpg></div><div class='cl'><div class='vertical-center'>$85<br>in<br>1 week</div></div><div class='cr'><div class='vertical-center'>$31<br><br>now</div></div><div class='respDivL'><div class='vertical-center'>(E)</div></div><div class='respDivR'><div class='vertical-center'>(I)</div></div></div>","E","$31<br><br>now","$85<br>in<br>1 week","1","31","85","1","THEN"
"html-keyboard-response","37","299053","0.0-5.0-3.10","5f514708067fba172909261a","bdp_td","Sat Mar 25 2023 19:22:53 GMT-0400 (Eastern Daylight Time)","367810","","null","","","","offerFB","","","<div class='trialBorder'><div class='vertical-center'><img style='vertical-align:center; align:center' src=img/fixation3.jpg></div><div class='cl'><div class='vertical-center'><font style='color:orange'>$85<br>in<br>1 week</font></div></div><div class='cr'><div class='vertical-center'>$31<br><br>now</div></div><div class='respDivL'><div class='vertical-center'><font style='color:orange'>(E)</font></div></div><div class='respDivR'><div class='vertical-center'>(I)</div></div></div>","null","$31<br><br>now","$85<br>in<br>1 week","1","31","85","1",""
"html-keyboard-response","38","299558","0.0-5.0-1.11","5f514708067fba172909261a","bdp_td","Sat Mar 25 2023 19:22:53 GMT-0400 (Eastern Daylight Time)","367810","","null","","","","FIX","","","<div class='trialBorder'><div class='vertical-center'><img style='vertical-align:center; align:center' src=img/fixation3.jpg></div></div>","null","","","","","","",""
"html-keyboard-response","39","300495","0.0-5.0-2.11","5f514708067fba172909261a","bdp_td","Sat Mar 25 2023 19:22:53 GMT-0400 (Eastern Daylight Time)","367810","","931","","","","offer","","","<div class='trialBorder'><div class='vertical-center'><img style='vertical-align:center; align:center' src=img/fixation3.jpg></div><div class='cl'><div class='vertical-center'>$35<br>in<br>3 weeks</div></div><div class='cr'><div class='vertical-center'>$24<br><br>now</div></div><div class='respDivL'><div class='vertical-center'>(E)</div></div><div class='respDivR'><div class='vertical-center'>(I)</div></div></div>","I","$24<br><br>now","$35<br>in<br>3 weeks","1","24","35","3","NOW"
"html-keyboard-response","40","300751","0.0-5.0-3.11","5f514708067fba172909261a","bdp_td","Sat Mar 25 2023 19:22:53 GMT-0400 (Eastern Daylight Time)","367810","","null","","","","offerFB","","","<div class='trialBorder'><div class='vertical-center'><img style='vertical-align:center; align:center' src=img/fixation3.jpg></div><div class='cl'><div class='vertical-center'>$35<br>in<br>3 weeks</div></div><div class='cr'><div class='vertical-center'><font style='color:orange'>$24<br><br>now</font></div></div><div class='respDivL'><div class='vertical-center'>(E)</div></div><div class='respDivR'><div class='vertical-center'><font style='color:orange'>(I)</font></div></div></div>","null","$24<br><br>now","$35<br>in<br>3 weeks","1","24","35","3",""
"html-keyboard-response","41","301254","0.0-5.0-1.12","5f514708067fba172909261a","bdp_td","Sat Mar 25 2023 19:22:53 GMT-0400 (Eastern Daylight Time)","367810","","null","","","","FIX","","","<div class='trialBorder'><div class='vertical-center'><img style='vertical-align:center; align:center' src=img/fixation3.jpg></div></div>","null","","","","","","",""
"html-keyboard-response","42","302998","0.0-5.0-2.12","5f514708067fba172909261a","bdp_td","Sat Mar 25 2023 19:22:53 GMT-0400 (Eastern Daylight Time)","367810","","1738","","","","offer","","","<div class='trialBorder'><div class='vertical-center'><img style='vertical-align:center; align:center' src=img/fixation3.jpg></div><div class='cl'><div class='vertical-center'>$54<br><br>now</div></div><div class='cr'><div class='vertical-center'>$80<br>in<br>3 weeks</div></div><div class='respDivL'><div class='vertical-center'>(E)</div></div><div class='respDivR'><div class='vertical-center'>(I)</div></div></div>","E","$54<br><br>now","$80<br>in<br>3 weeks","0","54","80","3","NOW"
"html-keyboard-response","43","303253","0.0-5.0-3.12","5f514708067fba172909261a","bdp_td","Sat Mar 25 2023 19:22:53 GMT-0400 (Eastern Daylight Time)","367810","","null","","","","offerFB","","","<div class='trialBorder'><div class='vertical-center'><img style='vertical-align:center; align:center' src=img/fixation3.jpg></div><div class='cl'><div class='vertical-center'><font style='color:orange'>$54<br><br>now</font></div></div><div class='cr'><div class='vertical-center'>$80<br>in<br>3 weeks</div></div><div class='respDivL'><div class='vertical-center'><font style='color:orange'>(E)</font></div></div><div class='respDivR'><div class='vertical-center'>(I)</div></div></div>","null","$54<br><br>now","$80<br>in<br>3 weeks","0","54","80","3",""
"html-keyboard-response","44","303757","0.0-5.0-1.13","5f514708067fba172909261a","bdp_td","Sat Mar 25 2023 19:22:53 GMT-0400 (Eastern Daylight Time)","367810","","null","","","","FIX","","","<div class='trialBorder'><div class='vertical-center'><img style='vertical-align:center; align:center' src=img/fixation3.jpg></div></div>","null","","","","","","",""
"html-keyboard-response","45","305412","0.0-5.0-2.13","5f514708067fba172909261a","bdp_td","Sat Mar 25 2023 19:22:53 GMT-0400 (Eastern Daylight Time)","367810","","1652","","","","offer","","","<div class='trialBorder'><div class='vertical-center'><img style='vertical-align:center; align:center' src=img/fixation3.jpg></div><div class='cl'><div class='vertical-center'>$30<br>in<br>2 weeks</div></div><div class='cr'><div class='vertical-center'>$11<br><br>now</div></div><div class='respDivL'><div class='vertical-center'>(E)</div></div><div class='respDivR'><div class='vertical-center'>(I)</div></div></div>","I","$11<br><br>now","$30<br>in<br>2 weeks","1","11","30","2","NOW"
"html-keyboard-response","46","305670","0.0-5.0-3.13","5f514708067fba172909261a","bdp_td","Sat Mar 25 2023 19:22:53 GMT-0400 (Eastern Daylight Time)","367810","","null","","","","offerFB","","","<div class='trialBorder'><div class='vertical-center'><img style='vertical-align:center; align:center' src=img/fixation3.jpg></div><div class='cl'><div class='vertical-center'>$30<br>in<br>2 weeks</div></div><div class='cr'><div class='vertical-center'><font style='color:orange'>$11<br><br>now</font></div></div><div class='respDivL'><div class='vertical-center'>(E)</div></div><div class='respDivR'><div class='vertical-center'><font style='color:orange'>(I)</font></div></div></div>","null","$11<br><br>now","$30<br>in<br>2 weeks","1","11","30","2",""
"html-keyboard-response","47","306176","0.0-5.0-1.14","5f514708067fba172909261a","bdp_td","Sat Mar 25 2023 19:22:53 GMT-0400 (Eastern Daylight Time)","367810","","null","","","","FIX","","","<div class='trialBorder'><div class='vertical-center'><img style='vertical-align:center; align:center' src=img/fixation3.jpg></div></div>","null","","","","","","",""
"html-keyboard-response","48","307183","0.0-5.0-2.14","5f514708067fba172909261a","bdp_td","Sat Mar 25 2023 19:22:53 GMT-0400 (Eastern Daylight Time)","367810","","1000","","","","offer","","","<div class='trialBorder'><div class='vertical-center'><img style='vertical-align:center; align:center' src=img/fixation3.jpg></div><div class='cl'><div class='vertical-center'>$78<br><br>now</div></div><div class='cr'><div class='vertical-center'>$80<br>in<br>12 weeks</div></div><div class='respDivL'><div class='vertical-center'>(E)</div></div><div class='respDivR'><div class='vertical-center'>(I)</div></div></div>","E","$78<br><br>now","$80<br>in<br>12 weeks","0","78","80","12","NOW"
"html-keyboard-response","49","307440","0.0-5.0-3.14","5f514708067fba172909261a","bdp_td","Sat Mar 25 2023 19:22:53 GMT-0400 (Eastern Daylight Time)","367810","","null","","","","offerFB","","","<div class='trialBorder'><div class='vertical-center'><img style='vertical-align:center; align:center' src=img/fixation3.jpg></div><div class='cl'><div class='vertical-center'><font style='color:orange'>$78<br><br>now</font></div></div><div class='cr'><div class='vertical-center'>$80<br>in<br>12 weeks</div></div><div class='respDivL'><div class='vertical-center'><font style='color:orange'>(E)</font></div></div><div class='respDivR'><div class='vertical-center'>(I)</div></div></div>","null","$78<br><br>now","$80<br>in<br>12 weeks","0","78","80","12",""
"html-keyboard-response","50","307945","0.0-5.0-1.15","5f514708067fba172909261a","bdp_td","Sat Mar 25 2023 19:22:53 GMT-0400 (Eastern Daylight Time)","367810","","null","","","","FIX","","","<div class='trialBorder'><div class='vertical-center'><img style='vertical-align:center; align:center' src=img/fixation3.jpg></div></div>","null","","","","","","",""
"html-keyboard-response","51","309177","0.0-5.0-2.15","5f514708067fba172909261a","bdp_td","Sat Mar 25 2023 19:22:53 GMT-0400 (Eastern Daylight Time)","367810","","1227","","","","offer","","","<div class='trialBorder'><div class='vertical-center'><img style='vertical-align:center; align:center' src=img/fixation3.jpg></div><div class='cl'><div class='vertical-center'>$75<br>in<br>12 weeks</div></div><div class='cr'><div class='vertical-center'>$67<br><br>now</div></div><div class='respDivL'><div class='vertical-center'>(E)</div></div><div class='respDivR'><div class='vertical-center'>(I)</div></div></div>","I","$67<br><br>now","$75<br>in<br>12 weeks","1","67","75","12","NOW"
"html-keyboard-response","52","309437","0.0-5.0-3.15","5f514708067fba172909261a","bdp_td","Sat Mar 25 2023 19:22:53 GMT-0400 (Eastern Daylight Time)","367810","","null","","","","offerFB","","","<div class='trialBorder'><div class='vertical-center'><img style='vertical-align:center; align:center' src=img/fixation3.jpg></div><div class='cl'><div class='vertical-center'>$75<br>in<br>12 weeks</div></div><div class='cr'><div class='vertical-center'><font style='color:orange'>$67<br><br>now</font></div></div><div class='respDivL'><div class='vertical-center'>(E)</div></div><div class='respDivR'><div class='vertical-center'><font style='color:orange'>(I)</font></div></div></div>","null","$67<br><br>now","$75<br>in<br>12 weeks","1","67","75","12",""
"html-keyboard-response","53","309942","0.0-5.0-1.16","5f514708067fba172909261a","bdp_td","Sat Mar 25 2023 19:22:53 GMT-0400 (Eastern Daylight Time)","367810","","null","","","","FIX","","","<div class='trialBorder'><div class='vertical-center'><img style='vertical-align:center; align:center' src=img/fixation3.jpg></div></div>","null","","","","","","",""
"html-keyboard-response","54","311408","0.0-5.0-2.16","5f514708067fba172909261a","bdp_td","Sat Mar 25 2023 19:22:53 GMT-0400 (Eastern Daylight Time)","367810","","1460","","","","offer","","","<div class='trialBorder'><div class='vertical-center'><img style='vertical-align:center; align:center' src=img/fixation3.jpg></div><div class='cl'><div class='vertical-center'>$22<br><br>now</div></div><div class='cr'><div class='vertical-center'>$25<br>in<br>12 weeks</div></div><div class='respDivL'><div class='vertical-center'>(E)</div></div><div class='respDivR'><div class='vertical-center'>(I)</div></div></div>","E","$22<br><br>now","$25<br>in<br>12 weeks","0","22","25","12","NOW"
"html-keyboard-response","55","311663","0.0-5.0-3.16","5f514708067fba172909261a","bdp_td","Sat Mar 25 2023 19:22:53 GMT-0400 (Eastern Daylight Time)","367810","","null","","","","offerFB","","","<div class='trialBorder'><div class='vertical-center'><img style='vertical-align:center; align:center' src=img/fixation3.jpg></div><div class='cl'><div class='vertical-center'><font style='color:orange'>$22<br><br>now</font></div></div><div class='cr'><div class='vertical-center'>$25<br>in<br>12 weeks</div></div><div class='respDivL'><div class='vertical-center'><font style='color:orange'>(E)</font></div></div><div class='respDivR'><div class='vertical-center'>(I)</div></div></div>","null","$22<br><br>now","$25<br>in<br>12 weeks","0","22","25","12",""
"html-keyboard-response","56","312168","0.0-5.0-1.17","5f514708067fba172909261a","bdp_td","Sat Mar 25 2023 19:22:53 GMT-0400 (Eastern Daylight Time)","367810","","null","","","","FIX","","","<div class='trialBorder'><div class='vertical-center'><img style='vertical-align:center; align:center' src=img/fixation3.jpg></div></div>","null","","","","","","",""
"html-keyboard-response","57","314187","0.0-5.0-2.17","5f514708067fba172909261a","bdp_td","Sat Mar 25 2023 19:22:53 GMT-0400 (Eastern Daylight Time)","367810","","2013","","","","offer","","","<div class='trialBorder'><div class='vertical-center'><img style='vertical-align:center; align:center' src=img/fixation3.jpg></div><div class='cl'><div class='vertical-center'>$75<br>in<br>3 weeks</div></div><div class='cr'><div class='vertical-center'>$41<br><br>now</div></div><div class='respDivL'><div class='vertical-center'>(E)</div></div><div class='respDivR'><div class='vertical-center'>(I)</div></div></div>","I","$41<br><br>now","$75<br>in<br>3 weeks","1","41","75","3","NOW"
"html-keyboard-response","58","314443","0.0-5.0-3.17","5f514708067fba172909261a","bdp_td","Sat Mar 25 2023 19:22:53 GMT-0400 (Eastern Daylight Time)","367810","","null","","","","offerFB","","","<div class='trialBorder'><div class='vertical-center'><img style='vertical-align:center; align:center' src=img/fixation3.jpg></div><div class='cl'><div class='vertical-center'>$75<br>in<br>3 weeks</div></div><div class='cr'><div class='vertical-center'><font style='color:orange'>$41<br><br>now</font></div></div><div class='respDivL'><div class='vertical-center'>(E)</div></div><div class='respDivR'><div class='vertical-center'><font style='color:orange'>(I)</font></div></div></div>","null","$41<br><br>now","$75<br>in<br>3 weeks","1","41","75","3",""
"html-keyboard-response","59","314948","0.0-5.0-1.18","5f514708067fba172909261a","bdp_td","Sat Mar 25 2023 19:22:53 GMT-0400 (Eastern Daylight Time)","367810","","null","","","","FIX","","","<div class='trialBorder'><div class='vertical-center'><img style='vertical-align:center; align:center' src=img/fixation3.jpg></div></div>","null","","","","","","",""
"html-keyboard-response","60","316229","0.0-5.0-2.18","5f514708067fba172909261a","bdp_td","Sat Mar 25 2023 19:22:53 GMT-0400 (Eastern Daylight Time)","367810","","1275","","","","offer","","","<div class='trialBorder'><div class='vertical-center'><img style='vertical-align:center; align:center' src=img/fixation3.jpg></div><div class='cl'><div class='vertical-center'>$40<br><br>now</div></div><div class='cr'><div class='vertical-center'>$55<br>in<br>6 weeks</div></div><div class='respDivL'><div class='vertical-center'>(E)</div></div><div class='respDivR'><div class='vertical-center'>(I)</div></div></div>","E","$40<br><br>now","$55<br>in<br>6 weeks","0","40","55","6","NOW"
"html-keyboard-response","61","316487","0.0-5.0-3.18","5f514708067fba172909261a","bdp_td","Sat Mar 25 2023 19:22:53 GMT-0400 (Eastern Daylight Time)","367810","","null","","","","offerFB","","","<div class='trialBorder'><div class='vertical-center'><img style='vertical-align:center; align:center' src=img/fixation3.jpg></div><div class='cl'><div class='vertical-center'><font style='color:orange'>$40<br><br>now</font></div></div><div class='cr'><div class='vertical-center'>$55<br>in<br>6 weeks</div></div><div class='respDivL'><div class='vertical-center'><font style='color:orange'>(E)</font></div></div><div class='respDivR'><div class='vertical-center'>(I)</div></div></div>","null","$40<br><br>now","$55<br>in<br>6 weeks","0","40","55","6",""
"html-keyboard-response","62","316992","0.0-5.0-1.19","5f514708067fba172909261a","bdp_td","Sat Mar 25 2023 19:22:53 GMT-0400 (Eastern Daylight Time)","367810","","null","","","","FIX","","","<div class='trialBorder'><div class='vertical-center'><img style='vertical-align:center; align:center' src=img/fixation3.jpg></div></div>","null","","","","","","",""
"html-keyboard-response","63","318168","0.0-5.0-2.19","5f514708067fba172909261a","bdp_td","Sat Mar 25 2023 19:22:53 GMT-0400 (Eastern Daylight Time)","367810","","1172","","","","offer","","","<div class='trialBorder'><div class='vertical-center'><img style='vertical-align:center; align:center' src=img/fixation3.jpg></div><div class='cl'><div class='vertical-center'>$25<br><br>now</div></div><div class='cr'><div class='vertical-center'>$30<br>in<br>6 weeks</div></div><div class='respDivL'><div class='vertical-center'>(E)</div></div><div class='respDivR'><div class='vertical-center'>(I)</div></div></div>","E","$25<br><br>now","$30<br>in<br>6 weeks","0","25","30","6","NOW"
"html-keyboard-response","64","318423","0.0-5.0-3.19","5f514708067fba172909261a","bdp_td","Sat Mar 25 2023 19:22:53 GMT-0400 (Eastern Daylight Time)","367810","","null","","","","offerFB","","","<div class='trialBorder'><div class='vertical-center'><img style='vertical-align:center; align:center' src=img/fixation3.jpg></div><div class='cl'><div class='vertical-center'><font style='color:orange'>$25<br><br>now</font></div></div><div class='cr'><div class='vertical-center'>$30<br>in<br>6 weeks</div></div><div class='respDivL'><div class='vertical-center'><font style='color:orange'>(E)</font></div></div><div class='respDivR'><div class='vertical-center'>(I)</div></div></div>","null","$25<br><br>now","$30<br>in<br>6 weeks","0","25","30","6",""
"html-keyboard-response","65","318928","0.0-5.0-1.20","5f514708067fba172909261a","bdp_td","Sat Mar 25 2023 19:22:53 GMT-0400 (Eastern Daylight Time)","367810","","null","","","","FIX","","","<div class='trialBorder'><div class='vertical-center'><img style='vertical-align:center; align:center' src=img/fixation3.jpg></div></div>","null","","","","","","",""
"html-keyboard-response","66","320262","0.0-5.0-2.20","5f514708067fba172909261a","bdp_td","Sat Mar 25 2023 19:22:53 GMT-0400 (Eastern Daylight Time)","367810","","1328","","","","offer","","","<div class='trialBorder'><div class='vertical-center'><img style='vertical-align:center; align:center' src=img/fixation3.jpg></div><div class='cl'><div class='vertical-center'>$14<br><br>now</div></div><div class='cr'><div class='vertical-center'>$25<br>in<br>3 weeks</div></div><div class='respDivL'><div class='vertical-center'>(E)</div></div><div class='respDivR'><div class='vertical-center'>(I)</div></div></div>","E","$14<br><br>now","$25<br>in<br>3 weeks","0","14","25","3","NOW"
"html-keyboard-response","67","320519","0.0-5.0-3.20","5f514708067fba172909261a","bdp_td","Sat Mar 25 2023 19:22:53 GMT-0400 (Eastern Daylight Time)","367810","","null","","","","offerFB","","","<div class='trialBorder'><div class='vertical-center'><img style='vertical-align:center; align:center' src=img/fixation3.jpg></div><div class='cl'><div class='vertical-center'><font style='color:orange'>$14<br><br>now</font></div></div><div class='cr'><div class='vertical-center'>$25<br>in<br>3 weeks</div></div><div class='respDivL'><div class='vertical-center'><font style='color:orange'>(E)</font></div></div><div class='respDivR'><div class='vertical-center'>(I)</div></div></div>","null","$14<br><br>now","$25<br>in<br>3 weeks","0","14","25","3",""
"html-keyboard-response","68","321024","0.0-5.0-1.21","5f514708067fba172909261a","bdp_td","Sat Mar 25 2023 19:22:53 GMT-0400 (Eastern Daylight Time)","367810","","null","","","","FIX","","","<div class='trialBorder'><div class='vertical-center'><img style='vertical-align:center; align:center' src=img/fixation3.jpg></div></div>","null","","","","","","",""
"html-keyboard-response","69","322403","0.0-5.0-2.21","5f514708067fba172909261a","bdp_td","Sat Mar 25 2023 19:22:53 GMT-0400 (Eastern Daylight Time)","367810","","1373","","","","offer","","","<div class='trialBorder'><div class='vertical-center'><img style='vertical-align:center; align:center' src=img/fixation3.jpg></div><div class='cl'><div class='vertical-center'>$50<br>in<br>12 weeks</div></div><div class='cr'><div class='vertical-center'>$47<br><br>now</div></div><div class='respDivL'><div class='vertical-center'>(E)</div></div><div class='respDivR'><div class='vertical-center'>(I)</div></div></div>","I","$47<br><br>now","$50<br>in<br>12 weeks","1","47","50","12","NOW"
"html-keyboard-response","70","322661","0.0-5.0-3.21","5f514708067fba172909261a","bdp_td","Sat Mar 25 2023 19:22:53 GMT-0400 (Eastern Daylight Time)","367810","","null","","","","offerFB","","","<div class='trialBorder'><div class='vertical-center'><img style='vertical-align:center; align:center' src=img/fixation3.jpg></div><div class='cl'><div class='vertical-center'>$50<br>in<br>12 weeks</div></div><div class='cr'><div class='vertical-center'><font style='color:orange'>$47<br><br>now</font></div></div><div class='respDivL'><div class='vertical-center'>(E)</div></div><div class='respDivR'><div class='vertical-center'><font style='color:orange'>(I)</font></div></div></div>","null","$47<br><br>now","$50<br>in<br>12 weeks","1","47","50","12",""
"html-keyboard-response","71","323164","0.0-5.0-1.22","5f514708067fba172909261a","bdp_td","Sat Mar 25 2023 19:22:53 GMT-0400 (Eastern Daylight Time)","367810","","null","","","","FIX","","","<div class='trialBorder'><div class='vertical-center'><img style='vertical-align:center; align:center' src=img/fixation3.jpg></div></div>","null","","","","","","",""
"html-keyboard-response","72","324277","0.0-5.0-2.22","5f514708067fba172909261a","bdp_td","Sat Mar 25 2023 19:22:53 GMT-0400 (Eastern Daylight Time)","367810","","1107","","","","offer","","","<div class='trialBorder'><div class='vertical-center'><img style='vertical-align:center; align:center' src=img/fixation3.jpg></div><div class='cl'><div class='vertical-center'>$33<br><br>now</div></div><div class='cr'><div class='vertical-center'>$80<br>in<br>2 weeks</div></div><div class='respDivL'><div class='vertical-center'>(E)</div></div><div class='respDivR'><div class='vertical-center'>(I)</div></div></div>","E","$33<br><br>now","$80<br>in<br>2 weeks","0","33","80","2","NOW"
"html-keyboard-response","73","324532","0.0-5.0-3.22","5f514708067fba172909261a","bdp_td","Sat Mar 25 2023 19:22:53 GMT-0400 (Eastern Daylight Time)","367810","","null","","","","offerFB","","","<div class='trialBorder'><div class='vertical-center'><img style='vertical-align:center; align:center' src=img/fixation3.jpg></div><div class='cl'><div class='vertical-center'><font style='color:orange'>$33<br><br>now</font></div></div><div class='cr'><div class='vertical-center'>$80<br>in<br>2 weeks</div></div><div class='respDivL'><div class='vertical-center'><font style='color:orange'>(E)</font></div></div><div class='respDivR'><div class='vertical-center'>(I)</div></div></div>","null","$33<br><br>now","$80<br>in<br>2 weeks","0","33","80","2",""
"html-keyboard-response","74","325037","0.0-5.0-1.23","5f514708067fba172909261a","bdp_td","Sat Mar 25 2023 19:22:53 GMT-0400 (Eastern Daylight Time)","367810","","null","","","","FIX","","","<div class='trialBorder'><div class='vertical-center'><img style='vertical-align:center; align:center' src=img/fixation3.jpg></div></div>","null","","","","","","",""
"html-keyboard-response","75","326240","0.0-5.0-2.23","5f514708067fba172909261a","bdp_td","Sat Mar 25 2023 19:22:53 GMT-0400 (Eastern Daylight Time)","367810","","1197","","","","offer","","","<div class='trialBorder'><div class='vertical-center'><img style='vertical-align:center; align:center' src=img/fixation3.jpg></div><div class='cl'><div class='vertical-center'>$27<br><br>now</div></div><div class='cr'><div class='vertical-center'>$50<br>in<br>3 weeks</div></div><div class='respDivL'><div class='vertical-center'>(E)</div></div><div class='respDivR'><div class='vertical-center'>(I)</div></div></div>","E","$27<br><br>now","$50<br>in<br>3 weeks","0","27","50","3","NOW"
"html-keyboard-response","76","326496","0.0-5.0-3.23","5f514708067fba172909261a","bdp_td","Sat Mar 25 2023 19:22:53 GMT-0400 (Eastern Daylight Time)","367810","","null","","","","offerFB","","","<div class='trialBorder'><div class='vertical-center'><img style='vertical-align:center; align:center' src=img/fixation3.jpg></div><div class='cl'><div class='vertical-center'><font style='color:orange'>$27<br><br>now</font></div></div><div class='cr'><div class='vertical-center'>$50<br>in<br>3 weeks</div></div><div class='respDivL'><div class='vertical-center'><font style='color:orange'>(E)</font></div></div><div class='respDivR'><div class='vertical-center'>(I)</div></div></div>","null","$27<br><br>now","$50<br>in<br>3 weeks","0","27","50","3",""
"html-keyboard-response","77","327001","0.0-5.0-1.24","5f514708067fba172909261a","bdp_td","Sat Mar 25 2023 19:22:53 GMT-0400 (Eastern Daylight Time)","367810","","null","","","","FIX","","","<div class='trialBorder'><div class='vertical-center'><img style='vertical-align:center; align:center' src=img/fixation3.jpg></div></div>","null","","","","","","",""
"html-keyboard-response","78","355355","0.0-5.0-2.24","5f514708067fba172909261a","bdp_td","Sat Mar 25 2023 19:22:53 GMT-0400 (Eastern Daylight Time)","367810","","28347","","","","offer","","","<div class='trialBorder'><div class='vertical-center'><img style='vertical-align:center; align:center' src=img/fixation3.jpg></div><div class='cl'><div class='vertical-center'>$35<br>in<br>2 weeks</div></div><div class='cr'><div class='vertical-center'>$15<br><br>now</div></div><div class='respDivL'><div class='vertical-center'>(E)</div></div><div class='respDivR'><div class='vertical-center'>(I)</div></div></div>","I","$15<br><br>now","$35<br>in<br>2 weeks","1","15","35","2","NOW"
"html-keyboard-response","79","355615","0.0-5.0-3.24","5f514708067fba172909261a","bdp_td","Sat Mar 25 2023 19:22:53 GMT-0400 (Eastern Daylight Time)","367810","","null","","","","offerFB","","","<div class='trialBorder'><div class='vertical-center'><img style='vertical-align:center; align:center' src=img/fixation3.jpg></div><div class='cl'><div class='vertical-center'>$35<br>in<br>2 weeks</div></div><div class='cr'><div class='vertical-center'><font style='color:orange'>$15<br><br>now</font></div></div><div class='respDivL'><div class='vertical-center'>(E)</div></div><div class='respDivR'><div class='vertical-center'><font style='color:orange'>(I)</font></div></div></div>","null","$15<br><br>now","$35<br>in<br>2 weeks","1","15","35","2",""
"html-keyboard-response","80","356119","0.0-5.0-1.25","5f514708067fba172909261a","bdp_td","Sat Mar 25 2023 19:22:53 GMT-0400 (Eastern Daylight Time)","367810","","null","","","","FIX","","","<div class='trialBorder'><div class='vertical-center'><img style='vertical-align:center; align:center' src=img/fixation3.jpg></div></div>","null","","","","","","",""
"html-keyboard-response","81","357834","0.0-5.0-2.25","5f514708067fba172909261a","bdp_td","Sat Mar 25 2023 19:22:53 GMT-0400 (Eastern Daylight Time)","367810","","1709","","","","offer","","","<div class='trialBorder'><div class='vertical-center'><img style='vertical-align:center; align:center' src=img/fixation3.jpg></div><div class='cl'><div class='vertical-center'>$55<br><br>now</div></div><div class='cr'><div class='vertical-center'>$75<br>in<br>6 weeks</div></div><div class='respDivL'><div class='vertical-center'>(E)</div></div><div class='respDivR'><div class='vertical-center'>(I)</div></div></div>","E","$55<br><br>now","$75<br>in<br>6 weeks","0","55","75","6","NOW"
"html-keyboard-response","82","358091","0.0-5.0-3.25","5f514708067fba172909261a","bdp_td","Sat Mar 25 2023 19:22:53 GMT-0400 (Eastern Daylight Time)","367810","","null","","","","offerFB","","","<div class='trialBorder'><div class='vertical-center'><img style='vertical-align:center; align:center' src=img/fixation3.jpg></div><div class='cl'><div class='vertical-center'><font style='color:orange'>$55<br><br>now</font></div></div><div class='cr'><div class='vertical-center'>$75<br>in<br>6 weeks</div></div><div class='respDivL'><div class='vertical-center'><font style='color:orange'>(E)</font></div></div><div class='respDivR'><div class='vertical-center'>(I)</div></div></div>","null","$55<br><br>now","$75<br>in<br>6 weeks","0","55","75","6",""
"html-keyboard-response","83","358596","0.0-5.0-1.26","5f514708067fba172909261a","bdp_td","Sat Mar 25 2023 19:22:53 GMT-0400 (Eastern Daylight Time)","367810","","null","","","","FIX","","","<div class='trialBorder'><div class='vertical-center'><img style='vertical-align:center; align:center' src=img/fixation3.jpg></div></div>","null","","","","","","",""
"html-keyboard-response","84","366546","0.0-5.0-2.26","5f514708067fba172909261a","bdp_td","Sat Mar 25 2023 19:22:53 GMT-0400 (Eastern Daylight Time)","367810","","7943","","","","offer","","","<div class='trialBorder'><div class='vertical-center'><img style='vertical-align:center; align:center' src=img/fixation3.jpg></div><div class='cl'><div class='vertical-center'>$25<br>in<br>6 weeks</div></div><div class='cr'><div class='vertical-center'>$19<br><br>now</div></div><div class='respDivL'><div class='vertical-center'>(E)</div></div><div class='respDivR'><div class='vertical-center'>(I)</div></div></div>","I","$19<br><br>now","$25<br>in<br>6 weeks","1","19","25","6","NOW"
"html-keyboard-response","85","366803","0.0-5.0-3.26","5f514708067fba172909261a","bdp_td","Sat Mar 25 2023 19:22:53 GMT-0400 (Eastern Daylight Time)","367810","","null","","","","offerFB","","","<div class='trialBorder'><div class='vertical-center'><img style='vertical-align:center; align:center' src=img/fixation3.jpg></div><div class='cl'><div class='vertical-center'>$25<br>in<br>6 weeks</div></div><div class='cr'><div class='vertical-center'><font style='color:orange'>$19<br><br>now</font></div></div><div class='respDivL'><div class='vertical-center'>(E)</div></div><div class='respDivR'><div class='vertical-center'><font style='color:orange'>(I)</font></div></div></div>","null","$19<br><br>now","$25<br>in<br>6 weeks","1","19","25","6",""
"fullscreen","86","367807","0.0-6.0","5f514708067fba172909261a","bdp_td","Sat Mar 25 2023 19:22:53 GMT-0400 (Eastern Daylight Time)","367810","","","","","","","true","","","","","","","","","",""
"html-keyboard-response","87","368314","0.0-7.0","","","","","","null","","","","","","","","null","","","","","","",""
