"trial_type","trial_index","time_elapsed","internal_node_id","subject_id","task","startTime","totalTime","event","trial","time","trialtype","numBlurs","view_history","rt","success","stimulus","key_press","nowOffer","thenOffer","thenLeft","nowAmt","thenAmt","thenWeeks","chosen"
"pavlovia","0","5","0.0-0.0","62f6bc18e456bdf4bc90dd7b","bdp_td","Thu Mar 30 2023 15:22:22 GMT-0400 (Eastern Daylight Time)","91178","","","","","","","","","","","","","","","","",""
"","","","","62f6bc18e456bdf4bc90dd7b","bdp_td","Thu Mar 30 2023 15:22:22 GMT-0400 (Eastern Daylight Time)","91178","blur","1","3897","blurevent","1","","","","","","","","","","","",""
"","","","","62f6bc18e456bdf4bc90dd7b","bdp_td","Thu Mar 30 2023 15:22:22 GMT-0400 (Eastern Daylight Time)","91178","focus","1","4261","focusevent","","","","","","","","","","","","",""
"instructions","1","8443","0.0-1.0","62f6bc18e456bdf4bc90dd7b","bdp_td","Thu Mar 30 2023 15:22:22 GMT-0400 (Eastern Daylight Time)","91178","","","","","","[{""page_index"":0,""viewing_time"":8436}]","8437","","","","","","","","","",""
"","","","","62f6bc18e456bdf4bc90dd7b","bdp_td","Thu Mar 30 2023 15:22:22 GMT-0400 (Eastern Daylight Time)","91178","fullscreenenter","2","10831","fullscreenenter","","","","","","","","","","","","",""
"fullscreen","2","11804","0.0-2.0","62f6bc18e456bdf4bc90dd7b","bdp_td","Thu Mar 30 2023 15:22:22 GMT-0400 (Eastern Daylight Time)","91178","","","","","","","","true","","","","","","","","",""
"instructions","3","21648","0.0-4.0","62f6bc18e456bdf4bc90dd7b","bdp_td","Thu Mar 30 2023 15:22:22 GMT-0400 (Eastern Daylight Time)","91178","","","","","","[{""page_index"":0,""viewing_time"":5311},{""page_index"":1,""viewing_time"":3476},{""page_index"":2,""viewing_time"":1057}]","9844","","","","","","","","","",""
"image-keyboard-response","4","28305","0.0-5.0-0.0-0.0","62f6bc18e456bdf4bc90dd7b","bdp_td","Thu Mar 30 2023 15:22:22 GMT-0400 (Eastern Daylight Time)","91178","","","","blurwarn","1","","6654","","","49","","","","","","",""
"html-keyboard-response","5","29058","0.0-5.0-1.0","62f6bc18e456bdf4bc90dd7b","bdp_td","Thu Mar 30 2023 15:22:22 GMT-0400 (Eastern Daylight Time)","91178","","","","FIX","","","null","","<div class='trialBorder'><div class='vertical-center'><img style='vertical-align:center; align:center' src=img/fixation3.jpg></div></div>","null","","","","","","",""
"html-keyboard-response","6","31648","0.0-5.0-2.0","62f6bc18e456bdf4bc90dd7b","bdp_td","Thu Mar 30 2023 15:22:22 GMT-0400 (Eastern Daylight Time)","91178","","","","offer","","","2588","","<div class='trialBorder'><div class='vertical-center'><img style='vertical-align:center; align:center' src=img/fixation3.jpg></div><div class='cl'><div class='vertical-center'>$40<br><br>now</div></div><div class='cr'><div class='vertical-center'>$55<br>in<br>6 weeks</div></div><div class='respDivL'><div class='vertical-center'>(E)</div></div><div class='respDivR'><div class='vertical-center'>(I)</div></div></div>","E","$40<br><br>now","$55<br>in<br>6 weeks","0","40","55","6","NOW"
"html-keyboard-response","7","31900","0.0-5.0-3.0","62f6bc18e456bdf4bc90dd7b","bdp_td","Thu Mar 30 2023 15:22:22 GMT-0400 (Eastern Daylight Time)","91178","","","","offerFB","","","null","","<div class='trialBorder'><div class='vertical-center'><img style='vertical-align:center; align:center' src=img/fixation3.jpg></div><div class='cl'><div class='vertical-center'><font style='color:orange'>$40<br><br>now</font></div></div><div class='cr'><div class='vertical-center'>$55<br>in<br>6 weeks</div></div><div class='respDivL'><div class='vertical-center'><font style='color:orange'>(E)</font></div></div><div class='respDivR'><div class='vertical-center'>(I)</div></div></div>","null","$40<br><br>now","$55<br>in<br>6 weeks","0","40","55","6",""
"html-keyboard-response","8","32402","0.0-5.0-1.1","62f6bc18e456bdf4bc90dd7b","bdp_td","Thu Mar 30 2023 15:22:22 GMT-0400 (Eastern Daylight Time)","91178","","","","FIX","","","null","","<div class='trialBorder'><div class='vertical-center'><img style='vertical-align:center; align:center' src=img/fixation3.jpg></div></div>","null","","","","","","",""
"html-keyboard-response","9","34001","0.0-5.0-2.1","62f6bc18e456bdf4bc90dd7b","bdp_td","Thu Mar 30 2023 15:22:22 GMT-0400 (Eastern Daylight Time)","91178","","","","offer","","","1599","","<div class='trialBorder'><div class='vertical-center'><img style='vertical-align:center; align:center' src=img/fixation3.jpg></div><div class='cl'><div class='vertical-center'>$24<br><br>now</div></div><div class='cr'><div class='vertical-center'>$35<br>in<br>3 weeks</div></div><div class='respDivL'><div class='vertical-center'>(E)</div></div><div class='respDivR'><div class='vertical-center'>(I)</div></div></div>","I","$24<br><br>now","$35<br>in<br>3 weeks","0","24","35","3","THEN"
"html-keyboard-response","10","34253","0.0-5.0-3.1","62f6bc18e456bdf4bc90dd7b","bdp_td","Thu Mar 30 2023 15:22:22 GMT-0400 (Eastern Daylight Time)","91178","","","","offerFB","","","null","","<div class='trialBorder'><div class='vertical-center'><img style='vertical-align:center; align:center' src=img/fixation3.jpg></div><div class='cl'><div class='vertical-center'>$24<br><br>now</div></div><div class='cr'><div class='vertical-center'><font style='color:orange'>$35<br>in<br>3 weeks</font></div></div><div class='respDivL'><div class='vertical-center'>(E)</div></div><div class='respDivR'><div class='vertical-center'><font style='color:orange'>(I)</font></div></div></div>","null","$24<br><br>now","$35<br>in<br>3 weeks","0","24","35","3",""
"html-keyboard-response","11","34754","0.0-5.0-1.2","62f6bc18e456bdf4bc90dd7b","bdp_td","Thu Mar 30 2023 15:22:22 GMT-0400 (Eastern Daylight Time)","91178","","","","FIX","","","null","","<div class='trialBorder'><div class='vertical-center'><img style='vertical-align:center; align:center' src=img/fixation3.jpg></div></div>","null","","","","","","",""
"html-keyboard-response","12","36147","0.0-5.0-2.2","62f6bc18e456bdf4bc90dd7b","bdp_td","Thu Mar 30 2023 15:22:22 GMT-0400 (Eastern Daylight Time)","91178","","","","offer","","","1392","","<div class='trialBorder'><div class='vertical-center'><img style='vertical-align:center; align:center' src=img/fixation3.jpg></div><div class='cl'><div class='vertical-center'>$19<br><br>now</div></div><div class='cr'><div class='vertical-center'>$25<br>in<br>6 weeks</div></div><div class='respDivL'><div class='vertical-center'>(E)</div></div><div class='respDivR'><div class='vertical-center'>(I)</div></div></div>","I","$19<br><br>now","$25<br>in<br>6 weeks","0","19","25","6","THEN"
"html-keyboard-response","13","36400","0.0-5.0-3.2","62f6bc18e456bdf4bc90dd7b","bdp_td","Thu Mar 30 2023 15:22:22 GMT-0400 (Eastern Daylight Time)","91178","","","","offerFB","","","null","","<div class='trialBorder'><div class='vertical-center'><img style='vertical-align:center; align:center' src=img/fixation3.jpg></div><div class='cl'><div class='vertical-center'>$19<br><br>now</div></div><div class='cr'><div class='vertical-center'><font style='color:orange'>$25<br>in<br>6 weeks</font></div></div><div class='respDivL'><div class='vertical-center'>(E)</div></div><div class='respDivR'><div class='vertical-center'><font style='color:orange'>(I)</font></div></div></div>","null","$19<br><br>now","$25<br>in<br>6 weeks","0","19","25","6",""
"html-keyboard-response","14","36902","0.0-5.0-1.3","62f6bc18e456bdf4bc90dd7b","bdp_td","Thu Mar 30 2023 15:22:22 GMT-0400 (Eastern Daylight Time)","91178","","","","FIX","","","null","","<div class='trialBorder'><div class='vertical-center'><img style='vertical-align:center; align:center' src=img/fixation3.jpg></div></div>","null","","","","","","",""
"html-keyboard-response","15","38243","0.0-5.0-2.3","62f6bc18e456bdf4bc90dd7b","bdp_td","Thu Mar 30 2023 15:22:22 GMT-0400 (Eastern Daylight Time)","91178","","","","offer","","","1339","","<div class='trialBorder'><div class='vertical-center'><img style='vertical-align:center; align:center' src=img/fixation3.jpg></div><div class='cl'><div class='vertical-center'>$34<br><br>now</div></div><div class='cr'><div class='vertical-center'>$50<br>in<br>6 weeks</div></div><div class='respDivL'><div class='vertical-center'>(E)</div></div><div class='respDivR'><div class='vertical-center'>(I)</div></div></div>","I","$34<br><br>now","$50<br>in<br>6 weeks","0","34","50","6","THEN"
"html-keyboard-response","16","38496","0.0-5.0-3.3","62f6bc18e456bdf4bc90dd7b","bdp_td","Thu Mar 30 2023 15:22:22 GMT-0400 (Eastern Daylight Time)","91178","","","","offerFB","","","null","","<div class='trialBorder'><div class='vertical-center'><img style='vertical-align:center; align:center' src=img/fixation3.jpg></div><div class='cl'><div class='vertical-center'>$34<br><br>now</div></div><div class='cr'><div class='vertical-center'><font style='color:orange'>$50<br>in<br>6 weeks</font></div></div><div class='respDivL'><div class='vertical-center'>(E)</div></div><div class='respDivR'><div class='vertical-center'><font style='color:orange'>(I)</font></div></div></div>","null","$34<br><br>now","$50<br>in<br>6 weeks","0","34","50","6",""
"html-keyboard-response","17","38998","0.0-5.0-1.4","62f6bc18e456bdf4bc90dd7b","bdp_td","Thu Mar 30 2023 15:22:22 GMT-0400 (Eastern Daylight Time)","91178","","","","FIX","","","null","","<div class='trialBorder'><div class='vertical-center'><img style='vertical-align:center; align:center' src=img/fixation3.jpg></div></div>","null","","","","","","",""
"html-keyboard-response","18","40354","0.0-5.0-2.4","62f6bc18e456bdf4bc90dd7b","bdp_td","Thu Mar 30 2023 15:22:22 GMT-0400 (Eastern Daylight Time)","91178","","","","offer","","","1355","","<div class='trialBorder'><div class='vertical-center'><img style='vertical-align:center; align:center' src=img/fixation3.jpg></div><div class='cl'><div class='vertical-center'>$67<br><br>now</div></div><div class='cr'><div class='vertical-center'>$75<br>in<br>12 weeks</div></div><div class='respDivL'><div class='vertical-center'>(E)</div></div><div class='respDivR'><div class='vertical-center'>(I)</div></div></div>","I","$67<br><br>now","$75<br>in<br>12 weeks","0","67","75","12","THEN"
"html-keyboard-response","19","40607","0.0-5.0-3.4","62f6bc18e456bdf4bc90dd7b","bdp_td","Thu Mar 30 2023 15:22:22 GMT-0400 (Eastern Daylight Time)","91178","","","","offerFB","","","null","","<div class='trialBorder'><div class='vertical-center'><img style='vertical-align:center; align:center' src=img/fixation3.jpg></div><div class='cl'><div class='vertical-center'>$67<br><br>now</div></div><div class='cr'><div class='vertical-center'><font style='color:orange'>$75<br>in<br>12 weeks</font></div></div><div class='respDivL'><div class='vertical-center'>(E)</div></div><div class='respDivR'><div class='vertical-center'><font style='color:orange'>(I)</font></div></div></div>","null","$67<br><br>now","$75<br>in<br>12 weeks","0","67","75","12",""
"html-keyboard-response","20","41109","0.0-5.0-1.5","62f6bc18e456bdf4bc90dd7b","bdp_td","Thu Mar 30 2023 15:22:22 GMT-0400 (Eastern Daylight Time)","91178","","","","FIX","","","null","","<div class='trialBorder'><div class='vertical-center'><img style='vertical-align:center; align:center' src=img/fixation3.jpg></div></div>","null","","","","","","",""
"html-keyboard-response","21","43216","0.0-5.0-2.5","62f6bc18e456bdf4bc90dd7b","bdp_td","Thu Mar 30 2023 15:22:22 GMT-0400 (Eastern Daylight Time)","91178","","","","offer","","","2106","","<div class='trialBorder'><div class='vertical-center'><img style='vertical-align:center; align:center' src=img/fixation3.jpg></div><div class='cl'><div class='vertical-center'>$25<br>in<br>12 weeks</div></div><div class='cr'><div class='vertical-center'>$22<br><br>now</div></div><div class='respDivL'><div class='vertical-center'>(E)</div></div><div class='respDivR'><div class='vertical-center'>(I)</div></div></div>","I","$22<br><br>now","$25<br>in<br>12 weeks","1","22","25","12","NOW"
"html-keyboard-response","22","43468","0.0-5.0-3.5","62f6bc18e456bdf4bc90dd7b","bdp_td","Thu Mar 30 2023 15:22:22 GMT-0400 (Eastern Daylight Time)","91178","","","","offerFB","","","null","","<div class='trialBorder'><div class='vertical-center'><img style='vertical-align:center; align:center' src=img/fixation3.jpg></div><div class='cl'><div class='vertical-center'>$25<br>in<br>12 weeks</div></div><div class='cr'><div class='vertical-center'><font style='color:orange'>$22<br><br>now</font></div></div><div class='respDivL'><div class='vertical-center'>(E)</div></div><div class='respDivR'><div class='vertical-center'><font style='color:orange'>(I)</font></div></div></div>","null","$22<br><br>now","$25<br>in<br>12 weeks","1","22","25","12",""
"html-keyboard-response","23","43971","0.0-5.0-1.6","62f6bc18e456bdf4bc90dd7b","bdp_td","Thu Mar 30 2023 15:22:22 GMT-0400 (Eastern Daylight Time)","91178","","","","FIX","","","null","","<div class='trialBorder'><div class='vertical-center'><img style='vertical-align:center; align:center' src=img/fixation3.jpg></div></div>","null","","","","","","",""
"html-keyboard-response","24","45537","0.0-5.0-2.6","62f6bc18e456bdf4bc90dd7b","bdp_td","Thu Mar 30 2023 15:22:22 GMT-0400 (Eastern Daylight Time)","91178","","","","offer","","","1565","","<div class='trialBorder'><div class='vertical-center'><img style='vertical-align:center; align:center' src=img/fixation3.jpg></div><div class='cl'><div class='vertical-center'>$35<br>in<br>2 weeks</div></div><div class='cr'><div class='vertical-center'>$15<br><br>now</div></div><div class='respDivL'><div class='vertical-center'>(E)</div></div><div class='respDivR'><div class='vertical-center'>(I)</div></div></div>","E","$15<br><br>now","$35<br>in<br>2 weeks","1","15","35","2","THEN"
"html-keyboard-response","25","45789","0.0-5.0-3.6","62f6bc18e456bdf4bc90dd7b","bdp_td","Thu Mar 30 2023 15:22:22 GMT-0400 (Eastern Daylight Time)","91178","","","","offerFB","","","null","","<div class='trialBorder'><div class='vertical-center'><img style='vertical-align:center; align:center' src=img/fixation3.jpg></div><div class='cl'><div class='vertical-center'><font style='color:orange'>$35<br>in<br>2 weeks</font></div></div><div class='cr'><div class='vertical-center'>$15<br><br>now</div></div><div class='respDivL'><div class='vertical-center'><font style='color:orange'>(E)</font></div></div><div class='respDivR'><div class='vertical-center'>(I)</div></div></div>","null","$15<br><br>now","$35<br>in<br>2 weeks","1","15","35","2",""
"html-keyboard-response","26","46292","0.0-5.0-1.7","62f6bc18e456bdf4bc90dd7b","bdp_td","Thu Mar 30 2023 15:22:22 GMT-0400 (Eastern Daylight Time)","91178","","","","FIX","","","null","","<div class='trialBorder'><div class='vertical-center'><img style='vertical-align:center; align:center' src=img/fixation3.jpg></div></div>","null","","","","","","",""
"html-keyboard-response","27","47425","0.0-5.0-2.7","62f6bc18e456bdf4bc90dd7b","bdp_td","Thu Mar 30 2023 15:22:22 GMT-0400 (Eastern Daylight Time)","91178","","","","offer","","","1133","","<div class='trialBorder'><div class='vertical-center'><img style='vertical-align:center; align:center' src=img/fixation3.jpg></div><div class='cl'><div class='vertical-center'>$35<br>in<br>12 weeks</div></div><div class='cr'><div class='vertical-center'>$34<br><br>now</div></div><div class='respDivL'><div class='vertical-center'>(E)</div></div><div class='respDivR'><div class='vertical-center'>(I)</div></div></div>","E","$34<br><br>now","$35<br>in<br>12 weeks","1","34","35","12","THEN"
"html-keyboard-response","28","47678","0.0-5.0-3.7","62f6bc18e456bdf4bc90dd7b","bdp_td","Thu Mar 30 2023 15:22:22 GMT-0400 (Eastern Daylight Time)","91178","","","","offerFB","","","null","","<div class='trialBorder'><div class='vertical-center'><img style='vertical-align:center; align:center' src=img/fixation3.jpg></div><div class='cl'><div class='vertical-center'><font style='color:orange'>$35<br>in<br>12 weeks</font></div></div><div class='cr'><div class='vertical-center'>$34<br><br>now</div></div><div class='respDivL'><div class='vertical-center'><font style='color:orange'>(E)</font></div></div><div class='respDivR'><div class='vertical-center'>(I)</div></div></div>","null","$34<br><br>now","$35<br>in<br>12 weeks","1","34","35","12",""
"html-keyboard-response","29","48180","0.0-5.0-1.8","62f6bc18e456bdf4bc90dd7b","bdp_td","Thu Mar 30 2023 15:22:22 GMT-0400 (Eastern Daylight Time)","91178","","","","FIX","","","null","","<div class='trialBorder'><div class='vertical-center'><img style='vertical-align:center; align:center' src=img/fixation3.jpg></div></div>","null","","","","","","",""
"html-keyboard-response","30","49474","0.0-5.0-2.8","62f6bc18e456bdf4bc90dd7b","bdp_td","Thu Mar 30 2023 15:22:22 GMT-0400 (Eastern Daylight Time)","91178","","","","offer","","","1292","","<div class='trialBorder'><div class='vertical-center'><img style='vertical-align:center; align:center' src=img/fixation3.jpg></div><div class='cl'><div class='vertical-center'>$54<br><br>now</div></div><div class='cr'><div class='vertical-center'>$80<br>in<br>3 weeks</div></div><div class='respDivL'><div class='vertical-center'>(E)</div></div><div class='respDivR'><div class='vertical-center'>(I)</div></div></div>","I","$54<br><br>now","$80<br>in<br>3 weeks","0","54","80","3","THEN"
"html-keyboard-response","31","49726","0.0-5.0-3.8","62f6bc18e456bdf4bc90dd7b","bdp_td","Thu Mar 30 2023 15:22:22 GMT-0400 (Eastern Daylight Time)","91178","","","","offerFB","","","null","","<div class='trialBorder'><div class='vertical-center'><img style='vertical-align:center; align:center' src=img/fixation3.jpg></div><div class='cl'><div class='vertical-center'>$54<br><br>now</div></div><div class='cr'><div class='vertical-center'><font style='color:orange'>$80<br>in<br>3 weeks</font></div></div><div class='respDivL'><div class='vertical-center'>(E)</div></div><div class='respDivR'><div class='vertical-center'><font style='color:orange'>(I)</font></div></div></div>","null","$54<br><br>now","$80<br>in<br>3 weeks","0","54","80","3",""
"html-keyboard-response","32","50228","0.0-5.0-1.9","62f6bc18e456bdf4bc90dd7b","bdp_td","Thu Mar 30 2023 15:22:22 GMT-0400 (Eastern Daylight Time)","91178","","","","FIX","","","null","","<div class='trialBorder'><div class='vertical-center'><img style='vertical-align:center; align:center' src=img/fixation3.jpg></div></div>","null","","","","","","",""
"html-keyboard-response","33","50972","0.0-5.0-2.9","62f6bc18e456bdf4bc90dd7b","bdp_td","Thu Mar 30 2023 15:22:22 GMT-0400 (Eastern Daylight Time)","91178","","","","offer","","","742","","<div class='trialBorder'><div class='vertical-center'><img style='vertical-align:center; align:center' src=img/fixation3.jpg></div><div class='cl'><div class='vertical-center'>$80<br>in<br>12 weeks</div></div><div class='cr'><div class='vertical-center'>$78<br><br>now</div></div><div class='respDivL'><div class='vertical-center'>(E)</div></div><div class='respDivR'><div class='vertical-center'>(I)</div></div></div>","E","$78<br><br>now","$80<br>in<br>12 weeks","1","78","80","12","THEN"
"html-keyboard-response","34","51224","0.0-5.0-3.9","62f6bc18e456bdf4bc90dd7b","bdp_td","Thu Mar 30 2023 15:22:22 GMT-0400 (Eastern Daylight Time)","91178","","","","offerFB","","","null","","<div class='trialBorder'><div class='vertical-center'><img style='vertical-align:center; align:center' src=img/fixation3.jpg></div><div class='cl'><div class='vertical-center'><font style='color:orange'>$80<br>in<br>12 weeks</font></div></div><div class='cr'><div class='vertical-center'>$78<br><br>now</div></div><div class='respDivL'><div class='vertical-center'><font style='color:orange'>(E)</font></div></div><div class='respDivR'><div class='vertical-center'>(I)</div></div></div>","null","$78<br><br>now","$80<br>in<br>12 weeks","1","78","80","12",""
"html-keyboard-response","35","51727","0.0-5.0-1.10","62f6bc18e456bdf4bc90dd7b","bdp_td","Thu Mar 30 2023 15:22:22 GMT-0400 (Eastern Daylight Time)","91178","","","","FIX","","","null","","<div class='trialBorder'><div class='vertical-center'><img style='vertical-align:center; align:center' src=img/fixation3.jpg></div></div>","null","","","","","","",""
"html-keyboard-response","36","52341","0.0-5.0-2.10","62f6bc18e456bdf4bc90dd7b","bdp_td","Thu Mar 30 2023 15:22:22 GMT-0400 (Eastern Daylight Time)","91178","","","","offer","","","614","","<div class='trialBorder'><div class='vertical-center'><img style='vertical-align:center; align:center' src=img/fixation3.jpg></div><div class='cl'><div class='vertical-center'>$28<br><br>now</div></div><div class='cr'><div class='vertical-center'>$30<br>in<br>12 weeks</div></div><div class='respDivL'><div class='vertical-center'>(E)</div></div><div class='respDivR'><div class='vertical-center'>(I)</div></div></div>","I","$28<br><br>now","$30<br>in<br>12 weeks","0","28","30","12","THEN"
"html-keyboard-response","37","52594","0.0-5.0-3.10","62f6bc18e456bdf4bc90dd7b","bdp_td","Thu Mar 30 2023 15:22:22 GMT-0400 (Eastern Daylight Time)","91178","","","","offerFB","","","null","","<div class='trialBorder'><div class='vertical-center'><img style='vertical-align:center; align:center' src=img/fixation3.jpg></div><div class='cl'><div class='vertical-center'>$28<br><br>now</div></div><div class='cr'><div class='vertical-center'><font style='color:orange'>$30<br>in<br>12 weeks</font></div></div><div class='respDivL'><div class='vertical-center'>(E)</div></div><div class='respDivR'><div class='vertical-center'><font style='color:orange'>(I)</font></div></div></div>","null","$28<br><br>now","$30<br>in<br>12 weeks","0","28","30","12",""
"html-keyboard-response","38","53095","0.0-5.0-1.11","62f6bc18e456bdf4bc90dd7b","bdp_td","Thu Mar 30 2023 15:22:22 GMT-0400 (Eastern Daylight Time)","91178","","","","FIX","","","null","","<div class='trialBorder'><div class='vertical-center'><img style='vertical-align:center; align:center' src=img/fixation3.jpg></div></div>","null","","","","","","",""
"html-keyboard-response","39","54848","0.0-5.0-2.11","62f6bc18e456bdf4bc90dd7b","bdp_td","Thu Mar 30 2023 15:22:22 GMT-0400 (Eastern Daylight Time)","91178","","","","offer","","","1751","","<div class='trialBorder'><div class='vertical-center'><img style='vertical-align:center; align:center' src=img/fixation3.jpg></div><div class='cl'><div class='vertical-center'>$49<br><br>now</div></div><div class='cr'><div class='vertical-center'>$60<br>in<br>6 weeks</div></div><div class='respDivL'><div class='vertical-center'>(E)</div></div><div class='respDivR'><div class='vertical-center'>(I)</div></div></div>","I","$49<br><br>now","$60<br>in<br>6 weeks","0","49","60","6","THEN"
"html-keyboard-response","40","55099","0.0-5.0-3.11","62f6bc18e456bdf4bc90dd7b","bdp_td","Thu Mar 30 2023 15:22:22 GMT-0400 (Eastern Daylight Time)","91178","","","","offerFB","","","null","","<div class='trialBorder'><div class='vertical-center'><img style='vertical-align:center; align:center' src=img/fixation3.jpg></div><div class='cl'><div class='vertical-center'>$49<br><br>now</div></div><div class='cr'><div class='vertical-center'><font style='color:orange'>$60<br>in<br>6 weeks</font></div></div><div class='respDivL'><div class='vertical-center'>(E)</div></div><div class='respDivR'><div class='vertical-center'><font style='color:orange'>(I)</font></div></div></div>","null","$49<br><br>now","$60<br>in<br>6 weeks","0","49","60","6",""
"html-keyboard-response","41","55602","0.0-5.0-1.12","62f6bc18e456bdf4bc90dd7b","bdp_td","Thu Mar 30 2023 15:22:22 GMT-0400 (Eastern Daylight Time)","91178","","","","FIX","","","null","","<div class='trialBorder'><div class='vertical-center'><img style='vertical-align:center; align:center' src=img/fixation3.jpg></div></div>","null","","","","","","",""
"html-keyboard-response","42","56640","0.0-5.0-2.12","62f6bc18e456bdf4bc90dd7b","bdp_td","Thu Mar 30 2023 15:22:22 GMT-0400 (Eastern Daylight Time)","91178","","","","offer","","","1036","","<div class='trialBorder'><div class='vertical-center'><img style='vertical-align:center; align:center' src=img/fixation3.jpg></div><div class='cl'><div class='vertical-center'>$85<br>in<br>1 week</div></div><div class='cr'><div class='vertical-center'>$31<br><br>now</div></div><div class='respDivL'><div class='vertical-center'>(E)</div></div><div class='respDivR'><div class='vertical-center'>(I)</div></div></div>","E","$31<br><br>now","$85<br>in<br>1 week","1","31","85","1","THEN"
"html-keyboard-response","43","56892","0.0-5.0-3.12","62f6bc18e456bdf4bc90dd7b","bdp_td","Thu Mar 30 2023 15:22:22 GMT-0400 (Eastern Daylight Time)","91178","","","","offerFB","","","null","","<div class='trialBorder'><div class='vertical-center'><img style='vertical-align:center; align:center' src=img/fixation3.jpg></div><div class='cl'><div class='vertical-center'><font style='color:orange'>$85<br>in<br>1 week</font></div></div><div class='cr'><div class='vertical-center'>$31<br><br>now</div></div><div class='respDivL'><div class='vertical-center'><font style='color:orange'>(E)</font></div></div><div class='respDivR'><div class='vertical-center'>(I)</div></div></div>","null","$31<br><br>now","$85<br>in<br>1 week","1","31","85","1",""
"html-keyboard-response","44","57393","0.0-5.0-1.13","62f6bc18e456bdf4bc90dd7b","bdp_td","Thu Mar 30 2023 15:22:22 GMT-0400 (Eastern Daylight Time)","91178","","","","FIX","","","null","","<div class='trialBorder'><div class='vertical-center'><img style='vertical-align:center; align:center' src=img/fixation3.jpg></div></div>","null","","","","","","",""
"html-keyboard-response","45","59552","0.0-5.0-2.13","62f6bc18e456bdf4bc90dd7b","bdp_td","Thu Mar 30 2023 15:22:22 GMT-0400 (Eastern Daylight Time)","91178","","","","offer","","","2158","","<div class='trialBorder'><div class='vertical-center'><img style='vertical-align:center; align:center' src=img/fixation3.jpg></div><div class='cl'><div class='vertical-center'>$60<br>in<br>12 weeks</div></div><div class='cr'><div class='vertical-center'>$54<br><br>now</div></div><div class='respDivL'><div class='vertical-center'>(E)</div></div><div class='respDivR'><div class='vertical-center'>(I)</div></div></div>","I","$54<br><br>now","$60<br>in<br>12 weeks","1","54","60","12","NOW"
"html-keyboard-response","46","59805","0.0-5.0-3.13","62f6bc18e456bdf4bc90dd7b","bdp_td","Thu Mar 30 2023 15:22:22 GMT-0400 (Eastern Daylight Time)","91178","","","","offerFB","","","null","","<div class='trialBorder'><div class='vertical-center'><img style='vertical-align:center; align:center' src=img/fixation3.jpg></div><div class='cl'><div class='vertical-center'>$60<br>in<br>12 weeks</div></div><div class='cr'><div class='vertical-center'><font style='color:orange'>$54<br><br>now</font></div></div><div class='respDivL'><div class='vertical-center'>(E)</div></div><div class='respDivR'><div class='vertical-center'><font style='color:orange'>(I)</font></div></div></div>","null","$54<br><br>now","$60<br>in<br>12 weeks","1","54","60","12",""
"html-keyboard-response","47","60307","0.0-5.0-1.14","62f6bc18e456bdf4bc90dd7b","bdp_td","Thu Mar 30 2023 15:22:22 GMT-0400 (Eastern Daylight Time)","91178","","","","FIX","","","null","","<div class='trialBorder'><div class='vertical-center'><img style='vertical-align:center; align:center' src=img/fixation3.jpg></div></div>","null","","","","","","",""
"html-keyboard-response","48","61918","0.0-5.0-2.14","62f6bc18e456bdf4bc90dd7b","bdp_td","Thu Mar 30 2023 15:22:22 GMT-0400 (Eastern Daylight Time)","91178","","","","offer","","","1610","","<div class='trialBorder'><div class='vertical-center'><img style='vertical-align:center; align:center' src=img/fixation3.jpg></div><div class='cl'><div class='vertical-center'>$25<br>in<br>3 weeks</div></div><div class='cr'><div class='vertical-center'>$14<br><br>now</div></div><div class='respDivL'><div class='vertical-center'>(E)</div></div><div class='respDivR'><div class='vertical-center'>(I)</div></div></div>","E","$14<br><br>now","$25<br>in<br>3 weeks","1","14","25","3","THEN"
"html-keyboard-response","49","62170","0.0-5.0-3.14","62f6bc18e456bdf4bc90dd7b","bdp_td","Thu Mar 30 2023 15:22:22 GMT-0400 (Eastern Daylight Time)","91178","","","","offerFB","","","null","","<div class='trialBorder'><div class='vertical-center'><img style='vertical-align:center; align:center' src=img/fixation3.jpg></div><div class='cl'><div class='vertical-center'><font style='color:orange'>$25<br>in<br>3 weeks</font></div></div><div class='cr'><div class='vertical-center'>$14<br><br>now</div></div><div class='respDivL'><div class='vertical-center'><font style='color:orange'>(E)</font></div></div><div class='respDivR'><div class='vertical-center'>(I)</div></div></div>","null","$14<br><br>now","$25<br>in<br>3 weeks","1","14","25","3",""
"html-keyboard-response","50","62672","0.0-5.0-1.15","62f6bc18e456bdf4bc90dd7b","bdp_td","Thu Mar 30 2023 15:22:22 GMT-0400 (Eastern Daylight Time)","91178","","","","FIX","","","null","","<div class='trialBorder'><div class='vertical-center'><img style='vertical-align:center; align:center' src=img/fixation3.jpg></div></div>","null","","","","","","",""
"html-keyboard-response","51","63695","0.0-5.0-2.15","62f6bc18e456bdf4bc90dd7b","bdp_td","Thu Mar 30 2023 15:22:22 GMT-0400 (Eastern Daylight Time)","91178","","","","offer","","","1021","","<div class='trialBorder'><div class='vertical-center'><img style='vertical-align:center; align:center' src=img/fixation3.jpg></div><div class='cl'><div class='vertical-center'>$11<br><br>now</div></div><div class='cr'><div class='vertical-center'>$30<br>in<br>2 weeks</div></div><div class='respDivL'><div class='vertical-center'>(E)</div></div><div class='respDivR'><div class='vertical-center'>(I)</div></div></div>","I","$11<br><br>now","$30<br>in<br>2 weeks","0","11","30","2","THEN"
"html-keyboard-response","52","63947","0.0-5.0-3.15","62f6bc18e456bdf4bc90dd7b","bdp_td","Thu Mar 30 2023 15:22:22 GMT-0400 (Eastern Daylight Time)","91178","","","","offerFB","","","null","","<div class='trialBorder'><div class='vertical-center'><img style='vertical-align:center; align:center' src=img/fixation3.jpg></div><div class='cl'><div class='vertical-center'>$11<br><br>now</div></div><div class='cr'><div class='vertical-center'><font style='color:orange'>$30<br>in<br>2 weeks</font></div></div><div class='respDivL'><div class='vertical-center'>(E)</div></div><div class='respDivR'><div class='vertical-center'><font style='color:orange'>(I)</font></div></div></div>","null","$11<br><br>now","$30<br>in<br>2 weeks","0","11","30","2",""
"html-keyboard-response","53","64448","0.0-5.0-1.16","62f6bc18e456bdf4bc90dd7b","bdp_td","Thu Mar 30 2023 15:22:22 GMT-0400 (Eastern Daylight Time)","91178","","","","FIX","","","null","","<div class='trialBorder'><div class='vertical-center'><img style='vertical-align:center; align:center' src=img/fixation3.jpg></div></div>","null","","","","","","",""
"html-keyboard-response","54","66137","0.0-5.0-2.16","62f6bc18e456bdf4bc90dd7b","bdp_td","Thu Mar 30 2023 15:22:22 GMT-0400 (Eastern Daylight Time)","91178","","","","offer","","","1687","","<div class='trialBorder'><div class='vertical-center'><img style='vertical-align:center; align:center' src=img/fixation3.jpg></div><div class='cl'><div class='vertical-center'>$54<br><br>now</div></div><div class='cr'><div class='vertical-center'>$55<br>in<br>12 weeks</div></div><div class='respDivL'><div class='vertical-center'>(E)</div></div><div class='respDivR'><div class='vertical-center'>(I)</div></div></div>","E","$54<br><br>now","$55<br>in<br>12 weeks","0","54","55","12","NOW"
"html-keyboard-response","55","66392","0.0-5.0-3.16","62f6bc18e456bdf4bc90dd7b","bdp_td","Thu Mar 30 2023 15:22:22 GMT-0400 (Eastern Daylight Time)","91178","","","","offerFB","","","null","","<div class='trialBorder'><div class='vertical-center'><img style='vertical-align:center; align:center' src=img/fixation3.jpg></div><div class='cl'><div class='vertical-center'><font style='color:orange'>$54<br><br>now</font></div></div><div class='cr'><div class='vertical-center'>$55<br>in<br>12 weeks</div></div><div class='respDivL'><div class='vertical-center'><font style='color:orange'>(E)</font></div></div><div class='respDivR'><div class='vertical-center'>(I)</div></div></div>","null","$54<br><br>now","$55<br>in<br>12 weeks","0","54","55","12",""
"html-keyboard-response","56","66894","0.0-5.0-1.17","62f6bc18e456bdf4bc90dd7b","bdp_td","Thu Mar 30 2023 15:22:22 GMT-0400 (Eastern Daylight Time)","91178","","","","FIX","","","null","","<div class='trialBorder'><div class='vertical-center'><img style='vertical-align:center; align:center' src=img/fixation3.jpg></div></div>","null","","","","","","",""
"html-keyboard-response","57","68338","0.0-5.0-2.17","62f6bc18e456bdf4bc90dd7b","bdp_td","Thu Mar 30 2023 15:22:22 GMT-0400 (Eastern Daylight Time)","91178","","","","offer","","","1443","","<div class='trialBorder'><div class='vertical-center'><img style='vertical-align:center; align:center' src=img/fixation3.jpg></div><div class='cl'><div class='vertical-center'>$85<br>in<br>12 weeks</div></div><div class='cr'><div class='vertical-center'>$80<br><br>now</div></div><div class='respDivL'><div class='vertical-center'>(E)</div></div><div class='respDivR'><div class='vertical-center'>(I)</div></div></div>","I","$80<br><br>now","$85<br>in<br>12 weeks","1","80","85","12","NOW"
"html-keyboard-response","58","68591","0.0-5.0-3.17","62f6bc18e456bdf4bc90dd7b","bdp_td","Thu Mar 30 2023 15:22:22 GMT-0400 (Eastern Daylight Time)","91178","","","","offerFB","","","null","","<div class='trialBorder'><div class='vertical-center'><img style='vertical-align:center; align:center' src=img/fixation3.jpg></div><div class='cl'><div class='vertical-center'>$85<br>in<br>12 weeks</div></div><div class='cr'><div class='vertical-center'><font style='color:orange'>$80<br><br>now</font></div></div><div class='respDivL'><div class='vertical-center'>(E)</div></div><div class='respDivR'><div class='vertical-center'><font style='color:orange'>(I)</font></div></div></div>","null","$80<br><br>now","$85<br>in<br>12 weeks","1","80","85","12",""
"html-keyboard-response","59","69094","0.0-5.0-1.18","62f6bc18e456bdf4bc90dd7b","bdp_td","Thu Mar 30 2023 15:22:22 GMT-0400 (Eastern Daylight Time)","91178","","","","FIX","","","null","","<div class='trialBorder'><div class='vertical-center'><img style='vertical-align:center; align:center' src=img/fixation3.jpg></div></div>","null","","","","","","",""
"html-keyboard-response","60","71312","0.0-5.0-2.18","62f6bc18e456bdf4bc90dd7b","bdp_td","Thu Mar 30 2023 15:22:22 GMT-0400 (Eastern Daylight Time)","91178","","","","offer","","","2217","","<div class='trialBorder'><div class='vertical-center'><img style='vertical-align:center; align:center' src=img/fixation3.jpg></div><div class='cl'><div class='vertical-center'>$55<br><br>now</div></div><div class='cr'><div class='vertical-center'>$75<br>in<br>6 weeks</div></div><div class='respDivL'><div class='vertical-center'>(E)</div></div><div class='respDivR'><div class='vertical-center'>(I)</div></div></div>","I","$55<br><br>now","$75<br>in<br>6 weeks","0","55","75","6","THEN"
"html-keyboard-response","61","71565","0.0-5.0-3.18","62f6bc18e456bdf4bc90dd7b","bdp_td","Thu Mar 30 2023 15:22:22 GMT-0400 (Eastern Daylight Time)","91178","","","","offerFB","","","null","","<div class='trialBorder'><div class='vertical-center'><img style='vertical-align:center; align:center' src=img/fixation3.jpg></div><div class='cl'><div class='vertical-center'>$55<br><br>now</div></div><div class='cr'><div class='vertical-center'><font style='color:orange'>$75<br>in<br>6 weeks</font></div></div><div class='respDivL'><div class='vertical-center'>(E)</div></div><div class='respDivR'><div class='vertical-center'><font style='color:orange'>(I)</font></div></div></div>","null","$55<br><br>now","$75<br>in<br>6 weeks","0","55","75","6",""
"html-keyboard-response","62","72067","0.0-5.0-1.19","62f6bc18e456bdf4bc90dd7b","bdp_td","Thu Mar 30 2023 15:22:22 GMT-0400 (Eastern Daylight Time)","91178","","","","FIX","","","null","","<div class='trialBorder'><div class='vertical-center'><img style='vertical-align:center; align:center' src=img/fixation3.jpg></div></div>","null","","","","","","",""
"html-keyboard-response","63","73715","0.0-5.0-2.19","62f6bc18e456bdf4bc90dd7b","bdp_td","Thu Mar 30 2023 15:22:22 GMT-0400 (Eastern Daylight Time)","91178","","","","offer","","","1646","","<div class='trialBorder'><div class='vertical-center'><img style='vertical-align:center; align:center' src=img/fixation3.jpg></div><div class='cl'><div class='vertical-center'>$25<br><br>now</div></div><div class='cr'><div class='vertical-center'>$30<br>in<br>6 weeks</div></div><div class='respDivL'><div class='vertical-center'>(E)</div></div><div class='respDivR'><div class='vertical-center'>(I)</div></div></div>","E","$25<br><br>now","$30<br>in<br>6 weeks","0","25","30","6","NOW"
"html-keyboard-response","64","73967","0.0-5.0-3.19","62f6bc18e456bdf4bc90dd7b","bdp_td","Thu Mar 30 2023 15:22:22 GMT-0400 (Eastern Daylight Time)","91178","","","","offerFB","","","null","","<div class='trialBorder'><div class='vertical-center'><img style='vertical-align:center; align:center' src=img/fixation3.jpg></div><div class='cl'><div class='vertical-center'><font style='color:orange'>$25<br><br>now</font></div></div><div class='cr'><div class='vertical-center'>$30<br>in<br>6 weeks</div></div><div class='respDivL'><div class='vertical-center'><font style='color:orange'>(E)</font></div></div><div class='respDivR'><div class='vertical-center'>(I)</div></div></div>","null","$25<br><br>now","$30<br>in<br>6 weeks","0","25","30","6",""
"html-keyboard-response","65","74469","0.0-5.0-1.20","62f6bc18e456bdf4bc90dd7b","bdp_td","Thu Mar 30 2023 15:22:22 GMT-0400 (Eastern Daylight Time)","91178","","","","FIX","","","null","","<div class='trialBorder'><div class='vertical-center'><img style='vertical-align:center; align:center' src=img/fixation3.jpg></div></div>","null","","","","","","",""
"html-keyboard-response","66","76314","0.0-5.0-2.20","62f6bc18e456bdf4bc90dd7b","bdp_td","Thu Mar 30 2023 15:22:22 GMT-0400 (Eastern Daylight Time)","91178","","","","offer","","","1844","","<div class='trialBorder'><div class='vertical-center'><img style='vertical-align:center; align:center' src=img/fixation3.jpg></div><div class='cl'><div class='vertical-center'>$50<br>in<br>3 weeks</div></div><div class='cr'><div class='vertical-center'>$27<br><br>now</div></div><div class='respDivL'><div class='vertical-center'>(E)</div></div><div class='respDivR'><div class='vertical-center'>(I)</div></div></div>","E","$27<br><br>now","$50<br>in<br>3 weeks","1","27","50","3","THEN"
"html-keyboard-response","67","76565","0.0-5.0-3.20","62f6bc18e456bdf4bc90dd7b","bdp_td","Thu Mar 30 2023 15:22:22 GMT-0400 (Eastern Daylight Time)","91178","","","","offerFB","","","null","","<div class='trialBorder'><div class='vertical-center'><img style='vertical-align:center; align:center' src=img/fixation3.jpg></div><div class='cl'><div class='vertical-center'><font style='color:orange'>$50<br>in<br>3 weeks</font></div></div><div class='cr'><div class='vertical-center'>$27<br><br>now</div></div><div class='respDivL'><div class='vertical-center'><font style='color:orange'>(E)</font></div></div><div class='respDivR'><div class='vertical-center'>(I)</div></div></div>","null","$27<br><br>now","$50<br>in<br>3 weeks","1","27","50","3",""
"html-keyboard-response","68","77067","0.0-5.0-1.21","62f6bc18e456bdf4bc90dd7b","bdp_td","Thu Mar 30 2023 15:22:22 GMT-0400 (Eastern Daylight Time)","91178","","","","FIX","","","null","","<div class='trialBorder'><div class='vertical-center'><img style='vertical-align:center; align:center' src=img/fixation3.jpg></div></div>","null","","","","","","",""
"html-keyboard-response","69","77931","0.0-5.0-2.21","62f6bc18e456bdf4bc90dd7b","bdp_td","Thu Mar 30 2023 15:22:22 GMT-0400 (Eastern Daylight Time)","91178","","","","offer","","","863","","<div class='trialBorder'><div class='vertical-center'><img style='vertical-align:center; align:center' src=img/fixation3.jpg></div><div class='cl'><div class='vertical-center'>$41<br><br>now</div></div><div class='cr'><div class='vertical-center'>$75<br>in<br>3 weeks</div></div><div class='respDivL'><div class='vertical-center'>(E)</div></div><div class='respDivR'><div class='vertical-center'>(I)</div></div></div>","I","$41<br><br>now","$75<br>in<br>3 weeks","0","41","75","3","THEN"
"html-keyboard-response","70","78183","0.0-5.0-3.21","62f6bc18e456bdf4bc90dd7b","bdp_td","Thu Mar 30 2023 15:22:22 GMT-0400 (Eastern Daylight Time)","91178","","","","offerFB","","","null","","<div class='trialBorder'><div class='vertical-center'><img style='vertical-align:center; align:center' src=img/fixation3.jpg></div><div class='cl'><div class='vertical-center'>$41<br><br>now</div></div><div class='cr'><div class='vertical-center'><font style='color:orange'>$75<br>in<br>3 weeks</font></div></div><div class='respDivL'><div class='vertical-center'>(E)</div></div><div class='respDivR'><div class='vertical-center'><font style='color:orange'>(I)</font></div></div></div>","null","$41<br><br>now","$75<br>in<br>3 weeks","0","41","75","3",""
"html-keyboard-response","71","78686","0.0-5.0-1.22","62f6bc18e456bdf4bc90dd7b","bdp_td","Thu Mar 30 2023 15:22:22 GMT-0400 (Eastern Daylight Time)","91178","","","","FIX","","","null","","<div class='trialBorder'><div class='vertical-center'><img style='vertical-align:center; align:center' src=img/fixation3.jpg></div></div>","null","","","","","","",""
"html-keyboard-response","72","80228","0.0-5.0-2.22","62f6bc18e456bdf4bc90dd7b","bdp_td","Thu Mar 30 2023 15:22:22 GMT-0400 (Eastern Daylight Time)","91178","","","","offer","","","1541","","<div class='trialBorder'><div class='vertical-center'><img style='vertical-align:center; align:center' src=img/fixation3.jpg></div><div class='cl'><div class='vertical-center'>$47<br><br>now</div></div><div class='cr'><div class='vertical-center'>$50<br>in<br>12 weeks</div></div><div class='respDivL'><div class='vertical-center'>(E)</div></div><div class='respDivR'><div class='vertical-center'>(I)</div></div></div>","E","$47<br><br>now","$50<br>in<br>12 weeks","0","47","50","12","NOW"
"html-keyboard-response","73","80481","0.0-5.0-3.22","62f6bc18e456bdf4bc90dd7b","bdp_td","Thu Mar 30 2023 15:22:22 GMT-0400 (Eastern Daylight Time)","91178","","","","offerFB","","","null","","<div class='trialBorder'><div class='vertical-center'><img style='vertical-align:center; align:center' src=img/fixation3.jpg></div><div class='cl'><div class='vertical-center'><font style='color:orange'>$47<br><br>now</font></div></div><div class='cr'><div class='vertical-center'>$50<br>in<br>12 weeks</div></div><div class='respDivL'><div class='vertical-center'><font style='color:orange'>(E)</font></div></div><div class='respDivR'><div class='vertical-center'>(I)</div></div></div>","null","$47<br><br>now","$50<br>in<br>12 weeks","0","47","50","12",""
"html-keyboard-response","74","80982","0.0-5.0-1.23","62f6bc18e456bdf4bc90dd7b","bdp_td","Thu Mar 30 2023 15:22:22 GMT-0400 (Eastern Daylight Time)","91178","","","","FIX","","","null","","<div class='trialBorder'><div class='vertical-center'><img style='vertical-align:center; align:center' src=img/fixation3.jpg></div></div>","null","","","","","","",""
"html-keyboard-response","75","83417","0.0-5.0-2.23","62f6bc18e456bdf4bc90dd7b","bdp_td","Thu Mar 30 2023 15:22:22 GMT-0400 (Eastern Daylight Time)","91178","","","","offer","","","2434","","<div class='trialBorder'><div class='vertical-center'><img style='vertical-align:center; align:center' src=img/fixation3.jpg></div><div class='cl'><div class='vertical-center'>$85<br>in<br>6 weeks</div></div><div class='cr'><div class='vertical-center'>$69<br><br>now</div></div><div class='respDivL'><div class='vertical-center'>(E)</div></div><div class='respDivR'><div class='vertical-center'>(I)</div></div></div>","E","$69<br><br>now","$85<br>in<br>6 weeks","1","69","85","6","THEN"
"html-keyboard-response","76","83669","0.0-5.0-3.23","62f6bc18e456bdf4bc90dd7b","bdp_td","Thu Mar 30 2023 15:22:22 GMT-0400 (Eastern Daylight Time)","91178","","","","offerFB","","","null","","<div class='trialBorder'><div class='vertical-center'><img style='vertical-align:center; align:center' src=img/fixation3.jpg></div><div class='cl'><div class='vertical-center'><font style='color:orange'>$85<br>in<br>6 weeks</font></div></div><div class='cr'><div class='vertical-center'>$69<br><br>now</div></div><div class='respDivL'><div class='vertical-center'><font style='color:orange'>(E)</font></div></div><div class='respDivR'><div class='vertical-center'>(I)</div></div></div>","null","$69<br><br>now","$85<br>in<br>6 weeks","1","69","85","6",""
"html-keyboard-response","77","84172","0.0-5.0-1.24","62f6bc18e456bdf4bc90dd7b","bdp_td","Thu Mar 30 2023 15:22:22 GMT-0400 (Eastern Daylight Time)","91178","","","","FIX","","","null","","<div class='trialBorder'><div class='vertical-center'><img style='vertical-align:center; align:center' src=img/fixation3.jpg></div></div>","null","","","","","","",""
"html-keyboard-response","78","86043","0.0-5.0-2.24","62f6bc18e456bdf4bc90dd7b","bdp_td","Thu Mar 30 2023 15:22:22 GMT-0400 (Eastern Daylight Time)","91178","","","","offer","","","1869","","<div class='trialBorder'><div class='vertical-center'><img style='vertical-align:center; align:center' src=img/fixation3.jpg></div><div class='cl'><div class='vertical-center'>$55<br>in<br>1 week</div></div><div class='cr'><div class='vertical-center'>$20<br><br>now</div></div><div class='respDivL'><div class='vertical-center'>(E)</div></div><div class='respDivR'><div class='vertical-center'>(I)</div></div></div>","E","$20<br><br>now","$55<br>in<br>1 week","1","20","55","1","THEN"
"html-keyboard-response","79","86295","0.0-5.0-3.24","62f6bc18e456bdf4bc90dd7b","bdp_td","Thu Mar 30 2023 15:22:22 GMT-0400 (Eastern Daylight Time)","91178","","","","offerFB","","","null","","<div class='trialBorder'><div class='vertical-center'><img style='vertical-align:center; align:center' src=img/fixation3.jpg></div><div class='cl'><div class='vertical-center'><font style='color:orange'>$55<br>in<br>1 week</font></div></div><div class='cr'><div class='vertical-center'>$20<br><br>now</div></div><div class='respDivL'><div class='vertical-center'><font style='color:orange'>(E)</font></div></div><div class='respDivR'><div class='vertical-center'>(I)</div></div></div>","null","$20<br><br>now","$55<br>in<br>1 week","1","20","55","1",""
"html-keyboard-response","80","86797","0.0-5.0-1.25","62f6bc18e456bdf4bc90dd7b","bdp_td","Thu Mar 30 2023 15:22:22 GMT-0400 (Eastern Daylight Time)","91178","","","","FIX","","","null","","<div class='trialBorder'><div class='vertical-center'><img style='vertical-align:center; align:center' src=img/fixation3.jpg></div></div>","null","","","","","","",""
"html-keyboard-response","81","87835","0.0-5.0-2.25","62f6bc18e456bdf4bc90dd7b","bdp_td","Thu Mar 30 2023 15:22:22 GMT-0400 (Eastern Daylight Time)","91178","","","","offer","","","1036","","<div class='trialBorder'><div class='vertical-center'><img style='vertical-align:center; align:center' src=img/fixation3.jpg></div><div class='cl'><div class='vertical-center'>$80<br>in<br>2 weeks</div></div><div class='cr'><div class='vertical-center'>$33<br><br>now</div></div><div class='respDivL'><div class='vertical-center'>(E)</div></div><div class='respDivR'><div class='vertical-center'>(I)</div></div></div>","E","$33<br><br>now","$80<br>in<br>2 weeks","1","33","80","2","THEN"
"html-keyboard-response","82","88088","0.0-5.0-3.25","62f6bc18e456bdf4bc90dd7b","bdp_td","Thu Mar 30 2023 15:22:22 GMT-0400 (Eastern Daylight Time)","91178","","","","offerFB","","","null","","<div class='trialBorder'><div class='vertical-center'><img style='vertical-align:center; align:center' src=img/fixation3.jpg></div><div class='cl'><div class='vertical-center'><font style='color:orange'>$80<br>in<br>2 weeks</font></div></div><div class='cr'><div class='vertical-center'>$33<br><br>now</div></div><div class='respDivL'><div class='vertical-center'><font style='color:orange'>(E)</font></div></div><div class='respDivR'><div class='vertical-center'>(I)</div></div></div>","null","$33<br><br>now","$80<br>in<br>2 weeks","1","33","80","2",""
"html-keyboard-response","83","88589","0.0-5.0-1.26","62f6bc18e456bdf4bc90dd7b","bdp_td","Thu Mar 30 2023 15:22:22 GMT-0400 (Eastern Daylight Time)","91178","","","","FIX","","","null","","<div class='trialBorder'><div class='vertical-center'><img style='vertical-align:center; align:center' src=img/fixation3.jpg></div></div>","null","","","","","","",""
"html-keyboard-response","84","89924","0.0-5.0-2.26","62f6bc18e456bdf4bc90dd7b","bdp_td","Thu Mar 30 2023 15:22:22 GMT-0400 (Eastern Daylight Time)","91178","","","","offer","","","1334","","<div class='trialBorder'><div class='vertical-center'><img style='vertical-align:center; align:center' src=img/fixation3.jpg></div><div class='cl'><div class='vertical-center'>$60<br>in<br>3 weeks</div></div><div class='cr'><div class='vertical-center'>$25<br><br>now</div></div><div class='respDivL'><div class='vertical-center'>(E)</div></div><div class='respDivR'><div class='vertical-center'>(I)</div></div></div>","E","$25<br><br>now","$60<br>in<br>3 weeks","1","25","60","3","THEN"
"html-keyboard-response","85","90176","0.0-5.0-3.26","62f6bc18e456bdf4bc90dd7b","bdp_td","Thu Mar 30 2023 15:22:22 GMT-0400 (Eastern Daylight Time)","91178","","","","offerFB","","","null","","<div class='trialBorder'><div class='vertical-center'><img style='vertical-align:center; align:center' src=img/fixation3.jpg></div><div class='cl'><div class='vertical-center'><font style='color:orange'>$60<br>in<br>3 weeks</font></div></div><div class='cr'><div class='vertical-center'>$25<br><br>now</div></div><div class='respDivL'><div class='vertical-center'><font style='color:orange'>(E)</font></div></div><div class='respDivR'><div class='vertical-center'>(I)</div></div></div>","null","$25<br><br>now","$60<br>in<br>3 weeks","1","25","60","3",""
"","","","","62f6bc18e456bdf4bc90dd7b","bdp_td","Thu Mar 30 2023 15:22:22 GMT-0400 (Eastern Daylight Time)","91178","fullscreenexit","86","90202","fullscreenexit","","","","","","","","","","","","",""
"fullscreen","86","91177","0.0-6.0","62f6bc18e456bdf4bc90dd7b","bdp_td","Thu Mar 30 2023 15:22:22 GMT-0400 (Eastern Daylight Time)","91178","","","","","","","","true","","","","","","","","",""
"html-keyboard-response","87","91679","0.0-7.0","","","","","","","","","","","null","","","null","","","","","","",""
