"trial_type","trial_index","time_elapsed","internal_node_id","subject_id","task","startTime","totalTime","view_history","rt","event","trial","time","trialtype","success","stimulus","key_press","nowOffer","thenOffer","thenLeft","nowAmt","thenAmt","thenWeeks","chosen"
"pavlovia","0","1","0.0-0.0","63e5c56c4ddeee504b9fa17f","bdp_td","Sun Apr 02 2023 05:25:32 GMT-0700 (Pacific Daylight Time)","158138","","","","","","","","","","","","","","","",""
"instructions","1","6421","0.0-1.0","63e5c56c4ddeee504b9fa17f","bdp_td","Sun Apr 02 2023 05:25:32 GMT-0700 (Pacific Daylight Time)","158138","[{""page_index"":0,""viewing_time"":6420}]","6420","","","","","","","","","","","","","",""
"","","","","63e5c56c4ddeee504b9fa17f","bdp_td","Sun Apr 02 2023 05:25:32 GMT-0700 (Pacific Daylight Time)","158138","","","fullscreenenter","2","8865","fullscreenenter","","","","","","","","","",""
"fullscreen","2","9860","0.0-2.0","63e5c56c4ddeee504b9fa17f","bdp_td","Sun Apr 02 2023 05:25:32 GMT-0700 (Pacific Daylight Time)","158138","","","","","","","true","","","","","","","","",""
"instructions","3","90299","0.0-4.0","63e5c56c4ddeee504b9fa17f","bdp_td","Sun Apr 02 2023 05:25:32 GMT-0700 (Pacific Daylight Time)","158138","[{""page_index"":0,""viewing_time"":74013},{""page_index"":1,""viewing_time"":3862},{""page_index"":2,""viewing_time"":2563}]","80439","","","","","","","","","","","","","",""
"html-keyboard-response","4","90799","0.0-5.0-1.0","63e5c56c4ddeee504b9fa17f","bdp_td","Sun Apr 02 2023 05:25:32 GMT-0700 (Pacific Daylight Time)","158138","","null","","","","FIX","","<div class='trialBorder'><div class='vertical-center'><img style='vertical-align:center; align:center' src=img/fixation3.jpg></div></div>","null","","","","","","",""
"html-keyboard-response","5","93127","0.0-5.0-2.0","63e5c56c4ddeee504b9fa17f","bdp_td","Sun Apr 02 2023 05:25:32 GMT-0700 (Pacific Daylight Time)","158138","","2327","","","","offer","","<div class='trialBorder'><div class='vertical-center'><img style='vertical-align:center; align:center' src=img/fixation3.jpg></div><div class='cl'><div class='vertical-center'>$75<br>in<br>3 weeks</div></div><div class='cr'><div class='vertical-center'>$41<br><br>now</div></div><div class='respDivL'><div class='vertical-center'>(E)</div></div><div class='respDivR'><div class='vertical-center'>(I)</div></div></div>","E","$41<br><br>now","$75<br>in<br>3 weeks","1","41","75","3","THEN"
"html-keyboard-response","6","93379","0.0-5.0-3.0","63e5c56c4ddeee504b9fa17f","bdp_td","Sun Apr 02 2023 05:25:32 GMT-0700 (Pacific Daylight Time)","158138","","null","","","","offerFB","","<div class='trialBorder'><div class='vertical-center'><img style='vertical-align:center; align:center' src=img/fixation3.jpg></div><div class='cl'><div class='vertical-center'><font style='color:orange'>$75<br>in<br>3 weeks</font></div></div><div class='cr'><div class='vertical-center'>$41<br><br>now</div></div><div class='respDivL'><div class='vertical-center'><font style='color:orange'>(E)</font></div></div><div class='respDivR'><div class='vertical-center'>(I)</div></div></div>","null","$41<br><br>now","$75<br>in<br>3 weeks","1","41","75","3",""
"html-keyboard-response","7","93879","0.0-5.0-1.1","63e5c56c4ddeee504b9fa17f","bdp_td","Sun Apr 02 2023 05:25:32 GMT-0700 (Pacific Daylight Time)","158138","","null","","","","FIX","","<div class='trialBorder'><div class='vertical-center'><img style='vertical-align:center; align:center' src=img/fixation3.jpg></div></div>","null","","","","","","",""
"html-keyboard-response","8","96354","0.0-5.0-2.1","63e5c56c4ddeee504b9fa17f","bdp_td","Sun Apr 02 2023 05:25:32 GMT-0700 (Pacific Daylight Time)","158138","","2473","","","","offer","","<div class='trialBorder'><div class='vertical-center'><img style='vertical-align:center; align:center' src=img/fixation3.jpg></div><div class='cl'><div class='vertical-center'>$19<br><br>now</div></div><div class='cr'><div class='vertical-center'>$25<br>in<br>6 weeks</div></div><div class='respDivL'><div class='vertical-center'>(E)</div></div><div class='respDivR'><div class='vertical-center'>(I)</div></div></div>","I","$19<br><br>now","$25<br>in<br>6 weeks","0","19","25","6","THEN"
"html-keyboard-response","9","96605","0.0-5.0-3.1","63e5c56c4ddeee504b9fa17f","bdp_td","Sun Apr 02 2023 05:25:32 GMT-0700 (Pacific Daylight Time)","158138","","null","","","","offerFB","","<div class='trialBorder'><div class='vertical-center'><img style='vertical-align:center; align:center' src=img/fixation3.jpg></div><div class='cl'><div class='vertical-center'>$19<br><br>now</div></div><div class='cr'><div class='vertical-center'><font style='color:orange'>$25<br>in<br>6 weeks</font></div></div><div class='respDivL'><div class='vertical-center'>(E)</div></div><div class='respDivR'><div class='vertical-center'><font style='color:orange'>(I)</font></div></div></div>","null","$19<br><br>now","$25<br>in<br>6 weeks","0","19","25","6",""
"html-keyboard-response","10","97106","0.0-5.0-1.2","63e5c56c4ddeee504b9fa17f","bdp_td","Sun Apr 02 2023 05:25:32 GMT-0700 (Pacific Daylight Time)","158138","","null","","","","FIX","","<div class='trialBorder'><div class='vertical-center'><img style='vertical-align:center; align:center' src=img/fixation3.jpg></div></div>","null","","","","","","",""
"html-keyboard-response","11","98429","0.0-5.0-2.2","63e5c56c4ddeee504b9fa17f","bdp_td","Sun Apr 02 2023 05:25:32 GMT-0700 (Pacific Daylight Time)","158138","","1323","","","","offer","","<div class='trialBorder'><div class='vertical-center'><img style='vertical-align:center; align:center' src=img/fixation3.jpg></div><div class='cl'><div class='vertical-center'>$35<br>in<br>2 weeks</div></div><div class='cr'><div class='vertical-center'>$15<br><br>now</div></div><div class='respDivL'><div class='vertical-center'>(E)</div></div><div class='respDivR'><div class='vertical-center'>(I)</div></div></div>","E","$15<br><br>now","$35<br>in<br>2 weeks","1","15","35","2","THEN"
"html-keyboard-response","12","98680","0.0-5.0-3.2","63e5c56c4ddeee504b9fa17f","bdp_td","Sun Apr 02 2023 05:25:32 GMT-0700 (Pacific Daylight Time)","158138","","null","","","","offerFB","","<div class='trialBorder'><div class='vertical-center'><img style='vertical-align:center; align:center' src=img/fixation3.jpg></div><div class='cl'><div class='vertical-center'><font style='color:orange'>$35<br>in<br>2 weeks</font></div></div><div class='cr'><div class='vertical-center'>$15<br><br>now</div></div><div class='respDivL'><div class='vertical-center'><font style='color:orange'>(E)</font></div></div><div class='respDivR'><div class='vertical-center'>(I)</div></div></div>","null","$15<br><br>now","$35<br>in<br>2 weeks","1","15","35","2",""
"html-keyboard-response","13","99181","0.0-5.0-1.3","63e5c56c4ddeee504b9fa17f","bdp_td","Sun Apr 02 2023 05:25:32 GMT-0700 (Pacific Daylight Time)","158138","","null","","","","FIX","","<div class='trialBorder'><div class='vertical-center'><img style='vertical-align:center; align:center' src=img/fixation3.jpg></div></div>","null","","","","","","",""
"html-keyboard-response","14","101739","0.0-5.0-2.3","63e5c56c4ddeee504b9fa17f","bdp_td","Sun Apr 02 2023 05:25:32 GMT-0700 (Pacific Daylight Time)","158138","","2557","","","","offer","","<div class='trialBorder'><div class='vertical-center'><img style='vertical-align:center; align:center' src=img/fixation3.jpg></div><div class='cl'><div class='vertical-center'>$54<br><br>now</div></div><div class='cr'><div class='vertical-center'>$55<br>in<br>12 weeks</div></div><div class='respDivL'><div class='vertical-center'>(E)</div></div><div class='respDivR'><div class='vertical-center'>(I)</div></div></div>","E","$54<br><br>now","$55<br>in<br>12 weeks","0","54","55","12","NOW"
"html-keyboard-response","15","101990","0.0-5.0-3.3","63e5c56c4ddeee504b9fa17f","bdp_td","Sun Apr 02 2023 05:25:32 GMT-0700 (Pacific Daylight Time)","158138","","null","","","","offerFB","","<div class='trialBorder'><div class='vertical-center'><img style='vertical-align:center; align:center' src=img/fixation3.jpg></div><div class='cl'><div class='vertical-center'><font style='color:orange'>$54<br><br>now</font></div></div><div class='cr'><div class='vertical-center'>$55<br>in<br>12 weeks</div></div><div class='respDivL'><div class='vertical-center'><font style='color:orange'>(E)</font></div></div><div class='respDivR'><div class='vertical-center'>(I)</div></div></div>","null","$54<br><br>now","$55<br>in<br>12 weeks","0","54","55","12",""
"html-keyboard-response","16","102491","0.0-5.0-1.4","63e5c56c4ddeee504b9fa17f","bdp_td","Sun Apr 02 2023 05:25:32 GMT-0700 (Pacific Daylight Time)","158138","","null","","","","FIX","","<div class='trialBorder'><div class='vertical-center'><img style='vertical-align:center; align:center' src=img/fixation3.jpg></div></div>","null","","","","","","",""
"html-keyboard-response","17","104139","0.0-5.0-2.4","63e5c56c4ddeee504b9fa17f","bdp_td","Sun Apr 02 2023 05:25:32 GMT-0700 (Pacific Daylight Time)","158138","","1647","","","","offer","","<div class='trialBorder'><div class='vertical-center'><img style='vertical-align:center; align:center' src=img/fixation3.jpg></div><div class='cl'><div class='vertical-center'>$20<br><br>now</div></div><div class='cr'><div class='vertical-center'>$55<br>in<br>1 week</div></div><div class='respDivL'><div class='vertical-center'>(E)</div></div><div class='respDivR'><div class='vertical-center'>(I)</div></div></div>","I","$20<br><br>now","$55<br>in<br>1 week","0","20","55","1","THEN"
"html-keyboard-response","18","104389","0.0-5.0-3.4","63e5c56c4ddeee504b9fa17f","bdp_td","Sun Apr 02 2023 05:25:32 GMT-0700 (Pacific Daylight Time)","158138","","null","","","","offerFB","","<div class='trialBorder'><div class='vertical-center'><img style='vertical-align:center; align:center' src=img/fixation3.jpg></div><div class='cl'><div class='vertical-center'>$20<br><br>now</div></div><div class='cr'><div class='vertical-center'><font style='color:orange'>$55<br>in<br>1 week</font></div></div><div class='respDivL'><div class='vertical-center'>(E)</div></div><div class='respDivR'><div class='vertical-center'><font style='color:orange'>(I)</font></div></div></div>","null","$20<br><br>now","$55<br>in<br>1 week","0","20","55","1",""
"html-keyboard-response","19","104892","0.0-5.0-1.5","63e5c56c4ddeee504b9fa17f","bdp_td","Sun Apr 02 2023 05:25:32 GMT-0700 (Pacific Daylight Time)","158138","","null","","","","FIX","","<div class='trialBorder'><div class='vertical-center'><img style='vertical-align:center; align:center' src=img/fixation3.jpg></div></div>","null","","","","","","",""
"html-keyboard-response","20","106602","0.0-5.0-2.5","63e5c56c4ddeee504b9fa17f","bdp_td","Sun Apr 02 2023 05:25:32 GMT-0700 (Pacific Daylight Time)","158138","","1710","","","","offer","","<div class='trialBorder'><div class='vertical-center'><img style='vertical-align:center; align:center' src=img/fixation3.jpg></div><div class='cl'><div class='vertical-center'>$55<br>in<br>6 weeks</div></div><div class='cr'><div class='vertical-center'>$40<br><br>now</div></div><div class='respDivL'><div class='vertical-center'>(E)</div></div><div class='respDivR'><div class='vertical-center'>(I)</div></div></div>","E","$40<br><br>now","$55<br>in<br>6 weeks","1","40","55","6","THEN"
"html-keyboard-response","21","106854","0.0-5.0-3.5","63e5c56c4ddeee504b9fa17f","bdp_td","Sun Apr 02 2023 05:25:32 GMT-0700 (Pacific Daylight Time)","158138","","null","","","","offerFB","","<div class='trialBorder'><div class='vertical-center'><img style='vertical-align:center; align:center' src=img/fixation3.jpg></div><div class='cl'><div class='vertical-center'><font style='color:orange'>$55<br>in<br>6 weeks</font></div></div><div class='cr'><div class='vertical-center'>$40<br><br>now</div></div><div class='respDivL'><div class='vertical-center'><font style='color:orange'>(E)</font></div></div><div class='respDivR'><div class='vertical-center'>(I)</div></div></div>","null","$40<br><br>now","$55<br>in<br>6 weeks","1","40","55","6",""
"html-keyboard-response","22","107355","0.0-5.0-1.6","63e5c56c4ddeee504b9fa17f","bdp_td","Sun Apr 02 2023 05:25:32 GMT-0700 (Pacific Daylight Time)","158138","","null","","","","FIX","","<div class='trialBorder'><div class='vertical-center'><img style='vertical-align:center; align:center' src=img/fixation3.jpg></div></div>","null","","","","","","",""
"html-keyboard-response","23","109460","0.0-5.0-2.6","63e5c56c4ddeee504b9fa17f","bdp_td","Sun Apr 02 2023 05:25:32 GMT-0700 (Pacific Daylight Time)","158138","","2104","","","","offer","","<div class='trialBorder'><div class='vertical-center'><img style='vertical-align:center; align:center' src=img/fixation3.jpg></div><div class='cl'><div class='vertical-center'>$49<br><br>now</div></div><div class='cr'><div class='vertical-center'>$60<br>in<br>6 weeks</div></div><div class='respDivL'><div class='vertical-center'>(E)</div></div><div class='respDivR'><div class='vertical-center'>(I)</div></div></div>","I","$49<br><br>now","$60<br>in<br>6 weeks","0","49","60","6","THEN"
"html-keyboard-response","24","109712","0.0-5.0-3.6","63e5c56c4ddeee504b9fa17f","bdp_td","Sun Apr 02 2023 05:25:32 GMT-0700 (Pacific Daylight Time)","158138","","null","","","","offerFB","","<div class='trialBorder'><div class='vertical-center'><img style='vertical-align:center; align:center' src=img/fixation3.jpg></div><div class='cl'><div class='vertical-center'>$49<br><br>now</div></div><div class='cr'><div class='vertical-center'><font style='color:orange'>$60<br>in<br>6 weeks</font></div></div><div class='respDivL'><div class='vertical-center'>(E)</div></div><div class='respDivR'><div class='vertical-center'><font style='color:orange'>(I)</font></div></div></div>","null","$49<br><br>now","$60<br>in<br>6 weeks","0","49","60","6",""
"html-keyboard-response","25","110214","0.0-5.0-1.7","63e5c56c4ddeee504b9fa17f","bdp_td","Sun Apr 02 2023 05:25:32 GMT-0700 (Pacific Daylight Time)","158138","","null","","","","FIX","","<div class='trialBorder'><div class='vertical-center'><img style='vertical-align:center; align:center' src=img/fixation3.jpg></div></div>","null","","","","","","",""
"html-keyboard-response","26","112272","0.0-5.0-2.7","63e5c56c4ddeee504b9fa17f","bdp_td","Sun Apr 02 2023 05:25:32 GMT-0700 (Pacific Daylight Time)","158138","","2056","","","","offer","","<div class='trialBorder'><div class='vertical-center'><img style='vertical-align:center; align:center' src=img/fixation3.jpg></div><div class='cl'><div class='vertical-center'>$24<br><br>now</div></div><div class='cr'><div class='vertical-center'>$35<br>in<br>3 weeks</div></div><div class='respDivL'><div class='vertical-center'>(E)</div></div><div class='respDivR'><div class='vertical-center'>(I)</div></div></div>","I","$24<br><br>now","$35<br>in<br>3 weeks","0","24","35","3","THEN"
"html-keyboard-response","27","112523","0.0-5.0-3.7","63e5c56c4ddeee504b9fa17f","bdp_td","Sun Apr 02 2023 05:25:32 GMT-0700 (Pacific Daylight Time)","158138","","null","","","","offerFB","","<div class='trialBorder'><div class='vertical-center'><img style='vertical-align:center; align:center' src=img/fixation3.jpg></div><div class='cl'><div class='vertical-center'>$24<br><br>now</div></div><div class='cr'><div class='vertical-center'><font style='color:orange'>$35<br>in<br>3 weeks</font></div></div><div class='respDivL'><div class='vertical-center'>(E)</div></div><div class='respDivR'><div class='vertical-center'><font style='color:orange'>(I)</font></div></div></div>","null","$24<br><br>now","$35<br>in<br>3 weeks","0","24","35","3",""
"html-keyboard-response","28","113024","0.0-5.0-1.8","63e5c56c4ddeee504b9fa17f","bdp_td","Sun Apr 02 2023 05:25:32 GMT-0700 (Pacific Daylight Time)","158138","","null","","","","FIX","","<div class='trialBorder'><div class='vertical-center'><img style='vertical-align:center; align:center' src=img/fixation3.jpg></div></div>","null","","","","","","",""
"html-keyboard-response","29","114431","0.0-5.0-2.8","63e5c56c4ddeee504b9fa17f","bdp_td","Sun Apr 02 2023 05:25:32 GMT-0700 (Pacific Daylight Time)","158138","","1407","","","","offer","","<div class='trialBorder'><div class='vertical-center'><img style='vertical-align:center; align:center' src=img/fixation3.jpg></div><div class='cl'><div class='vertical-center'>$33<br><br>now</div></div><div class='cr'><div class='vertical-center'>$80<br>in<br>2 weeks</div></div><div class='respDivL'><div class='vertical-center'>(E)</div></div><div class='respDivR'><div class='vertical-center'>(I)</div></div></div>","I","$33<br><br>now","$80<br>in<br>2 weeks","0","33","80","2","THEN"
"html-keyboard-response","30","114683","0.0-5.0-3.8","63e5c56c4ddeee504b9fa17f","bdp_td","Sun Apr 02 2023 05:25:32 GMT-0700 (Pacific Daylight Time)","158138","","null","","","","offerFB","","<div class='trialBorder'><div class='vertical-center'><img style='vertical-align:center; align:center' src=img/fixation3.jpg></div><div class='cl'><div class='vertical-center'>$33<br><br>now</div></div><div class='cr'><div class='vertical-center'><font style='color:orange'>$80<br>in<br>2 weeks</font></div></div><div class='respDivL'><div class='vertical-center'>(E)</div></div><div class='respDivR'><div class='vertical-center'><font style='color:orange'>(I)</font></div></div></div>","null","$33<br><br>now","$80<br>in<br>2 weeks","0","33","80","2",""
"html-keyboard-response","31","115184","0.0-5.0-1.9","63e5c56c4ddeee504b9fa17f","bdp_td","Sun Apr 02 2023 05:25:32 GMT-0700 (Pacific Daylight Time)","158138","","null","","","","FIX","","<div class='trialBorder'><div class='vertical-center'><img style='vertical-align:center; align:center' src=img/fixation3.jpg></div></div>","null","","","","","","",""
"html-keyboard-response","32","116367","0.0-5.0-2.9","63e5c56c4ddeee504b9fa17f","bdp_td","Sun Apr 02 2023 05:25:32 GMT-0700 (Pacific Daylight Time)","158138","","1181","","","","offer","","<div class='trialBorder'><div class='vertical-center'><img style='vertical-align:center; align:center' src=img/fixation3.jpg></div><div class='cl'><div class='vertical-center'>$50<br>in<br>3 weeks</div></div><div class='cr'><div class='vertical-center'>$27<br><br>now</div></div><div class='respDivL'><div class='vertical-center'>(E)</div></div><div class='respDivR'><div class='vertical-center'>(I)</div></div></div>","E","$27<br><br>now","$50<br>in<br>3 weeks","1","27","50","3","THEN"
"html-keyboard-response","33","116617","0.0-5.0-3.9","63e5c56c4ddeee504b9fa17f","bdp_td","Sun Apr 02 2023 05:25:32 GMT-0700 (Pacific Daylight Time)","158138","","null","","","","offerFB","","<div class='trialBorder'><div class='vertical-center'><img style='vertical-align:center; align:center' src=img/fixation3.jpg></div><div class='cl'><div class='vertical-center'><font style='color:orange'>$50<br>in<br>3 weeks</font></div></div><div class='cr'><div class='vertical-center'>$27<br><br>now</div></div><div class='respDivL'><div class='vertical-center'><font style='color:orange'>(E)</font></div></div><div class='respDivR'><div class='vertical-center'>(I)</div></div></div>","null","$27<br><br>now","$50<br>in<br>3 weeks","1","27","50","3",""
"html-keyboard-response","34","117119","0.0-5.0-1.10","63e5c56c4ddeee504b9fa17f","bdp_td","Sun Apr 02 2023 05:25:32 GMT-0700 (Pacific Daylight Time)","158138","","null","","","","FIX","","<div class='trialBorder'><div class='vertical-center'><img style='vertical-align:center; align:center' src=img/fixation3.jpg></div></div>","null","","","","","","",""
"html-keyboard-response","35","119024","0.0-5.0-2.10","63e5c56c4ddeee504b9fa17f","bdp_td","Sun Apr 02 2023 05:25:32 GMT-0700 (Pacific Daylight Time)","158138","","1904","","","","offer","","<div class='trialBorder'><div class='vertical-center'><img style='vertical-align:center; align:center' src=img/fixation3.jpg></div><div class='cl'><div class='vertical-center'>$75<br>in<br>12 weeks</div></div><div class='cr'><div class='vertical-center'>$67<br><br>now</div></div><div class='respDivL'><div class='vertical-center'>(E)</div></div><div class='respDivR'><div class='vertical-center'>(I)</div></div></div>","E","$67<br><br>now","$75<br>in<br>12 weeks","1","67","75","12","THEN"
"html-keyboard-response","36","119274","0.0-5.0-3.10","63e5c56c4ddeee504b9fa17f","bdp_td","Sun Apr 02 2023 05:25:32 GMT-0700 (Pacific Daylight Time)","158138","","null","","","","offerFB","","<div class='trialBorder'><div class='vertical-center'><img style='vertical-align:center; align:center' src=img/fixation3.jpg></div><div class='cl'><div class='vertical-center'><font style='color:orange'>$75<br>in<br>12 weeks</font></div></div><div class='cr'><div class='vertical-center'>$67<br><br>now</div></div><div class='respDivL'><div class='vertical-center'><font style='color:orange'>(E)</font></div></div><div class='respDivR'><div class='vertical-center'>(I)</div></div></div>","null","$67<br><br>now","$75<br>in<br>12 weeks","1","67","75","12",""
"html-keyboard-response","37","119776","0.0-5.0-1.11","63e5c56c4ddeee504b9fa17f","bdp_td","Sun Apr 02 2023 05:25:32 GMT-0700 (Pacific Daylight Time)","158138","","null","","","","FIX","","<div class='trialBorder'><div class='vertical-center'><img style='vertical-align:center; align:center' src=img/fixation3.jpg></div></div>","null","","","","","","",""
"html-keyboard-response","38","121840","0.0-5.0-2.11","63e5c56c4ddeee504b9fa17f","bdp_td","Sun Apr 02 2023 05:25:32 GMT-0700 (Pacific Daylight Time)","158138","","2064","","","","offer","","<div class='trialBorder'><div class='vertical-center'><img style='vertical-align:center; align:center' src=img/fixation3.jpg></div><div class='cl'><div class='vertical-center'>$31<br><br>now</div></div><div class='cr'><div class='vertical-center'>$85<br>in<br>1 week</div></div><div class='respDivL'><div class='vertical-center'>(E)</div></div><div class='respDivR'><div class='vertical-center'>(I)</div></div></div>","I","$31<br><br>now","$85<br>in<br>1 week","0","31","85","1","THEN"
"html-keyboard-response","39","122092","0.0-5.0-3.11","63e5c56c4ddeee504b9fa17f","bdp_td","Sun Apr 02 2023 05:25:32 GMT-0700 (Pacific Daylight Time)","158138","","null","","","","offerFB","","<div class='trialBorder'><div class='vertical-center'><img style='vertical-align:center; align:center' src=img/fixation3.jpg></div><div class='cl'><div class='vertical-center'>$31<br><br>now</div></div><div class='cr'><div class='vertical-center'><font style='color:orange'>$85<br>in<br>1 week</font></div></div><div class='respDivL'><div class='vertical-center'>(E)</div></div><div class='respDivR'><div class='vertical-center'><font style='color:orange'>(I)</font></div></div></div>","null","$31<br><br>now","$85<br>in<br>1 week","0","31","85","1",""
"html-keyboard-response","40","122593","0.0-5.0-1.12","63e5c56c4ddeee504b9fa17f","bdp_td","Sun Apr 02 2023 05:25:32 GMT-0700 (Pacific Daylight Time)","158138","","null","","","","FIX","","<div class='trialBorder'><div class='vertical-center'><img style='vertical-align:center; align:center' src=img/fixation3.jpg></div></div>","null","","","","","","",""
"html-keyboard-response","41","123523","0.0-5.0-2.12","63e5c56c4ddeee504b9fa17f","bdp_td","Sun Apr 02 2023 05:25:32 GMT-0700 (Pacific Daylight Time)","158138","","929","","","","offer","","<div class='trialBorder'><div class='vertical-center'><img style='vertical-align:center; align:center' src=img/fixation3.jpg></div><div class='cl'><div class='vertical-center'>$55<br><br>now</div></div><div class='cr'><div class='vertical-center'>$75<br>in<br>6 weeks</div></div><div class='respDivL'><div class='vertical-center'>(E)</div></div><div class='respDivR'><div class='vertical-center'>(I)</div></div></div>","I","$55<br><br>now","$75<br>in<br>6 weeks","0","55","75","6","THEN"
"html-keyboard-response","42","123775","0.0-5.0-3.12","63e5c56c4ddeee504b9fa17f","bdp_td","Sun Apr 02 2023 05:25:32 GMT-0700 (Pacific Daylight Time)","158138","","null","","","","offerFB","","<div class='trialBorder'><div class='vertical-center'><img style='vertical-align:center; align:center' src=img/fixation3.jpg></div><div class='cl'><div class='vertical-center'>$55<br><br>now</div></div><div class='cr'><div class='vertical-center'><font style='color:orange'>$75<br>in<br>6 weeks</font></div></div><div class='respDivL'><div class='vertical-center'>(E)</div></div><div class='respDivR'><div class='vertical-center'><font style='color:orange'>(I)</font></div></div></div>","null","$55<br><br>now","$75<br>in<br>6 weeks","0","55","75","6",""
"html-keyboard-response","43","124275","0.0-5.0-1.13","63e5c56c4ddeee504b9fa17f","bdp_td","Sun Apr 02 2023 05:25:32 GMT-0700 (Pacific Daylight Time)","158138","","null","","","","FIX","","<div class='trialBorder'><div class='vertical-center'><img style='vertical-align:center; align:center' src=img/fixation3.jpg></div></div>","null","","","","","","",""
"html-keyboard-response","44","125076","0.0-5.0-2.13","63e5c56c4ddeee504b9fa17f","bdp_td","Sun Apr 02 2023 05:25:32 GMT-0700 (Pacific Daylight Time)","158138","","799","","","","offer","","<div class='trialBorder'><div class='vertical-center'><img style='vertical-align:center; align:center' src=img/fixation3.jpg></div><div class='cl'><div class='vertical-center'>$30<br>in<br>6 weeks</div></div><div class='cr'><div class='vertical-center'>$25<br><br>now</div></div><div class='respDivL'><div class='vertical-center'>(E)</div></div><div class='respDivR'><div class='vertical-center'>(I)</div></div></div>","E","$25<br><br>now","$30<br>in<br>6 weeks","1","25","30","6","THEN"
"html-keyboard-response","45","125327","0.0-5.0-3.13","63e5c56c4ddeee504b9fa17f","bdp_td","Sun Apr 02 2023 05:25:32 GMT-0700 (Pacific Daylight Time)","158138","","null","","","","offerFB","","<div class='trialBorder'><div class='vertical-center'><img style='vertical-align:center; align:center' src=img/fixation3.jpg></div><div class='cl'><div class='vertical-center'><font style='color:orange'>$30<br>in<br>6 weeks</font></div></div><div class='cr'><div class='vertical-center'>$25<br><br>now</div></div><div class='respDivL'><div class='vertical-center'><font style='color:orange'>(E)</font></div></div><div class='respDivR'><div class='vertical-center'>(I)</div></div></div>","null","$25<br><br>now","$30<br>in<br>6 weeks","1","25","30","6",""
"html-keyboard-response","46","125828","0.0-5.0-1.14","63e5c56c4ddeee504b9fa17f","bdp_td","Sun Apr 02 2023 05:25:32 GMT-0700 (Pacific Daylight Time)","158138","","null","","","","FIX","","<div class='trialBorder'><div class='vertical-center'><img style='vertical-align:center; align:center' src=img/fixation3.jpg></div></div>","null","","","","","","",""
"html-keyboard-response","47","126769","0.0-5.0-2.14","63e5c56c4ddeee504b9fa17f","bdp_td","Sun Apr 02 2023 05:25:32 GMT-0700 (Pacific Daylight Time)","158138","","940","","","","offer","","<div class='trialBorder'><div class='vertical-center'><img style='vertical-align:center; align:center' src=img/fixation3.jpg></div><div class='cl'><div class='vertical-center'>$60<br>in<br>3 weeks</div></div><div class='cr'><div class='vertical-center'>$25<br><br>now</div></div><div class='respDivL'><div class='vertical-center'>(E)</div></div><div class='respDivR'><div class='vertical-center'>(I)</div></div></div>","E","$25<br><br>now","$60<br>in<br>3 weeks","1","25","60","3","THEN"
"html-keyboard-response","48","127020","0.0-5.0-3.14","63e5c56c4ddeee504b9fa17f","bdp_td","Sun Apr 02 2023 05:25:32 GMT-0700 (Pacific Daylight Time)","158138","","null","","","","offerFB","","<div class='trialBorder'><div class='vertical-center'><img style='vertical-align:center; align:center' src=img/fixation3.jpg></div><div class='cl'><div class='vertical-center'><font style='color:orange'>$60<br>in<br>3 weeks</font></div></div><div class='cr'><div class='vertical-center'>$25<br><br>now</div></div><div class='respDivL'><div class='vertical-center'><font style='color:orange'>(E)</font></div></div><div class='respDivR'><div class='vertical-center'>(I)</div></div></div>","null","$25<br><br>now","$60<br>in<br>3 weeks","1","25","60","3",""
"html-keyboard-response","49","127521","0.0-5.0-1.15","63e5c56c4ddeee504b9fa17f","bdp_td","Sun Apr 02 2023 05:25:32 GMT-0700 (Pacific Daylight Time)","158138","","null","","","","FIX","","<div class='trialBorder'><div class='vertical-center'><img style='vertical-align:center; align:center' src=img/fixation3.jpg></div></div>","null","","","","","","",""
"html-keyboard-response","50","128143","0.0-5.0-2.15","63e5c56c4ddeee504b9fa17f","bdp_td","Sun Apr 02 2023 05:25:32 GMT-0700 (Pacific Daylight Time)","158138","","621","","","","offer","","<div class='trialBorder'><div class='vertical-center'><img style='vertical-align:center; align:center' src=img/fixation3.jpg></div><div class='cl'><div class='vertical-center'>$54<br><br>now</div></div><div class='cr'><div class='vertical-center'>$80<br>in<br>3 weeks</div></div><div class='respDivL'><div class='vertical-center'>(E)</div></div><div class='respDivR'><div class='vertical-center'>(I)</div></div></div>","I","$54<br><br>now","$80<br>in<br>3 weeks","0","54","80","3","THEN"
"html-keyboard-response","51","128394","0.0-5.0-3.15","63e5c56c4ddeee504b9fa17f","bdp_td","Sun Apr 02 2023 05:25:32 GMT-0700 (Pacific Daylight Time)","158138","","null","","","","offerFB","","<div class='trialBorder'><div class='vertical-center'><img style='vertical-align:center; align:center' src=img/fixation3.jpg></div><div class='cl'><div class='vertical-center'>$54<br><br>now</div></div><div class='cr'><div class='vertical-center'><font style='color:orange'>$80<br>in<br>3 weeks</font></div></div><div class='respDivL'><div class='vertical-center'>(E)</div></div><div class='respDivR'><div class='vertical-center'><font style='color:orange'>(I)</font></div></div></div>","null","$54<br><br>now","$80<br>in<br>3 weeks","0","54","80","3",""
"html-keyboard-response","52","128896","0.0-5.0-1.16","63e5c56c4ddeee504b9fa17f","bdp_td","Sun Apr 02 2023 05:25:32 GMT-0700 (Pacific Daylight Time)","158138","","null","","","","FIX","","<div class='trialBorder'><div class='vertical-center'><img style='vertical-align:center; align:center' src=img/fixation3.jpg></div></div>","null","","","","","","",""
"html-keyboard-response","53","129898","0.0-5.0-2.16","63e5c56c4ddeee504b9fa17f","bdp_td","Sun Apr 02 2023 05:25:32 GMT-0700 (Pacific Daylight Time)","158138","","1002","","","","offer","","<div class='trialBorder'><div class='vertical-center'><img style='vertical-align:center; align:center' src=img/fixation3.jpg></div><div class='cl'><div class='vertical-center'>$30<br>in<br>12 weeks</div></div><div class='cr'><div class='vertical-center'>$28<br><br>now</div></div><div class='respDivL'><div class='vertical-center'>(E)</div></div><div class='respDivR'><div class='vertical-center'>(I)</div></div></div>","E","$28<br><br>now","$30<br>in<br>12 weeks","1","28","30","12","THEN"
"html-keyboard-response","54","130149","0.0-5.0-3.16","63e5c56c4ddeee504b9fa17f","bdp_td","Sun Apr 02 2023 05:25:32 GMT-0700 (Pacific Daylight Time)","158138","","null","","","","offerFB","","<div class='trialBorder'><div class='vertical-center'><img style='vertical-align:center; align:center' src=img/fixation3.jpg></div><div class='cl'><div class='vertical-center'><font style='color:orange'>$30<br>in<br>12 weeks</font></div></div><div class='cr'><div class='vertical-center'>$28<br><br>now</div></div><div class='respDivL'><div class='vertical-center'><font style='color:orange'>(E)</font></div></div><div class='respDivR'><div class='vertical-center'>(I)</div></div></div>","null","$28<br><br>now","$30<br>in<br>12 weeks","1","28","30","12",""
"html-keyboard-response","55","130650","0.0-5.0-1.17","63e5c56c4ddeee504b9fa17f","bdp_td","Sun Apr 02 2023 05:25:32 GMT-0700 (Pacific Daylight Time)","158138","","null","","","","FIX","","<div class='trialBorder'><div class='vertical-center'><img style='vertical-align:center; align:center' src=img/fixation3.jpg></div></div>","null","","","","","","",""
"html-keyboard-response","56","132575","0.0-5.0-2.17","63e5c56c4ddeee504b9fa17f","bdp_td","Sun Apr 02 2023 05:25:32 GMT-0700 (Pacific Daylight Time)","158138","","1925","","","","offer","","<div class='trialBorder'><div class='vertical-center'><img style='vertical-align:center; align:center' src=img/fixation3.jpg></div><div class='cl'><div class='vertical-center'>$69<br><br>now</div></div><div class='cr'><div class='vertical-center'>$85<br>in<br>6 weeks</div></div><div class='respDivL'><div class='vertical-center'>(E)</div></div><div class='respDivR'><div class='vertical-center'>(I)</div></div></div>","I","$69<br><br>now","$85<br>in<br>6 weeks","0","69","85","6","THEN"
"html-keyboard-response","57","132828","0.0-5.0-3.17","63e5c56c4ddeee504b9fa17f","bdp_td","Sun Apr 02 2023 05:25:32 GMT-0700 (Pacific Daylight Time)","158138","","null","","","","offerFB","","<div class='trialBorder'><div class='vertical-center'><img style='vertical-align:center; align:center' src=img/fixation3.jpg></div><div class='cl'><div class='vertical-center'>$69<br><br>now</div></div><div class='cr'><div class='vertical-center'><font style='color:orange'>$85<br>in<br>6 weeks</font></div></div><div class='respDivL'><div class='vertical-center'>(E)</div></div><div class='respDivR'><div class='vertical-center'><font style='color:orange'>(I)</font></div></div></div>","null","$69<br><br>now","$85<br>in<br>6 weeks","0","69","85","6",""
"html-keyboard-response","58","133329","0.0-5.0-1.18","63e5c56c4ddeee504b9fa17f","bdp_td","Sun Apr 02 2023 05:25:32 GMT-0700 (Pacific Daylight Time)","158138","","null","","","","FIX","","<div class='trialBorder'><div class='vertical-center'><img style='vertical-align:center; align:center' src=img/fixation3.jpg></div></div>","null","","","","","","",""
"html-keyboard-response","59","134547","0.0-5.0-2.18","63e5c56c4ddeee504b9fa17f","bdp_td","Sun Apr 02 2023 05:25:32 GMT-0700 (Pacific Daylight Time)","158138","","1218","","","","offer","","<div class='trialBorder'><div class='vertical-center'><img style='vertical-align:center; align:center' src=img/fixation3.jpg></div><div class='cl'><div class='vertical-center'>$85<br>in<br>12 weeks</div></div><div class='cr'><div class='vertical-center'>$80<br><br>now</div></div><div class='respDivL'><div class='vertical-center'>(E)</div></div><div class='respDivR'><div class='vertical-center'>(I)</div></div></div>","E","$80<br><br>now","$85<br>in<br>12 weeks","1","80","85","12","THEN"
"html-keyboard-response","60","134799","0.0-5.0-3.18","63e5c56c4ddeee504b9fa17f","bdp_td","Sun Apr 02 2023 05:25:32 GMT-0700 (Pacific Daylight Time)","158138","","null","","","","offerFB","","<div class='trialBorder'><div class='vertical-center'><img style='vertical-align:center; align:center' src=img/fixation3.jpg></div><div class='cl'><div class='vertical-center'><font style='color:orange'>$85<br>in<br>12 weeks</font></div></div><div class='cr'><div class='vertical-center'>$80<br><br>now</div></div><div class='respDivL'><div class='vertical-center'><font style='color:orange'>(E)</font></div></div><div class='respDivR'><div class='vertical-center'>(I)</div></div></div>","null","$80<br><br>now","$85<br>in<br>12 weeks","1","80","85","12",""
"html-keyboard-response","61","135300","0.0-5.0-1.19","63e5c56c4ddeee504b9fa17f","bdp_td","Sun Apr 02 2023 05:25:32 GMT-0700 (Pacific Daylight Time)","158138","","null","","","","FIX","","<div class='trialBorder'><div class='vertical-center'><img style='vertical-align:center; align:center' src=img/fixation3.jpg></div></div>","null","","","","","","",""
"html-keyboard-response","62","136445","0.0-5.0-2.19","63e5c56c4ddeee504b9fa17f","bdp_td","Sun Apr 02 2023 05:25:32 GMT-0700 (Pacific Daylight Time)","158138","","1143","","","","offer","","<div class='trialBorder'><div class='vertical-center'><img style='vertical-align:center; align:center' src=img/fixation3.jpg></div><div class='cl'><div class='vertical-center'>$50<br>in<br>6 weeks</div></div><div class='cr'><div class='vertical-center'>$34<br><br>now</div></div><div class='respDivL'><div class='vertical-center'>(E)</div></div><div class='respDivR'><div class='vertical-center'>(I)</div></div></div>","E","$34<br><br>now","$50<br>in<br>6 weeks","1","34","50","6","THEN"
"html-keyboard-response","63","136696","0.0-5.0-3.19","63e5c56c4ddeee504b9fa17f","bdp_td","Sun Apr 02 2023 05:25:32 GMT-0700 (Pacific Daylight Time)","158138","","null","","","","offerFB","","<div class='trialBorder'><div class='vertical-center'><img style='vertical-align:center; align:center' src=img/fixation3.jpg></div><div class='cl'><div class='vertical-center'><font style='color:orange'>$50<br>in<br>6 weeks</font></div></div><div class='cr'><div class='vertical-center'>$34<br><br>now</div></div><div class='respDivL'><div class='vertical-center'><font style='color:orange'>(E)</font></div></div><div class='respDivR'><div class='vertical-center'>(I)</div></div></div>","null","$34<br><br>now","$50<br>in<br>6 weeks","1","34","50","6",""
"html-keyboard-response","64","137197","0.0-5.0-1.20","63e5c56c4ddeee504b9fa17f","bdp_td","Sun Apr 02 2023 05:25:32 GMT-0700 (Pacific Daylight Time)","158138","","null","","","","FIX","","<div class='trialBorder'><div class='vertical-center'><img style='vertical-align:center; align:center' src=img/fixation3.jpg></div></div>","null","","","","","","",""
"html-keyboard-response","65","138603","0.0-5.0-2.20","63e5c56c4ddeee504b9fa17f","bdp_td","Sun Apr 02 2023 05:25:32 GMT-0700 (Pacific Daylight Time)","158138","","1405","","","","offer","","<div class='trialBorder'><div class='vertical-center'><img style='vertical-align:center; align:center' src=img/fixation3.jpg></div><div class='cl'><div class='vertical-center'>$54<br><br>now</div></div><div class='cr'><div class='vertical-center'>$60<br>in<br>12 weeks</div></div><div class='respDivL'><div class='vertical-center'>(E)</div></div><div class='respDivR'><div class='vertical-center'>(I)</div></div></div>","I","$54<br><br>now","$60<br>in<br>12 weeks","0","54","60","12","THEN"
"html-keyboard-response","66","138854","0.0-5.0-3.20","63e5c56c4ddeee504b9fa17f","bdp_td","Sun Apr 02 2023 05:25:32 GMT-0700 (Pacific Daylight Time)","158138","","null","","","","offerFB","","<div class='trialBorder'><div class='vertical-center'><img style='vertical-align:center; align:center' src=img/fixation3.jpg></div><div class='cl'><div class='vertical-center'>$54<br><br>now</div></div><div class='cr'><div class='vertical-center'><font style='color:orange'>$60<br>in<br>12 weeks</font></div></div><div class='respDivL'><div class='vertical-center'>(E)</div></div><div class='respDivR'><div class='vertical-center'><font style='color:orange'>(I)</font></div></div></div>","null","$54<br><br>now","$60<br>in<br>12 weeks","0","54","60","12",""
"html-keyboard-response","67","139356","0.0-5.0-1.21","63e5c56c4ddeee504b9fa17f","bdp_td","Sun Apr 02 2023 05:25:32 GMT-0700 (Pacific Daylight Time)","158138","","null","","","","FIX","","<div class='trialBorder'><div class='vertical-center'><img style='vertical-align:center; align:center' src=img/fixation3.jpg></div></div>","null","","","","","","",""
"html-keyboard-response","68","144031","0.0-5.0-2.21","63e5c56c4ddeee504b9fa17f","bdp_td","Sun Apr 02 2023 05:25:32 GMT-0700 (Pacific Daylight Time)","158138","","4675","","","","offer","","<div class='trialBorder'><div class='vertical-center'><img style='vertical-align:center; align:center' src=img/fixation3.jpg></div><div class='cl'><div class='vertical-center'>$50<br>in<br>12 weeks</div></div><div class='cr'><div class='vertical-center'>$47<br><br>now</div></div><div class='respDivL'><div class='vertical-center'>(E)</div></div><div class='respDivR'><div class='vertical-center'>(I)</div></div></div>","I","$47<br><br>now","$50<br>in<br>12 weeks","1","47","50","12","NOW"
"html-keyboard-response","69","144282","0.0-5.0-3.21","63e5c56c4ddeee504b9fa17f","bdp_td","Sun Apr 02 2023 05:25:32 GMT-0700 (Pacific Daylight Time)","158138","","null","","","","offerFB","","<div class='trialBorder'><div class='vertical-center'><img style='vertical-align:center; align:center' src=img/fixation3.jpg></div><div class='cl'><div class='vertical-center'>$50<br>in<br>12 weeks</div></div><div class='cr'><div class='vertical-center'><font style='color:orange'>$47<br><br>now</font></div></div><div class='respDivL'><div class='vertical-center'>(E)</div></div><div class='respDivR'><div class='vertical-center'><font style='color:orange'>(I)</font></div></div></div>","null","$47<br><br>now","$50<br>in<br>12 weeks","1","47","50","12",""
"html-keyboard-response","70","144783","0.0-5.0-1.22","63e5c56c4ddeee504b9fa17f","bdp_td","Sun Apr 02 2023 05:25:32 GMT-0700 (Pacific Daylight Time)","158138","","null","","","","FIX","","<div class='trialBorder'><div class='vertical-center'><img style='vertical-align:center; align:center' src=img/fixation3.jpg></div></div>","null","","","","","","",""
"html-keyboard-response","71","146746","0.0-5.0-2.22","63e5c56c4ddeee504b9fa17f","bdp_td","Sun Apr 02 2023 05:25:32 GMT-0700 (Pacific Daylight Time)","158138","","1962","","","","offer","","<div class='trialBorder'><div class='vertical-center'><img style='vertical-align:center; align:center' src=img/fixation3.jpg></div><div class='cl'><div class='vertical-center'>$80<br>in<br>12 weeks</div></div><div class='cr'><div class='vertical-center'>$78<br><br>now</div></div><div class='respDivL'><div class='vertical-center'>(E)</div></div><div class='respDivR'><div class='vertical-center'>(I)</div></div></div>","I","$78<br><br>now","$80<br>in<br>12 weeks","1","78","80","12","NOW"
"html-keyboard-response","72","146998","0.0-5.0-3.22","63e5c56c4ddeee504b9fa17f","bdp_td","Sun Apr 02 2023 05:25:32 GMT-0700 (Pacific Daylight Time)","158138","","null","","","","offerFB","","<div class='trialBorder'><div class='vertical-center'><img style='vertical-align:center; align:center' src=img/fixation3.jpg></div><div class='cl'><div class='vertical-center'>$80<br>in<br>12 weeks</div></div><div class='cr'><div class='vertical-center'><font style='color:orange'>$78<br><br>now</font></div></div><div class='respDivL'><div class='vertical-center'>(E)</div></div><div class='respDivR'><div class='vertical-center'><font style='color:orange'>(I)</font></div></div></div>","null","$78<br><br>now","$80<br>in<br>12 weeks","1","78","80","12",""
"html-keyboard-response","73","147499","0.0-5.0-1.23","63e5c56c4ddeee504b9fa17f","bdp_td","Sun Apr 02 2023 05:25:32 GMT-0700 (Pacific Daylight Time)","158138","","null","","","","FIX","","<div class='trialBorder'><div class='vertical-center'><img style='vertical-align:center; align:center' src=img/fixation3.jpg></div></div>","null","","","","","","",""
"html-keyboard-response","74","150192","0.0-5.0-2.23","63e5c56c4ddeee504b9fa17f","bdp_td","Sun Apr 02 2023 05:25:32 GMT-0700 (Pacific Daylight Time)","158138","","2693","","","","offer","","<div class='trialBorder'><div class='vertical-center'><img style='vertical-align:center; align:center' src=img/fixation3.jpg></div><div class='cl'><div class='vertical-center'>$22<br><br>now</div></div><div class='cr'><div class='vertical-center'>$25<br>in<br>12 weeks</div></div><div class='respDivL'><div class='vertical-center'>(E)</div></div><div class='respDivR'><div class='vertical-center'>(I)</div></div></div>","E","$22<br><br>now","$25<br>in<br>12 weeks","0","22","25","12","NOW"
"html-keyboard-response","75","150443","0.0-5.0-3.23","63e5c56c4ddeee504b9fa17f","bdp_td","Sun Apr 02 2023 05:25:32 GMT-0700 (Pacific Daylight Time)","158138","","null","","","","offerFB","","<div class='trialBorder'><div class='vertical-center'><img style='vertical-align:center; align:center' src=img/fixation3.jpg></div><div class='cl'><div class='vertical-center'><font style='color:orange'>$22<br><br>now</font></div></div><div class='cr'><div class='vertical-center'>$25<br>in<br>12 weeks</div></div><div class='respDivL'><div class='vertical-center'><font style='color:orange'>(E)</font></div></div><div class='respDivR'><div class='vertical-center'>(I)</div></div></div>","null","$22<br><br>now","$25<br>in<br>12 weeks","0","22","25","12",""
"html-keyboard-response","76","150945","0.0-5.0-1.24","63e5c56c4ddeee504b9fa17f","bdp_td","Sun Apr 02 2023 05:25:32 GMT-0700 (Pacific Daylight Time)","158138","","null","","","","FIX","","<div class='trialBorder'><div class='vertical-center'><img style='vertical-align:center; align:center' src=img/fixation3.jpg></div></div>","null","","","","","","",""
"html-keyboard-response","77","152586","0.0-5.0-2.24","63e5c56c4ddeee504b9fa17f","bdp_td","Sun Apr 02 2023 05:25:32 GMT-0700 (Pacific Daylight Time)","158138","","1641","","","","offer","","<div class='trialBorder'><div class='vertical-center'><img style='vertical-align:center; align:center' src=img/fixation3.jpg></div><div class='cl'><div class='vertical-center'>$35<br>in<br>12 weeks</div></div><div class='cr'><div class='vertical-center'>$34<br><br>now</div></div><div class='respDivL'><div class='vertical-center'>(E)</div></div><div class='respDivR'><div class='vertical-center'>(I)</div></div></div>","I","$34<br><br>now","$35<br>in<br>12 weeks","1","34","35","12","NOW"
"html-keyboard-response","78","152838","0.0-5.0-3.24","63e5c56c4ddeee504b9fa17f","bdp_td","Sun Apr 02 2023 05:25:32 GMT-0700 (Pacific Daylight Time)","158138","","null","","","","offerFB","","<div class='trialBorder'><div class='vertical-center'><img style='vertical-align:center; align:center' src=img/fixation3.jpg></div><div class='cl'><div class='vertical-center'>$35<br>in<br>12 weeks</div></div><div class='cr'><div class='vertical-center'><font style='color:orange'>$34<br><br>now</font></div></div><div class='respDivL'><div class='vertical-center'>(E)</div></div><div class='respDivR'><div class='vertical-center'><font style='color:orange'>(I)</font></div></div></div>","null","$34<br><br>now","$35<br>in<br>12 weeks","1","34","35","12",""
"html-keyboard-response","79","153340","0.0-5.0-1.25","63e5c56c4ddeee504b9fa17f","bdp_td","Sun Apr 02 2023 05:25:32 GMT-0700 (Pacific Daylight Time)","158138","","null","","","","FIX","","<div class='trialBorder'><div class='vertical-center'><img style='vertical-align:center; align:center' src=img/fixation3.jpg></div></div>","null","","","","","","",""
"html-keyboard-response","80","154838","0.0-5.0-2.25","63e5c56c4ddeee504b9fa17f","bdp_td","Sun Apr 02 2023 05:25:32 GMT-0700 (Pacific Daylight Time)","158138","","1498","","","","offer","","<div class='trialBorder'><div class='vertical-center'><img style='vertical-align:center; align:center' src=img/fixation3.jpg></div><div class='cl'><div class='vertical-center'>$14<br><br>now</div></div><div class='cr'><div class='vertical-center'>$25<br>in<br>3 weeks</div></div><div class='respDivL'><div class='vertical-center'>(E)</div></div><div class='respDivR'><div class='vertical-center'>(I)</div></div></div>","I","$14<br><br>now","$25<br>in<br>3 weeks","0","14","25","3","THEN"
"html-keyboard-response","81","155090","0.0-5.0-3.25","63e5c56c4ddeee504b9fa17f","bdp_td","Sun Apr 02 2023 05:25:32 GMT-0700 (Pacific Daylight Time)","158138","","null","","","","offerFB","","<div class='trialBorder'><div class='vertical-center'><img style='vertical-align:center; align:center' src=img/fixation3.jpg></div><div class='cl'><div class='vertical-center'>$14<br><br>now</div></div><div class='cr'><div class='vertical-center'><font style='color:orange'>$25<br>in<br>3 weeks</font></div></div><div class='respDivL'><div class='vertical-center'>(E)</div></div><div class='respDivR'><div class='vertical-center'><font style='color:orange'>(I)</font></div></div></div>","null","$14<br><br>now","$25<br>in<br>3 weeks","0","14","25","3",""
"html-keyboard-response","82","155592","0.0-5.0-1.26","63e5c56c4ddeee504b9fa17f","bdp_td","Sun Apr 02 2023 05:25:32 GMT-0700 (Pacific Daylight Time)","158138","","null","","","","FIX","","<div class='trialBorder'><div class='vertical-center'><img style='vertical-align:center; align:center' src=img/fixation3.jpg></div></div>","null","","","","","","",""
"html-keyboard-response","83","156887","0.0-5.0-2.26","63e5c56c4ddeee504b9fa17f","bdp_td","Sun Apr 02 2023 05:25:32 GMT-0700 (Pacific Daylight Time)","158138","","1295","","","","offer","","<div class='trialBorder'><div class='vertical-center'><img style='vertical-align:center; align:center' src=img/fixation3.jpg></div><div class='cl'><div class='vertical-center'>$30<br>in<br>2 weeks</div></div><div class='cr'><div class='vertical-center'>$11<br><br>now</div></div><div class='respDivL'><div class='vertical-center'>(E)</div></div><div class='respDivR'><div class='vertical-center'>(I)</div></div></div>","E","$11<br><br>now","$30<br>in<br>2 weeks","1","11","30","2","THEN"
"html-keyboard-response","84","157138","0.0-5.0-3.26","63e5c56c4ddeee504b9fa17f","bdp_td","Sun Apr 02 2023 05:25:32 GMT-0700 (Pacific Daylight Time)","158138","","null","","","","offerFB","","<div class='trialBorder'><div class='vertical-center'><img style='vertical-align:center; align:center' src=img/fixation3.jpg></div><div class='cl'><div class='vertical-center'><font style='color:orange'>$30<br>in<br>2 weeks</font></div></div><div class='cr'><div class='vertical-center'>$11<br><br>now</div></div><div class='respDivL'><div class='vertical-center'><font style='color:orange'>(E)</font></div></div><div class='respDivR'><div class='vertical-center'>(I)</div></div></div>","null","$11<br><br>now","$30<br>in<br>2 weeks","1","11","30","2",""
"","","","","63e5c56c4ddeee504b9fa17f","bdp_td","Sun Apr 02 2023 05:25:32 GMT-0700 (Pacific Daylight Time)","158138","","","fullscreenexit","85","157146","fullscreenexit","","","","","","","","","",""
"fullscreen","85","158138","0.0-6.0","63e5c56c4ddeee504b9fa17f","bdp_td","Sun Apr 02 2023 05:25:32 GMT-0700 (Pacific Daylight Time)","158138","","","","","","","true","","","","","","","","",""
"html-keyboard-response","86","158639","0.0-7.0","","","","","","null","","","","","","","null","","","","","","",""
