"trial_type","trial_index","time_elapsed","internal_node_id","subject_id","task","startTime","totalTime","view_history","rt","event","trial","time","trialtype","success","stimulus","key_press","nowOffer","thenOffer","thenLeft","nowAmt","thenAmt","thenWeeks","chosen"
"pavlovia","0","3","0.0-0.0","62b33e2a447824fbd0770025","bdp_td","Thu Apr 13 2023 16:07:12 GMT-0400 (Eastern Daylight Time)","87769","","","","","","","","","","","","","","","",""
"instructions","1","1718","0.0-1.0","62b33e2a447824fbd0770025","bdp_td","Thu Apr 13 2023 16:07:12 GMT-0400 (Eastern Daylight Time)","87769","[{""page_index"":0,""viewing_time"":1714}]","1714","","","","","","","","","","","","","",""
"","","","","62b33e2a447824fbd0770025","bdp_td","Thu Apr 13 2023 16:07:12 GMT-0400 (Eastern Daylight Time)","87769","","","fullscreenenter","2","2950","fullscreenenter","","","","","","","","","",""
"fullscreen","2","3932","0.0-2.0","62b33e2a447824fbd0770025","bdp_td","Thu Apr 13 2023 16:07:12 GMT-0400 (Eastern Daylight Time)","87769","","","","","","","true","","","","","","","","",""
"instructions","3","18714","0.0-4.0","62b33e2a447824fbd0770025","bdp_td","Thu Apr 13 2023 16:07:12 GMT-0400 (Eastern Daylight Time)","87769","[{""page_index"":0,""viewing_time"":8382},{""page_index"":1,""viewing_time"":4460},{""page_index"":2,""viewing_time"":1938}]","14780","","","","","","","","","","","","","",""
"html-keyboard-response","4","19216","0.0-5.0-1.0","62b33e2a447824fbd0770025","bdp_td","Thu Apr 13 2023 16:07:12 GMT-0400 (Eastern Daylight Time)","87769","","null","","","","FIX","","<div class='trialBorder'><div class='vertical-center'><img style='vertical-align:center; align:center' src=img/fixation3.jpg></div></div>","null","","","","","","",""
"html-keyboard-response","5","23148","0.0-5.0-2.0","62b33e2a447824fbd0770025","bdp_td","Thu Apr 13 2023 16:07:12 GMT-0400 (Eastern Daylight Time)","87769","","3931","","","","offer","","<div class='trialBorder'><div class='vertical-center'><img style='vertical-align:center; align:center' src=img/fixation3.jpg></div><div class='cl'><div class='vertical-center'>$80<br>in<br>3 weeks</div></div><div class='cr'><div class='vertical-center'>$54<br><br>now</div></div><div class='respDivL'><div class='vertical-center'>(E)</div></div><div class='respDivR'><div class='vertical-center'>(I)</div></div></div>","I","$54<br><br>now","$80<br>in<br>3 weeks","1","54","80","3","NOW"
"html-keyboard-response","6","23400","0.0-5.0-3.0","62b33e2a447824fbd0770025","bdp_td","Thu Apr 13 2023 16:07:12 GMT-0400 (Eastern Daylight Time)","87769","","null","","","","offerFB","","<div class='trialBorder'><div class='vertical-center'><img style='vertical-align:center; align:center' src=img/fixation3.jpg></div><div class='cl'><div class='vertical-center'>$80<br>in<br>3 weeks</div></div><div class='cr'><div class='vertical-center'><font style='color:orange'>$54<br><br>now</font></div></div><div class='respDivL'><div class='vertical-center'>(E)</div></div><div class='respDivR'><div class='vertical-center'><font style='color:orange'>(I)</font></div></div></div>","null","$54<br><br>now","$80<br>in<br>3 weeks","1","54","80","3",""
"html-keyboard-response","7","23902","0.0-5.0-1.1","62b33e2a447824fbd0770025","bdp_td","Thu Apr 13 2023 16:07:12 GMT-0400 (Eastern Daylight Time)","87769","","null","","","","FIX","","<div class='trialBorder'><div class='vertical-center'><img style='vertical-align:center; align:center' src=img/fixation3.jpg></div></div>","null","","","","","","",""
"html-keyboard-response","8","25566","0.0-5.0-2.1","62b33e2a447824fbd0770025","bdp_td","Thu Apr 13 2023 16:07:12 GMT-0400 (Eastern Daylight Time)","87769","","1664","","","","offer","","<div class='trialBorder'><div class='vertical-center'><img style='vertical-align:center; align:center' src=img/fixation3.jpg></div><div class='cl'><div class='vertical-center'>$35<br>in<br>2 weeks</div></div><div class='cr'><div class='vertical-center'>$15<br><br>now</div></div><div class='respDivL'><div class='vertical-center'>(E)</div></div><div class='respDivR'><div class='vertical-center'>(I)</div></div></div>","E","$15<br><br>now","$35<br>in<br>2 weeks","1","15","35","2","THEN"
"html-keyboard-response","9","25817","0.0-5.0-3.1","62b33e2a447824fbd0770025","bdp_td","Thu Apr 13 2023 16:07:12 GMT-0400 (Eastern Daylight Time)","87769","","null","","","","offerFB","","<div class='trialBorder'><div class='vertical-center'><img style='vertical-align:center; align:center' src=img/fixation3.jpg></div><div class='cl'><div class='vertical-center'><font style='color:orange'>$35<br>in<br>2 weeks</font></div></div><div class='cr'><div class='vertical-center'>$15<br><br>now</div></div><div class='respDivL'><div class='vertical-center'><font style='color:orange'>(E)</font></div></div><div class='respDivR'><div class='vertical-center'>(I)</div></div></div>","null","$15<br><br>now","$35<br>in<br>2 weeks","1","15","35","2",""
"html-keyboard-response","10","26319","0.0-5.0-1.2","62b33e2a447824fbd0770025","bdp_td","Thu Apr 13 2023 16:07:12 GMT-0400 (Eastern Daylight Time)","87769","","null","","","","FIX","","<div class='trialBorder'><div class='vertical-center'><img style='vertical-align:center; align:center' src=img/fixation3.jpg></div></div>","null","","","","","","",""
"html-keyboard-response","11","28167","0.0-5.0-2.2","62b33e2a447824fbd0770025","bdp_td","Thu Apr 13 2023 16:07:12 GMT-0400 (Eastern Daylight Time)","87769","","1847","","","","offer","","<div class='trialBorder'><div class='vertical-center'><img style='vertical-align:center; align:center' src=img/fixation3.jpg></div><div class='cl'><div class='vertical-center'>$60<br>in<br>6 weeks</div></div><div class='cr'><div class='vertical-center'>$49<br><br>now</div></div><div class='respDivL'><div class='vertical-center'>(E)</div></div><div class='respDivR'><div class='vertical-center'>(I)</div></div></div>","E","$49<br><br>now","$60<br>in<br>6 weeks","1","49","60","6","THEN"
"html-keyboard-response","12","28419","0.0-5.0-3.2","62b33e2a447824fbd0770025","bdp_td","Thu Apr 13 2023 16:07:12 GMT-0400 (Eastern Daylight Time)","87769","","null","","","","offerFB","","<div class='trialBorder'><div class='vertical-center'><img style='vertical-align:center; align:center' src=img/fixation3.jpg></div><div class='cl'><div class='vertical-center'><font style='color:orange'>$60<br>in<br>6 weeks</font></div></div><div class='cr'><div class='vertical-center'>$49<br><br>now</div></div><div class='respDivL'><div class='vertical-center'><font style='color:orange'>(E)</font></div></div><div class='respDivR'><div class='vertical-center'>(I)</div></div></div>","null","$49<br><br>now","$60<br>in<br>6 weeks","1","49","60","6",""
"html-keyboard-response","13","28920","0.0-5.0-1.3","62b33e2a447824fbd0770025","bdp_td","Thu Apr 13 2023 16:07:12 GMT-0400 (Eastern Daylight Time)","87769","","null","","","","FIX","","<div class='trialBorder'><div class='vertical-center'><img style='vertical-align:center; align:center' src=img/fixation3.jpg></div></div>","null","","","","","","",""
"html-keyboard-response","14","30326","0.0-5.0-2.3","62b33e2a447824fbd0770025","bdp_td","Thu Apr 13 2023 16:07:12 GMT-0400 (Eastern Daylight Time)","87769","","1405","","","","offer","","<div class='trialBorder'><div class='vertical-center'><img style='vertical-align:center; align:center' src=img/fixation3.jpg></div><div class='cl'><div class='vertical-center'>$11<br><br>now</div></div><div class='cr'><div class='vertical-center'>$30<br>in<br>2 weeks</div></div><div class='respDivL'><div class='vertical-center'>(E)</div></div><div class='respDivR'><div class='vertical-center'>(I)</div></div></div>","I","$11<br><br>now","$30<br>in<br>2 weeks","0","11","30","2","THEN"
"html-keyboard-response","15","30578","0.0-5.0-3.3","62b33e2a447824fbd0770025","bdp_td","Thu Apr 13 2023 16:07:12 GMT-0400 (Eastern Daylight Time)","87769","","null","","","","offerFB","","<div class='trialBorder'><div class='vertical-center'><img style='vertical-align:center; align:center' src=img/fixation3.jpg></div><div class='cl'><div class='vertical-center'>$11<br><br>now</div></div><div class='cr'><div class='vertical-center'><font style='color:orange'>$30<br>in<br>2 weeks</font></div></div><div class='respDivL'><div class='vertical-center'>(E)</div></div><div class='respDivR'><div class='vertical-center'><font style='color:orange'>(I)</font></div></div></div>","null","$11<br><br>now","$30<br>in<br>2 weeks","0","11","30","2",""
"html-keyboard-response","16","31080","0.0-5.0-1.4","62b33e2a447824fbd0770025","bdp_td","Thu Apr 13 2023 16:07:12 GMT-0400 (Eastern Daylight Time)","87769","","null","","","","FIX","","<div class='trialBorder'><div class='vertical-center'><img style='vertical-align:center; align:center' src=img/fixation3.jpg></div></div>","null","","","","","","",""
"html-keyboard-response","17","32444","0.0-5.0-2.4","62b33e2a447824fbd0770025","bdp_td","Thu Apr 13 2023 16:07:12 GMT-0400 (Eastern Daylight Time)","87769","","1363","","","","offer","","<div class='trialBorder'><div class='vertical-center'><img style='vertical-align:center; align:center' src=img/fixation3.jpg></div><div class='cl'><div class='vertical-center'>$55<br><br>now</div></div><div class='cr'><div class='vertical-center'>$75<br>in<br>6 weeks</div></div><div class='respDivL'><div class='vertical-center'>(E)</div></div><div class='respDivR'><div class='vertical-center'>(I)</div></div></div>","I","$55<br><br>now","$75<br>in<br>6 weeks","0","55","75","6","THEN"
"html-keyboard-response","18","32695","0.0-5.0-3.4","62b33e2a447824fbd0770025","bdp_td","Thu Apr 13 2023 16:07:12 GMT-0400 (Eastern Daylight Time)","87769","","null","","","","offerFB","","<div class='trialBorder'><div class='vertical-center'><img style='vertical-align:center; align:center' src=img/fixation3.jpg></div><div class='cl'><div class='vertical-center'>$55<br><br>now</div></div><div class='cr'><div class='vertical-center'><font style='color:orange'>$75<br>in<br>6 weeks</font></div></div><div class='respDivL'><div class='vertical-center'>(E)</div></div><div class='respDivR'><div class='vertical-center'><font style='color:orange'>(I)</font></div></div></div>","null","$55<br><br>now","$75<br>in<br>6 weeks","0","55","75","6",""
"html-keyboard-response","19","33197","0.0-5.0-1.5","62b33e2a447824fbd0770025","bdp_td","Thu Apr 13 2023 16:07:12 GMT-0400 (Eastern Daylight Time)","87769","","null","","","","FIX","","<div class='trialBorder'><div class='vertical-center'><img style='vertical-align:center; align:center' src=img/fixation3.jpg></div></div>","null","","","","","","",""
"html-keyboard-response","20","35475","0.0-5.0-2.5","62b33e2a447824fbd0770025","bdp_td","Thu Apr 13 2023 16:07:12 GMT-0400 (Eastern Daylight Time)","87769","","2278","","","","offer","","<div class='trialBorder'><div class='vertical-center'><img style='vertical-align:center; align:center' src=img/fixation3.jpg></div><div class='cl'><div class='vertical-center'>$28<br><br>now</div></div><div class='cr'><div class='vertical-center'>$30<br>in<br>12 weeks</div></div><div class='respDivL'><div class='vertical-center'>(E)</div></div><div class='respDivR'><div class='vertical-center'>(I)</div></div></div>","E","$28<br><br>now","$30<br>in<br>12 weeks","0","28","30","12","NOW"
"html-keyboard-response","21","35727","0.0-5.0-3.5","62b33e2a447824fbd0770025","bdp_td","Thu Apr 13 2023 16:07:12 GMT-0400 (Eastern Daylight Time)","87769","","null","","","","offerFB","","<div class='trialBorder'><div class='vertical-center'><img style='vertical-align:center; align:center' src=img/fixation3.jpg></div><div class='cl'><div class='vertical-center'><font style='color:orange'>$28<br><br>now</font></div></div><div class='cr'><div class='vertical-center'>$30<br>in<br>12 weeks</div></div><div class='respDivL'><div class='vertical-center'><font style='color:orange'>(E)</font></div></div><div class='respDivR'><div class='vertical-center'>(I)</div></div></div>","null","$28<br><br>now","$30<br>in<br>12 weeks","0","28","30","12",""
"html-keyboard-response","22","36229","0.0-5.0-1.6","62b33e2a447824fbd0770025","bdp_td","Thu Apr 13 2023 16:07:12 GMT-0400 (Eastern Daylight Time)","87769","","null","","","","FIX","","<div class='trialBorder'><div class='vertical-center'><img style='vertical-align:center; align:center' src=img/fixation3.jpg></div></div>","null","","","","","","",""
"html-keyboard-response","23","38000","0.0-5.0-2.6","62b33e2a447824fbd0770025","bdp_td","Thu Apr 13 2023 16:07:12 GMT-0400 (Eastern Daylight Time)","87769","","1770","","","","offer","","<div class='trialBorder'><div class='vertical-center'><img style='vertical-align:center; align:center' src=img/fixation3.jpg></div><div class='cl'><div class='vertical-center'>$75<br>in<br>3 weeks</div></div><div class='cr'><div class='vertical-center'>$41<br><br>now</div></div><div class='respDivL'><div class='vertical-center'>(E)</div></div><div class='respDivR'><div class='vertical-center'>(I)</div></div></div>","E","$41<br><br>now","$75<br>in<br>3 weeks","1","41","75","3","THEN"
"html-keyboard-response","24","38252","0.0-5.0-3.6","62b33e2a447824fbd0770025","bdp_td","Thu Apr 13 2023 16:07:12 GMT-0400 (Eastern Daylight Time)","87769","","null","","","","offerFB","","<div class='trialBorder'><div class='vertical-center'><img style='vertical-align:center; align:center' src=img/fixation3.jpg></div><div class='cl'><div class='vertical-center'><font style='color:orange'>$75<br>in<br>3 weeks</font></div></div><div class='cr'><div class='vertical-center'>$41<br><br>now</div></div><div class='respDivL'><div class='vertical-center'><font style='color:orange'>(E)</font></div></div><div class='respDivR'><div class='vertical-center'>(I)</div></div></div>","null","$41<br><br>now","$75<br>in<br>3 weeks","1","41","75","3",""
"html-keyboard-response","25","38755","0.0-5.0-1.7","62b33e2a447824fbd0770025","bdp_td","Thu Apr 13 2023 16:07:12 GMT-0400 (Eastern Daylight Time)","87769","","null","","","","FIX","","<div class='trialBorder'><div class='vertical-center'><img style='vertical-align:center; align:center' src=img/fixation3.jpg></div></div>","null","","","","","","",""
"html-keyboard-response","26","40980","0.0-5.0-2.7","62b33e2a447824fbd0770025","bdp_td","Thu Apr 13 2023 16:07:12 GMT-0400 (Eastern Daylight Time)","87769","","2224","","","","offer","","<div class='trialBorder'><div class='vertical-center'><img style='vertical-align:center; align:center' src=img/fixation3.jpg></div><div class='cl'><div class='vertical-center'>$85<br>in<br>12 weeks</div></div><div class='cr'><div class='vertical-center'>$80<br><br>now</div></div><div class='respDivL'><div class='vertical-center'>(E)</div></div><div class='respDivR'><div class='vertical-center'>(I)</div></div></div>","I","$80<br><br>now","$85<br>in<br>12 weeks","1","80","85","12","NOW"
"html-keyboard-response","27","41231","0.0-5.0-3.7","62b33e2a447824fbd0770025","bdp_td","Thu Apr 13 2023 16:07:12 GMT-0400 (Eastern Daylight Time)","87769","","null","","","","offerFB","","<div class='trialBorder'><div class='vertical-center'><img style='vertical-align:center; align:center' src=img/fixation3.jpg></div><div class='cl'><div class='vertical-center'>$85<br>in<br>12 weeks</div></div><div class='cr'><div class='vertical-center'><font style='color:orange'>$80<br><br>now</font></div></div><div class='respDivL'><div class='vertical-center'>(E)</div></div><div class='respDivR'><div class='vertical-center'><font style='color:orange'>(I)</font></div></div></div>","null","$80<br><br>now","$85<br>in<br>12 weeks","1","80","85","12",""
"html-keyboard-response","28","41733","0.0-5.0-1.8","62b33e2a447824fbd0770025","bdp_td","Thu Apr 13 2023 16:07:12 GMT-0400 (Eastern Daylight Time)","87769","","null","","","","FIX","","<div class='trialBorder'><div class='vertical-center'><img style='vertical-align:center; align:center' src=img/fixation3.jpg></div></div>","null","","","","","","",""
"html-keyboard-response","29","44161","0.0-5.0-2.8","62b33e2a447824fbd0770025","bdp_td","Thu Apr 13 2023 16:07:12 GMT-0400 (Eastern Daylight Time)","87769","","2427","","","","offer","","<div class='trialBorder'><div class='vertical-center'><img style='vertical-align:center; align:center' src=img/fixation3.jpg></div><div class='cl'><div class='vertical-center'>$24<br><br>now</div></div><div class='cr'><div class='vertical-center'>$35<br>in<br>3 weeks</div></div><div class='respDivL'><div class='vertical-center'>(E)</div></div><div class='respDivR'><div class='vertical-center'>(I)</div></div></div>","E","$24<br><br>now","$35<br>in<br>3 weeks","0","24","35","3","NOW"
"html-keyboard-response","30","44413","0.0-5.0-3.8","62b33e2a447824fbd0770025","bdp_td","Thu Apr 13 2023 16:07:12 GMT-0400 (Eastern Daylight Time)","87769","","null","","","","offerFB","","<div class='trialBorder'><div class='vertical-center'><img style='vertical-align:center; align:center' src=img/fixation3.jpg></div><div class='cl'><div class='vertical-center'><font style='color:orange'>$24<br><br>now</font></div></div><div class='cr'><div class='vertical-center'>$35<br>in<br>3 weeks</div></div><div class='respDivL'><div class='vertical-center'><font style='color:orange'>(E)</font></div></div><div class='respDivR'><div class='vertical-center'>(I)</div></div></div>","null","$24<br><br>now","$35<br>in<br>3 weeks","0","24","35","3",""
"html-keyboard-response","31","44915","0.0-5.0-1.9","62b33e2a447824fbd0770025","bdp_td","Thu Apr 13 2023 16:07:12 GMT-0400 (Eastern Daylight Time)","87769","","null","","","","FIX","","<div class='trialBorder'><div class='vertical-center'><img style='vertical-align:center; align:center' src=img/fixation3.jpg></div></div>","null","","","","","","",""
"html-keyboard-response","32","46221","0.0-5.0-2.9","62b33e2a447824fbd0770025","bdp_td","Thu Apr 13 2023 16:07:12 GMT-0400 (Eastern Daylight Time)","87769","","1306","","","","offer","","<div class='trialBorder'><div class='vertical-center'><img style='vertical-align:center; align:center' src=img/fixation3.jpg></div><div class='cl'><div class='vertical-center'>$55<br>in<br>6 weeks</div></div><div class='cr'><div class='vertical-center'>$40<br><br>now</div></div><div class='respDivL'><div class='vertical-center'>(E)</div></div><div class='respDivR'><div class='vertical-center'>(I)</div></div></div>","E","$40<br><br>now","$55<br>in<br>6 weeks","1","40","55","6","THEN"
"html-keyboard-response","33","46472","0.0-5.0-3.9","62b33e2a447824fbd0770025","bdp_td","Thu Apr 13 2023 16:07:12 GMT-0400 (Eastern Daylight Time)","87769","","null","","","","offerFB","","<div class='trialBorder'><div class='vertical-center'><img style='vertical-align:center; align:center' src=img/fixation3.jpg></div><div class='cl'><div class='vertical-center'><font style='color:orange'>$55<br>in<br>6 weeks</font></div></div><div class='cr'><div class='vertical-center'>$40<br><br>now</div></div><div class='respDivL'><div class='vertical-center'><font style='color:orange'>(E)</font></div></div><div class='respDivR'><div class='vertical-center'>(I)</div></div></div>","null","$40<br><br>now","$55<br>in<br>6 weeks","1","40","55","6",""
"html-keyboard-response","34","46973","0.0-5.0-1.10","62b33e2a447824fbd0770025","bdp_td","Thu Apr 13 2023 16:07:12 GMT-0400 (Eastern Daylight Time)","87769","","null","","","","FIX","","<div class='trialBorder'><div class='vertical-center'><img style='vertical-align:center; align:center' src=img/fixation3.jpg></div></div>","null","","","","","","",""
"html-keyboard-response","35","48385","0.0-5.0-2.10","62b33e2a447824fbd0770025","bdp_td","Thu Apr 13 2023 16:07:12 GMT-0400 (Eastern Daylight Time)","87769","","1411","","","","offer","","<div class='trialBorder'><div class='vertical-center'><img style='vertical-align:center; align:center' src=img/fixation3.jpg></div><div class='cl'><div class='vertical-center'>$27<br><br>now</div></div><div class='cr'><div class='vertical-center'>$50<br>in<br>3 weeks</div></div><div class='respDivL'><div class='vertical-center'>(E)</div></div><div class='respDivR'><div class='vertical-center'>(I)</div></div></div>","I","$27<br><br>now","$50<br>in<br>3 weeks","0","27","50","3","THEN"
"html-keyboard-response","36","48636","0.0-5.0-3.10","62b33e2a447824fbd0770025","bdp_td","Thu Apr 13 2023 16:07:12 GMT-0400 (Eastern Daylight Time)","87769","","null","","","","offerFB","","<div class='trialBorder'><div class='vertical-center'><img style='vertical-align:center; align:center' src=img/fixation3.jpg></div><div class='cl'><div class='vertical-center'>$27<br><br>now</div></div><div class='cr'><div class='vertical-center'><font style='color:orange'>$50<br>in<br>3 weeks</font></div></div><div class='respDivL'><div class='vertical-center'>(E)</div></div><div class='respDivR'><div class='vertical-center'><font style='color:orange'>(I)</font></div></div></div>","null","$27<br><br>now","$50<br>in<br>3 weeks","0","27","50","3",""
"html-keyboard-response","37","49139","0.0-5.0-1.11","62b33e2a447824fbd0770025","bdp_td","Thu Apr 13 2023 16:07:12 GMT-0400 (Eastern Daylight Time)","87769","","null","","","","FIX","","<div class='trialBorder'><div class='vertical-center'><img style='vertical-align:center; align:center' src=img/fixation3.jpg></div></div>","null","","","","","","",""
"html-keyboard-response","38","50574","0.0-5.0-2.11","62b33e2a447824fbd0770025","bdp_td","Thu Apr 13 2023 16:07:12 GMT-0400 (Eastern Daylight Time)","87769","","1434","","","","offer","","<div class='trialBorder'><div class='vertical-center'><img style='vertical-align:center; align:center' src=img/fixation3.jpg></div><div class='cl'><div class='vertical-center'>$22<br><br>now</div></div><div class='cr'><div class='vertical-center'>$25<br>in<br>12 weeks</div></div><div class='respDivL'><div class='vertical-center'>(E)</div></div><div class='respDivR'><div class='vertical-center'>(I)</div></div></div>","E","$22<br><br>now","$25<br>in<br>12 weeks","0","22","25","12","NOW"
"html-keyboard-response","39","50826","0.0-5.0-3.11","62b33e2a447824fbd0770025","bdp_td","Thu Apr 13 2023 16:07:12 GMT-0400 (Eastern Daylight Time)","87769","","null","","","","offerFB","","<div class='trialBorder'><div class='vertical-center'><img style='vertical-align:center; align:center' src=img/fixation3.jpg></div><div class='cl'><div class='vertical-center'><font style='color:orange'>$22<br><br>now</font></div></div><div class='cr'><div class='vertical-center'>$25<br>in<br>12 weeks</div></div><div class='respDivL'><div class='vertical-center'><font style='color:orange'>(E)</font></div></div><div class='respDivR'><div class='vertical-center'>(I)</div></div></div>","null","$22<br><br>now","$25<br>in<br>12 weeks","0","22","25","12",""
"html-keyboard-response","40","51328","0.0-5.0-1.12","62b33e2a447824fbd0770025","bdp_td","Thu Apr 13 2023 16:07:12 GMT-0400 (Eastern Daylight Time)","87769","","null","","","","FIX","","<div class='trialBorder'><div class='vertical-center'><img style='vertical-align:center; align:center' src=img/fixation3.jpg></div></div>","null","","","","","","",""
"html-keyboard-response","41","53596","0.0-5.0-2.12","62b33e2a447824fbd0770025","bdp_td","Thu Apr 13 2023 16:07:12 GMT-0400 (Eastern Daylight Time)","87769","","2267","","","","offer","","<div class='trialBorder'><div class='vertical-center'><img style='vertical-align:center; align:center' src=img/fixation3.jpg></div><div class='cl'><div class='vertical-center'>$25<br><br>now</div></div><div class='cr'><div class='vertical-center'>$30<br>in<br>6 weeks</div></div><div class='respDivL'><div class='vertical-center'>(E)</div></div><div class='respDivR'><div class='vertical-center'>(I)</div></div></div>","E","$25<br><br>now","$30<br>in<br>6 weeks","0","25","30","6","NOW"
"html-keyboard-response","42","53848","0.0-5.0-3.12","62b33e2a447824fbd0770025","bdp_td","Thu Apr 13 2023 16:07:12 GMT-0400 (Eastern Daylight Time)","87769","","null","","","","offerFB","","<div class='trialBorder'><div class='vertical-center'><img style='vertical-align:center; align:center' src=img/fixation3.jpg></div><div class='cl'><div class='vertical-center'><font style='color:orange'>$25<br><br>now</font></div></div><div class='cr'><div class='vertical-center'>$30<br>in<br>6 weeks</div></div><div class='respDivL'><div class='vertical-center'><font style='color:orange'>(E)</font></div></div><div class='respDivR'><div class='vertical-center'>(I)</div></div></div>","null","$25<br><br>now","$30<br>in<br>6 weeks","0","25","30","6",""
"html-keyboard-response","43","54349","0.0-5.0-1.13","62b33e2a447824fbd0770025","bdp_td","Thu Apr 13 2023 16:07:12 GMT-0400 (Eastern Daylight Time)","87769","","null","","","","FIX","","<div class='trialBorder'><div class='vertical-center'><img style='vertical-align:center; align:center' src=img/fixation3.jpg></div></div>","null","","","","","","",""
"html-keyboard-response","44","55464","0.0-5.0-2.13","62b33e2a447824fbd0770025","bdp_td","Thu Apr 13 2023 16:07:12 GMT-0400 (Eastern Daylight Time)","87769","","1114","","","","offer","","<div class='trialBorder'><div class='vertical-center'><img style='vertical-align:center; align:center' src=img/fixation3.jpg></div><div class='cl'><div class='vertical-center'>$69<br><br>now</div></div><div class='cr'><div class='vertical-center'>$85<br>in<br>6 weeks</div></div><div class='respDivL'><div class='vertical-center'>(E)</div></div><div class='respDivR'><div class='vertical-center'>(I)</div></div></div>","I","$69<br><br>now","$85<br>in<br>6 weeks","0","69","85","6","THEN"
"html-keyboard-response","45","55715","0.0-5.0-3.13","62b33e2a447824fbd0770025","bdp_td","Thu Apr 13 2023 16:07:12 GMT-0400 (Eastern Daylight Time)","87769","","null","","","","offerFB","","<div class='trialBorder'><div class='vertical-center'><img style='vertical-align:center; align:center' src=img/fixation3.jpg></div><div class='cl'><div class='vertical-center'>$69<br><br>now</div></div><div class='cr'><div class='vertical-center'><font style='color:orange'>$85<br>in<br>6 weeks</font></div></div><div class='respDivL'><div class='vertical-center'>(E)</div></div><div class='respDivR'><div class='vertical-center'><font style='color:orange'>(I)</font></div></div></div>","null","$69<br><br>now","$85<br>in<br>6 weeks","0","69","85","6",""
"html-keyboard-response","46","56216","0.0-5.0-1.14","62b33e2a447824fbd0770025","bdp_td","Thu Apr 13 2023 16:07:12 GMT-0400 (Eastern Daylight Time)","87769","","null","","","","FIX","","<div class='trialBorder'><div class='vertical-center'><img style='vertical-align:center; align:center' src=img/fixation3.jpg></div></div>","null","","","","","","",""
"html-keyboard-response","47","57518","0.0-5.0-2.14","62b33e2a447824fbd0770025","bdp_td","Thu Apr 13 2023 16:07:12 GMT-0400 (Eastern Daylight Time)","87769","","1301","","","","offer","","<div class='trialBorder'><div class='vertical-center'><img style='vertical-align:center; align:center' src=img/fixation3.jpg></div><div class='cl'><div class='vertical-center'>$54<br><br>now</div></div><div class='cr'><div class='vertical-center'>$60<br>in<br>12 weeks</div></div><div class='respDivL'><div class='vertical-center'>(E)</div></div><div class='respDivR'><div class='vertical-center'>(I)</div></div></div>","I","$54<br><br>now","$60<br>in<br>12 weeks","0","54","60","12","THEN"
"html-keyboard-response","48","57770","0.0-5.0-3.14","62b33e2a447824fbd0770025","bdp_td","Thu Apr 13 2023 16:07:12 GMT-0400 (Eastern Daylight Time)","87769","","null","","","","offerFB","","<div class='trialBorder'><div class='vertical-center'><img style='vertical-align:center; align:center' src=img/fixation3.jpg></div><div class='cl'><div class='vertical-center'>$54<br><br>now</div></div><div class='cr'><div class='vertical-center'><font style='color:orange'>$60<br>in<br>12 weeks</font></div></div><div class='respDivL'><div class='vertical-center'>(E)</div></div><div class='respDivR'><div class='vertical-center'><font style='color:orange'>(I)</font></div></div></div>","null","$54<br><br>now","$60<br>in<br>12 weeks","0","54","60","12",""
"html-keyboard-response","49","58272","0.0-5.0-1.15","62b33e2a447824fbd0770025","bdp_td","Thu Apr 13 2023 16:07:12 GMT-0400 (Eastern Daylight Time)","87769","","null","","","","FIX","","<div class='trialBorder'><div class='vertical-center'><img style='vertical-align:center; align:center' src=img/fixation3.jpg></div></div>","null","","","","","","",""
"html-keyboard-response","50","60155","0.0-5.0-2.15","62b33e2a447824fbd0770025","bdp_td","Thu Apr 13 2023 16:07:12 GMT-0400 (Eastern Daylight Time)","87769","","1883","","","","offer","","<div class='trialBorder'><div class='vertical-center'><img style='vertical-align:center; align:center' src=img/fixation3.jpg></div><div class='cl'><div class='vertical-center'>$60<br>in<br>3 weeks</div></div><div class='cr'><div class='vertical-center'>$25<br><br>now</div></div><div class='respDivL'><div class='vertical-center'>(E)</div></div><div class='respDivR'><div class='vertical-center'>(I)</div></div></div>","E","$25<br><br>now","$60<br>in<br>3 weeks","1","25","60","3","THEN"
"html-keyboard-response","51","60407","0.0-5.0-3.15","62b33e2a447824fbd0770025","bdp_td","Thu Apr 13 2023 16:07:12 GMT-0400 (Eastern Daylight Time)","87769","","null","","","","offerFB","","<div class='trialBorder'><div class='vertical-center'><img style='vertical-align:center; align:center' src=img/fixation3.jpg></div><div class='cl'><div class='vertical-center'><font style='color:orange'>$60<br>in<br>3 weeks</font></div></div><div class='cr'><div class='vertical-center'>$25<br><br>now</div></div><div class='respDivL'><div class='vertical-center'><font style='color:orange'>(E)</font></div></div><div class='respDivR'><div class='vertical-center'>(I)</div></div></div>","null","$25<br><br>now","$60<br>in<br>3 weeks","1","25","60","3",""
"html-keyboard-response","52","60909","0.0-5.0-1.16","62b33e2a447824fbd0770025","bdp_td","Thu Apr 13 2023 16:07:12 GMT-0400 (Eastern Daylight Time)","87769","","null","","","","FIX","","<div class='trialBorder'><div class='vertical-center'><img style='vertical-align:center; align:center' src=img/fixation3.jpg></div></div>","null","","","","","","",""
"html-keyboard-response","53","62855","0.0-5.0-2.16","62b33e2a447824fbd0770025","bdp_td","Thu Apr 13 2023 16:07:12 GMT-0400 (Eastern Daylight Time)","87769","","1945","","","","offer","","<div class='trialBorder'><div class='vertical-center'><img style='vertical-align:center; align:center' src=img/fixation3.jpg></div><div class='cl'><div class='vertical-center'>$80<br>in<br>12 weeks</div></div><div class='cr'><div class='vertical-center'>$78<br><br>now</div></div><div class='respDivL'><div class='vertical-center'>(E)</div></div><div class='respDivR'><div class='vertical-center'>(I)</div></div></div>","E","$78<br><br>now","$80<br>in<br>12 weeks","1","78","80","12","THEN"
"html-keyboard-response","54","63107","0.0-5.0-3.16","62b33e2a447824fbd0770025","bdp_td","Thu Apr 13 2023 16:07:12 GMT-0400 (Eastern Daylight Time)","87769","","null","","","","offerFB","","<div class='trialBorder'><div class='vertical-center'><img style='vertical-align:center; align:center' src=img/fixation3.jpg></div><div class='cl'><div class='vertical-center'><font style='color:orange'>$80<br>in<br>12 weeks</font></div></div><div class='cr'><div class='vertical-center'>$78<br><br>now</div></div><div class='respDivL'><div class='vertical-center'><font style='color:orange'>(E)</font></div></div><div class='respDivR'><div class='vertical-center'>(I)</div></div></div>","null","$78<br><br>now","$80<br>in<br>12 weeks","1","78","80","12",""
"html-keyboard-response","55","63609","0.0-5.0-1.17","62b33e2a447824fbd0770025","bdp_td","Thu Apr 13 2023 16:07:12 GMT-0400 (Eastern Daylight Time)","87769","","null","","","","FIX","","<div class='trialBorder'><div class='vertical-center'><img style='vertical-align:center; align:center' src=img/fixation3.jpg></div></div>","null","","","","","","",""
"html-keyboard-response","56","65208","0.0-5.0-2.17","62b33e2a447824fbd0770025","bdp_td","Thu Apr 13 2023 16:07:12 GMT-0400 (Eastern Daylight Time)","87769","","1598","","","","offer","","<div class='trialBorder'><div class='vertical-center'><img style='vertical-align:center; align:center' src=img/fixation3.jpg></div><div class='cl'><div class='vertical-center'>$50<br>in<br>12 weeks</div></div><div class='cr'><div class='vertical-center'>$47<br><br>now</div></div><div class='respDivL'><div class='vertical-center'>(E)</div></div><div class='respDivR'><div class='vertical-center'>(I)</div></div></div>","I","$47<br><br>now","$50<br>in<br>12 weeks","1","47","50","12","NOW"
"html-keyboard-response","57","65460","0.0-5.0-3.17","62b33e2a447824fbd0770025","bdp_td","Thu Apr 13 2023 16:07:12 GMT-0400 (Eastern Daylight Time)","87769","","null","","","","offerFB","","<div class='trialBorder'><div class='vertical-center'><img style='vertical-align:center; align:center' src=img/fixation3.jpg></div><div class='cl'><div class='vertical-center'>$50<br>in<br>12 weeks</div></div><div class='cr'><div class='vertical-center'><font style='color:orange'>$47<br><br>now</font></div></div><div class='respDivL'><div class='vertical-center'>(E)</div></div><div class='respDivR'><div class='vertical-center'><font style='color:orange'>(I)</font></div></div></div>","null","$47<br><br>now","$50<br>in<br>12 weeks","1","47","50","12",""
"html-keyboard-response","58","65962","0.0-5.0-1.18","62b33e2a447824fbd0770025","bdp_td","Thu Apr 13 2023 16:07:12 GMT-0400 (Eastern Daylight Time)","87769","","null","","","","FIX","","<div class='trialBorder'><div class='vertical-center'><img style='vertical-align:center; align:center' src=img/fixation3.jpg></div></div>","null","","","","","","",""
"html-keyboard-response","59","67939","0.0-5.0-2.18","62b33e2a447824fbd0770025","bdp_td","Thu Apr 13 2023 16:07:12 GMT-0400 (Eastern Daylight Time)","87769","","1976","","","","offer","","<div class='trialBorder'><div class='vertical-center'><img style='vertical-align:center; align:center' src=img/fixation3.jpg></div><div class='cl'><div class='vertical-center'>$67<br><br>now</div></div><div class='cr'><div class='vertical-center'>$75<br>in<br>12 weeks</div></div><div class='respDivL'><div class='vertical-center'>(E)</div></div><div class='respDivR'><div class='vertical-center'>(I)</div></div></div>","I","$67<br><br>now","$75<br>in<br>12 weeks","0","67","75","12","THEN"
"html-keyboard-response","60","68191","0.0-5.0-3.18","62b33e2a447824fbd0770025","bdp_td","Thu Apr 13 2023 16:07:12 GMT-0400 (Eastern Daylight Time)","87769","","null","","","","offerFB","","<div class='trialBorder'><div class='vertical-center'><img style='vertical-align:center; align:center' src=img/fixation3.jpg></div><div class='cl'><div class='vertical-center'>$67<br><br>now</div></div><div class='cr'><div class='vertical-center'><font style='color:orange'>$75<br>in<br>12 weeks</font></div></div><div class='respDivL'><div class='vertical-center'>(E)</div></div><div class='respDivR'><div class='vertical-center'><font style='color:orange'>(I)</font></div></div></div>","null","$67<br><br>now","$75<br>in<br>12 weeks","0","67","75","12",""
"html-keyboard-response","61","68693","0.0-5.0-1.19","62b33e2a447824fbd0770025","bdp_td","Thu Apr 13 2023 16:07:12 GMT-0400 (Eastern Daylight Time)","87769","","null","","","","FIX","","<div class='trialBorder'><div class='vertical-center'><img style='vertical-align:center; align:center' src=img/fixation3.jpg></div></div>","null","","","","","","",""
"html-keyboard-response","62","70324","0.0-5.0-2.19","62b33e2a447824fbd0770025","bdp_td","Thu Apr 13 2023 16:07:12 GMT-0400 (Eastern Daylight Time)","87769","","1630","","","","offer","","<div class='trialBorder'><div class='vertical-center'><img style='vertical-align:center; align:center' src=img/fixation3.jpg></div><div class='cl'><div class='vertical-center'>$25<br>in<br>3 weeks</div></div><div class='cr'><div class='vertical-center'>$14<br><br>now</div></div><div class='respDivL'><div class='vertical-center'>(E)</div></div><div class='respDivR'><div class='vertical-center'>(I)</div></div></div>","E","$14<br><br>now","$25<br>in<br>3 weeks","1","14","25","3","THEN"
"html-keyboard-response","63","70576","0.0-5.0-3.19","62b33e2a447824fbd0770025","bdp_td","Thu Apr 13 2023 16:07:12 GMT-0400 (Eastern Daylight Time)","87769","","null","","","","offerFB","","<div class='trialBorder'><div class='vertical-center'><img style='vertical-align:center; align:center' src=img/fixation3.jpg></div><div class='cl'><div class='vertical-center'><font style='color:orange'>$25<br>in<br>3 weeks</font></div></div><div class='cr'><div class='vertical-center'>$14<br><br>now</div></div><div class='respDivL'><div class='vertical-center'><font style='color:orange'>(E)</font></div></div><div class='respDivR'><div class='vertical-center'>(I)</div></div></div>","null","$14<br><br>now","$25<br>in<br>3 weeks","1","14","25","3",""
"html-keyboard-response","64","71079","0.0-5.0-1.20","62b33e2a447824fbd0770025","bdp_td","Thu Apr 13 2023 16:07:12 GMT-0400 (Eastern Daylight Time)","87769","","null","","","","FIX","","<div class='trialBorder'><div class='vertical-center'><img style='vertical-align:center; align:center' src=img/fixation3.jpg></div></div>","null","","","","","","",""
"html-keyboard-response","65","73071","0.0-5.0-2.20","62b33e2a447824fbd0770025","bdp_td","Thu Apr 13 2023 16:07:12 GMT-0400 (Eastern Daylight Time)","87769","","1991","","","","offer","","<div class='trialBorder'><div class='vertical-center'><img style='vertical-align:center; align:center' src=img/fixation3.jpg></div><div class='cl'><div class='vertical-center'>$25<br>in<br>6 weeks</div></div><div class='cr'><div class='vertical-center'>$19<br><br>now</div></div><div class='respDivL'><div class='vertical-center'>(E)</div></div><div class='respDivR'><div class='vertical-center'>(I)</div></div></div>","E","$19<br><br>now","$25<br>in<br>6 weeks","1","19","25","6","THEN"
"html-keyboard-response","66","73322","0.0-5.0-3.20","62b33e2a447824fbd0770025","bdp_td","Thu Apr 13 2023 16:07:12 GMT-0400 (Eastern Daylight Time)","87769","","null","","","","offerFB","","<div class='trialBorder'><div class='vertical-center'><img style='vertical-align:center; align:center' src=img/fixation3.jpg></div><div class='cl'><div class='vertical-center'><font style='color:orange'>$25<br>in<br>6 weeks</font></div></div><div class='cr'><div class='vertical-center'>$19<br><br>now</div></div><div class='respDivL'><div class='vertical-center'><font style='color:orange'>(E)</font></div></div><div class='respDivR'><div class='vertical-center'>(I)</div></div></div>","null","$19<br><br>now","$25<br>in<br>6 weeks","1","19","25","6",""
"html-keyboard-response","67","73824","0.0-5.0-1.21","62b33e2a447824fbd0770025","bdp_td","Thu Apr 13 2023 16:07:12 GMT-0400 (Eastern Daylight Time)","87769","","null","","","","FIX","","<div class='trialBorder'><div class='vertical-center'><img style='vertical-align:center; align:center' src=img/fixation3.jpg></div></div>","null","","","","","","",""
"html-keyboard-response","68","75096","0.0-5.0-2.21","62b33e2a447824fbd0770025","bdp_td","Thu Apr 13 2023 16:07:12 GMT-0400 (Eastern Daylight Time)","87769","","1271","","","","offer","","<div class='trialBorder'><div class='vertical-center'><img style='vertical-align:center; align:center' src=img/fixation3.jpg></div><div class='cl'><div class='vertical-center'>$33<br><br>now</div></div><div class='cr'><div class='vertical-center'>$80<br>in<br>2 weeks</div></div><div class='respDivL'><div class='vertical-center'>(E)</div></div><div class='respDivR'><div class='vertical-center'>(I)</div></div></div>","I","$33<br><br>now","$80<br>in<br>2 weeks","0","33","80","2","THEN"
"html-keyboard-response","69","75348","0.0-5.0-3.21","62b33e2a447824fbd0770025","bdp_td","Thu Apr 13 2023 16:07:12 GMT-0400 (Eastern Daylight Time)","87769","","null","","","","offerFB","","<div class='trialBorder'><div class='vertical-center'><img style='vertical-align:center; align:center' src=img/fixation3.jpg></div><div class='cl'><div class='vertical-center'>$33<br><br>now</div></div><div class='cr'><div class='vertical-center'><font style='color:orange'>$80<br>in<br>2 weeks</font></div></div><div class='respDivL'><div class='vertical-center'>(E)</div></div><div class='respDivR'><div class='vertical-center'><font style='color:orange'>(I)</font></div></div></div>","null","$33<br><br>now","$80<br>in<br>2 weeks","0","33","80","2",""
"html-keyboard-response","70","75850","0.0-5.0-1.22","62b33e2a447824fbd0770025","bdp_td","Thu Apr 13 2023 16:07:12 GMT-0400 (Eastern Daylight Time)","87769","","null","","","","FIX","","<div class='trialBorder'><div class='vertical-center'><img style='vertical-align:center; align:center' src=img/fixation3.jpg></div></div>","null","","","","","","",""
"html-keyboard-response","71","78007","0.0-5.0-2.22","62b33e2a447824fbd0770025","bdp_td","Thu Apr 13 2023 16:07:12 GMT-0400 (Eastern Daylight Time)","87769","","2156","","","","offer","","<div class='trialBorder'><div class='vertical-center'><img style='vertical-align:center; align:center' src=img/fixation3.jpg></div><div class='cl'><div class='vertical-center'>$34<br><br>now</div></div><div class='cr'><div class='vertical-center'>$50<br>in<br>6 weeks</div></div><div class='respDivL'><div class='vertical-center'>(E)</div></div><div class='respDivR'><div class='vertical-center'>(I)</div></div></div>","E","$34<br><br>now","$50<br>in<br>6 weeks","0","34","50","6","NOW"
"html-keyboard-response","72","78259","0.0-5.0-3.22","62b33e2a447824fbd0770025","bdp_td","Thu Apr 13 2023 16:07:12 GMT-0400 (Eastern Daylight Time)","87769","","null","","","","offerFB","","<div class='trialBorder'><div class='vertical-center'><img style='vertical-align:center; align:center' src=img/fixation3.jpg></div><div class='cl'><div class='vertical-center'><font style='color:orange'>$34<br><br>now</font></div></div><div class='cr'><div class='vertical-center'>$50<br>in<br>6 weeks</div></div><div class='respDivL'><div class='vertical-center'><font style='color:orange'>(E)</font></div></div><div class='respDivR'><div class='vertical-center'>(I)</div></div></div>","null","$34<br><br>now","$50<br>in<br>6 weeks","0","34","50","6",""
"html-keyboard-response","73","78761","0.0-5.0-1.23","62b33e2a447824fbd0770025","bdp_td","Thu Apr 13 2023 16:07:12 GMT-0400 (Eastern Daylight Time)","87769","","null","","","","FIX","","<div class='trialBorder'><div class='vertical-center'><img style='vertical-align:center; align:center' src=img/fixation3.jpg></div></div>","null","","","","","","",""
"html-keyboard-response","74","79973","0.0-5.0-2.23","62b33e2a447824fbd0770025","bdp_td","Thu Apr 13 2023 16:07:12 GMT-0400 (Eastern Daylight Time)","87769","","1211","","","","offer","","<div class='trialBorder'><div class='vertical-center'><img style='vertical-align:center; align:center' src=img/fixation3.jpg></div><div class='cl'><div class='vertical-center'>$85<br>in<br>1 week</div></div><div class='cr'><div class='vertical-center'>$31<br><br>now</div></div><div class='respDivL'><div class='vertical-center'>(E)</div></div><div class='respDivR'><div class='vertical-center'>(I)</div></div></div>","E","$31<br><br>now","$85<br>in<br>1 week","1","31","85","1","THEN"
"html-keyboard-response","75","80224","0.0-5.0-3.23","62b33e2a447824fbd0770025","bdp_td","Thu Apr 13 2023 16:07:12 GMT-0400 (Eastern Daylight Time)","87769","","null","","","","offerFB","","<div class='trialBorder'><div class='vertical-center'><img style='vertical-align:center; align:center' src=img/fixation3.jpg></div><div class='cl'><div class='vertical-center'><font style='color:orange'>$85<br>in<br>1 week</font></div></div><div class='cr'><div class='vertical-center'>$31<br><br>now</div></div><div class='respDivL'><div class='vertical-center'><font style='color:orange'>(E)</font></div></div><div class='respDivR'><div class='vertical-center'>(I)</div></div></div>","null","$31<br><br>now","$85<br>in<br>1 week","1","31","85","1",""
"html-keyboard-response","76","80727","0.0-5.0-1.24","62b33e2a447824fbd0770025","bdp_td","Thu Apr 13 2023 16:07:12 GMT-0400 (Eastern Daylight Time)","87769","","null","","","","FIX","","<div class='trialBorder'><div class='vertical-center'><img style='vertical-align:center; align:center' src=img/fixation3.jpg></div></div>","null","","","","","","",""
"html-keyboard-response","77","82365","0.0-5.0-2.24","62b33e2a447824fbd0770025","bdp_td","Thu Apr 13 2023 16:07:12 GMT-0400 (Eastern Daylight Time)","87769","","1637","","","","offer","","<div class='trialBorder'><div class='vertical-center'><img style='vertical-align:center; align:center' src=img/fixation3.jpg></div><div class='cl'><div class='vertical-center'>$35<br>in<br>12 weeks</div></div><div class='cr'><div class='vertical-center'>$34<br><br>now</div></div><div class='respDivL'><div class='vertical-center'>(E)</div></div><div class='respDivR'><div class='vertical-center'>(I)</div></div></div>","I","$34<br><br>now","$35<br>in<br>12 weeks","1","34","35","12","NOW"
"html-keyboard-response","78","82617","0.0-5.0-3.24","62b33e2a447824fbd0770025","bdp_td","Thu Apr 13 2023 16:07:12 GMT-0400 (Eastern Daylight Time)","87769","","null","","","","offerFB","","<div class='trialBorder'><div class='vertical-center'><img style='vertical-align:center; align:center' src=img/fixation3.jpg></div><div class='cl'><div class='vertical-center'>$35<br>in<br>12 weeks</div></div><div class='cr'><div class='vertical-center'><font style='color:orange'>$34<br><br>now</font></div></div><div class='respDivL'><div class='vertical-center'>(E)</div></div><div class='respDivR'><div class='vertical-center'><font style='color:orange'>(I)</font></div></div></div>","null","$34<br><br>now","$35<br>in<br>12 weeks","1","34","35","12",""
"html-keyboard-response","79","83119","0.0-5.0-1.25","62b33e2a447824fbd0770025","bdp_td","Thu Apr 13 2023 16:07:12 GMT-0400 (Eastern Daylight Time)","87769","","null","","","","FIX","","<div class='trialBorder'><div class='vertical-center'><img style='vertical-align:center; align:center' src=img/fixation3.jpg></div></div>","null","","","","","","",""
"html-keyboard-response","80","84647","0.0-5.0-2.25","62b33e2a447824fbd0770025","bdp_td","Thu Apr 13 2023 16:07:12 GMT-0400 (Eastern Daylight Time)","87769","","1527","","","","offer","","<div class='trialBorder'><div class='vertical-center'><img style='vertical-align:center; align:center' src=img/fixation3.jpg></div><div class='cl'><div class='vertical-center'>$54<br><br>now</div></div><div class='cr'><div class='vertical-center'>$55<br>in<br>12 weeks</div></div><div class='respDivL'><div class='vertical-center'>(E)</div></div><div class='respDivR'><div class='vertical-center'>(I)</div></div></div>","E","$54<br><br>now","$55<br>in<br>12 weeks","0","54","55","12","NOW"
"html-keyboard-response","81","84898","0.0-5.0-3.25","62b33e2a447824fbd0770025","bdp_td","Thu Apr 13 2023 16:07:12 GMT-0400 (Eastern Daylight Time)","87769","","null","","","","offerFB","","<div class='trialBorder'><div class='vertical-center'><img style='vertical-align:center; align:center' src=img/fixation3.jpg></div><div class='cl'><div class='vertical-center'><font style='color:orange'>$54<br><br>now</font></div></div><div class='cr'><div class='vertical-center'>$55<br>in<br>12 weeks</div></div><div class='respDivL'><div class='vertical-center'><font style='color:orange'>(E)</font></div></div><div class='respDivR'><div class='vertical-center'>(I)</div></div></div>","null","$54<br><br>now","$55<br>in<br>12 weeks","0","54","55","12",""
"html-keyboard-response","82","85400","0.0-5.0-1.26","62b33e2a447824fbd0770025","bdp_td","Thu Apr 13 2023 16:07:12 GMT-0400 (Eastern Daylight Time)","87769","","null","","","","FIX","","<div class='trialBorder'><div class='vertical-center'><img style='vertical-align:center; align:center' src=img/fixation3.jpg></div></div>","null","","","","","","",""
"html-keyboard-response","83","86515","0.0-5.0-2.26","62b33e2a447824fbd0770025","bdp_td","Thu Apr 13 2023 16:07:12 GMT-0400 (Eastern Daylight Time)","87769","","1114","","","","offer","","<div class='trialBorder'><div class='vertical-center'><img style='vertical-align:center; align:center' src=img/fixation3.jpg></div><div class='cl'><div class='vertical-center'>$20<br><br>now</div></div><div class='cr'><div class='vertical-center'>$55<br>in<br>1 week</div></div><div class='respDivL'><div class='vertical-center'>(E)</div></div><div class='respDivR'><div class='vertical-center'>(I)</div></div></div>","I","$20<br><br>now","$55<br>in<br>1 week","0","20","55","1","THEN"
"html-keyboard-response","84","86767","0.0-5.0-3.26","62b33e2a447824fbd0770025","bdp_td","Thu Apr 13 2023 16:07:12 GMT-0400 (Eastern Daylight Time)","87769","","null","","","","offerFB","","<div class='trialBorder'><div class='vertical-center'><img style='vertical-align:center; align:center' src=img/fixation3.jpg></div><div class='cl'><div class='vertical-center'>$20<br><br>now</div></div><div class='cr'><div class='vertical-center'><font style='color:orange'>$55<br>in<br>1 week</font></div></div><div class='respDivL'><div class='vertical-center'>(E)</div></div><div class='respDivR'><div class='vertical-center'><font style='color:orange'>(I)</font></div></div></div>","null","$20<br><br>now","$55<br>in<br>1 week","0","20","55","1",""
"","","","","62b33e2a447824fbd0770025","bdp_td","Thu Apr 13 2023 16:07:12 GMT-0400 (Eastern Daylight Time)","87769","","","fullscreenexit","85","86788","fullscreenexit","","","","","","","","","",""
"fullscreen","85","87768","0.0-6.0","62b33e2a447824fbd0770025","bdp_td","Thu Apr 13 2023 16:07:12 GMT-0400 (Eastern Daylight Time)","87769","","","","","","","true","","","","","","","","",""
"html-keyboard-response","86","88270","0.0-7.0","","","","","","null","","","","","","","null","","","","","","",""
