"trial_type","trial_index","time_elapsed","internal_node_id","subject_id","task","startTime","totalTime","view_history","rt","event","trial","time","trialtype","success","stimulus","key_press","nowOffer","thenOffer","thenLeft","nowAmt","thenAmt","thenWeeks","chosen"
"pavlovia","0","10","0.0-0.0","63f2e107c4d0bc684b99d2c6","bdp_td","Tue Mar 28 2023 10:40:38 GMT-0400 (Eastern Daylight Time)","145252","","","","","","","","","","","","","","","",""
"instructions","1","4139","0.0-1.0","63f2e107c4d0bc684b99d2c6","bdp_td","Tue Mar 28 2023 10:40:38 GMT-0400 (Eastern Daylight Time)","145252","[{""page_index"":0,""viewing_time"":4129}]","4129","","","","","","","","","","","","","",""
"","","","","63f2e107c4d0bc684b99d2c6","bdp_td","Tue Mar 28 2023 10:40:38 GMT-0400 (Eastern Daylight Time)","145252","","","fullscreenenter","2","8596","fullscreenenter","","","","","","","","","",""
"fullscreen","2","9543","0.0-2.0","63f2e107c4d0bc684b99d2c6","bdp_td","Tue Mar 28 2023 10:40:38 GMT-0400 (Eastern Daylight Time)","145252","","","","","","","true","","","","","","","","",""
"instructions","3","66351","0.0-4.0","63f2e107c4d0bc684b99d2c6","bdp_td","Tue Mar 28 2023 10:40:38 GMT-0400 (Eastern Daylight Time)","145252","[{""page_index"":0,""viewing_time"":10286},{""page_index"":1,""viewing_time"":36778},{""page_index"":2,""viewing_time"":9742}]","56806","","","","","","","","","","","","","",""
"html-keyboard-response","4","66872","0.0-5.0-1.0","63f2e107c4d0bc684b99d2c6","bdp_td","Tue Mar 28 2023 10:40:38 GMT-0400 (Eastern Daylight Time)","145252","","null","","","","FIX","","<div class='trialBorder'><div class='vertical-center'><img style='vertical-align:center; align:center' src=img/fixation3.jpg></div></div>","null","","","","","","",""
"html-keyboard-response","5","70315","0.0-5.0-2.0","63f2e107c4d0bc684b99d2c6","bdp_td","Tue Mar 28 2023 10:40:38 GMT-0400 (Eastern Daylight Time)","145252","","3439","","","","offer","","<div class='trialBorder'><div class='vertical-center'><img style='vertical-align:center; align:center' src=img/fixation3.jpg></div><div class='cl'><div class='vertical-center'>$60<br>in<br>12 weeks</div></div><div class='cr'><div class='vertical-center'>$54<br><br>now</div></div><div class='respDivL'><div class='vertical-center'>(E)</div></div><div class='respDivR'><div class='vertical-center'>(I)</div></div></div>","I","$54<br><br>now","$60<br>in<br>12 weeks","1","54","60","12","NOW"
"html-keyboard-response","6","70572","0.0-5.0-3.0","63f2e107c4d0bc684b99d2c6","bdp_td","Tue Mar 28 2023 10:40:38 GMT-0400 (Eastern Daylight Time)","145252","","null","","","","offerFB","","<div class='trialBorder'><div class='vertical-center'><img style='vertical-align:center; align:center' src=img/fixation3.jpg></div><div class='cl'><div class='vertical-center'>$60<br>in<br>12 weeks</div></div><div class='cr'><div class='vertical-center'><font style='color:orange'>$54<br><br>now</font></div></div><div class='respDivL'><div class='vertical-center'>(E)</div></div><div class='respDivR'><div class='vertical-center'><font style='color:orange'>(I)</font></div></div></div>","null","$54<br><br>now","$60<br>in<br>12 weeks","1","54","60","12",""
"html-keyboard-response","7","71087","0.0-5.0-1.1","63f2e107c4d0bc684b99d2c6","bdp_td","Tue Mar 28 2023 10:40:38 GMT-0400 (Eastern Daylight Time)","145252","","null","","","","FIX","","<div class='trialBorder'><div class='vertical-center'><img style='vertical-align:center; align:center' src=img/fixation3.jpg></div></div>","null","","","","","","",""
"html-keyboard-response","8","74470","0.0-5.0-2.1","63f2e107c4d0bc684b99d2c6","bdp_td","Tue Mar 28 2023 10:40:38 GMT-0400 (Eastern Daylight Time)","145252","","3380","","","","offer","","<div class='trialBorder'><div class='vertical-center'><img style='vertical-align:center; align:center' src=img/fixation3.jpg></div><div class='cl'><div class='vertical-center'>$50<br>in<br>3 weeks</div></div><div class='cr'><div class='vertical-center'>$27<br><br>now</div></div><div class='respDivL'><div class='vertical-center'>(E)</div></div><div class='respDivR'><div class='vertical-center'>(I)</div></div></div>","E","$27<br><br>now","$50<br>in<br>3 weeks","1","27","50","3","THEN"
"html-keyboard-response","9","74727","0.0-5.0-3.1","63f2e107c4d0bc684b99d2c6","bdp_td","Tue Mar 28 2023 10:40:38 GMT-0400 (Eastern Daylight Time)","145252","","null","","","","offerFB","","<div class='trialBorder'><div class='vertical-center'><img style='vertical-align:center; align:center' src=img/fixation3.jpg></div><div class='cl'><div class='vertical-center'><font style='color:orange'>$50<br>in<br>3 weeks</font></div></div><div class='cr'><div class='vertical-center'>$27<br><br>now</div></div><div class='respDivL'><div class='vertical-center'><font style='color:orange'>(E)</font></div></div><div class='respDivR'><div class='vertical-center'>(I)</div></div></div>","null","$27<br><br>now","$50<br>in<br>3 weeks","1","27","50","3",""
"html-keyboard-response","10","75241","0.0-5.0-1.2","63f2e107c4d0bc684b99d2c6","bdp_td","Tue Mar 28 2023 10:40:38 GMT-0400 (Eastern Daylight Time)","145252","","null","","","","FIX","","<div class='trialBorder'><div class='vertical-center'><img style='vertical-align:center; align:center' src=img/fixation3.jpg></div></div>","null","","","","","","",""
"html-keyboard-response","11","77651","0.0-5.0-2.2","63f2e107c4d0bc684b99d2c6","bdp_td","Tue Mar 28 2023 10:40:38 GMT-0400 (Eastern Daylight Time)","145252","","2408","","","","offer","","<div class='trialBorder'><div class='vertical-center'><img style='vertical-align:center; align:center' src=img/fixation3.jpg></div><div class='cl'><div class='vertical-center'>$30<br>in<br>6 weeks</div></div><div class='cr'><div class='vertical-center'>$25<br><br>now</div></div><div class='respDivL'><div class='vertical-center'>(E)</div></div><div class='respDivR'><div class='vertical-center'>(I)</div></div></div>","I","$25<br><br>now","$30<br>in<br>6 weeks","1","25","30","6","NOW"
"html-keyboard-response","12","77913","0.0-5.0-3.2","63f2e107c4d0bc684b99d2c6","bdp_td","Tue Mar 28 2023 10:40:38 GMT-0400 (Eastern Daylight Time)","145252","","null","","","","offerFB","","<div class='trialBorder'><div class='vertical-center'><img style='vertical-align:center; align:center' src=img/fixation3.jpg></div><div class='cl'><div class='vertical-center'>$30<br>in<br>6 weeks</div></div><div class='cr'><div class='vertical-center'><font style='color:orange'>$25<br><br>now</font></div></div><div class='respDivL'><div class='vertical-center'>(E)</div></div><div class='respDivR'><div class='vertical-center'><font style='color:orange'>(I)</font></div></div></div>","null","$25<br><br>now","$30<br>in<br>6 weeks","1","25","30","6",""
"html-keyboard-response","13","78428","0.0-5.0-1.3","63f2e107c4d0bc684b99d2c6","bdp_td","Tue Mar 28 2023 10:40:38 GMT-0400 (Eastern Daylight Time)","145252","","null","","","","FIX","","<div class='trialBorder'><div class='vertical-center'><img style='vertical-align:center; align:center' src=img/fixation3.jpg></div></div>","null","","","","","","",""
"html-keyboard-response","14","81376","0.0-5.0-2.3","63f2e107c4d0bc684b99d2c6","bdp_td","Tue Mar 28 2023 10:40:38 GMT-0400 (Eastern Daylight Time)","145252","","2945","","","","offer","","<div class='trialBorder'><div class='vertical-center'><img style='vertical-align:center; align:center' src=img/fixation3.jpg></div><div class='cl'><div class='vertical-center'>$34<br><br>now</div></div><div class='cr'><div class='vertical-center'>$50<br>in<br>6 weeks</div></div><div class='respDivL'><div class='vertical-center'>(E)</div></div><div class='respDivR'><div class='vertical-center'>(I)</div></div></div>","I","$34<br><br>now","$50<br>in<br>6 weeks","0","34","50","6","THEN"
"html-keyboard-response","15","81646","0.0-5.0-3.3","63f2e107c4d0bc684b99d2c6","bdp_td","Tue Mar 28 2023 10:40:38 GMT-0400 (Eastern Daylight Time)","145252","","null","","","","offerFB","","<div class='trialBorder'><div class='vertical-center'><img style='vertical-align:center; align:center' src=img/fixation3.jpg></div><div class='cl'><div class='vertical-center'>$34<br><br>now</div></div><div class='cr'><div class='vertical-center'><font style='color:orange'>$50<br>in<br>6 weeks</font></div></div><div class='respDivL'><div class='vertical-center'>(E)</div></div><div class='respDivR'><div class='vertical-center'><font style='color:orange'>(I)</font></div></div></div>","null","$34<br><br>now","$50<br>in<br>6 weeks","0","34","50","6",""
"html-keyboard-response","16","82161","0.0-5.0-1.4","63f2e107c4d0bc684b99d2c6","bdp_td","Tue Mar 28 2023 10:40:38 GMT-0400 (Eastern Daylight Time)","145252","","null","","","","FIX","","<div class='trialBorder'><div class='vertical-center'><img style='vertical-align:center; align:center' src=img/fixation3.jpg></div></div>","null","","","","","","",""
"html-keyboard-response","17","84458","0.0-5.0-2.4","63f2e107c4d0bc684b99d2c6","bdp_td","Tue Mar 28 2023 10:40:38 GMT-0400 (Eastern Daylight Time)","145252","","2295","","","","offer","","<div class='trialBorder'><div class='vertical-center'><img style='vertical-align:center; align:center' src=img/fixation3.jpg></div><div class='cl'><div class='vertical-center'>$14<br><br>now</div></div><div class='cr'><div class='vertical-center'>$25<br>in<br>3 weeks</div></div><div class='respDivL'><div class='vertical-center'>(E)</div></div><div class='respDivR'><div class='vertical-center'>(I)</div></div></div>","E","$14<br><br>now","$25<br>in<br>3 weeks","0","14","25","3","NOW"
"html-keyboard-response","18","84723","0.0-5.0-3.4","63f2e107c4d0bc684b99d2c6","bdp_td","Tue Mar 28 2023 10:40:38 GMT-0400 (Eastern Daylight Time)","145252","","null","","","","offerFB","","<div class='trialBorder'><div class='vertical-center'><img style='vertical-align:center; align:center' src=img/fixation3.jpg></div><div class='cl'><div class='vertical-center'><font style='color:orange'>$14<br><br>now</font></div></div><div class='cr'><div class='vertical-center'>$25<br>in<br>3 weeks</div></div><div class='respDivL'><div class='vertical-center'><font style='color:orange'>(E)</font></div></div><div class='respDivR'><div class='vertical-center'>(I)</div></div></div>","null","$14<br><br>now","$25<br>in<br>3 weeks","0","14","25","3",""
"html-keyboard-response","19","85238","0.0-5.0-1.5","63f2e107c4d0bc684b99d2c6","bdp_td","Tue Mar 28 2023 10:40:38 GMT-0400 (Eastern Daylight Time)","145252","","null","","","","FIX","","<div class='trialBorder'><div class='vertical-center'><img style='vertical-align:center; align:center' src=img/fixation3.jpg></div></div>","null","","","","","","",""
"html-keyboard-response","20","88142","0.0-5.0-2.5","63f2e107c4d0bc684b99d2c6","bdp_td","Tue Mar 28 2023 10:40:38 GMT-0400 (Eastern Daylight Time)","145252","","2901","","","","offer","","<div class='trialBorder'><div class='vertical-center'><img style='vertical-align:center; align:center' src=img/fixation3.jpg></div><div class='cl'><div class='vertical-center'>$75<br>in<br>6 weeks</div></div><div class='cr'><div class='vertical-center'>$55<br><br>now</div></div><div class='respDivL'><div class='vertical-center'>(E)</div></div><div class='respDivR'><div class='vertical-center'>(I)</div></div></div>","E","$55<br><br>now","$75<br>in<br>6 weeks","1","55","75","6","THEN"
"html-keyboard-response","21","88409","0.0-5.0-3.5","63f2e107c4d0bc684b99d2c6","bdp_td","Tue Mar 28 2023 10:40:38 GMT-0400 (Eastern Daylight Time)","145252","","null","","","","offerFB","","<div class='trialBorder'><div class='vertical-center'><img style='vertical-align:center; align:center' src=img/fixation3.jpg></div><div class='cl'><div class='vertical-center'><font style='color:orange'>$75<br>in<br>6 weeks</font></div></div><div class='cr'><div class='vertical-center'>$55<br><br>now</div></div><div class='respDivL'><div class='vertical-center'><font style='color:orange'>(E)</font></div></div><div class='respDivR'><div class='vertical-center'>(I)</div></div></div>","null","$55<br><br>now","$75<br>in<br>6 weeks","1","55","75","6",""
"html-keyboard-response","22","88925","0.0-5.0-1.6","63f2e107c4d0bc684b99d2c6","bdp_td","Tue Mar 28 2023 10:40:38 GMT-0400 (Eastern Daylight Time)","145252","","null","","","","FIX","","<div class='trialBorder'><div class='vertical-center'><img style='vertical-align:center; align:center' src=img/fixation3.jpg></div></div>","null","","","","","","",""
"html-keyboard-response","23","91738","0.0-5.0-2.6","63f2e107c4d0bc684b99d2c6","bdp_td","Tue Mar 28 2023 10:40:38 GMT-0400 (Eastern Daylight Time)","145252","","2812","","","","offer","","<div class='trialBorder'><div class='vertical-center'><img style='vertical-align:center; align:center' src=img/fixation3.jpg></div><div class='cl'><div class='vertical-center'>$47<br><br>now</div></div><div class='cr'><div class='vertical-center'>$50<br>in<br>12 weeks</div></div><div class='respDivL'><div class='vertical-center'>(E)</div></div><div class='respDivR'><div class='vertical-center'>(I)</div></div></div>","E","$47<br><br>now","$50<br>in<br>12 weeks","0","47","50","12","NOW"
"html-keyboard-response","24","92002","0.0-5.0-3.6","63f2e107c4d0bc684b99d2c6","bdp_td","Tue Mar 28 2023 10:40:38 GMT-0400 (Eastern Daylight Time)","145252","","null","","","","offerFB","","<div class='trialBorder'><div class='vertical-center'><img style='vertical-align:center; align:center' src=img/fixation3.jpg></div><div class='cl'><div class='vertical-center'><font style='color:orange'>$47<br><br>now</font></div></div><div class='cr'><div class='vertical-center'>$50<br>in<br>12 weeks</div></div><div class='respDivL'><div class='vertical-center'><font style='color:orange'>(E)</font></div></div><div class='respDivR'><div class='vertical-center'>(I)</div></div></div>","null","$47<br><br>now","$50<br>in<br>12 weeks","0","47","50","12",""
"html-keyboard-response","25","92517","0.0-5.0-1.7","63f2e107c4d0bc684b99d2c6","bdp_td","Tue Mar 28 2023 10:40:38 GMT-0400 (Eastern Daylight Time)","145252","","null","","","","FIX","","<div class='trialBorder'><div class='vertical-center'><img style='vertical-align:center; align:center' src=img/fixation3.jpg></div></div>","null","","","","","","",""
"html-keyboard-response","26","95695","0.0-5.0-2.7","63f2e107c4d0bc684b99d2c6","bdp_td","Tue Mar 28 2023 10:40:38 GMT-0400 (Eastern Daylight Time)","145252","","3176","","","","offer","","<div class='trialBorder'><div class='vertical-center'><img style='vertical-align:center; align:center' src=img/fixation3.jpg></div><div class='cl'><div class='vertical-center'>$35<br>in<br>2 weeks</div></div><div class='cr'><div class='vertical-center'>$15<br><br>now</div></div><div class='respDivL'><div class='vertical-center'>(E)</div></div><div class='respDivR'><div class='vertical-center'>(I)</div></div></div>","E","$15<br><br>now","$35<br>in<br>2 weeks","1","15","35","2","THEN"
"html-keyboard-response","27","95954","0.0-5.0-3.7","63f2e107c4d0bc684b99d2c6","bdp_td","Tue Mar 28 2023 10:40:38 GMT-0400 (Eastern Daylight Time)","145252","","null","","","","offerFB","","<div class='trialBorder'><div class='vertical-center'><img style='vertical-align:center; align:center' src=img/fixation3.jpg></div><div class='cl'><div class='vertical-center'><font style='color:orange'>$35<br>in<br>2 weeks</font></div></div><div class='cr'><div class='vertical-center'>$15<br><br>now</div></div><div class='respDivL'><div class='vertical-center'><font style='color:orange'>(E)</font></div></div><div class='respDivR'><div class='vertical-center'>(I)</div></div></div>","null","$15<br><br>now","$35<br>in<br>2 weeks","1","15","35","2",""
"html-keyboard-response","28","96469","0.0-5.0-1.8","63f2e107c4d0bc684b99d2c6","bdp_td","Tue Mar 28 2023 10:40:38 GMT-0400 (Eastern Daylight Time)","145252","","null","","","","FIX","","<div class='trialBorder'><div class='vertical-center'><img style='vertical-align:center; align:center' src=img/fixation3.jpg></div></div>","null","","","","","","",""
"html-keyboard-response","29","99413","0.0-5.0-2.8","63f2e107c4d0bc684b99d2c6","bdp_td","Tue Mar 28 2023 10:40:38 GMT-0400 (Eastern Daylight Time)","145252","","2941","","","","offer","","<div class='trialBorder'><div class='vertical-center'><img style='vertical-align:center; align:center' src=img/fixation3.jpg></div><div class='cl'><div class='vertical-center'>$67<br><br>now</div></div><div class='cr'><div class='vertical-center'>$75<br>in<br>12 weeks</div></div><div class='respDivL'><div class='vertical-center'>(E)</div></div><div class='respDivR'><div class='vertical-center'>(I)</div></div></div>","E","$67<br><br>now","$75<br>in<br>12 weeks","0","67","75","12","NOW"
"html-keyboard-response","30","99672","0.0-5.0-3.8","63f2e107c4d0bc684b99d2c6","bdp_td","Tue Mar 28 2023 10:40:38 GMT-0400 (Eastern Daylight Time)","145252","","null","","","","offerFB","","<div class='trialBorder'><div class='vertical-center'><img style='vertical-align:center; align:center' src=img/fixation3.jpg></div><div class='cl'><div class='vertical-center'><font style='color:orange'>$67<br><br>now</font></div></div><div class='cr'><div class='vertical-center'>$75<br>in<br>12 weeks</div></div><div class='respDivL'><div class='vertical-center'><font style='color:orange'>(E)</font></div></div><div class='respDivR'><div class='vertical-center'>(I)</div></div></div>","null","$67<br><br>now","$75<br>in<br>12 weeks","0","67","75","12",""
"html-keyboard-response","31","100187","0.0-5.0-1.9","63f2e107c4d0bc684b99d2c6","bdp_td","Tue Mar 28 2023 10:40:38 GMT-0400 (Eastern Daylight Time)","145252","","null","","","","FIX","","<div class='trialBorder'><div class='vertical-center'><img style='vertical-align:center; align:center' src=img/fixation3.jpg></div></div>","null","","","","","","",""
"html-keyboard-response","32","102069","0.0-5.0-2.9","63f2e107c4d0bc684b99d2c6","bdp_td","Tue Mar 28 2023 10:40:38 GMT-0400 (Eastern Daylight Time)","145252","","1880","","","","offer","","<div class='trialBorder'><div class='vertical-center'><img style='vertical-align:center; align:center' src=img/fixation3.jpg></div><div class='cl'><div class='vertical-center'>$49<br><br>now</div></div><div class='cr'><div class='vertical-center'>$60<br>in<br>6 weeks</div></div><div class='respDivL'><div class='vertical-center'>(E)</div></div><div class='respDivR'><div class='vertical-center'>(I)</div></div></div>","E","$49<br><br>now","$60<br>in<br>6 weeks","0","49","60","6","NOW"
"html-keyboard-response","33","102327","0.0-5.0-3.9","63f2e107c4d0bc684b99d2c6","bdp_td","Tue Mar 28 2023 10:40:38 GMT-0400 (Eastern Daylight Time)","145252","","null","","","","offerFB","","<div class='trialBorder'><div class='vertical-center'><img style='vertical-align:center; align:center' src=img/fixation3.jpg></div><div class='cl'><div class='vertical-center'><font style='color:orange'>$49<br><br>now</font></div></div><div class='cr'><div class='vertical-center'>$60<br>in<br>6 weeks</div></div><div class='respDivL'><div class='vertical-center'><font style='color:orange'>(E)</font></div></div><div class='respDivR'><div class='vertical-center'>(I)</div></div></div>","null","$49<br><br>now","$60<br>in<br>6 weeks","0","49","60","6",""
"html-keyboard-response","34","102842","0.0-5.0-1.10","63f2e107c4d0bc684b99d2c6","bdp_td","Tue Mar 28 2023 10:40:38 GMT-0400 (Eastern Daylight Time)","145252","","null","","","","FIX","","<div class='trialBorder'><div class='vertical-center'><img style='vertical-align:center; align:center' src=img/fixation3.jpg></div></div>","null","","","","","","",""
"html-keyboard-response","35","104422","0.0-5.0-2.10","63f2e107c4d0bc684b99d2c6","bdp_td","Tue Mar 28 2023 10:40:38 GMT-0400 (Eastern Daylight Time)","145252","","1578","","","","offer","","<div class='trialBorder'><div class='vertical-center'><img style='vertical-align:center; align:center' src=img/fixation3.jpg></div><div class='cl'><div class='vertical-center'>$11<br><br>now</div></div><div class='cr'><div class='vertical-center'>$30<br>in<br>2 weeks</div></div><div class='respDivL'><div class='vertical-center'>(E)</div></div><div class='respDivR'><div class='vertical-center'>(I)</div></div></div>","I","$11<br><br>now","$30<br>in<br>2 weeks","0","11","30","2","THEN"
"html-keyboard-response","36","104685","0.0-5.0-3.10","63f2e107c4d0bc684b99d2c6","bdp_td","Tue Mar 28 2023 10:40:38 GMT-0400 (Eastern Daylight Time)","145252","","null","","","","offerFB","","<div class='trialBorder'><div class='vertical-center'><img style='vertical-align:center; align:center' src=img/fixation3.jpg></div><div class='cl'><div class='vertical-center'>$11<br><br>now</div></div><div class='cr'><div class='vertical-center'><font style='color:orange'>$30<br>in<br>2 weeks</font></div></div><div class='respDivL'><div class='vertical-center'>(E)</div></div><div class='respDivR'><div class='vertical-center'><font style='color:orange'>(I)</font></div></div></div>","null","$11<br><br>now","$30<br>in<br>2 weeks","0","11","30","2",""
"html-keyboard-response","37","105201","0.0-5.0-1.11","63f2e107c4d0bc684b99d2c6","bdp_td","Tue Mar 28 2023 10:40:38 GMT-0400 (Eastern Daylight Time)","145252","","null","","","","FIX","","<div class='trialBorder'><div class='vertical-center'><img style='vertical-align:center; align:center' src=img/fixation3.jpg></div></div>","null","","","","","","",""
"html-keyboard-response","38","106669","0.0-5.0-2.11","63f2e107c4d0bc684b99d2c6","bdp_td","Tue Mar 28 2023 10:40:38 GMT-0400 (Eastern Daylight Time)","145252","","1465","","","","offer","","<div class='trialBorder'><div class='vertical-center'><img style='vertical-align:center; align:center' src=img/fixation3.jpg></div><div class='cl'><div class='vertical-center'>$25<br>in<br>6 weeks</div></div><div class='cr'><div class='vertical-center'>$19<br><br>now</div></div><div class='respDivL'><div class='vertical-center'>(E)</div></div><div class='respDivR'><div class='vertical-center'>(I)</div></div></div>","E","$19<br><br>now","$25<br>in<br>6 weeks","1","19","25","6","THEN"
"html-keyboard-response","39","106935","0.0-5.0-3.11","63f2e107c4d0bc684b99d2c6","bdp_td","Tue Mar 28 2023 10:40:38 GMT-0400 (Eastern Daylight Time)","145252","","null","","","","offerFB","","<div class='trialBorder'><div class='vertical-center'><img style='vertical-align:center; align:center' src=img/fixation3.jpg></div><div class='cl'><div class='vertical-center'><font style='color:orange'>$25<br>in<br>6 weeks</font></div></div><div class='cr'><div class='vertical-center'>$19<br><br>now</div></div><div class='respDivL'><div class='vertical-center'><font style='color:orange'>(E)</font></div></div><div class='respDivR'><div class='vertical-center'>(I)</div></div></div>","null","$19<br><br>now","$25<br>in<br>6 weeks","1","19","25","6",""
"html-keyboard-response","40","107466","0.0-5.0-1.12","63f2e107c4d0bc684b99d2c6","bdp_td","Tue Mar 28 2023 10:40:38 GMT-0400 (Eastern Daylight Time)","145252","","null","","","","FIX","","<div class='trialBorder'><div class='vertical-center'><img style='vertical-align:center; align:center' src=img/fixation3.jpg></div></div>","null","","","","","","",""
"html-keyboard-response","41","109666","0.0-5.0-2.12","63f2e107c4d0bc684b99d2c6","bdp_td","Tue Mar 28 2023 10:40:38 GMT-0400 (Eastern Daylight Time)","145252","","2197","","","","offer","","<div class='trialBorder'><div class='vertical-center'><img style='vertical-align:center; align:center' src=img/fixation3.jpg></div><div class='cl'><div class='vertical-center'>$24<br><br>now</div></div><div class='cr'><div class='vertical-center'>$35<br>in<br>3 weeks</div></div><div class='respDivL'><div class='vertical-center'>(E)</div></div><div class='respDivR'><div class='vertical-center'>(I)</div></div></div>","I","$24<br><br>now","$35<br>in<br>3 weeks","0","24","35","3","THEN"
"html-keyboard-response","42","109934","0.0-5.0-3.12","63f2e107c4d0bc684b99d2c6","bdp_td","Tue Mar 28 2023 10:40:38 GMT-0400 (Eastern Daylight Time)","145252","","null","","","","offerFB","","<div class='trialBorder'><div class='vertical-center'><img style='vertical-align:center; align:center' src=img/fixation3.jpg></div><div class='cl'><div class='vertical-center'>$24<br><br>now</div></div><div class='cr'><div class='vertical-center'><font style='color:orange'>$35<br>in<br>3 weeks</font></div></div><div class='respDivL'><div class='vertical-center'>(E)</div></div><div class='respDivR'><div class='vertical-center'><font style='color:orange'>(I)</font></div></div></div>","null","$24<br><br>now","$35<br>in<br>3 weeks","0","24","35","3",""
"html-keyboard-response","43","110449","0.0-5.0-1.13","63f2e107c4d0bc684b99d2c6","bdp_td","Tue Mar 28 2023 10:40:38 GMT-0400 (Eastern Daylight Time)","145252","","null","","","","FIX","","<div class='trialBorder'><div class='vertical-center'><img style='vertical-align:center; align:center' src=img/fixation3.jpg></div></div>","null","","","","","","",""
"html-keyboard-response","44","112511","0.0-5.0-2.13","63f2e107c4d0bc684b99d2c6","bdp_td","Tue Mar 28 2023 10:40:38 GMT-0400 (Eastern Daylight Time)","145252","","2060","","","","offer","","<div class='trialBorder'><div class='vertical-center'><img style='vertical-align:center; align:center' src=img/fixation3.jpg></div><div class='cl'><div class='vertical-center'>$80<br>in<br>2 weeks</div></div><div class='cr'><div class='vertical-center'>$33<br><br>now</div></div><div class='respDivL'><div class='vertical-center'>(E)</div></div><div class='respDivR'><div class='vertical-center'>(I)</div></div></div>","E","$33<br><br>now","$80<br>in<br>2 weeks","1","33","80","2","THEN"
"html-keyboard-response","45","112777","0.0-5.0-3.13","63f2e107c4d0bc684b99d2c6","bdp_td","Tue Mar 28 2023 10:40:38 GMT-0400 (Eastern Daylight Time)","145252","","null","","","","offerFB","","<div class='trialBorder'><div class='vertical-center'><img style='vertical-align:center; align:center' src=img/fixation3.jpg></div><div class='cl'><div class='vertical-center'><font style='color:orange'>$80<br>in<br>2 weeks</font></div></div><div class='cr'><div class='vertical-center'>$33<br><br>now</div></div><div class='respDivL'><div class='vertical-center'><font style='color:orange'>(E)</font></div></div><div class='respDivR'><div class='vertical-center'>(I)</div></div></div>","null","$33<br><br>now","$80<br>in<br>2 weeks","1","33","80","2",""
"html-keyboard-response","46","113292","0.0-5.0-1.14","63f2e107c4d0bc684b99d2c6","bdp_td","Tue Mar 28 2023 10:40:38 GMT-0400 (Eastern Daylight Time)","145252","","null","","","","FIX","","<div class='trialBorder'><div class='vertical-center'><img style='vertical-align:center; align:center' src=img/fixation3.jpg></div></div>","null","","","","","","",""
"html-keyboard-response","47","115331","0.0-5.0-2.14","63f2e107c4d0bc684b99d2c6","bdp_td","Tue Mar 28 2023 10:40:38 GMT-0400 (Eastern Daylight Time)","145252","","2036","","","","offer","","<div class='trialBorder'><div class='vertical-center'><img style='vertical-align:center; align:center' src=img/fixation3.jpg></div><div class='cl'><div class='vertical-center'>$34<br><br>now</div></div><div class='cr'><div class='vertical-center'>$35<br>in<br>12 weeks</div></div><div class='respDivL'><div class='vertical-center'>(E)</div></div><div class='respDivR'><div class='vertical-center'>(I)</div></div></div>","E","$34<br><br>now","$35<br>in<br>12 weeks","0","34","35","12","NOW"
"html-keyboard-response","48","115588","0.0-5.0-3.14","63f2e107c4d0bc684b99d2c6","bdp_td","Tue Mar 28 2023 10:40:38 GMT-0400 (Eastern Daylight Time)","145252","","null","","","","offerFB","","<div class='trialBorder'><div class='vertical-center'><img style='vertical-align:center; align:center' src=img/fixation3.jpg></div><div class='cl'><div class='vertical-center'><font style='color:orange'>$34<br><br>now</font></div></div><div class='cr'><div class='vertical-center'>$35<br>in<br>12 weeks</div></div><div class='respDivL'><div class='vertical-center'><font style='color:orange'>(E)</font></div></div><div class='respDivR'><div class='vertical-center'>(I)</div></div></div>","null","$34<br><br>now","$35<br>in<br>12 weeks","0","34","35","12",""
"html-keyboard-response","49","116104","0.0-5.0-1.15","63f2e107c4d0bc684b99d2c6","bdp_td","Tue Mar 28 2023 10:40:38 GMT-0400 (Eastern Daylight Time)","145252","","null","","","","FIX","","<div class='trialBorder'><div class='vertical-center'><img style='vertical-align:center; align:center' src=img/fixation3.jpg></div></div>","null","","","","","","",""
"html-keyboard-response","50","117344","0.0-5.0-2.15","63f2e107c4d0bc684b99d2c6","bdp_td","Tue Mar 28 2023 10:40:38 GMT-0400 (Eastern Daylight Time)","145252","","1238","","","","offer","","<div class='trialBorder'><div class='vertical-center'><img style='vertical-align:center; align:center' src=img/fixation3.jpg></div><div class='cl'><div class='vertical-center'>$55<br>in<br>12 weeks</div></div><div class='cr'><div class='vertical-center'>$54<br><br>now</div></div><div class='respDivL'><div class='vertical-center'>(E)</div></div><div class='respDivR'><div class='vertical-center'>(I)</div></div></div>","E","$54<br><br>now","$55<br>in<br>12 weeks","1","54","55","12","THEN"
"html-keyboard-response","51","117603","0.0-5.0-3.15","63f2e107c4d0bc684b99d2c6","bdp_td","Tue Mar 28 2023 10:40:38 GMT-0400 (Eastern Daylight Time)","145252","","null","","","","offerFB","","<div class='trialBorder'><div class='vertical-center'><img style='vertical-align:center; align:center' src=img/fixation3.jpg></div><div class='cl'><div class='vertical-center'><font style='color:orange'>$55<br>in<br>12 weeks</font></div></div><div class='cr'><div class='vertical-center'>$54<br><br>now</div></div><div class='respDivL'><div class='vertical-center'><font style='color:orange'>(E)</font></div></div><div class='respDivR'><div class='vertical-center'>(I)</div></div></div>","null","$54<br><br>now","$55<br>in<br>12 weeks","1","54","55","12",""
"html-keyboard-response","52","118118","0.0-5.0-1.16","63f2e107c4d0bc684b99d2c6","bdp_td","Tue Mar 28 2023 10:40:38 GMT-0400 (Eastern Daylight Time)","145252","","null","","","","FIX","","<div class='trialBorder'><div class='vertical-center'><img style='vertical-align:center; align:center' src=img/fixation3.jpg></div></div>","null","","","","","","",""
"html-keyboard-response","53","119572","0.0-5.0-2.16","63f2e107c4d0bc684b99d2c6","bdp_td","Tue Mar 28 2023 10:40:38 GMT-0400 (Eastern Daylight Time)","145252","","1451","","","","offer","","<div class='trialBorder'><div class='vertical-center'><img style='vertical-align:center; align:center' src=img/fixation3.jpg></div><div class='cl'><div class='vertical-center'>$54<br><br>now</div></div><div class='cr'><div class='vertical-center'>$80<br>in<br>3 weeks</div></div><div class='respDivL'><div class='vertical-center'>(E)</div></div><div class='respDivR'><div class='vertical-center'>(I)</div></div></div>","I","$54<br><br>now","$80<br>in<br>3 weeks","0","54","80","3","THEN"
"html-keyboard-response","54","119837","0.0-5.0-3.16","63f2e107c4d0bc684b99d2c6","bdp_td","Tue Mar 28 2023 10:40:38 GMT-0400 (Eastern Daylight Time)","145252","","null","","","","offerFB","","<div class='trialBorder'><div class='vertical-center'><img style='vertical-align:center; align:center' src=img/fixation3.jpg></div><div class='cl'><div class='vertical-center'>$54<br><br>now</div></div><div class='cr'><div class='vertical-center'><font style='color:orange'>$80<br>in<br>3 weeks</font></div></div><div class='respDivL'><div class='vertical-center'>(E)</div></div><div class='respDivR'><div class='vertical-center'><font style='color:orange'>(I)</font></div></div></div>","null","$54<br><br>now","$80<br>in<br>3 weeks","0","54","80","3",""
"html-keyboard-response","55","120368","0.0-5.0-1.17","63f2e107c4d0bc684b99d2c6","bdp_td","Tue Mar 28 2023 10:40:38 GMT-0400 (Eastern Daylight Time)","145252","","null","","","","FIX","","<div class='trialBorder'><div class='vertical-center'><img style='vertical-align:center; align:center' src=img/fixation3.jpg></div></div>","null","","","","","","",""
"html-keyboard-response","56","122758","0.0-5.0-2.17","63f2e107c4d0bc684b99d2c6","bdp_td","Tue Mar 28 2023 10:40:38 GMT-0400 (Eastern Daylight Time)","145252","","2387","","","","offer","","<div class='trialBorder'><div class='vertical-center'><img style='vertical-align:center; align:center' src=img/fixation3.jpg></div><div class='cl'><div class='vertical-center'>$30<br>in<br>12 weeks</div></div><div class='cr'><div class='vertical-center'>$28<br><br>now</div></div><div class='respDivL'><div class='vertical-center'>(E)</div></div><div class='respDivR'><div class='vertical-center'>(I)</div></div></div>","I","$28<br><br>now","$30<br>in<br>12 weeks","1","28","30","12","NOW"
"html-keyboard-response","57","123024","0.0-5.0-3.17","63f2e107c4d0bc684b99d2c6","bdp_td","Tue Mar 28 2023 10:40:38 GMT-0400 (Eastern Daylight Time)","145252","","null","","","","offerFB","","<div class='trialBorder'><div class='vertical-center'><img style='vertical-align:center; align:center' src=img/fixation3.jpg></div><div class='cl'><div class='vertical-center'>$30<br>in<br>12 weeks</div></div><div class='cr'><div class='vertical-center'><font style='color:orange'>$28<br><br>now</font></div></div><div class='respDivL'><div class='vertical-center'>(E)</div></div><div class='respDivR'><div class='vertical-center'><font style='color:orange'>(I)</font></div></div></div>","null","$28<br><br>now","$30<br>in<br>12 weeks","1","28","30","12",""
"html-keyboard-response","58","123539","0.0-5.0-1.18","63f2e107c4d0bc684b99d2c6","bdp_td","Tue Mar 28 2023 10:40:38 GMT-0400 (Eastern Daylight Time)","145252","","null","","","","FIX","","<div class='trialBorder'><div class='vertical-center'><img style='vertical-align:center; align:center' src=img/fixation3.jpg></div></div>","null","","","","","","",""
"html-keyboard-response","59","124734","0.0-5.0-2.18","63f2e107c4d0bc684b99d2c6","bdp_td","Tue Mar 28 2023 10:40:38 GMT-0400 (Eastern Daylight Time)","145252","","1193","","","","offer","","<div class='trialBorder'><div class='vertical-center'><img style='vertical-align:center; align:center' src=img/fixation3.jpg></div><div class='cl'><div class='vertical-center'>$31<br><br>now</div></div><div class='cr'><div class='vertical-center'>$85<br>in<br>1 week</div></div><div class='respDivL'><div class='vertical-center'>(E)</div></div><div class='respDivR'><div class='vertical-center'>(I)</div></div></div>","I","$31<br><br>now","$85<br>in<br>1 week","0","31","85","1","THEN"
"html-keyboard-response","60","124992","0.0-5.0-3.18","63f2e107c4d0bc684b99d2c6","bdp_td","Tue Mar 28 2023 10:40:38 GMT-0400 (Eastern Daylight Time)","145252","","null","","","","offerFB","","<div class='trialBorder'><div class='vertical-center'><img style='vertical-align:center; align:center' src=img/fixation3.jpg></div><div class='cl'><div class='vertical-center'>$31<br><br>now</div></div><div class='cr'><div class='vertical-center'><font style='color:orange'>$85<br>in<br>1 week</font></div></div><div class='respDivL'><div class='vertical-center'>(E)</div></div><div class='respDivR'><div class='vertical-center'><font style='color:orange'>(I)</font></div></div></div>","null","$31<br><br>now","$85<br>in<br>1 week","0","31","85","1",""
"html-keyboard-response","61","125507","0.0-5.0-1.19","63f2e107c4d0bc684b99d2c6","bdp_td","Tue Mar 28 2023 10:40:38 GMT-0400 (Eastern Daylight Time)","145252","","null","","","","FIX","","<div class='trialBorder'><div class='vertical-center'><img style='vertical-align:center; align:center' src=img/fixation3.jpg></div></div>","null","","","","","","",""
"html-keyboard-response","62","127442","0.0-5.0-2.19","63f2e107c4d0bc684b99d2c6","bdp_td","Tue Mar 28 2023 10:40:38 GMT-0400 (Eastern Daylight Time)","145252","","1933","","","","offer","","<div class='trialBorder'><div class='vertical-center'><img style='vertical-align:center; align:center' src=img/fixation3.jpg></div><div class='cl'><div class='vertical-center'>$60<br>in<br>3 weeks</div></div><div class='cr'><div class='vertical-center'>$25<br><br>now</div></div><div class='respDivL'><div class='vertical-center'>(E)</div></div><div class='respDivR'><div class='vertical-center'>(I)</div></div></div>","E","$25<br><br>now","$60<br>in<br>3 weeks","1","25","60","3","THEN"
"html-keyboard-response","63","127709","0.0-5.0-3.19","63f2e107c4d0bc684b99d2c6","bdp_td","Tue Mar 28 2023 10:40:38 GMT-0400 (Eastern Daylight Time)","145252","","null","","","","offerFB","","<div class='trialBorder'><div class='vertical-center'><img style='vertical-align:center; align:center' src=img/fixation3.jpg></div><div class='cl'><div class='vertical-center'><font style='color:orange'>$60<br>in<br>3 weeks</font></div></div><div class='cr'><div class='vertical-center'>$25<br><br>now</div></div><div class='respDivL'><div class='vertical-center'><font style='color:orange'>(E)</font></div></div><div class='respDivR'><div class='vertical-center'>(I)</div></div></div>","null","$25<br><br>now","$60<br>in<br>3 weeks","1","25","60","3",""
"html-keyboard-response","64","128225","0.0-5.0-1.20","63f2e107c4d0bc684b99d2c6","bdp_td","Tue Mar 28 2023 10:40:38 GMT-0400 (Eastern Daylight Time)","145252","","null","","","","FIX","","<div class='trialBorder'><div class='vertical-center'><img style='vertical-align:center; align:center' src=img/fixation3.jpg></div></div>","null","","","","","","",""
"html-keyboard-response","65","129522","0.0-5.0-2.20","63f2e107c4d0bc684b99d2c6","bdp_td","Tue Mar 28 2023 10:40:38 GMT-0400 (Eastern Daylight Time)","145252","","1295","","","","offer","","<div class='trialBorder'><div class='vertical-center'><img style='vertical-align:center; align:center' src=img/fixation3.jpg></div><div class='cl'><div class='vertical-center'>$85<br>in<br>6 weeks</div></div><div class='cr'><div class='vertical-center'>$69<br><br>now</div></div><div class='respDivL'><div class='vertical-center'>(E)</div></div><div class='respDivR'><div class='vertical-center'>(I)</div></div></div>","I","$69<br><br>now","$85<br>in<br>6 weeks","1","69","85","6","NOW"
"html-keyboard-response","66","129787","0.0-5.0-3.20","63f2e107c4d0bc684b99d2c6","bdp_td","Tue Mar 28 2023 10:40:38 GMT-0400 (Eastern Daylight Time)","145252","","null","","","","offerFB","","<div class='trialBorder'><div class='vertical-center'><img style='vertical-align:center; align:center' src=img/fixation3.jpg></div><div class='cl'><div class='vertical-center'>$85<br>in<br>6 weeks</div></div><div class='cr'><div class='vertical-center'><font style='color:orange'>$69<br><br>now</font></div></div><div class='respDivL'><div class='vertical-center'>(E)</div></div><div class='respDivR'><div class='vertical-center'><font style='color:orange'>(I)</font></div></div></div>","null","$69<br><br>now","$85<br>in<br>6 weeks","1","69","85","6",""
"html-keyboard-response","67","130302","0.0-5.0-1.21","63f2e107c4d0bc684b99d2c6","bdp_td","Tue Mar 28 2023 10:40:38 GMT-0400 (Eastern Daylight Time)","145252","","null","","","","FIX","","<div class='trialBorder'><div class='vertical-center'><img style='vertical-align:center; align:center' src=img/fixation3.jpg></div></div>","null","","","","","","",""
"html-keyboard-response","68","131952","0.0-5.0-2.21","63f2e107c4d0bc684b99d2c6","bdp_td","Tue Mar 28 2023 10:40:38 GMT-0400 (Eastern Daylight Time)","145252","","1648","","","","offer","","<div class='trialBorder'><div class='vertical-center'><img style='vertical-align:center; align:center' src=img/fixation3.jpg></div><div class='cl'><div class='vertical-center'>$25<br>in<br>12 weeks</div></div><div class='cr'><div class='vertical-center'>$22<br><br>now</div></div><div class='respDivL'><div class='vertical-center'>(E)</div></div><div class='respDivR'><div class='vertical-center'>(I)</div></div></div>","I","$22<br><br>now","$25<br>in<br>12 weeks","1","22","25","12","NOW"
"html-keyboard-response","69","132208","0.0-5.0-3.21","63f2e107c4d0bc684b99d2c6","bdp_td","Tue Mar 28 2023 10:40:38 GMT-0400 (Eastern Daylight Time)","145252","","null","","","","offerFB","","<div class='trialBorder'><div class='vertical-center'><img style='vertical-align:center; align:center' src=img/fixation3.jpg></div><div class='cl'><div class='vertical-center'>$25<br>in<br>12 weeks</div></div><div class='cr'><div class='vertical-center'><font style='color:orange'>$22<br><br>now</font></div></div><div class='respDivL'><div class='vertical-center'>(E)</div></div><div class='respDivR'><div class='vertical-center'><font style='color:orange'>(I)</font></div></div></div>","null","$22<br><br>now","$25<br>in<br>12 weeks","1","22","25","12",""
"html-keyboard-response","70","132723","0.0-5.0-1.22","63f2e107c4d0bc684b99d2c6","bdp_td","Tue Mar 28 2023 10:40:38 GMT-0400 (Eastern Daylight Time)","145252","","null","","","","FIX","","<div class='trialBorder'><div class='vertical-center'><img style='vertical-align:center; align:center' src=img/fixation3.jpg></div></div>","null","","","","","","",""
"html-keyboard-response","71","134128","0.0-5.0-2.22","63f2e107c4d0bc684b99d2c6","bdp_td","Tue Mar 28 2023 10:40:38 GMT-0400 (Eastern Daylight Time)","145252","","1403","","","","offer","","<div class='trialBorder'><div class='vertical-center'><img style='vertical-align:center; align:center' src=img/fixation3.jpg></div><div class='cl'><div class='vertical-center'>$78<br><br>now</div></div><div class='cr'><div class='vertical-center'>$80<br>in<br>12 weeks</div></div><div class='respDivL'><div class='vertical-center'>(E)</div></div><div class='respDivR'><div class='vertical-center'>(I)</div></div></div>","E","$78<br><br>now","$80<br>in<br>12 weeks","0","78","80","12","NOW"
"html-keyboard-response","72","134395","0.0-5.0-3.22","63f2e107c4d0bc684b99d2c6","bdp_td","Tue Mar 28 2023 10:40:38 GMT-0400 (Eastern Daylight Time)","145252","","null","","","","offerFB","","<div class='trialBorder'><div class='vertical-center'><img style='vertical-align:center; align:center' src=img/fixation3.jpg></div><div class='cl'><div class='vertical-center'><font style='color:orange'>$78<br><br>now</font></div></div><div class='cr'><div class='vertical-center'>$80<br>in<br>12 weeks</div></div><div class='respDivL'><div class='vertical-center'><font style='color:orange'>(E)</font></div></div><div class='respDivR'><div class='vertical-center'>(I)</div></div></div>","null","$78<br><br>now","$80<br>in<br>12 weeks","0","78","80","12",""
"html-keyboard-response","73","134911","0.0-5.0-1.23","63f2e107c4d0bc684b99d2c6","bdp_td","Tue Mar 28 2023 10:40:38 GMT-0400 (Eastern Daylight Time)","145252","","null","","","","FIX","","<div class='trialBorder'><div class='vertical-center'><img style='vertical-align:center; align:center' src=img/fixation3.jpg></div></div>","null","","","","","","",""
"html-keyboard-response","74","136571","0.0-5.0-2.23","63f2e107c4d0bc684b99d2c6","bdp_td","Tue Mar 28 2023 10:40:38 GMT-0400 (Eastern Daylight Time)","145252","","1659","","","","offer","","<div class='trialBorder'><div class='vertical-center'><img style='vertical-align:center; align:center' src=img/fixation3.jpg></div><div class='cl'><div class='vertical-center'>$85<br>in<br>12 weeks</div></div><div class='cr'><div class='vertical-center'>$80<br><br>now</div></div><div class='respDivL'><div class='vertical-center'>(E)</div></div><div class='respDivR'><div class='vertical-center'>(I)</div></div></div>","I","$80<br><br>now","$85<br>in<br>12 weeks","1","80","85","12","NOW"
"html-keyboard-response","75","136832","0.0-5.0-3.23","63f2e107c4d0bc684b99d2c6","bdp_td","Tue Mar 28 2023 10:40:38 GMT-0400 (Eastern Daylight Time)","145252","","null","","","","offerFB","","<div class='trialBorder'><div class='vertical-center'><img style='vertical-align:center; align:center' src=img/fixation3.jpg></div><div class='cl'><div class='vertical-center'>$85<br>in<br>12 weeks</div></div><div class='cr'><div class='vertical-center'><font style='color:orange'>$80<br><br>now</font></div></div><div class='respDivL'><div class='vertical-center'>(E)</div></div><div class='respDivR'><div class='vertical-center'><font style='color:orange'>(I)</font></div></div></div>","null","$80<br><br>now","$85<br>in<br>12 weeks","1","80","85","12",""
"html-keyboard-response","76","137348","0.0-5.0-1.24","63f2e107c4d0bc684b99d2c6","bdp_td","Tue Mar 28 2023 10:40:38 GMT-0400 (Eastern Daylight Time)","145252","","null","","","","FIX","","<div class='trialBorder'><div class='vertical-center'><img style='vertical-align:center; align:center' src=img/fixation3.jpg></div></div>","null","","","","","","",""
"html-keyboard-response","77","138779","0.0-5.0-2.24","63f2e107c4d0bc684b99d2c6","bdp_td","Tue Mar 28 2023 10:40:38 GMT-0400 (Eastern Daylight Time)","145252","","1430","","","","offer","","<div class='trialBorder'><div class='vertical-center'><img style='vertical-align:center; align:center' src=img/fixation3.jpg></div><div class='cl'><div class='vertical-center'>$20<br><br>now</div></div><div class='cr'><div class='vertical-center'>$55<br>in<br>1 week</div></div><div class='respDivL'><div class='vertical-center'>(E)</div></div><div class='respDivR'><div class='vertical-center'>(I)</div></div></div>","I","$20<br><br>now","$55<br>in<br>1 week","0","20","55","1","THEN"
"html-keyboard-response","78","139034","0.0-5.0-3.24","63f2e107c4d0bc684b99d2c6","bdp_td","Tue Mar 28 2023 10:40:38 GMT-0400 (Eastern Daylight Time)","145252","","null","","","","offerFB","","<div class='trialBorder'><div class='vertical-center'><img style='vertical-align:center; align:center' src=img/fixation3.jpg></div><div class='cl'><div class='vertical-center'>$20<br><br>now</div></div><div class='cr'><div class='vertical-center'><font style='color:orange'>$55<br>in<br>1 week</font></div></div><div class='respDivL'><div class='vertical-center'>(E)</div></div><div class='respDivR'><div class='vertical-center'><font style='color:orange'>(I)</font></div></div></div>","null","$20<br><br>now","$55<br>in<br>1 week","0","20","55","1",""
"html-keyboard-response","79","139550","0.0-5.0-1.25","63f2e107c4d0bc684b99d2c6","bdp_td","Tue Mar 28 2023 10:40:38 GMT-0400 (Eastern Daylight Time)","145252","","null","","","","FIX","","<div class='trialBorder'><div class='vertical-center'><img style='vertical-align:center; align:center' src=img/fixation3.jpg></div></div>","null","","","","","","",""
"html-keyboard-response","80","140753","0.0-5.0-2.25","63f2e107c4d0bc684b99d2c6","bdp_td","Tue Mar 28 2023 10:40:38 GMT-0400 (Eastern Daylight Time)","145252","","1202","","","","offer","","<div class='trialBorder'><div class='vertical-center'><img style='vertical-align:center; align:center' src=img/fixation3.jpg></div><div class='cl'><div class='vertical-center'>$41<br><br>now</div></div><div class='cr'><div class='vertical-center'>$75<br>in<br>3 weeks</div></div><div class='respDivL'><div class='vertical-center'>(E)</div></div><div class='respDivR'><div class='vertical-center'>(I)</div></div></div>","I","$41<br><br>now","$75<br>in<br>3 weeks","0","41","75","3","THEN"
"html-keyboard-response","81","141019","0.0-5.0-3.25","63f2e107c4d0bc684b99d2c6","bdp_td","Tue Mar 28 2023 10:40:38 GMT-0400 (Eastern Daylight Time)","145252","","null","","","","offerFB","","<div class='trialBorder'><div class='vertical-center'><img style='vertical-align:center; align:center' src=img/fixation3.jpg></div><div class='cl'><div class='vertical-center'>$41<br><br>now</div></div><div class='cr'><div class='vertical-center'><font style='color:orange'>$75<br>in<br>3 weeks</font></div></div><div class='respDivL'><div class='vertical-center'>(E)</div></div><div class='respDivR'><div class='vertical-center'><font style='color:orange'>(I)</font></div></div></div>","null","$41<br><br>now","$75<br>in<br>3 weeks","0","41","75","3",""
"html-keyboard-response","82","141534","0.0-5.0-1.26","63f2e107c4d0bc684b99d2c6","bdp_td","Tue Mar 28 2023 10:40:38 GMT-0400 (Eastern Daylight Time)","145252","","null","","","","FIX","","<div class='trialBorder'><div class='vertical-center'><img style='vertical-align:center; align:center' src=img/fixation3.jpg></div></div>","null","","","","","","",""
"html-keyboard-response","83","143975","0.0-5.0-2.26","63f2e107c4d0bc684b99d2c6","bdp_td","Tue Mar 28 2023 10:40:38 GMT-0400 (Eastern Daylight Time)","145252","","2441","","","","offer","","<div class='trialBorder'><div class='vertical-center'><img style='vertical-align:center; align:center' src=img/fixation3.jpg></div><div class='cl'><div class='vertical-center'>$55<br>in<br>6 weeks</div></div><div class='cr'><div class='vertical-center'>$40<br><br>now</div></div><div class='respDivL'><div class='vertical-center'>(E)</div></div><div class='respDivR'><div class='vertical-center'>(I)</div></div></div>","I","$40<br><br>now","$55<br>in<br>6 weeks","1","40","55","6","NOW"
"html-keyboard-response","84","144236","0.0-5.0-3.26","63f2e107c4d0bc684b99d2c6","bdp_td","Tue Mar 28 2023 10:40:38 GMT-0400 (Eastern Daylight Time)","145252","","null","","","","offerFB","","<div class='trialBorder'><div class='vertical-center'><img style='vertical-align:center; align:center' src=img/fixation3.jpg></div><div class='cl'><div class='vertical-center'>$55<br>in<br>6 weeks</div></div><div class='cr'><div class='vertical-center'><font style='color:orange'>$40<br><br>now</font></div></div><div class='respDivL'><div class='vertical-center'>(E)</div></div><div class='respDivR'><div class='vertical-center'><font style='color:orange'>(I)</font></div></div></div>","null","$40<br><br>now","$55<br>in<br>6 weeks","1","40","55","6",""
"","","","","63f2e107c4d0bc684b99d2c6","bdp_td","Tue Mar 28 2023 10:40:38 GMT-0400 (Eastern Daylight Time)","145252","","","fullscreenexit","85","144297","fullscreenexit","","","","","","","","","",""
"fullscreen","85","145252","0.0-6.0","63f2e107c4d0bc684b99d2c6","bdp_td","Tue Mar 28 2023 10:40:38 GMT-0400 (Eastern Daylight Time)","145252","","","","","","","true","","","","","","","","",""
"html-keyboard-response","86","145767","0.0-7.0","","","","","","null","","","","","","","null","","","","","","",""
