"trial_type","trial_index","time_elapsed","internal_node_id","subject_id","task","startTime","totalTime","view_history","rt","event","trial","time","trialtype","success","stimulus","key_press","nowOffer","thenOffer","thenLeft","nowAmt","thenAmt","thenWeeks","chosen"
"pavlovia","0","5","0.0-0.0","58016c9f551314000145af58","bdp_td","Fri Mar 24 2023 19:37:35 GMT-0400 (Eastern Daylight Time)","127132","","","","","","","","","","","","","","","",""
"instructions","1","3027","0.0-1.0","58016c9f551314000145af58","bdp_td","Fri Mar 24 2023 19:37:35 GMT-0400 (Eastern Daylight Time)","127132","[{""page_index"":0,""viewing_time"":3020}]","3021","","","","","","","","","","","","","",""
"","","","","58016c9f551314000145af58","bdp_td","Fri Mar 24 2023 19:37:35 GMT-0400 (Eastern Daylight Time)","127132","","","fullscreenenter","2","5740","fullscreenenter","","","","","","","","","",""
"fullscreen","2","6694","0.0-2.0","58016c9f551314000145af58","bdp_td","Fri Mar 24 2023 19:37:35 GMT-0400 (Eastern Daylight Time)","127132","","","","","","","true","","","","","","","","",""
"instructions","3","38962","0.0-4.0","58016c9f551314000145af58","bdp_td","Fri Mar 24 2023 19:37:35 GMT-0400 (Eastern Daylight Time)","127132","[{""page_index"":0,""viewing_time"":9182},{""page_index"":1,""viewing_time"":17880},{""page_index"":2,""viewing_time"":5205}]","32267","","","","","","","","","","","","","",""
"html-keyboard-response","4","39467","0.0-5.0-1.0","58016c9f551314000145af58","bdp_td","Fri Mar 24 2023 19:37:35 GMT-0400 (Eastern Daylight Time)","127132","","null","","","","FIX","","<div class='trialBorder'><div class='vertical-center'><img style='vertical-align:center; align:center' src=img/fixation3.jpg></div></div>","null","","","","","","",""
"html-keyboard-response","5","44061","0.0-5.0-2.0","58016c9f551314000145af58","bdp_td","Fri Mar 24 2023 19:37:35 GMT-0400 (Eastern Daylight Time)","127132","","4592","","","","offer","","<div class='trialBorder'><div class='vertical-center'><img style='vertical-align:center; align:center' src=img/fixation3.jpg></div><div class='cl'><div class='vertical-center'>$25<br>in<br>3 weeks</div></div><div class='cr'><div class='vertical-center'>$14<br><br>now</div></div><div class='respDivL'><div class='vertical-center'>(E)</div></div><div class='respDivR'><div class='vertical-center'>(I)</div></div></div>","I","$14<br><br>now","$25<br>in<br>3 weeks","1","14","25","3","NOW"
"html-keyboard-response","6","44322","0.0-5.0-3.0","58016c9f551314000145af58","bdp_td","Fri Mar 24 2023 19:37:35 GMT-0400 (Eastern Daylight Time)","127132","","null","","","","offerFB","","<div class='trialBorder'><div class='vertical-center'><img style='vertical-align:center; align:center' src=img/fixation3.jpg></div><div class='cl'><div class='vertical-center'>$25<br>in<br>3 weeks</div></div><div class='cr'><div class='vertical-center'><font style='color:orange'>$14<br><br>now</font></div></div><div class='respDivL'><div class='vertical-center'>(E)</div></div><div class='respDivR'><div class='vertical-center'><font style='color:orange'>(I)</font></div></div></div>","null","$14<br><br>now","$25<br>in<br>3 weeks","1","14","25","3",""
"html-keyboard-response","7","44826","0.0-5.0-1.1","58016c9f551314000145af58","bdp_td","Fri Mar 24 2023 19:37:35 GMT-0400 (Eastern Daylight Time)","127132","","null","","","","FIX","","<div class='trialBorder'><div class='vertical-center'><img style='vertical-align:center; align:center' src=img/fixation3.jpg></div></div>","null","","","","","","",""
"html-keyboard-response","8","48186","0.0-5.0-2.1","58016c9f551314000145af58","bdp_td","Fri Mar 24 2023 19:37:35 GMT-0400 (Eastern Daylight Time)","127132","","3358","","","","offer","","<div class='trialBorder'><div class='vertical-center'><img style='vertical-align:center; align:center' src=img/fixation3.jpg></div><div class='cl'><div class='vertical-center'>$60<br>in<br>12 weeks</div></div><div class='cr'><div class='vertical-center'>$54<br><br>now</div></div><div class='respDivL'><div class='vertical-center'>(E)</div></div><div class='respDivR'><div class='vertical-center'>(I)</div></div></div>","I","$54<br><br>now","$60<br>in<br>12 weeks","1","54","60","12","NOW"
"html-keyboard-response","9","48442","0.0-5.0-3.1","58016c9f551314000145af58","bdp_td","Fri Mar 24 2023 19:37:35 GMT-0400 (Eastern Daylight Time)","127132","","null","","","","offerFB","","<div class='trialBorder'><div class='vertical-center'><img style='vertical-align:center; align:center' src=img/fixation3.jpg></div><div class='cl'><div class='vertical-center'>$60<br>in<br>12 weeks</div></div><div class='cr'><div class='vertical-center'><font style='color:orange'>$54<br><br>now</font></div></div><div class='respDivL'><div class='vertical-center'>(E)</div></div><div class='respDivR'><div class='vertical-center'><font style='color:orange'>(I)</font></div></div></div>","null","$54<br><br>now","$60<br>in<br>12 weeks","1","54","60","12",""
"html-keyboard-response","10","48946","0.0-5.0-1.2","58016c9f551314000145af58","bdp_td","Fri Mar 24 2023 19:37:35 GMT-0400 (Eastern Daylight Time)","127132","","null","","","","FIX","","<div class='trialBorder'><div class='vertical-center'><img style='vertical-align:center; align:center' src=img/fixation3.jpg></div></div>","null","","","","","","",""
"html-keyboard-response","11","51698","0.0-5.0-2.2","58016c9f551314000145af58","bdp_td","Fri Mar 24 2023 19:37:35 GMT-0400 (Eastern Daylight Time)","127132","","2750","","","","offer","","<div class='trialBorder'><div class='vertical-center'><img style='vertical-align:center; align:center' src=img/fixation3.jpg></div><div class='cl'><div class='vertical-center'>$55<br><br>now</div></div><div class='cr'><div class='vertical-center'>$75<br>in<br>6 weeks</div></div><div class='respDivL'><div class='vertical-center'>(E)</div></div><div class='respDivR'><div class='vertical-center'>(I)</div></div></div>","E","$55<br><br>now","$75<br>in<br>6 weeks","0","55","75","6","NOW"
"html-keyboard-response","12","51954","0.0-5.0-3.2","58016c9f551314000145af58","bdp_td","Fri Mar 24 2023 19:37:35 GMT-0400 (Eastern Daylight Time)","127132","","null","","","","offerFB","","<div class='trialBorder'><div class='vertical-center'><img style='vertical-align:center; align:center' src=img/fixation3.jpg></div><div class='cl'><div class='vertical-center'><font style='color:orange'>$55<br><br>now</font></div></div><div class='cr'><div class='vertical-center'>$75<br>in<br>6 weeks</div></div><div class='respDivL'><div class='vertical-center'><font style='color:orange'>(E)</font></div></div><div class='respDivR'><div class='vertical-center'>(I)</div></div></div>","null","$55<br><br>now","$75<br>in<br>6 weeks","0","55","75","6",""
"html-keyboard-response","13","52458","0.0-5.0-1.3","58016c9f551314000145af58","bdp_td","Fri Mar 24 2023 19:37:35 GMT-0400 (Eastern Daylight Time)","127132","","null","","","","FIX","","<div class='trialBorder'><div class='vertical-center'><img style='vertical-align:center; align:center' src=img/fixation3.jpg></div></div>","null","","","","","","",""
"html-keyboard-response","14","54525","0.0-5.0-2.3","58016c9f551314000145af58","bdp_td","Fri Mar 24 2023 19:37:35 GMT-0400 (Eastern Daylight Time)","127132","","2066","","","","offer","","<div class='trialBorder'><div class='vertical-center'><img style='vertical-align:center; align:center' src=img/fixation3.jpg></div><div class='cl'><div class='vertical-center'>$25<br>in<br>6 weeks</div></div><div class='cr'><div class='vertical-center'>$19<br><br>now</div></div><div class='respDivL'><div class='vertical-center'>(E)</div></div><div class='respDivR'><div class='vertical-center'>(I)</div></div></div>","I","$19<br><br>now","$25<br>in<br>6 weeks","1","19","25","6","NOW"
"html-keyboard-response","15","54778","0.0-5.0-3.3","58016c9f551314000145af58","bdp_td","Fri Mar 24 2023 19:37:35 GMT-0400 (Eastern Daylight Time)","127132","","null","","","","offerFB","","<div class='trialBorder'><div class='vertical-center'><img style='vertical-align:center; align:center' src=img/fixation3.jpg></div><div class='cl'><div class='vertical-center'>$25<br>in<br>6 weeks</div></div><div class='cr'><div class='vertical-center'><font style='color:orange'>$19<br><br>now</font></div></div><div class='respDivL'><div class='vertical-center'>(E)</div></div><div class='respDivR'><div class='vertical-center'><font style='color:orange'>(I)</font></div></div></div>","null","$19<br><br>now","$25<br>in<br>6 weeks","1","19","25","6",""
"html-keyboard-response","16","55282","0.0-5.0-1.4","58016c9f551314000145af58","bdp_td","Fri Mar 24 2023 19:37:35 GMT-0400 (Eastern Daylight Time)","127132","","null","","","","FIX","","<div class='trialBorder'><div class='vertical-center'><img style='vertical-align:center; align:center' src=img/fixation3.jpg></div></div>","null","","","","","","",""
"html-keyboard-response","17","57113","0.0-5.0-2.4","58016c9f551314000145af58","bdp_td","Fri Mar 24 2023 19:37:35 GMT-0400 (Eastern Daylight Time)","127132","","1830","","","","offer","","<div class='trialBorder'><div class='vertical-center'><img style='vertical-align:center; align:center' src=img/fixation3.jpg></div><div class='cl'><div class='vertical-center'>$85<br>in<br>1 week</div></div><div class='cr'><div class='vertical-center'>$31<br><br>now</div></div><div class='respDivL'><div class='vertical-center'>(E)</div></div><div class='respDivR'><div class='vertical-center'>(I)</div></div></div>","E","$31<br><br>now","$85<br>in<br>1 week","1","31","85","1","THEN"
"html-keyboard-response","18","57370","0.0-5.0-3.4","58016c9f551314000145af58","bdp_td","Fri Mar 24 2023 19:37:35 GMT-0400 (Eastern Daylight Time)","127132","","null","","","","offerFB","","<div class='trialBorder'><div class='vertical-center'><img style='vertical-align:center; align:center' src=img/fixation3.jpg></div><div class='cl'><div class='vertical-center'><font style='color:orange'>$85<br>in<br>1 week</font></div></div><div class='cr'><div class='vertical-center'>$31<br><br>now</div></div><div class='respDivL'><div class='vertical-center'><font style='color:orange'>(E)</font></div></div><div class='respDivR'><div class='vertical-center'>(I)</div></div></div>","null","$31<br><br>now","$85<br>in<br>1 week","1","31","85","1",""
"html-keyboard-response","19","57874","0.0-5.0-1.5","58016c9f551314000145af58","bdp_td","Fri Mar 24 2023 19:37:35 GMT-0400 (Eastern Daylight Time)","127132","","null","","","","FIX","","<div class='trialBorder'><div class='vertical-center'><img style='vertical-align:center; align:center' src=img/fixation3.jpg></div></div>","null","","","","","","",""
"html-keyboard-response","20","59873","0.0-5.0-2.5","58016c9f551314000145af58","bdp_td","Fri Mar 24 2023 19:37:35 GMT-0400 (Eastern Daylight Time)","127132","","1998","","","","offer","","<div class='trialBorder'><div class='vertical-center'><img style='vertical-align:center; align:center' src=img/fixation3.jpg></div><div class='cl'><div class='vertical-center'>$25<br><br>now</div></div><div class='cr'><div class='vertical-center'>$30<br>in<br>6 weeks</div></div><div class='respDivL'><div class='vertical-center'>(E)</div></div><div class='respDivR'><div class='vertical-center'>(I)</div></div></div>","E","$25<br><br>now","$30<br>in<br>6 weeks","0","25","30","6","NOW"
"html-keyboard-response","21","60130","0.0-5.0-3.5","58016c9f551314000145af58","bdp_td","Fri Mar 24 2023 19:37:35 GMT-0400 (Eastern Daylight Time)","127132","","null","","","","offerFB","","<div class='trialBorder'><div class='vertical-center'><img style='vertical-align:center; align:center' src=img/fixation3.jpg></div><div class='cl'><div class='vertical-center'><font style='color:orange'>$25<br><br>now</font></div></div><div class='cr'><div class='vertical-center'>$30<br>in<br>6 weeks</div></div><div class='respDivL'><div class='vertical-center'><font style='color:orange'>(E)</font></div></div><div class='respDivR'><div class='vertical-center'>(I)</div></div></div>","null","$25<br><br>now","$30<br>in<br>6 weeks","0","25","30","6",""
"html-keyboard-response","22","60634","0.0-5.0-1.6","58016c9f551314000145af58","bdp_td","Fri Mar 24 2023 19:37:35 GMT-0400 (Eastern Daylight Time)","127132","","null","","","","FIX","","<div class='trialBorder'><div class='vertical-center'><img style='vertical-align:center; align:center' src=img/fixation3.jpg></div></div>","null","","","","","","",""
"html-keyboard-response","23","63745","0.0-5.0-2.6","58016c9f551314000145af58","bdp_td","Fri Mar 24 2023 19:37:35 GMT-0400 (Eastern Daylight Time)","127132","","3110","","","","offer","","<div class='trialBorder'><div class='vertical-center'><img style='vertical-align:center; align:center' src=img/fixation3.jpg></div><div class='cl'><div class='vertical-center'>$25<br><br>now</div></div><div class='cr'><div class='vertical-center'>$60<br>in<br>3 weeks</div></div><div class='respDivL'><div class='vertical-center'>(E)</div></div><div class='respDivR'><div class='vertical-center'>(I)</div></div></div>","E","$25<br><br>now","$60<br>in<br>3 weeks","0","25","60","3","NOW"
"html-keyboard-response","24","64003","0.0-5.0-3.6","58016c9f551314000145af58","bdp_td","Fri Mar 24 2023 19:37:35 GMT-0400 (Eastern Daylight Time)","127132","","null","","","","offerFB","","<div class='trialBorder'><div class='vertical-center'><img style='vertical-align:center; align:center' src=img/fixation3.jpg></div><div class='cl'><div class='vertical-center'><font style='color:orange'>$25<br><br>now</font></div></div><div class='cr'><div class='vertical-center'>$60<br>in<br>3 weeks</div></div><div class='respDivL'><div class='vertical-center'><font style='color:orange'>(E)</font></div></div><div class='respDivR'><div class='vertical-center'>(I)</div></div></div>","null","$25<br><br>now","$60<br>in<br>3 weeks","0","25","60","3",""
"html-keyboard-response","25","64507","0.0-5.0-1.7","58016c9f551314000145af58","bdp_td","Fri Mar 24 2023 19:37:35 GMT-0400 (Eastern Daylight Time)","127132","","null","","","","FIX","","<div class='trialBorder'><div class='vertical-center'><img style='vertical-align:center; align:center' src=img/fixation3.jpg></div></div>","null","","","","","","",""
"html-keyboard-response","26","68093","0.0-5.0-2.7","58016c9f551314000145af58","bdp_td","Fri Mar 24 2023 19:37:35 GMT-0400 (Eastern Daylight Time)","127132","","3585","","","","offer","","<div class='trialBorder'><div class='vertical-center'><img style='vertical-align:center; align:center' src=img/fixation3.jpg></div><div class='cl'><div class='vertical-center'>$15<br><br>now</div></div><div class='cr'><div class='vertical-center'>$35<br>in<br>2 weeks</div></div><div class='respDivL'><div class='vertical-center'>(E)</div></div><div class='respDivR'><div class='vertical-center'>(I)</div></div></div>","I","$15<br><br>now","$35<br>in<br>2 weeks","0","15","35","2","THEN"
"html-keyboard-response","27","68347","0.0-5.0-3.7","58016c9f551314000145af58","bdp_td","Fri Mar 24 2023 19:37:35 GMT-0400 (Eastern Daylight Time)","127132","","null","","","","offerFB","","<div class='trialBorder'><div class='vertical-center'><img style='vertical-align:center; align:center' src=img/fixation3.jpg></div><div class='cl'><div class='vertical-center'>$15<br><br>now</div></div><div class='cr'><div class='vertical-center'><font style='color:orange'>$35<br>in<br>2 weeks</font></div></div><div class='respDivL'><div class='vertical-center'>(E)</div></div><div class='respDivR'><div class='vertical-center'><font style='color:orange'>(I)</font></div></div></div>","null","$15<br><br>now","$35<br>in<br>2 weeks","0","15","35","2",""
"html-keyboard-response","28","68851","0.0-5.0-1.8","58016c9f551314000145af58","bdp_td","Fri Mar 24 2023 19:37:35 GMT-0400 (Eastern Daylight Time)","127132","","null","","","","FIX","","<div class='trialBorder'><div class='vertical-center'><img style='vertical-align:center; align:center' src=img/fixation3.jpg></div></div>","null","","","","","","",""
"html-keyboard-response","29","71145","0.0-5.0-2.8","58016c9f551314000145af58","bdp_td","Fri Mar 24 2023 19:37:35 GMT-0400 (Eastern Daylight Time)","127132","","2293","","","","offer","","<div class='trialBorder'><div class='vertical-center'><img style='vertical-align:center; align:center' src=img/fixation3.jpg></div><div class='cl'><div class='vertical-center'>$50<br>in<br>12 weeks</div></div><div class='cr'><div class='vertical-center'>$47<br><br>now</div></div><div class='respDivL'><div class='vertical-center'>(E)</div></div><div class='respDivR'><div class='vertical-center'>(I)</div></div></div>","I","$47<br><br>now","$50<br>in<br>12 weeks","1","47","50","12","NOW"
"html-keyboard-response","30","71403","0.0-5.0-3.8","58016c9f551314000145af58","bdp_td","Fri Mar 24 2023 19:37:35 GMT-0400 (Eastern Daylight Time)","127132","","null","","","","offerFB","","<div class='trialBorder'><div class='vertical-center'><img style='vertical-align:center; align:center' src=img/fixation3.jpg></div><div class='cl'><div class='vertical-center'>$50<br>in<br>12 weeks</div></div><div class='cr'><div class='vertical-center'><font style='color:orange'>$47<br><br>now</font></div></div><div class='respDivL'><div class='vertical-center'>(E)</div></div><div class='respDivR'><div class='vertical-center'><font style='color:orange'>(I)</font></div></div></div>","null","$47<br><br>now","$50<br>in<br>12 weeks","1","47","50","12",""
"html-keyboard-response","31","71907","0.0-5.0-1.9","58016c9f551314000145af58","bdp_td","Fri Mar 24 2023 19:37:35 GMT-0400 (Eastern Daylight Time)","127132","","null","","","","FIX","","<div class='trialBorder'><div class='vertical-center'><img style='vertical-align:center; align:center' src=img/fixation3.jpg></div></div>","null","","","","","","",""
"html-keyboard-response","32","73873","0.0-5.0-2.9","58016c9f551314000145af58","bdp_td","Fri Mar 24 2023 19:37:35 GMT-0400 (Eastern Daylight Time)","127132","","1966","","","","offer","","<div class='trialBorder'><div class='vertical-center'><img style='vertical-align:center; align:center' src=img/fixation3.jpg></div><div class='cl'><div class='vertical-center'>$34<br><br>now</div></div><div class='cr'><div class='vertical-center'>$35<br>in<br>12 weeks</div></div><div class='respDivL'><div class='vertical-center'>(E)</div></div><div class='respDivR'><div class='vertical-center'>(I)</div></div></div>","E","$34<br><br>now","$35<br>in<br>12 weeks","0","34","35","12","NOW"
"html-keyboard-response","33","74131","0.0-5.0-3.9","58016c9f551314000145af58","bdp_td","Fri Mar 24 2023 19:37:35 GMT-0400 (Eastern Daylight Time)","127132","","null","","","","offerFB","","<div class='trialBorder'><div class='vertical-center'><img style='vertical-align:center; align:center' src=img/fixation3.jpg></div><div class='cl'><div class='vertical-center'><font style='color:orange'>$34<br><br>now</font></div></div><div class='cr'><div class='vertical-center'>$35<br>in<br>12 weeks</div></div><div class='respDivL'><div class='vertical-center'><font style='color:orange'>(E)</font></div></div><div class='respDivR'><div class='vertical-center'>(I)</div></div></div>","null","$34<br><br>now","$35<br>in<br>12 weeks","0","34","35","12",""
"html-keyboard-response","34","74635","0.0-5.0-1.10","58016c9f551314000145af58","bdp_td","Fri Mar 24 2023 19:37:35 GMT-0400 (Eastern Daylight Time)","127132","","null","","","","FIX","","<div class='trialBorder'><div class='vertical-center'><img style='vertical-align:center; align:center' src=img/fixation3.jpg></div></div>","null","","","","","","",""
"html-keyboard-response","35","76761","0.0-5.0-2.10","58016c9f551314000145af58","bdp_td","Fri Mar 24 2023 19:37:35 GMT-0400 (Eastern Daylight Time)","127132","","2125","","","","offer","","<div class='trialBorder'><div class='vertical-center'><img style='vertical-align:center; align:center' src=img/fixation3.jpg></div><div class='cl'><div class='vertical-center'>$55<br>in<br>1 week</div></div><div class='cr'><div class='vertical-center'>$20<br><br>now</div></div><div class='respDivL'><div class='vertical-center'>(E)</div></div><div class='respDivR'><div class='vertical-center'>(I)</div></div></div>","E","$20<br><br>now","$55<br>in<br>1 week","1","20","55","1","THEN"
"html-keyboard-response","36","77019","0.0-5.0-3.10","58016c9f551314000145af58","bdp_td","Fri Mar 24 2023 19:37:35 GMT-0400 (Eastern Daylight Time)","127132","","null","","","","offerFB","","<div class='trialBorder'><div class='vertical-center'><img style='vertical-align:center; align:center' src=img/fixation3.jpg></div><div class='cl'><div class='vertical-center'><font style='color:orange'>$55<br>in<br>1 week</font></div></div><div class='cr'><div class='vertical-center'>$20<br><br>now</div></div><div class='respDivL'><div class='vertical-center'><font style='color:orange'>(E)</font></div></div><div class='respDivR'><div class='vertical-center'>(I)</div></div></div>","null","$20<br><br>now","$55<br>in<br>1 week","1","20","55","1",""
"html-keyboard-response","37","77522","0.0-5.0-1.11","58016c9f551314000145af58","bdp_td","Fri Mar 24 2023 19:37:35 GMT-0400 (Eastern Daylight Time)","127132","","null","","","","FIX","","<div class='trialBorder'><div class='vertical-center'><img style='vertical-align:center; align:center' src=img/fixation3.jpg></div></div>","null","","","","","","",""
"html-keyboard-response","38","79516","0.0-5.0-2.11","58016c9f551314000145af58","bdp_td","Fri Mar 24 2023 19:37:35 GMT-0400 (Eastern Daylight Time)","127132","","1993","","","","offer","","<div class='trialBorder'><div class='vertical-center'><img style='vertical-align:center; align:center' src=img/fixation3.jpg></div><div class='cl'><div class='vertical-center'>$27<br><br>now</div></div><div class='cr'><div class='vertical-center'>$50<br>in<br>3 weeks</div></div><div class='respDivL'><div class='vertical-center'>(E)</div></div><div class='respDivR'><div class='vertical-center'>(I)</div></div></div>","E","$27<br><br>now","$50<br>in<br>3 weeks","0","27","50","3","NOW"
"html-keyboard-response","39","79770","0.0-5.0-3.11","58016c9f551314000145af58","bdp_td","Fri Mar 24 2023 19:37:35 GMT-0400 (Eastern Daylight Time)","127132","","null","","","","offerFB","","<div class='trialBorder'><div class='vertical-center'><img style='vertical-align:center; align:center' src=img/fixation3.jpg></div><div class='cl'><div class='vertical-center'><font style='color:orange'>$27<br><br>now</font></div></div><div class='cr'><div class='vertical-center'>$50<br>in<br>3 weeks</div></div><div class='respDivL'><div class='vertical-center'><font style='color:orange'>(E)</font></div></div><div class='respDivR'><div class='vertical-center'>(I)</div></div></div>","null","$27<br><br>now","$50<br>in<br>3 weeks","0","27","50","3",""
"html-keyboard-response","40","80274","0.0-5.0-1.12","58016c9f551314000145af58","bdp_td","Fri Mar 24 2023 19:37:35 GMT-0400 (Eastern Daylight Time)","127132","","null","","","","FIX","","<div class='trialBorder'><div class='vertical-center'><img style='vertical-align:center; align:center' src=img/fixation3.jpg></div></div>","null","","","","","","",""
"html-keyboard-response","41","82657","0.0-5.0-2.12","58016c9f551314000145af58","bdp_td","Fri Mar 24 2023 19:37:35 GMT-0400 (Eastern Daylight Time)","127132","","2381","","","","offer","","<div class='trialBorder'><div class='vertical-center'><img style='vertical-align:center; align:center' src=img/fixation3.jpg></div><div class='cl'><div class='vertical-center'>$80<br>in<br>2 weeks</div></div><div class='cr'><div class='vertical-center'>$33<br><br>now</div></div><div class='respDivL'><div class='vertical-center'>(E)</div></div><div class='respDivR'><div class='vertical-center'>(I)</div></div></div>","E","$33<br><br>now","$80<br>in<br>2 weeks","1","33","80","2","THEN"
"html-keyboard-response","42","82914","0.0-5.0-3.12","58016c9f551314000145af58","bdp_td","Fri Mar 24 2023 19:37:35 GMT-0400 (Eastern Daylight Time)","127132","","null","","","","offerFB","","<div class='trialBorder'><div class='vertical-center'><img style='vertical-align:center; align:center' src=img/fixation3.jpg></div><div class='cl'><div class='vertical-center'><font style='color:orange'>$80<br>in<br>2 weeks</font></div></div><div class='cr'><div class='vertical-center'>$33<br><br>now</div></div><div class='respDivL'><div class='vertical-center'><font style='color:orange'>(E)</font></div></div><div class='respDivR'><div class='vertical-center'>(I)</div></div></div>","null","$33<br><br>now","$80<br>in<br>2 weeks","1","33","80","2",""
"html-keyboard-response","43","83418","0.0-5.0-1.13","58016c9f551314000145af58","bdp_td","Fri Mar 24 2023 19:37:35 GMT-0400 (Eastern Daylight Time)","127132","","null","","","","FIX","","<div class='trialBorder'><div class='vertical-center'><img style='vertical-align:center; align:center' src=img/fixation3.jpg></div></div>","null","","","","","","",""
"html-keyboard-response","44","85289","0.0-5.0-2.13","58016c9f551314000145af58","bdp_td","Fri Mar 24 2023 19:37:35 GMT-0400 (Eastern Daylight Time)","127132","","1869","","","","offer","","<div class='trialBorder'><div class='vertical-center'><img style='vertical-align:center; align:center' src=img/fixation3.jpg></div><div class='cl'><div class='vertical-center'>$80<br><br>now</div></div><div class='cr'><div class='vertical-center'>$85<br>in<br>12 weeks</div></div><div class='respDivL'><div class='vertical-center'>(E)</div></div><div class='respDivR'><div class='vertical-center'>(I)</div></div></div>","E","$80<br><br>now","$85<br>in<br>12 weeks","0","80","85","12","NOW"
"html-keyboard-response","45","85546","0.0-5.0-3.13","58016c9f551314000145af58","bdp_td","Fri Mar 24 2023 19:37:35 GMT-0400 (Eastern Daylight Time)","127132","","null","","","","offerFB","","<div class='trialBorder'><div class='vertical-center'><img style='vertical-align:center; align:center' src=img/fixation3.jpg></div><div class='cl'><div class='vertical-center'><font style='color:orange'>$80<br><br>now</font></div></div><div class='cr'><div class='vertical-center'>$85<br>in<br>12 weeks</div></div><div class='respDivL'><div class='vertical-center'><font style='color:orange'>(E)</font></div></div><div class='respDivR'><div class='vertical-center'>(I)</div></div></div>","null","$80<br><br>now","$85<br>in<br>12 weeks","0","80","85","12",""
"html-keyboard-response","46","86052","0.0-5.0-1.14","58016c9f551314000145af58","bdp_td","Fri Mar 24 2023 19:37:35 GMT-0400 (Eastern Daylight Time)","127132","","null","","","","FIX","","<div class='trialBorder'><div class='vertical-center'><img style='vertical-align:center; align:center' src=img/fixation3.jpg></div></div>","null","","","","","","",""
"html-keyboard-response","47","88002","0.0-5.0-2.14","58016c9f551314000145af58","bdp_td","Fri Mar 24 2023 19:37:35 GMT-0400 (Eastern Daylight Time)","127132","","1949","","","","offer","","<div class='trialBorder'><div class='vertical-center'><img style='vertical-align:center; align:center' src=img/fixation3.jpg></div><div class='cl'><div class='vertical-center'>$24<br><br>now</div></div><div class='cr'><div class='vertical-center'>$35<br>in<br>3 weeks</div></div><div class='respDivL'><div class='vertical-center'>(E)</div></div><div class='respDivR'><div class='vertical-center'>(I)</div></div></div>","E","$24<br><br>now","$35<br>in<br>3 weeks","0","24","35","3","NOW"
"html-keyboard-response","48","88260","0.0-5.0-3.14","58016c9f551314000145af58","bdp_td","Fri Mar 24 2023 19:37:35 GMT-0400 (Eastern Daylight Time)","127132","","null","","","","offerFB","","<div class='trialBorder'><div class='vertical-center'><img style='vertical-align:center; align:center' src=img/fixation3.jpg></div><div class='cl'><div class='vertical-center'><font style='color:orange'>$24<br><br>now</font></div></div><div class='cr'><div class='vertical-center'>$35<br>in<br>3 weeks</div></div><div class='respDivL'><div class='vertical-center'><font style='color:orange'>(E)</font></div></div><div class='respDivR'><div class='vertical-center'>(I)</div></div></div>","null","$24<br><br>now","$35<br>in<br>3 weeks","0","24","35","3",""
"html-keyboard-response","49","88764","0.0-5.0-1.15","58016c9f551314000145af58","bdp_td","Fri Mar 24 2023 19:37:35 GMT-0400 (Eastern Daylight Time)","127132","","null","","","","FIX","","<div class='trialBorder'><div class='vertical-center'><img style='vertical-align:center; align:center' src=img/fixation3.jpg></div></div>","null","","","","","","",""
"html-keyboard-response","50","92318","0.0-5.0-2.15","58016c9f551314000145af58","bdp_td","Fri Mar 24 2023 19:37:35 GMT-0400 (Eastern Daylight Time)","127132","","3553","","","","offer","","<div class='trialBorder'><div class='vertical-center'><img style='vertical-align:center; align:center' src=img/fixation3.jpg></div><div class='cl'><div class='vertical-center'>$50<br>in<br>6 weeks</div></div><div class='cr'><div class='vertical-center'>$34<br><br>now</div></div><div class='respDivL'><div class='vertical-center'>(E)</div></div><div class='respDivR'><div class='vertical-center'>(I)</div></div></div>","I","$34<br><br>now","$50<br>in<br>6 weeks","1","34","50","6","NOW"
"html-keyboard-response","51","92572","0.0-5.0-3.15","58016c9f551314000145af58","bdp_td","Fri Mar 24 2023 19:37:35 GMT-0400 (Eastern Daylight Time)","127132","","null","","","","offerFB","","<div class='trialBorder'><div class='vertical-center'><img style='vertical-align:center; align:center' src=img/fixation3.jpg></div><div class='cl'><div class='vertical-center'>$50<br>in<br>6 weeks</div></div><div class='cr'><div class='vertical-center'><font style='color:orange'>$34<br><br>now</font></div></div><div class='respDivL'><div class='vertical-center'>(E)</div></div><div class='respDivR'><div class='vertical-center'><font style='color:orange'>(I)</font></div></div></div>","null","$34<br><br>now","$50<br>in<br>6 weeks","1","34","50","6",""
"html-keyboard-response","52","93076","0.0-5.0-1.16","58016c9f551314000145af58","bdp_td","Fri Mar 24 2023 19:37:35 GMT-0400 (Eastern Daylight Time)","127132","","null","","","","FIX","","<div class='trialBorder'><div class='vertical-center'><img style='vertical-align:center; align:center' src=img/fixation3.jpg></div></div>","null","","","","","","",""
"html-keyboard-response","53","96418","0.0-5.0-2.16","58016c9f551314000145af58","bdp_td","Fri Mar 24 2023 19:37:35 GMT-0400 (Eastern Daylight Time)","127132","","3341","","","","offer","","<div class='trialBorder'><div class='vertical-center'><img style='vertical-align:center; align:center' src=img/fixation3.jpg></div><div class='cl'><div class='vertical-center'>$80<br>in<br>12 weeks</div></div><div class='cr'><div class='vertical-center'>$78<br><br>now</div></div><div class='respDivL'><div class='vertical-center'>(E)</div></div><div class='respDivR'><div class='vertical-center'>(I)</div></div></div>","I","$78<br><br>now","$80<br>in<br>12 weeks","1","78","80","12","NOW"
"html-keyboard-response","54","96675","0.0-5.0-3.16","58016c9f551314000145af58","bdp_td","Fri Mar 24 2023 19:37:35 GMT-0400 (Eastern Daylight Time)","127132","","null","","","","offerFB","","<div class='trialBorder'><div class='vertical-center'><img style='vertical-align:center; align:center' src=img/fixation3.jpg></div><div class='cl'><div class='vertical-center'>$80<br>in<br>12 weeks</div></div><div class='cr'><div class='vertical-center'><font style='color:orange'>$78<br><br>now</font></div></div><div class='respDivL'><div class='vertical-center'>(E)</div></div><div class='respDivR'><div class='vertical-center'><font style='color:orange'>(I)</font></div></div></div>","null","$78<br><br>now","$80<br>in<br>12 weeks","1","78","80","12",""
"html-keyboard-response","55","97179","0.0-5.0-1.17","58016c9f551314000145af58","bdp_td","Fri Mar 24 2023 19:37:35 GMT-0400 (Eastern Daylight Time)","127132","","null","","","","FIX","","<div class='trialBorder'><div class='vertical-center'><img style='vertical-align:center; align:center' src=img/fixation3.jpg></div></div>","null","","","","","","",""
"html-keyboard-response","56","99058","0.0-5.0-2.17","58016c9f551314000145af58","bdp_td","Fri Mar 24 2023 19:37:35 GMT-0400 (Eastern Daylight Time)","127132","","1876","","","","offer","","<div class='trialBorder'><div class='vertical-center'><img style='vertical-align:center; align:center' src=img/fixation3.jpg></div><div class='cl'><div class='vertical-center'>$30<br>in<br>12 weeks</div></div><div class='cr'><div class='vertical-center'>$28<br><br>now</div></div><div class='respDivL'><div class='vertical-center'>(E)</div></div><div class='respDivR'><div class='vertical-center'>(I)</div></div></div>","I","$28<br><br>now","$30<br>in<br>12 weeks","1","28","30","12","NOW"
"html-keyboard-response","57","99316","0.0-5.0-3.17","58016c9f551314000145af58","bdp_td","Fri Mar 24 2023 19:37:35 GMT-0400 (Eastern Daylight Time)","127132","","null","","","","offerFB","","<div class='trialBorder'><div class='vertical-center'><img style='vertical-align:center; align:center' src=img/fixation3.jpg></div><div class='cl'><div class='vertical-center'>$30<br>in<br>12 weeks</div></div><div class='cr'><div class='vertical-center'><font style='color:orange'>$28<br><br>now</font></div></div><div class='respDivL'><div class='vertical-center'>(E)</div></div><div class='respDivR'><div class='vertical-center'><font style='color:orange'>(I)</font></div></div></div>","null","$28<br><br>now","$30<br>in<br>12 weeks","1","28","30","12",""
"html-keyboard-response","58","99820","0.0-5.0-1.18","58016c9f551314000145af58","bdp_td","Fri Mar 24 2023 19:37:35 GMT-0400 (Eastern Daylight Time)","127132","","null","","","","FIX","","<div class='trialBorder'><div class='vertical-center'><img style='vertical-align:center; align:center' src=img/fixation3.jpg></div></div>","null","","","","","","",""
"html-keyboard-response","59","101954","0.0-5.0-2.18","58016c9f551314000145af58","bdp_td","Fri Mar 24 2023 19:37:35 GMT-0400 (Eastern Daylight Time)","127132","","2133","","","","offer","","<div class='trialBorder'><div class='vertical-center'><img style='vertical-align:center; align:center' src=img/fixation3.jpg></div><div class='cl'><div class='vertical-center'>$49<br><br>now</div></div><div class='cr'><div class='vertical-center'>$60<br>in<br>6 weeks</div></div><div class='respDivL'><div class='vertical-center'>(E)</div></div><div class='respDivR'><div class='vertical-center'>(I)</div></div></div>","E","$49<br><br>now","$60<br>in<br>6 weeks","0","49","60","6","NOW"
"html-keyboard-response","60","102212","0.0-5.0-3.18","58016c9f551314000145af58","bdp_td","Fri Mar 24 2023 19:37:35 GMT-0400 (Eastern Daylight Time)","127132","","null","","","","offerFB","","<div class='trialBorder'><div class='vertical-center'><img style='vertical-align:center; align:center' src=img/fixation3.jpg></div><div class='cl'><div class='vertical-center'><font style='color:orange'>$49<br><br>now</font></div></div><div class='cr'><div class='vertical-center'>$60<br>in<br>6 weeks</div></div><div class='respDivL'><div class='vertical-center'><font style='color:orange'>(E)</font></div></div><div class='respDivR'><div class='vertical-center'>(I)</div></div></div>","null","$49<br><br>now","$60<br>in<br>6 weeks","0","49","60","6",""
"html-keyboard-response","61","102716","0.0-5.0-1.19","58016c9f551314000145af58","bdp_td","Fri Mar 24 2023 19:37:35 GMT-0400 (Eastern Daylight Time)","127132","","null","","","","FIX","","<div class='trialBorder'><div class='vertical-center'><img style='vertical-align:center; align:center' src=img/fixation3.jpg></div></div>","null","","","","","","",""
"html-keyboard-response","62","104422","0.0-5.0-2.19","58016c9f551314000145af58","bdp_td","Fri Mar 24 2023 19:37:35 GMT-0400 (Eastern Daylight Time)","127132","","1704","","","","offer","","<div class='trialBorder'><div class='vertical-center'><img style='vertical-align:center; align:center' src=img/fixation3.jpg></div><div class='cl'><div class='vertical-center'>$41<br><br>now</div></div><div class='cr'><div class='vertical-center'>$75<br>in<br>3 weeks</div></div><div class='respDivL'><div class='vertical-center'>(E)</div></div><div class='respDivR'><div class='vertical-center'>(I)</div></div></div>","E","$41<br><br>now","$75<br>in<br>3 weeks","0","41","75","3","NOW"
"html-keyboard-response","63","104676","0.0-5.0-3.19","58016c9f551314000145af58","bdp_td","Fri Mar 24 2023 19:37:35 GMT-0400 (Eastern Daylight Time)","127132","","null","","","","offerFB","","<div class='trialBorder'><div class='vertical-center'><img style='vertical-align:center; align:center' src=img/fixation3.jpg></div><div class='cl'><div class='vertical-center'><font style='color:orange'>$41<br><br>now</font></div></div><div class='cr'><div class='vertical-center'>$75<br>in<br>3 weeks</div></div><div class='respDivL'><div class='vertical-center'><font style='color:orange'>(E)</font></div></div><div class='respDivR'><div class='vertical-center'>(I)</div></div></div>","null","$41<br><br>now","$75<br>in<br>3 weeks","0","41","75","3",""
"html-keyboard-response","64","105180","0.0-5.0-1.20","58016c9f551314000145af58","bdp_td","Fri Mar 24 2023 19:37:35 GMT-0400 (Eastern Daylight Time)","127132","","null","","","","FIX","","<div class='trialBorder'><div class='vertical-center'><img style='vertical-align:center; align:center' src=img/fixation3.jpg></div></div>","null","","","","","","",""
"html-keyboard-response","65","106665","0.0-5.0-2.20","58016c9f551314000145af58","bdp_td","Fri Mar 24 2023 19:37:35 GMT-0400 (Eastern Daylight Time)","127132","","1484","","","","offer","","<div class='trialBorder'><div class='vertical-center'><img style='vertical-align:center; align:center' src=img/fixation3.jpg></div><div class='cl'><div class='vertical-center'>$54<br><br>now</div></div><div class='cr'><div class='vertical-center'>$55<br>in<br>12 weeks</div></div><div class='respDivL'><div class='vertical-center'>(E)</div></div><div class='respDivR'><div class='vertical-center'>(I)</div></div></div>","E","$54<br><br>now","$55<br>in<br>12 weeks","0","54","55","12","NOW"
"html-keyboard-response","66","106924","0.0-5.0-3.20","58016c9f551314000145af58","bdp_td","Fri Mar 24 2023 19:37:35 GMT-0400 (Eastern Daylight Time)","127132","","null","","","","offerFB","","<div class='trialBorder'><div class='vertical-center'><img style='vertical-align:center; align:center' src=img/fixation3.jpg></div><div class='cl'><div class='vertical-center'><font style='color:orange'>$54<br><br>now</font></div></div><div class='cr'><div class='vertical-center'>$55<br>in<br>12 weeks</div></div><div class='respDivL'><div class='vertical-center'><font style='color:orange'>(E)</font></div></div><div class='respDivR'><div class='vertical-center'>(I)</div></div></div>","null","$54<br><br>now","$55<br>in<br>12 weeks","0","54","55","12",""
"html-keyboard-response","67","107428","0.0-5.0-1.21","58016c9f551314000145af58","bdp_td","Fri Mar 24 2023 19:37:35 GMT-0400 (Eastern Daylight Time)","127132","","null","","","","FIX","","<div class='trialBorder'><div class='vertical-center'><img style='vertical-align:center; align:center' src=img/fixation3.jpg></div></div>","null","","","","","","",""
"html-keyboard-response","68","108801","0.0-5.0-2.21","58016c9f551314000145af58","bdp_td","Fri Mar 24 2023 19:37:35 GMT-0400 (Eastern Daylight Time)","127132","","1372","","","","offer","","<div class='trialBorder'><div class='vertical-center'><img style='vertical-align:center; align:center' src=img/fixation3.jpg></div><div class='cl'><div class='vertical-center'>$69<br><br>now</div></div><div class='cr'><div class='vertical-center'>$85<br>in<br>6 weeks</div></div><div class='respDivL'><div class='vertical-center'>(E)</div></div><div class='respDivR'><div class='vertical-center'>(I)</div></div></div>","E","$69<br><br>now","$85<br>in<br>6 weeks","0","69","85","6","NOW"
"html-keyboard-response","69","109060","0.0-5.0-3.21","58016c9f551314000145af58","bdp_td","Fri Mar 24 2023 19:37:35 GMT-0400 (Eastern Daylight Time)","127132","","null","","","","offerFB","","<div class='trialBorder'><div class='vertical-center'><img style='vertical-align:center; align:center' src=img/fixation3.jpg></div><div class='cl'><div class='vertical-center'><font style='color:orange'>$69<br><br>now</font></div></div><div class='cr'><div class='vertical-center'>$85<br>in<br>6 weeks</div></div><div class='respDivL'><div class='vertical-center'><font style='color:orange'>(E)</font></div></div><div class='respDivR'><div class='vertical-center'>(I)</div></div></div>","null","$69<br><br>now","$85<br>in<br>6 weeks","0","69","85","6",""
"html-keyboard-response","70","109564","0.0-5.0-1.22","58016c9f551314000145af58","bdp_td","Fri Mar 24 2023 19:37:35 GMT-0400 (Eastern Daylight Time)","127132","","null","","","","FIX","","<div class='trialBorder'><div class='vertical-center'><img style='vertical-align:center; align:center' src=img/fixation3.jpg></div></div>","null","","","","","","",""
"html-keyboard-response","71","110937","0.0-5.0-2.22","58016c9f551314000145af58","bdp_td","Fri Mar 24 2023 19:37:35 GMT-0400 (Eastern Daylight Time)","127132","","1372","","","","offer","","<div class='trialBorder'><div class='vertical-center'><img style='vertical-align:center; align:center' src=img/fixation3.jpg></div><div class='cl'><div class='vertical-center'>$40<br><br>now</div></div><div class='cr'><div class='vertical-center'>$55<br>in<br>6 weeks</div></div><div class='respDivL'><div class='vertical-center'>(E)</div></div><div class='respDivR'><div class='vertical-center'>(I)</div></div></div>","E","$40<br><br>now","$55<br>in<br>6 weeks","0","40","55","6","NOW"
"html-keyboard-response","72","111196","0.0-5.0-3.22","58016c9f551314000145af58","bdp_td","Fri Mar 24 2023 19:37:35 GMT-0400 (Eastern Daylight Time)","127132","","null","","","","offerFB","","<div class='trialBorder'><div class='vertical-center'><img style='vertical-align:center; align:center' src=img/fixation3.jpg></div><div class='cl'><div class='vertical-center'><font style='color:orange'>$40<br><br>now</font></div></div><div class='cr'><div class='vertical-center'>$55<br>in<br>6 weeks</div></div><div class='respDivL'><div class='vertical-center'><font style='color:orange'>(E)</font></div></div><div class='respDivR'><div class='vertical-center'>(I)</div></div></div>","null","$40<br><br>now","$55<br>in<br>6 weeks","0","40","55","6",""
"html-keyboard-response","73","111700","0.0-5.0-1.23","58016c9f551314000145af58","bdp_td","Fri Mar 24 2023 19:37:35 GMT-0400 (Eastern Daylight Time)","127132","","null","","","","FIX","","<div class='trialBorder'><div class='vertical-center'><img style='vertical-align:center; align:center' src=img/fixation3.jpg></div></div>","null","","","","","","",""
"html-keyboard-response","74","115165","0.0-5.0-2.23","58016c9f551314000145af58","bdp_td","Fri Mar 24 2023 19:37:35 GMT-0400 (Eastern Daylight Time)","127132","","3464","","","","offer","","<div class='trialBorder'><div class='vertical-center'><img style='vertical-align:center; align:center' src=img/fixation3.jpg></div><div class='cl'><div class='vertical-center'>$30<br>in<br>2 weeks</div></div><div class='cr'><div class='vertical-center'>$11<br><br>now</div></div><div class='respDivL'><div class='vertical-center'>(E)</div></div><div class='respDivR'><div class='vertical-center'>(I)</div></div></div>","E","$11<br><br>now","$30<br>in<br>2 weeks","1","11","30","2","THEN"
"html-keyboard-response","75","115420","0.0-5.0-3.23","58016c9f551314000145af58","bdp_td","Fri Mar 24 2023 19:37:35 GMT-0400 (Eastern Daylight Time)","127132","","null","","","","offerFB","","<div class='trialBorder'><div class='vertical-center'><img style='vertical-align:center; align:center' src=img/fixation3.jpg></div><div class='cl'><div class='vertical-center'><font style='color:orange'>$30<br>in<br>2 weeks</font></div></div><div class='cr'><div class='vertical-center'>$11<br><br>now</div></div><div class='respDivL'><div class='vertical-center'><font style='color:orange'>(E)</font></div></div><div class='respDivR'><div class='vertical-center'>(I)</div></div></div>","null","$11<br><br>now","$30<br>in<br>2 weeks","1","11","30","2",""
"html-keyboard-response","76","115924","0.0-5.0-1.24","58016c9f551314000145af58","bdp_td","Fri Mar 24 2023 19:37:35 GMT-0400 (Eastern Daylight Time)","127132","","null","","","","FIX","","<div class='trialBorder'><div class='vertical-center'><img style='vertical-align:center; align:center' src=img/fixation3.jpg></div></div>","null","","","","","","",""
"html-keyboard-response","77","117481","0.0-5.0-2.24","58016c9f551314000145af58","bdp_td","Fri Mar 24 2023 19:37:35 GMT-0400 (Eastern Daylight Time)","127132","","1557","","","","offer","","<div class='trialBorder'><div class='vertical-center'><img style='vertical-align:center; align:center' src=img/fixation3.jpg></div><div class='cl'><div class='vertical-center'>$22<br><br>now</div></div><div class='cr'><div class='vertical-center'>$25<br>in<br>12 weeks</div></div><div class='respDivL'><div class='vertical-center'>(E)</div></div><div class='respDivR'><div class='vertical-center'>(I)</div></div></div>","E","$22<br><br>now","$25<br>in<br>12 weeks","0","22","25","12","NOW"
"html-keyboard-response","78","117740","0.0-5.0-3.24","58016c9f551314000145af58","bdp_td","Fri Mar 24 2023 19:37:35 GMT-0400 (Eastern Daylight Time)","127132","","null","","","","offerFB","","<div class='trialBorder'><div class='vertical-center'><img style='vertical-align:center; align:center' src=img/fixation3.jpg></div><div class='cl'><div class='vertical-center'><font style='color:orange'>$22<br><br>now</font></div></div><div class='cr'><div class='vertical-center'>$25<br>in<br>12 weeks</div></div><div class='respDivL'><div class='vertical-center'><font style='color:orange'>(E)</font></div></div><div class='respDivR'><div class='vertical-center'>(I)</div></div></div>","null","$22<br><br>now","$25<br>in<br>12 weeks","0","22","25","12",""
"html-keyboard-response","79","118243","0.0-5.0-1.25","58016c9f551314000145af58","bdp_td","Fri Mar 24 2023 19:37:35 GMT-0400 (Eastern Daylight Time)","127132","","null","","","","FIX","","<div class='trialBorder'><div class='vertical-center'><img style='vertical-align:center; align:center' src=img/fixation3.jpg></div></div>","null","","","","","","",""
"html-keyboard-response","80","119777","0.0-5.0-2.25","58016c9f551314000145af58","bdp_td","Fri Mar 24 2023 19:37:35 GMT-0400 (Eastern Daylight Time)","127132","","1533","","","","offer","","<div class='trialBorder'><div class='vertical-center'><img style='vertical-align:center; align:center' src=img/fixation3.jpg></div><div class='cl'><div class='vertical-center'>$75<br>in<br>12 weeks</div></div><div class='cr'><div class='vertical-center'>$67<br><br>now</div></div><div class='respDivL'><div class='vertical-center'>(E)</div></div><div class='respDivR'><div class='vertical-center'>(I)</div></div></div>","I","$67<br><br>now","$75<br>in<br>12 weeks","1","67","75","12","NOW"
"html-keyboard-response","81","120036","0.0-5.0-3.25","58016c9f551314000145af58","bdp_td","Fri Mar 24 2023 19:37:35 GMT-0400 (Eastern Daylight Time)","127132","","null","","","","offerFB","","<div class='trialBorder'><div class='vertical-center'><img style='vertical-align:center; align:center' src=img/fixation3.jpg></div><div class='cl'><div class='vertical-center'>$75<br>in<br>12 weeks</div></div><div class='cr'><div class='vertical-center'><font style='color:orange'>$67<br><br>now</font></div></div><div class='respDivL'><div class='vertical-center'>(E)</div></div><div class='respDivR'><div class='vertical-center'><font style='color:orange'>(I)</font></div></div></div>","null","$67<br><br>now","$75<br>in<br>12 weeks","1","67","75","12",""
"html-keyboard-response","82","120539","0.0-5.0-1.26","58016c9f551314000145af58","bdp_td","Fri Mar 24 2023 19:37:35 GMT-0400 (Eastern Daylight Time)","127132","","null","","","","FIX","","<div class='trialBorder'><div class='vertical-center'><img style='vertical-align:center; align:center' src=img/fixation3.jpg></div></div>","null","","","","","","",""
"html-keyboard-response","83","125869","0.0-5.0-2.26","58016c9f551314000145af58","bdp_td","Fri Mar 24 2023 19:37:35 GMT-0400 (Eastern Daylight Time)","127132","","5328","","","","offer","","<div class='trialBorder'><div class='vertical-center'><img style='vertical-align:center; align:center' src=img/fixation3.jpg></div><div class='cl'><div class='vertical-center'>$80<br>in<br>3 weeks</div></div><div class='cr'><div class='vertical-center'>$54<br><br>now</div></div><div class='respDivL'><div class='vertical-center'>(E)</div></div><div class='respDivR'><div class='vertical-center'>(I)</div></div></div>","I","$54<br><br>now","$80<br>in<br>3 weeks","1","54","80","3","NOW"
"html-keyboard-response","84","126123","0.0-5.0-3.26","58016c9f551314000145af58","bdp_td","Fri Mar 24 2023 19:37:35 GMT-0400 (Eastern Daylight Time)","127132","","null","","","","offerFB","","<div class='trialBorder'><div class='vertical-center'><img style='vertical-align:center; align:center' src=img/fixation3.jpg></div><div class='cl'><div class='vertical-center'>$80<br>in<br>3 weeks</div></div><div class='cr'><div class='vertical-center'><font style='color:orange'>$54<br><br>now</font></div></div><div class='respDivL'><div class='vertical-center'>(E)</div></div><div class='respDivR'><div class='vertical-center'><font style='color:orange'>(I)</font></div></div></div>","null","$54<br><br>now","$80<br>in<br>3 weeks","1","54","80","3",""
"","","","","58016c9f551314000145af58","bdp_td","Fri Mar 24 2023 19:37:35 GMT-0400 (Eastern Daylight Time)","127132","","","fullscreenexit","85","126221","fullscreenexit","","","","","","","","","",""
"fullscreen","85","127131","0.0-6.0","58016c9f551314000145af58","bdp_td","Fri Mar 24 2023 19:37:35 GMT-0400 (Eastern Daylight Time)","127132","","","","","","","true","","","","","","","","",""
"html-keyboard-response","86","127636","0.0-7.0","","","","","","null","","","","","","","null","","","","","","",""
