"trial_type","trial_index","time_elapsed","internal_node_id","subject_id","task","startTime","totalTime","view_history","rt","event","trial","time","trialtype","success","stimulus","key_press","nowOffer","thenOffer","thenLeft","nowAmt","thenAmt","thenWeeks","chosen"
"pavlovia","0","2","0.0-0.0","5722c95274e7ff0011a6f011","bdp_td","Sun Mar 26 2023 21:32:16 GMT-0600 (Mountain Daylight Time)","102885","","","","","","","","","","","","","","","",""
"instructions","1","3255","0.0-1.0","5722c95274e7ff0011a6f011","bdp_td","Sun Mar 26 2023 21:32:16 GMT-0600 (Mountain Daylight Time)","102885","[{""page_index"":0,""viewing_time"":3253}]","3253","","","","","","","","","","","","","",""
"","","","","5722c95274e7ff0011a6f011","bdp_td","Sun Mar 26 2023 21:32:16 GMT-0600 (Mountain Daylight Time)","102885","","","fullscreenenter","2","5522","fullscreenenter","","","","","","","","","",""
"fullscreen","2","6514","0.0-2.0","5722c95274e7ff0011a6f011","bdp_td","Sun Mar 26 2023 21:32:16 GMT-0600 (Mountain Daylight Time)","102885","","","","","","","true","","","","","","","","",""
"instructions","3","38148","0.0-4.0","5722c95274e7ff0011a6f011","bdp_td","Sun Mar 26 2023 21:32:16 GMT-0600 (Mountain Daylight Time)","102885","[{""page_index"":0,""viewing_time"":9426},{""page_index"":1,""viewing_time"":13771},{""page_index"":2,""viewing_time"":8437}]","31634","","","","","","","","","","","","","",""
"html-keyboard-response","4","38649","0.0-5.0-1.0","5722c95274e7ff0011a6f011","bdp_td","Sun Mar 26 2023 21:32:16 GMT-0600 (Mountain Daylight Time)","102885","","null","","","","FIX","","<div class='trialBorder'><div class='vertical-center'><img style='vertical-align:center; align:center' src=img/fixation3.jpg></div></div>","null","","","","","","",""
"html-keyboard-response","5","40479","0.0-5.0-2.0","5722c95274e7ff0011a6f011","bdp_td","Sun Mar 26 2023 21:32:16 GMT-0600 (Mountain Daylight Time)","102885","","1829","","","","offer","","<div class='trialBorder'><div class='vertical-center'><img style='vertical-align:center; align:center' src=img/fixation3.jpg></div><div class='cl'><div class='vertical-center'>$24<br><br>now</div></div><div class='cr'><div class='vertical-center'>$35<br>in<br>3 weeks</div></div><div class='respDivL'><div class='vertical-center'>(E)</div></div><div class='respDivR'><div class='vertical-center'>(I)</div></div></div>","E","$24<br><br>now","$35<br>in<br>3 weeks","0","24","35","3","NOW"
"html-keyboard-response","6","40730","0.0-5.0-3.0","5722c95274e7ff0011a6f011","bdp_td","Sun Mar 26 2023 21:32:16 GMT-0600 (Mountain Daylight Time)","102885","","null","","","","offerFB","","<div class='trialBorder'><div class='vertical-center'><img style='vertical-align:center; align:center' src=img/fixation3.jpg></div><div class='cl'><div class='vertical-center'><font style='color:orange'>$24<br><br>now</font></div></div><div class='cr'><div class='vertical-center'>$35<br>in<br>3 weeks</div></div><div class='respDivL'><div class='vertical-center'><font style='color:orange'>(E)</font></div></div><div class='respDivR'><div class='vertical-center'>(I)</div></div></div>","null","$24<br><br>now","$35<br>in<br>3 weeks","0","24","35","3",""
"html-keyboard-response","7","41231","0.0-5.0-1.1","5722c95274e7ff0011a6f011","bdp_td","Sun Mar 26 2023 21:32:16 GMT-0600 (Mountain Daylight Time)","102885","","null","","","","FIX","","<div class='trialBorder'><div class='vertical-center'><img style='vertical-align:center; align:center' src=img/fixation3.jpg></div></div>","null","","","","","","",""
"html-keyboard-response","8","42736","0.0-5.0-2.1","5722c95274e7ff0011a6f011","bdp_td","Sun Mar 26 2023 21:32:16 GMT-0600 (Mountain Daylight Time)","102885","","1504","","","","offer","","<div class='trialBorder'><div class='vertical-center'><img style='vertical-align:center; align:center' src=img/fixation3.jpg></div><div class='cl'><div class='vertical-center'>$30<br>in<br>2 weeks</div></div><div class='cr'><div class='vertical-center'>$11<br><br>now</div></div><div class='respDivL'><div class='vertical-center'>(E)</div></div><div class='respDivR'><div class='vertical-center'>(I)</div></div></div>","E","$11<br><br>now","$30<br>in<br>2 weeks","1","11","30","2","THEN"
"html-keyboard-response","9","42987","0.0-5.0-3.1","5722c95274e7ff0011a6f011","bdp_td","Sun Mar 26 2023 21:32:16 GMT-0600 (Mountain Daylight Time)","102885","","null","","","","offerFB","","<div class='trialBorder'><div class='vertical-center'><img style='vertical-align:center; align:center' src=img/fixation3.jpg></div><div class='cl'><div class='vertical-center'><font style='color:orange'>$30<br>in<br>2 weeks</font></div></div><div class='cr'><div class='vertical-center'>$11<br><br>now</div></div><div class='respDivL'><div class='vertical-center'><font style='color:orange'>(E)</font></div></div><div class='respDivR'><div class='vertical-center'>(I)</div></div></div>","null","$11<br><br>now","$30<br>in<br>2 weeks","1","11","30","2",""
"html-keyboard-response","10","43488","0.0-5.0-1.2","5722c95274e7ff0011a6f011","bdp_td","Sun Mar 26 2023 21:32:16 GMT-0600 (Mountain Daylight Time)","102885","","null","","","","FIX","","<div class='trialBorder'><div class='vertical-center'><img style='vertical-align:center; align:center' src=img/fixation3.jpg></div></div>","null","","","","","","",""
"html-keyboard-response","11","44679","0.0-5.0-2.2","5722c95274e7ff0011a6f011","bdp_td","Sun Mar 26 2023 21:32:16 GMT-0600 (Mountain Daylight Time)","102885","","1191","","","","offer","","<div class='trialBorder'><div class='vertical-center'><img style='vertical-align:center; align:center' src=img/fixation3.jpg></div><div class='cl'><div class='vertical-center'>$60<br>in<br>3 weeks</div></div><div class='cr'><div class='vertical-center'>$25<br><br>now</div></div><div class='respDivL'><div class='vertical-center'>(E)</div></div><div class='respDivR'><div class='vertical-center'>(I)</div></div></div>","E","$25<br><br>now","$60<br>in<br>3 weeks","1","25","60","3","THEN"
"html-keyboard-response","12","44931","0.0-5.0-3.2","5722c95274e7ff0011a6f011","bdp_td","Sun Mar 26 2023 21:32:16 GMT-0600 (Mountain Daylight Time)","102885","","null","","","","offerFB","","<div class='trialBorder'><div class='vertical-center'><img style='vertical-align:center; align:center' src=img/fixation3.jpg></div><div class='cl'><div class='vertical-center'><font style='color:orange'>$60<br>in<br>3 weeks</font></div></div><div class='cr'><div class='vertical-center'>$25<br><br>now</div></div><div class='respDivL'><div class='vertical-center'><font style='color:orange'>(E)</font></div></div><div class='respDivR'><div class='vertical-center'>(I)</div></div></div>","null","$25<br><br>now","$60<br>in<br>3 weeks","1","25","60","3",""
"html-keyboard-response","13","45432","0.0-5.0-1.3","5722c95274e7ff0011a6f011","bdp_td","Sun Mar 26 2023 21:32:16 GMT-0600 (Mountain Daylight Time)","102885","","null","","","","FIX","","<div class='trialBorder'><div class='vertical-center'><img style='vertical-align:center; align:center' src=img/fixation3.jpg></div></div>","null","","","","","","",""
"html-keyboard-response","14","46582","0.0-5.0-2.3","5722c95274e7ff0011a6f011","bdp_td","Sun Mar 26 2023 21:32:16 GMT-0600 (Mountain Daylight Time)","102885","","1149","","","","offer","","<div class='trialBorder'><div class='vertical-center'><img style='vertical-align:center; align:center' src=img/fixation3.jpg></div><div class='cl'><div class='vertical-center'>$50<br>in<br>12 weeks</div></div><div class='cr'><div class='vertical-center'>$47<br><br>now</div></div><div class='respDivL'><div class='vertical-center'>(E)</div></div><div class='respDivR'><div class='vertical-center'>(I)</div></div></div>","I","$47<br><br>now","$50<br>in<br>12 weeks","1","47","50","12","NOW"
"html-keyboard-response","15","46832","0.0-5.0-3.3","5722c95274e7ff0011a6f011","bdp_td","Sun Mar 26 2023 21:32:16 GMT-0600 (Mountain Daylight Time)","102885","","null","","","","offerFB","","<div class='trialBorder'><div class='vertical-center'><img style='vertical-align:center; align:center' src=img/fixation3.jpg></div><div class='cl'><div class='vertical-center'>$50<br>in<br>12 weeks</div></div><div class='cr'><div class='vertical-center'><font style='color:orange'>$47<br><br>now</font></div></div><div class='respDivL'><div class='vertical-center'>(E)</div></div><div class='respDivR'><div class='vertical-center'><font style='color:orange'>(I)</font></div></div></div>","null","$47<br><br>now","$50<br>in<br>12 weeks","1","47","50","12",""
"html-keyboard-response","16","47334","0.0-5.0-1.4","5722c95274e7ff0011a6f011","bdp_td","Sun Mar 26 2023 21:32:16 GMT-0600 (Mountain Daylight Time)","102885","","null","","","","FIX","","<div class='trialBorder'><div class='vertical-center'><img style='vertical-align:center; align:center' src=img/fixation3.jpg></div></div>","null","","","","","","",""
"html-keyboard-response","17","48613","0.0-5.0-2.4","5722c95274e7ff0011a6f011","bdp_td","Sun Mar 26 2023 21:32:16 GMT-0600 (Mountain Daylight Time)","102885","","1279","","","","offer","","<div class='trialBorder'><div class='vertical-center'><img style='vertical-align:center; align:center' src=img/fixation3.jpg></div><div class='cl'><div class='vertical-center'>$55<br>in<br>1 week</div></div><div class='cr'><div class='vertical-center'>$20<br><br>now</div></div><div class='respDivL'><div class='vertical-center'>(E)</div></div><div class='respDivR'><div class='vertical-center'>(I)</div></div></div>","E","$20<br><br>now","$55<br>in<br>1 week","1","20","55","1","THEN"
"html-keyboard-response","18","48864","0.0-5.0-3.4","5722c95274e7ff0011a6f011","bdp_td","Sun Mar 26 2023 21:32:16 GMT-0600 (Mountain Daylight Time)","102885","","null","","","","offerFB","","<div class='trialBorder'><div class='vertical-center'><img style='vertical-align:center; align:center' src=img/fixation3.jpg></div><div class='cl'><div class='vertical-center'><font style='color:orange'>$55<br>in<br>1 week</font></div></div><div class='cr'><div class='vertical-center'>$20<br><br>now</div></div><div class='respDivL'><div class='vertical-center'><font style='color:orange'>(E)</font></div></div><div class='respDivR'><div class='vertical-center'>(I)</div></div></div>","null","$20<br><br>now","$55<br>in<br>1 week","1","20","55","1",""
"html-keyboard-response","19","49366","0.0-5.0-1.5","5722c95274e7ff0011a6f011","bdp_td","Sun Mar 26 2023 21:32:16 GMT-0600 (Mountain Daylight Time)","102885","","null","","","","FIX","","<div class='trialBorder'><div class='vertical-center'><img style='vertical-align:center; align:center' src=img/fixation3.jpg></div></div>","null","","","","","","",""
"html-keyboard-response","20","50933","0.0-5.0-2.5","5722c95274e7ff0011a6f011","bdp_td","Sun Mar 26 2023 21:32:16 GMT-0600 (Mountain Daylight Time)","102885","","1566","","","","offer","","<div class='trialBorder'><div class='vertical-center'><img style='vertical-align:center; align:center' src=img/fixation3.jpg></div><div class='cl'><div class='vertical-center'>$80<br><br>now</div></div><div class='cr'><div class='vertical-center'>$85<br>in<br>12 weeks</div></div><div class='respDivL'><div class='vertical-center'>(E)</div></div><div class='respDivR'><div class='vertical-center'>(I)</div></div></div>","E","$80<br><br>now","$85<br>in<br>12 weeks","0","80","85","12","NOW"
"html-keyboard-response","21","51183","0.0-5.0-3.5","5722c95274e7ff0011a6f011","bdp_td","Sun Mar 26 2023 21:32:16 GMT-0600 (Mountain Daylight Time)","102885","","null","","","","offerFB","","<div class='trialBorder'><div class='vertical-center'><img style='vertical-align:center; align:center' src=img/fixation3.jpg></div><div class='cl'><div class='vertical-center'><font style='color:orange'>$80<br><br>now</font></div></div><div class='cr'><div class='vertical-center'>$85<br>in<br>12 weeks</div></div><div class='respDivL'><div class='vertical-center'><font style='color:orange'>(E)</font></div></div><div class='respDivR'><div class='vertical-center'>(I)</div></div></div>","null","$80<br><br>now","$85<br>in<br>12 weeks","0","80","85","12",""
"html-keyboard-response","22","51684","0.0-5.0-1.6","5722c95274e7ff0011a6f011","bdp_td","Sun Mar 26 2023 21:32:16 GMT-0600 (Mountain Daylight Time)","102885","","null","","","","FIX","","<div class='trialBorder'><div class='vertical-center'><img style='vertical-align:center; align:center' src=img/fixation3.jpg></div></div>","null","","","","","","",""
"html-keyboard-response","23","53928","0.0-5.0-2.6","5722c95274e7ff0011a6f011","bdp_td","Sun Mar 26 2023 21:32:16 GMT-0600 (Mountain Daylight Time)","102885","","2243","","","","offer","","<div class='trialBorder'><div class='vertical-center'><img style='vertical-align:center; align:center' src=img/fixation3.jpg></div><div class='cl'><div class='vertical-center'>$34<br><br>now</div></div><div class='cr'><div class='vertical-center'>$50<br>in<br>6 weeks</div></div><div class='respDivL'><div class='vertical-center'>(E)</div></div><div class='respDivR'><div class='vertical-center'>(I)</div></div></div>","E","$34<br><br>now","$50<br>in<br>6 weeks","0","34","50","6","NOW"
"html-keyboard-response","24","54179","0.0-5.0-3.6","5722c95274e7ff0011a6f011","bdp_td","Sun Mar 26 2023 21:32:16 GMT-0600 (Mountain Daylight Time)","102885","","null","","","","offerFB","","<div class='trialBorder'><div class='vertical-center'><img style='vertical-align:center; align:center' src=img/fixation3.jpg></div><div class='cl'><div class='vertical-center'><font style='color:orange'>$34<br><br>now</font></div></div><div class='cr'><div class='vertical-center'>$50<br>in<br>6 weeks</div></div><div class='respDivL'><div class='vertical-center'><font style='color:orange'>(E)</font></div></div><div class='respDivR'><div class='vertical-center'>(I)</div></div></div>","null","$34<br><br>now","$50<br>in<br>6 weeks","0","34","50","6",""
"html-keyboard-response","25","54680","0.0-5.0-1.7","5722c95274e7ff0011a6f011","bdp_td","Sun Mar 26 2023 21:32:16 GMT-0600 (Mountain Daylight Time)","102885","","null","","","","FIX","","<div class='trialBorder'><div class='vertical-center'><img style='vertical-align:center; align:center' src=img/fixation3.jpg></div></div>","null","","","","","","",""
"html-keyboard-response","26","55945","0.0-5.0-2.7","5722c95274e7ff0011a6f011","bdp_td","Sun Mar 26 2023 21:32:16 GMT-0600 (Mountain Daylight Time)","102885","","1264","","","","offer","","<div class='trialBorder'><div class='vertical-center'><img style='vertical-align:center; align:center' src=img/fixation3.jpg></div><div class='cl'><div class='vertical-center'>$30<br>in<br>6 weeks</div></div><div class='cr'><div class='vertical-center'>$25<br><br>now</div></div><div class='respDivL'><div class='vertical-center'>(E)</div></div><div class='respDivR'><div class='vertical-center'>(I)</div></div></div>","I","$25<br><br>now","$30<br>in<br>6 weeks","1","25","30","6","NOW"
"html-keyboard-response","27","56197","0.0-5.0-3.7","5722c95274e7ff0011a6f011","bdp_td","Sun Mar 26 2023 21:32:16 GMT-0600 (Mountain Daylight Time)","102885","","null","","","","offerFB","","<div class='trialBorder'><div class='vertical-center'><img style='vertical-align:center; align:center' src=img/fixation3.jpg></div><div class='cl'><div class='vertical-center'>$30<br>in<br>6 weeks</div></div><div class='cr'><div class='vertical-center'><font style='color:orange'>$25<br><br>now</font></div></div><div class='respDivL'><div class='vertical-center'>(E)</div></div><div class='respDivR'><div class='vertical-center'><font style='color:orange'>(I)</font></div></div></div>","null","$25<br><br>now","$30<br>in<br>6 weeks","1","25","30","6",""
"html-keyboard-response","28","56697","0.0-5.0-1.8","5722c95274e7ff0011a6f011","bdp_td","Sun Mar 26 2023 21:32:16 GMT-0600 (Mountain Daylight Time)","102885","","null","","","","FIX","","<div class='trialBorder'><div class='vertical-center'><img style='vertical-align:center; align:center' src=img/fixation3.jpg></div></div>","null","","","","","","",""
"html-keyboard-response","29","57942","0.0-5.0-2.8","5722c95274e7ff0011a6f011","bdp_td","Sun Mar 26 2023 21:32:16 GMT-0600 (Mountain Daylight Time)","102885","","1245","","","","offer","","<div class='trialBorder'><div class='vertical-center'><img style='vertical-align:center; align:center' src=img/fixation3.jpg></div><div class='cl'><div class='vertical-center'>$85<br>in<br>1 week</div></div><div class='cr'><div class='vertical-center'>$31<br><br>now</div></div><div class='respDivL'><div class='vertical-center'>(E)</div></div><div class='respDivR'><div class='vertical-center'>(I)</div></div></div>","E","$31<br><br>now","$85<br>in<br>1 week","1","31","85","1","THEN"
"html-keyboard-response","30","58193","0.0-5.0-3.8","5722c95274e7ff0011a6f011","bdp_td","Sun Mar 26 2023 21:32:16 GMT-0600 (Mountain Daylight Time)","102885","","null","","","","offerFB","","<div class='trialBorder'><div class='vertical-center'><img style='vertical-align:center; align:center' src=img/fixation3.jpg></div><div class='cl'><div class='vertical-center'><font style='color:orange'>$85<br>in<br>1 week</font></div></div><div class='cr'><div class='vertical-center'>$31<br><br>now</div></div><div class='respDivL'><div class='vertical-center'><font style='color:orange'>(E)</font></div></div><div class='respDivR'><div class='vertical-center'>(I)</div></div></div>","null","$31<br><br>now","$85<br>in<br>1 week","1","31","85","1",""
"html-keyboard-response","31","58694","0.0-5.0-1.9","5722c95274e7ff0011a6f011","bdp_td","Sun Mar 26 2023 21:32:16 GMT-0600 (Mountain Daylight Time)","102885","","null","","","","FIX","","<div class='trialBorder'><div class='vertical-center'><img style='vertical-align:center; align:center' src=img/fixation3.jpg></div></div>","null","","","","","","",""
"html-keyboard-response","32","60246","0.0-5.0-2.9","5722c95274e7ff0011a6f011","bdp_td","Sun Mar 26 2023 21:32:16 GMT-0600 (Mountain Daylight Time)","102885","","1551","","","","offer","","<div class='trialBorder'><div class='vertical-center'><img style='vertical-align:center; align:center' src=img/fixation3.jpg></div><div class='cl'><div class='vertical-center'>$19<br><br>now</div></div><div class='cr'><div class='vertical-center'>$25<br>in<br>6 weeks</div></div><div class='respDivL'><div class='vertical-center'>(E)</div></div><div class='respDivR'><div class='vertical-center'>(I)</div></div></div>","E","$19<br><br>now","$25<br>in<br>6 weeks","0","19","25","6","NOW"
"html-keyboard-response","33","60497","0.0-5.0-3.9","5722c95274e7ff0011a6f011","bdp_td","Sun Mar 26 2023 21:32:16 GMT-0600 (Mountain Daylight Time)","102885","","null","","","","offerFB","","<div class='trialBorder'><div class='vertical-center'><img style='vertical-align:center; align:center' src=img/fixation3.jpg></div><div class='cl'><div class='vertical-center'><font style='color:orange'>$19<br><br>now</font></div></div><div class='cr'><div class='vertical-center'>$25<br>in<br>6 weeks</div></div><div class='respDivL'><div class='vertical-center'><font style='color:orange'>(E)</font></div></div><div class='respDivR'><div class='vertical-center'>(I)</div></div></div>","null","$19<br><br>now","$25<br>in<br>6 weeks","0","19","25","6",""
"html-keyboard-response","34","60998","0.0-5.0-1.10","5722c95274e7ff0011a6f011","bdp_td","Sun Mar 26 2023 21:32:16 GMT-0600 (Mountain Daylight Time)","102885","","null","","","","FIX","","<div class='trialBorder'><div class='vertical-center'><img style='vertical-align:center; align:center' src=img/fixation3.jpg></div></div>","null","","","","","","",""
"html-keyboard-response","35","62353","0.0-5.0-2.10","5722c95274e7ff0011a6f011","bdp_td","Sun Mar 26 2023 21:32:16 GMT-0600 (Mountain Daylight Time)","102885","","1355","","","","offer","","<div class='trialBorder'><div class='vertical-center'><img style='vertical-align:center; align:center' src=img/fixation3.jpg></div><div class='cl'><div class='vertical-center'>$33<br><br>now</div></div><div class='cr'><div class='vertical-center'>$80<br>in<br>2 weeks</div></div><div class='respDivL'><div class='vertical-center'>(E)</div></div><div class='respDivR'><div class='vertical-center'>(I)</div></div></div>","I","$33<br><br>now","$80<br>in<br>2 weeks","0","33","80","2","THEN"
"html-keyboard-response","36","62604","0.0-5.0-3.10","5722c95274e7ff0011a6f011","bdp_td","Sun Mar 26 2023 21:32:16 GMT-0600 (Mountain Daylight Time)","102885","","null","","","","offerFB","","<div class='trialBorder'><div class='vertical-center'><img style='vertical-align:center; align:center' src=img/fixation3.jpg></div><div class='cl'><div class='vertical-center'>$33<br><br>now</div></div><div class='cr'><div class='vertical-center'><font style='color:orange'>$80<br>in<br>2 weeks</font></div></div><div class='respDivL'><div class='vertical-center'>(E)</div></div><div class='respDivR'><div class='vertical-center'><font style='color:orange'>(I)</font></div></div></div>","null","$33<br><br>now","$80<br>in<br>2 weeks","0","33","80","2",""
"html-keyboard-response","37","63105","0.0-5.0-1.11","5722c95274e7ff0011a6f011","bdp_td","Sun Mar 26 2023 21:32:16 GMT-0600 (Mountain Daylight Time)","102885","","null","","","","FIX","","<div class='trialBorder'><div class='vertical-center'><img style='vertical-align:center; align:center' src=img/fixation3.jpg></div></div>","null","","","","","","",""
"html-keyboard-response","38","64435","0.0-5.0-2.11","5722c95274e7ff0011a6f011","bdp_td","Sun Mar 26 2023 21:32:16 GMT-0600 (Mountain Daylight Time)","102885","","1329","","","","offer","","<div class='trialBorder'><div class='vertical-center'><img style='vertical-align:center; align:center' src=img/fixation3.jpg></div><div class='cl'><div class='vertical-center'>$85<br>in<br>6 weeks</div></div><div class='cr'><div class='vertical-center'>$69<br><br>now</div></div><div class='respDivL'><div class='vertical-center'>(E)</div></div><div class='respDivR'><div class='vertical-center'>(I)</div></div></div>","I","$69<br><br>now","$85<br>in<br>6 weeks","1","69","85","6","NOW"
"html-keyboard-response","39","64686","0.0-5.0-3.11","5722c95274e7ff0011a6f011","bdp_td","Sun Mar 26 2023 21:32:16 GMT-0600 (Mountain Daylight Time)","102885","","null","","","","offerFB","","<div class='trialBorder'><div class='vertical-center'><img style='vertical-align:center; align:center' src=img/fixation3.jpg></div><div class='cl'><div class='vertical-center'>$85<br>in<br>6 weeks</div></div><div class='cr'><div class='vertical-center'><font style='color:orange'>$69<br><br>now</font></div></div><div class='respDivL'><div class='vertical-center'>(E)</div></div><div class='respDivR'><div class='vertical-center'><font style='color:orange'>(I)</font></div></div></div>","null","$69<br><br>now","$85<br>in<br>6 weeks","1","69","85","6",""
"html-keyboard-response","40","65187","0.0-5.0-1.12","5722c95274e7ff0011a6f011","bdp_td","Sun Mar 26 2023 21:32:16 GMT-0600 (Mountain Daylight Time)","102885","","null","","","","FIX","","<div class='trialBorder'><div class='vertical-center'><img style='vertical-align:center; align:center' src=img/fixation3.jpg></div></div>","null","","","","","","",""
"html-keyboard-response","41","67000","0.0-5.0-2.12","5722c95274e7ff0011a6f011","bdp_td","Sun Mar 26 2023 21:32:16 GMT-0600 (Mountain Daylight Time)","102885","","1812","","","","offer","","<div class='trialBorder'><div class='vertical-center'><img style='vertical-align:center; align:center' src=img/fixation3.jpg></div><div class='cl'><div class='vertical-center'>$67<br><br>now</div></div><div class='cr'><div class='vertical-center'>$75<br>in<br>12 weeks</div></div><div class='respDivL'><div class='vertical-center'>(E)</div></div><div class='respDivR'><div class='vertical-center'>(I)</div></div></div>","E","$67<br><br>now","$75<br>in<br>12 weeks","0","67","75","12","NOW"
"html-keyboard-response","42","67251","0.0-5.0-3.12","5722c95274e7ff0011a6f011","bdp_td","Sun Mar 26 2023 21:32:16 GMT-0600 (Mountain Daylight Time)","102885","","null","","","","offerFB","","<div class='trialBorder'><div class='vertical-center'><img style='vertical-align:center; align:center' src=img/fixation3.jpg></div><div class='cl'><div class='vertical-center'><font style='color:orange'>$67<br><br>now</font></div></div><div class='cr'><div class='vertical-center'>$75<br>in<br>12 weeks</div></div><div class='respDivL'><div class='vertical-center'><font style='color:orange'>(E)</font></div></div><div class='respDivR'><div class='vertical-center'>(I)</div></div></div>","null","$67<br><br>now","$75<br>in<br>12 weeks","0","67","75","12",""
"html-keyboard-response","43","67752","0.0-5.0-1.13","5722c95274e7ff0011a6f011","bdp_td","Sun Mar 26 2023 21:32:16 GMT-0600 (Mountain Daylight Time)","102885","","null","","","","FIX","","<div class='trialBorder'><div class='vertical-center'><img style='vertical-align:center; align:center' src=img/fixation3.jpg></div></div>","null","","","","","","",""
"html-keyboard-response","44","68897","0.0-5.0-2.13","5722c95274e7ff0011a6f011","bdp_td","Sun Mar 26 2023 21:32:16 GMT-0600 (Mountain Daylight Time)","102885","","1144","","","","offer","","<div class='trialBorder'><div class='vertical-center'><img style='vertical-align:center; align:center' src=img/fixation3.jpg></div><div class='cl'><div class='vertical-center'>$40<br><br>now</div></div><div class='cr'><div class='vertical-center'>$55<br>in<br>6 weeks</div></div><div class='respDivL'><div class='vertical-center'>(E)</div></div><div class='respDivR'><div class='vertical-center'>(I)</div></div></div>","E","$40<br><br>now","$55<br>in<br>6 weeks","0","40","55","6","NOW"
"html-keyboard-response","45","69148","0.0-5.0-3.13","5722c95274e7ff0011a6f011","bdp_td","Sun Mar 26 2023 21:32:16 GMT-0600 (Mountain Daylight Time)","102885","","null","","","","offerFB","","<div class='trialBorder'><div class='vertical-center'><img style='vertical-align:center; align:center' src=img/fixation3.jpg></div><div class='cl'><div class='vertical-center'><font style='color:orange'>$40<br><br>now</font></div></div><div class='cr'><div class='vertical-center'>$55<br>in<br>6 weeks</div></div><div class='respDivL'><div class='vertical-center'><font style='color:orange'>(E)</font></div></div><div class='respDivR'><div class='vertical-center'>(I)</div></div></div>","null","$40<br><br>now","$55<br>in<br>6 weeks","0","40","55","6",""
"html-keyboard-response","46","69649","0.0-5.0-1.14","5722c95274e7ff0011a6f011","bdp_td","Sun Mar 26 2023 21:32:16 GMT-0600 (Mountain Daylight Time)","102885","","null","","","","FIX","","<div class='trialBorder'><div class='vertical-center'><img style='vertical-align:center; align:center' src=img/fixation3.jpg></div></div>","null","","","","","","",""
"html-keyboard-response","47","71481","0.0-5.0-2.14","5722c95274e7ff0011a6f011","bdp_td","Sun Mar 26 2023 21:32:16 GMT-0600 (Mountain Daylight Time)","102885","","1832","","","","offer","","<div class='trialBorder'><div class='vertical-center'><img style='vertical-align:center; align:center' src=img/fixation3.jpg></div><div class='cl'><div class='vertical-center'>$55<br><br>now</div></div><div class='cr'><div class='vertical-center'>$75<br>in<br>6 weeks</div></div><div class='respDivL'><div class='vertical-center'>(E)</div></div><div class='respDivR'><div class='vertical-center'>(I)</div></div></div>","E","$55<br><br>now","$75<br>in<br>6 weeks","0","55","75","6","NOW"
"html-keyboard-response","48","71733","0.0-5.0-3.14","5722c95274e7ff0011a6f011","bdp_td","Sun Mar 26 2023 21:32:16 GMT-0600 (Mountain Daylight Time)","102885","","null","","","","offerFB","","<div class='trialBorder'><div class='vertical-center'><img style='vertical-align:center; align:center' src=img/fixation3.jpg></div><div class='cl'><div class='vertical-center'><font style='color:orange'>$55<br><br>now</font></div></div><div class='cr'><div class='vertical-center'>$75<br>in<br>6 weeks</div></div><div class='respDivL'><div class='vertical-center'><font style='color:orange'>(E)</font></div></div><div class='respDivR'><div class='vertical-center'>(I)</div></div></div>","null","$55<br><br>now","$75<br>in<br>6 weeks","0","55","75","6",""
"html-keyboard-response","49","72234","0.0-5.0-1.15","5722c95274e7ff0011a6f011","bdp_td","Sun Mar 26 2023 21:32:16 GMT-0600 (Mountain Daylight Time)","102885","","null","","","","FIX","","<div class='trialBorder'><div class='vertical-center'><img style='vertical-align:center; align:center' src=img/fixation3.jpg></div></div>","null","","","","","","",""
"html-keyboard-response","50","74713","0.0-5.0-2.15","5722c95274e7ff0011a6f011","bdp_td","Sun Mar 26 2023 21:32:16 GMT-0600 (Mountain Daylight Time)","102885","","2479","","","","offer","","<div class='trialBorder'><div class='vertical-center'><img style='vertical-align:center; align:center' src=img/fixation3.jpg></div><div class='cl'><div class='vertical-center'>$27<br><br>now</div></div><div class='cr'><div class='vertical-center'>$50<br>in<br>3 weeks</div></div><div class='respDivL'><div class='vertical-center'>(E)</div></div><div class='respDivR'><div class='vertical-center'>(I)</div></div></div>","I","$27<br><br>now","$50<br>in<br>3 weeks","0","27","50","3","THEN"
"html-keyboard-response","51","74965","0.0-5.0-3.15","5722c95274e7ff0011a6f011","bdp_td","Sun Mar 26 2023 21:32:16 GMT-0600 (Mountain Daylight Time)","102885","","null","","","","offerFB","","<div class='trialBorder'><div class='vertical-center'><img style='vertical-align:center; align:center' src=img/fixation3.jpg></div><div class='cl'><div class='vertical-center'>$27<br><br>now</div></div><div class='cr'><div class='vertical-center'><font style='color:orange'>$50<br>in<br>3 weeks</font></div></div><div class='respDivL'><div class='vertical-center'>(E)</div></div><div class='respDivR'><div class='vertical-center'><font style='color:orange'>(I)</font></div></div></div>","null","$27<br><br>now","$50<br>in<br>3 weeks","0","27","50","3",""
"html-keyboard-response","52","75466","0.0-5.0-1.16","5722c95274e7ff0011a6f011","bdp_td","Sun Mar 26 2023 21:32:16 GMT-0600 (Mountain Daylight Time)","102885","","null","","","","FIX","","<div class='trialBorder'><div class='vertical-center'><img style='vertical-align:center; align:center' src=img/fixation3.jpg></div></div>","null","","","","","","",""
"html-keyboard-response","53","77520","0.0-5.0-2.16","5722c95274e7ff0011a6f011","bdp_td","Sun Mar 26 2023 21:32:16 GMT-0600 (Mountain Daylight Time)","102885","","2054","","","","offer","","<div class='trialBorder'><div class='vertical-center'><img style='vertical-align:center; align:center' src=img/fixation3.jpg></div><div class='cl'><div class='vertical-center'>$14<br><br>now</div></div><div class='cr'><div class='vertical-center'>$25<br>in<br>3 weeks</div></div><div class='respDivL'><div class='vertical-center'>(E)</div></div><div class='respDivR'><div class='vertical-center'>(I)</div></div></div>","E","$14<br><br>now","$25<br>in<br>3 weeks","0","14","25","3","NOW"
"html-keyboard-response","54","77771","0.0-5.0-3.16","5722c95274e7ff0011a6f011","bdp_td","Sun Mar 26 2023 21:32:16 GMT-0600 (Mountain Daylight Time)","102885","","null","","","","offerFB","","<div class='trialBorder'><div class='vertical-center'><img style='vertical-align:center; align:center' src=img/fixation3.jpg></div><div class='cl'><div class='vertical-center'><font style='color:orange'>$14<br><br>now</font></div></div><div class='cr'><div class='vertical-center'>$25<br>in<br>3 weeks</div></div><div class='respDivL'><div class='vertical-center'><font style='color:orange'>(E)</font></div></div><div class='respDivR'><div class='vertical-center'>(I)</div></div></div>","null","$14<br><br>now","$25<br>in<br>3 weeks","0","14","25","3",""
"html-keyboard-response","55","78272","0.0-5.0-1.17","5722c95274e7ff0011a6f011","bdp_td","Sun Mar 26 2023 21:32:16 GMT-0600 (Mountain Daylight Time)","102885","","null","","","","FIX","","<div class='trialBorder'><div class='vertical-center'><img style='vertical-align:center; align:center' src=img/fixation3.jpg></div></div>","null","","","","","","",""
"html-keyboard-response","56","81121","0.0-5.0-2.17","5722c95274e7ff0011a6f011","bdp_td","Sun Mar 26 2023 21:32:16 GMT-0600 (Mountain Daylight Time)","102885","","2849","","","","offer","","<div class='trialBorder'><div class='vertical-center'><img style='vertical-align:center; align:center' src=img/fixation3.jpg></div><div class='cl'><div class='vertical-center'>$75<br>in<br>3 weeks</div></div><div class='cr'><div class='vertical-center'>$41<br><br>now</div></div><div class='respDivL'><div class='vertical-center'>(E)</div></div><div class='respDivR'><div class='vertical-center'>(I)</div></div></div>","E","$41<br><br>now","$75<br>in<br>3 weeks","1","41","75","3","THEN"
"html-keyboard-response","57","81372","0.0-5.0-3.17","5722c95274e7ff0011a6f011","bdp_td","Sun Mar 26 2023 21:32:16 GMT-0600 (Mountain Daylight Time)","102885","","null","","","","offerFB","","<div class='trialBorder'><div class='vertical-center'><img style='vertical-align:center; align:center' src=img/fixation3.jpg></div><div class='cl'><div class='vertical-center'><font style='color:orange'>$75<br>in<br>3 weeks</font></div></div><div class='cr'><div class='vertical-center'>$41<br><br>now</div></div><div class='respDivL'><div class='vertical-center'><font style='color:orange'>(E)</font></div></div><div class='respDivR'><div class='vertical-center'>(I)</div></div></div>","null","$41<br><br>now","$75<br>in<br>3 weeks","1","41","75","3",""
"html-keyboard-response","58","81873","0.0-5.0-1.18","5722c95274e7ff0011a6f011","bdp_td","Sun Mar 26 2023 21:32:16 GMT-0600 (Mountain Daylight Time)","102885","","null","","","","FIX","","<div class='trialBorder'><div class='vertical-center'><img style='vertical-align:center; align:center' src=img/fixation3.jpg></div></div>","null","","","","","","",""
"html-keyboard-response","59","83294","0.0-5.0-2.18","5722c95274e7ff0011a6f011","bdp_td","Sun Mar 26 2023 21:32:16 GMT-0600 (Mountain Daylight Time)","102885","","1421","","","","offer","","<div class='trialBorder'><div class='vertical-center'><img style='vertical-align:center; align:center' src=img/fixation3.jpg></div><div class='cl'><div class='vertical-center'>$22<br><br>now</div></div><div class='cr'><div class='vertical-center'>$25<br>in<br>12 weeks</div></div><div class='respDivL'><div class='vertical-center'>(E)</div></div><div class='respDivR'><div class='vertical-center'>(I)</div></div></div>","E","$22<br><br>now","$25<br>in<br>12 weeks","0","22","25","12","NOW"
"html-keyboard-response","60","83545","0.0-5.0-3.18","5722c95274e7ff0011a6f011","bdp_td","Sun Mar 26 2023 21:32:16 GMT-0600 (Mountain Daylight Time)","102885","","null","","","","offerFB","","<div class='trialBorder'><div class='vertical-center'><img style='vertical-align:center; align:center' src=img/fixation3.jpg></div><div class='cl'><div class='vertical-center'><font style='color:orange'>$22<br><br>now</font></div></div><div class='cr'><div class='vertical-center'>$25<br>in<br>12 weeks</div></div><div class='respDivL'><div class='vertical-center'><font style='color:orange'>(E)</font></div></div><div class='respDivR'><div class='vertical-center'>(I)</div></div></div>","null","$22<br><br>now","$25<br>in<br>12 weeks","0","22","25","12",""
"html-keyboard-response","61","84047","0.0-5.0-1.19","5722c95274e7ff0011a6f011","bdp_td","Sun Mar 26 2023 21:32:16 GMT-0600 (Mountain Daylight Time)","102885","","null","","","","FIX","","<div class='trialBorder'><div class='vertical-center'><img style='vertical-align:center; align:center' src=img/fixation3.jpg></div></div>","null","","","","","","",""
"html-keyboard-response","62","85310","0.0-5.0-2.19","5722c95274e7ff0011a6f011","bdp_td","Sun Mar 26 2023 21:32:16 GMT-0600 (Mountain Daylight Time)","102885","","1263","","","","offer","","<div class='trialBorder'><div class='vertical-center'><img style='vertical-align:center; align:center' src=img/fixation3.jpg></div><div class='cl'><div class='vertical-center'>$60<br>in<br>12 weeks</div></div><div class='cr'><div class='vertical-center'>$54<br><br>now</div></div><div class='respDivL'><div class='vertical-center'>(E)</div></div><div class='respDivR'><div class='vertical-center'>(I)</div></div></div>","I","$54<br><br>now","$60<br>in<br>12 weeks","1","54","60","12","NOW"
"html-keyboard-response","63","85561","0.0-5.0-3.19","5722c95274e7ff0011a6f011","bdp_td","Sun Mar 26 2023 21:32:16 GMT-0600 (Mountain Daylight Time)","102885","","null","","","","offerFB","","<div class='trialBorder'><div class='vertical-center'><img style='vertical-align:center; align:center' src=img/fixation3.jpg></div><div class='cl'><div class='vertical-center'>$60<br>in<br>12 weeks</div></div><div class='cr'><div class='vertical-center'><font style='color:orange'>$54<br><br>now</font></div></div><div class='respDivL'><div class='vertical-center'>(E)</div></div><div class='respDivR'><div class='vertical-center'><font style='color:orange'>(I)</font></div></div></div>","null","$54<br><br>now","$60<br>in<br>12 weeks","1","54","60","12",""
"html-keyboard-response","64","86063","0.0-5.0-1.20","5722c95274e7ff0011a6f011","bdp_td","Sun Mar 26 2023 21:32:16 GMT-0600 (Mountain Daylight Time)","102885","","null","","","","FIX","","<div class='trialBorder'><div class='vertical-center'><img style='vertical-align:center; align:center' src=img/fixation3.jpg></div></div>","null","","","","","","",""
"html-keyboard-response","65","88942","0.0-5.0-2.20","5722c95274e7ff0011a6f011","bdp_td","Sun Mar 26 2023 21:32:16 GMT-0600 (Mountain Daylight Time)","102885","","2878","","","","offer","","<div class='trialBorder'><div class='vertical-center'><img style='vertical-align:center; align:center' src=img/fixation3.jpg></div><div class='cl'><div class='vertical-center'>$54<br><br>now</div></div><div class='cr'><div class='vertical-center'>$80<br>in<br>3 weeks</div></div><div class='respDivL'><div class='vertical-center'>(E)</div></div><div class='respDivR'><div class='vertical-center'>(I)</div></div></div>","I","$54<br><br>now","$80<br>in<br>3 weeks","0","54","80","3","THEN"
"html-keyboard-response","66","89193","0.0-5.0-3.20","5722c95274e7ff0011a6f011","bdp_td","Sun Mar 26 2023 21:32:16 GMT-0600 (Mountain Daylight Time)","102885","","null","","","","offerFB","","<div class='trialBorder'><div class='vertical-center'><img style='vertical-align:center; align:center' src=img/fixation3.jpg></div><div class='cl'><div class='vertical-center'>$54<br><br>now</div></div><div class='cr'><div class='vertical-center'><font style='color:orange'>$80<br>in<br>3 weeks</font></div></div><div class='respDivL'><div class='vertical-center'>(E)</div></div><div class='respDivR'><div class='vertical-center'><font style='color:orange'>(I)</font></div></div></div>","null","$54<br><br>now","$80<br>in<br>3 weeks","0","54","80","3",""
"html-keyboard-response","67","89694","0.0-5.0-1.21","5722c95274e7ff0011a6f011","bdp_td","Sun Mar 26 2023 21:32:16 GMT-0600 (Mountain Daylight Time)","102885","","null","","","","FIX","","<div class='trialBorder'><div class='vertical-center'><img style='vertical-align:center; align:center' src=img/fixation3.jpg></div></div>","null","","","","","","",""
"html-keyboard-response","68","91364","0.0-5.0-2.21","5722c95274e7ff0011a6f011","bdp_td","Sun Mar 26 2023 21:32:16 GMT-0600 (Mountain Daylight Time)","102885","","1670","","","","offer","","<div class='trialBorder'><div class='vertical-center'><img style='vertical-align:center; align:center' src=img/fixation3.jpg></div><div class='cl'><div class='vertical-center'>$30<br>in<br>12 weeks</div></div><div class='cr'><div class='vertical-center'>$28<br><br>now</div></div><div class='respDivL'><div class='vertical-center'>(E)</div></div><div class='respDivR'><div class='vertical-center'>(I)</div></div></div>","I","$28<br><br>now","$30<br>in<br>12 weeks","1","28","30","12","NOW"
"html-keyboard-response","69","91615","0.0-5.0-3.21","5722c95274e7ff0011a6f011","bdp_td","Sun Mar 26 2023 21:32:16 GMT-0600 (Mountain Daylight Time)","102885","","null","","","","offerFB","","<div class='trialBorder'><div class='vertical-center'><img style='vertical-align:center; align:center' src=img/fixation3.jpg></div><div class='cl'><div class='vertical-center'>$30<br>in<br>12 weeks</div></div><div class='cr'><div class='vertical-center'><font style='color:orange'>$28<br><br>now</font></div></div><div class='respDivL'><div class='vertical-center'>(E)</div></div><div class='respDivR'><div class='vertical-center'><font style='color:orange'>(I)</font></div></div></div>","null","$28<br><br>now","$30<br>in<br>12 weeks","1","28","30","12",""
"html-keyboard-response","70","92117","0.0-5.0-1.22","5722c95274e7ff0011a6f011","bdp_td","Sun Mar 26 2023 21:32:16 GMT-0600 (Mountain Daylight Time)","102885","","null","","","","FIX","","<div class='trialBorder'><div class='vertical-center'><img style='vertical-align:center; align:center' src=img/fixation3.jpg></div></div>","null","","","","","","",""
"html-keyboard-response","71","93336","0.0-5.0-2.22","5722c95274e7ff0011a6f011","bdp_td","Sun Mar 26 2023 21:32:16 GMT-0600 (Mountain Daylight Time)","102885","","1219","","","","offer","","<div class='trialBorder'><div class='vertical-center'><img style='vertical-align:center; align:center' src=img/fixation3.jpg></div><div class='cl'><div class='vertical-center'>$60<br>in<br>6 weeks</div></div><div class='cr'><div class='vertical-center'>$49<br><br>now</div></div><div class='respDivL'><div class='vertical-center'>(E)</div></div><div class='respDivR'><div class='vertical-center'>(I)</div></div></div>","I","$49<br><br>now","$60<br>in<br>6 weeks","1","49","60","6","NOW"
"html-keyboard-response","72","93588","0.0-5.0-3.22","5722c95274e7ff0011a6f011","bdp_td","Sun Mar 26 2023 21:32:16 GMT-0600 (Mountain Daylight Time)","102885","","null","","","","offerFB","","<div class='trialBorder'><div class='vertical-center'><img style='vertical-align:center; align:center' src=img/fixation3.jpg></div><div class='cl'><div class='vertical-center'>$60<br>in<br>6 weeks</div></div><div class='cr'><div class='vertical-center'><font style='color:orange'>$49<br><br>now</font></div></div><div class='respDivL'><div class='vertical-center'>(E)</div></div><div class='respDivR'><div class='vertical-center'><font style='color:orange'>(I)</font></div></div></div>","null","$49<br><br>now","$60<br>in<br>6 weeks","1","49","60","6",""
"html-keyboard-response","73","94088","0.0-5.0-1.23","5722c95274e7ff0011a6f011","bdp_td","Sun Mar 26 2023 21:32:16 GMT-0600 (Mountain Daylight Time)","102885","","null","","","","FIX","","<div class='trialBorder'><div class='vertical-center'><img style='vertical-align:center; align:center' src=img/fixation3.jpg></div></div>","null","","","","","","",""
"html-keyboard-response","74","95439","0.0-5.0-2.23","5722c95274e7ff0011a6f011","bdp_td","Sun Mar 26 2023 21:32:16 GMT-0600 (Mountain Daylight Time)","102885","","1349","","","","offer","","<div class='trialBorder'><div class='vertical-center'><img style='vertical-align:center; align:center' src=img/fixation3.jpg></div><div class='cl'><div class='vertical-center'>$55<br>in<br>12 weeks</div></div><div class='cr'><div class='vertical-center'>$54<br><br>now</div></div><div class='respDivL'><div class='vertical-center'>(E)</div></div><div class='respDivR'><div class='vertical-center'>(I)</div></div></div>","I","$54<br><br>now","$55<br>in<br>12 weeks","1","54","55","12","NOW"
"html-keyboard-response","75","95689","0.0-5.0-3.23","5722c95274e7ff0011a6f011","bdp_td","Sun Mar 26 2023 21:32:16 GMT-0600 (Mountain Daylight Time)","102885","","null","","","","offerFB","","<div class='trialBorder'><div class='vertical-center'><img style='vertical-align:center; align:center' src=img/fixation3.jpg></div><div class='cl'><div class='vertical-center'>$55<br>in<br>12 weeks</div></div><div class='cr'><div class='vertical-center'><font style='color:orange'>$54<br><br>now</font></div></div><div class='respDivL'><div class='vertical-center'>(E)</div></div><div class='respDivR'><div class='vertical-center'><font style='color:orange'>(I)</font></div></div></div>","null","$54<br><br>now","$55<br>in<br>12 weeks","1","54","55","12",""
"html-keyboard-response","76","96191","0.0-5.0-1.24","5722c95274e7ff0011a6f011","bdp_td","Sun Mar 26 2023 21:32:16 GMT-0600 (Mountain Daylight Time)","102885","","null","","","","FIX","","<div class='trialBorder'><div class='vertical-center'><img style='vertical-align:center; align:center' src=img/fixation3.jpg></div></div>","null","","","","","","",""
"html-keyboard-response","77","97534","0.0-5.0-2.24","5722c95274e7ff0011a6f011","bdp_td","Sun Mar 26 2023 21:32:16 GMT-0600 (Mountain Daylight Time)","102885","","1343","","","","offer","","<div class='trialBorder'><div class='vertical-center'><img style='vertical-align:center; align:center' src=img/fixation3.jpg></div><div class='cl'><div class='vertical-center'>$78<br><br>now</div></div><div class='cr'><div class='vertical-center'>$80<br>in<br>12 weeks</div></div><div class='respDivL'><div class='vertical-center'>(E)</div></div><div class='respDivR'><div class='vertical-center'>(I)</div></div></div>","E","$78<br><br>now","$80<br>in<br>12 weeks","0","78","80","12","NOW"
"html-keyboard-response","78","97785","0.0-5.0-3.24","5722c95274e7ff0011a6f011","bdp_td","Sun Mar 26 2023 21:32:16 GMT-0600 (Mountain Daylight Time)","102885","","null","","","","offerFB","","<div class='trialBorder'><div class='vertical-center'><img style='vertical-align:center; align:center' src=img/fixation3.jpg></div><div class='cl'><div class='vertical-center'><font style='color:orange'>$78<br><br>now</font></div></div><div class='cr'><div class='vertical-center'>$80<br>in<br>12 weeks</div></div><div class='respDivL'><div class='vertical-center'><font style='color:orange'>(E)</font></div></div><div class='respDivR'><div class='vertical-center'>(I)</div></div></div>","null","$78<br><br>now","$80<br>in<br>12 weeks","0","78","80","12",""
"html-keyboard-response","79","98286","0.0-5.0-1.25","5722c95274e7ff0011a6f011","bdp_td","Sun Mar 26 2023 21:32:16 GMT-0600 (Mountain Daylight Time)","102885","","null","","","","FIX","","<div class='trialBorder'><div class='vertical-center'><img style='vertical-align:center; align:center' src=img/fixation3.jpg></div></div>","null","","","","","","",""
"html-keyboard-response","80","99597","0.0-5.0-2.25","5722c95274e7ff0011a6f011","bdp_td","Sun Mar 26 2023 21:32:16 GMT-0600 (Mountain Daylight Time)","102885","","1310","","","","offer","","<div class='trialBorder'><div class='vertical-center'><img style='vertical-align:center; align:center' src=img/fixation3.jpg></div><div class='cl'><div class='vertical-center'>$15<br><br>now</div></div><div class='cr'><div class='vertical-center'>$35<br>in<br>2 weeks</div></div><div class='respDivL'><div class='vertical-center'>(E)</div></div><div class='respDivR'><div class='vertical-center'>(I)</div></div></div>","I","$15<br><br>now","$35<br>in<br>2 weeks","0","15","35","2","THEN"
"html-keyboard-response","81","99848","0.0-5.0-3.25","5722c95274e7ff0011a6f011","bdp_td","Sun Mar 26 2023 21:32:16 GMT-0600 (Mountain Daylight Time)","102885","","null","","","","offerFB","","<div class='trialBorder'><div class='vertical-center'><img style='vertical-align:center; align:center' src=img/fixation3.jpg></div><div class='cl'><div class='vertical-center'>$15<br><br>now</div></div><div class='cr'><div class='vertical-center'><font style='color:orange'>$35<br>in<br>2 weeks</font></div></div><div class='respDivL'><div class='vertical-center'>(E)</div></div><div class='respDivR'><div class='vertical-center'><font style='color:orange'>(I)</font></div></div></div>","null","$15<br><br>now","$35<br>in<br>2 weeks","0","15","35","2",""
"html-keyboard-response","82","100349","0.0-5.0-1.26","5722c95274e7ff0011a6f011","bdp_td","Sun Mar 26 2023 21:32:16 GMT-0600 (Mountain Daylight Time)","102885","","null","","","","FIX","","<div class='trialBorder'><div class='vertical-center'><img style='vertical-align:center; align:center' src=img/fixation3.jpg></div></div>","null","","","","","","",""
"html-keyboard-response","83","101633","0.0-5.0-2.26","5722c95274e7ff0011a6f011","bdp_td","Sun Mar 26 2023 21:32:16 GMT-0600 (Mountain Daylight Time)","102885","","1283","","","","offer","","<div class='trialBorder'><div class='vertical-center'><img style='vertical-align:center; align:center' src=img/fixation3.jpg></div><div class='cl'><div class='vertical-center'>$35<br>in<br>12 weeks</div></div><div class='cr'><div class='vertical-center'>$34<br><br>now</div></div><div class='respDivL'><div class='vertical-center'>(E)</div></div><div class='respDivR'><div class='vertical-center'>(I)</div></div></div>","I","$34<br><br>now","$35<br>in<br>12 weeks","1","34","35","12","NOW"
"html-keyboard-response","84","101884","0.0-5.0-3.26","5722c95274e7ff0011a6f011","bdp_td","Sun Mar 26 2023 21:32:16 GMT-0600 (Mountain Daylight Time)","102885","","null","","","","offerFB","","<div class='trialBorder'><div class='vertical-center'><img style='vertical-align:center; align:center' src=img/fixation3.jpg></div><div class='cl'><div class='vertical-center'>$35<br>in<br>12 weeks</div></div><div class='cr'><div class='vertical-center'><font style='color:orange'>$34<br><br>now</font></div></div><div class='respDivL'><div class='vertical-center'>(E)</div></div><div class='respDivR'><div class='vertical-center'><font style='color:orange'>(I)</font></div></div></div>","null","$34<br><br>now","$35<br>in<br>12 weeks","1","34","35","12",""
"","","","","5722c95274e7ff0011a6f011","bdp_td","Sun Mar 26 2023 21:32:16 GMT-0600 (Mountain Daylight Time)","102885","","","fullscreenexit","85","101903","fullscreenexit","","","","","","","","","",""
"fullscreen","85","102885","0.0-6.0","5722c95274e7ff0011a6f011","bdp_td","Sun Mar 26 2023 21:32:16 GMT-0600 (Mountain Daylight Time)","102885","","","","","","","true","","","","","","","","",""
"html-keyboard-response","86","103386","0.0-7.0","","","","","","null","","","","","","","null","","","","","","",""
