"trial_type","trial_index","time_elapsed","internal_node_id","subject_id","task","startTime","totalTime","view_history","rt","event","trial","time","trialtype","numBlurs","success","stimulus","key_press","nowOffer","thenOffer","thenLeft","nowAmt","thenAmt","thenWeeks","chosen"
"pavlovia","0","2","0.0-0.0","571144323d47e800096358d9","bdp_td","Sun Mar 26 2023 14:56:56 GMT-0400 (Eastern Daylight Time)","100072","","","","","","","","","","","","","","","","",""
"instructions","1","1746","0.0-1.0","571144323d47e800096358d9","bdp_td","Sun Mar 26 2023 14:56:56 GMT-0400 (Eastern Daylight Time)","100072","[{""page_index"":0,""viewing_time"":1744}]","1744","","","","","","","","","","","","","","",""
"","","","","571144323d47e800096358d9","bdp_td","Sun Mar 26 2023 14:56:56 GMT-0400 (Eastern Daylight Time)","100072","","","blur","2","3006","blurevent","1","","","","","","","","","",""
"","","","","571144323d47e800096358d9","bdp_td","Sun Mar 26 2023 14:56:56 GMT-0400 (Eastern Daylight Time)","100072","","","focus","2","7596","focusevent","","","","","","","","","","",""
"","","","","571144323d47e800096358d9","bdp_td","Sun Mar 26 2023 14:56:56 GMT-0400 (Eastern Daylight Time)","100072","","","fullscreenenter","2","8486","fullscreenenter","","","","","","","","","","",""
"fullscreen","2","9473","0.0-2.0","571144323d47e800096358d9","bdp_td","Sun Mar 26 2023 14:56:56 GMT-0400 (Eastern Daylight Time)","100072","","","","","","","","true","","","","","","","","",""
"instructions","3","32258","0.0-4.0","571144323d47e800096358d9","bdp_td","Sun Mar 26 2023 14:56:56 GMT-0400 (Eastern Daylight Time)","100072","[{""page_index"":0,""viewing_time"":6248},{""page_index"":1,""viewing_time"":10240},{""page_index"":2,""viewing_time"":6296}]","22784","","","","","","","","","","","","","","",""
"image-keyboard-response","4","44003","0.0-5.0-0.0-0.0","571144323d47e800096358d9","bdp_td","Sun Mar 26 2023 14:56:56 GMT-0400 (Eastern Daylight Time)","100072","","11743","","","","blurwarn","1","","","49","","","","","","",""
"html-keyboard-response","5","44755","0.0-5.0-1.0","571144323d47e800096358d9","bdp_td","Sun Mar 26 2023 14:56:56 GMT-0400 (Eastern Daylight Time)","100072","","null","","","","FIX","","","<div class='trialBorder'><div class='vertical-center'><img style='vertical-align:center; align:center' src=img/fixation3.jpg></div></div>","null","","","","","","",""
"html-keyboard-response","6","47858","0.0-5.0-2.0","571144323d47e800096358d9","bdp_td","Sun Mar 26 2023 14:56:56 GMT-0400 (Eastern Daylight Time)","100072","","3103","","","","offer","","","<div class='trialBorder'><div class='vertical-center'><img style='vertical-align:center; align:center' src=img/fixation3.jpg></div><div class='cl'><div class='vertical-center'>$75<br>in<br>6 weeks</div></div><div class='cr'><div class='vertical-center'>$55<br><br>now</div></div><div class='respDivL'><div class='vertical-center'>(E)</div></div><div class='respDivR'><div class='vertical-center'>(I)</div></div></div>","E","$55<br><br>now","$75<br>in<br>6 weeks","1","55","75","6","THEN"
"html-keyboard-response","7","48110","0.0-5.0-3.0","571144323d47e800096358d9","bdp_td","Sun Mar 26 2023 14:56:56 GMT-0400 (Eastern Daylight Time)","100072","","null","","","","offerFB","","","<div class='trialBorder'><div class='vertical-center'><img style='vertical-align:center; align:center' src=img/fixation3.jpg></div><div class='cl'><div class='vertical-center'><font style='color:orange'>$75<br>in<br>6 weeks</font></div></div><div class='cr'><div class='vertical-center'>$55<br><br>now</div></div><div class='respDivL'><div class='vertical-center'><font style='color:orange'>(E)</font></div></div><div class='respDivR'><div class='vertical-center'>(I)</div></div></div>","null","$55<br><br>now","$75<br>in<br>6 weeks","1","55","75","6",""
"html-keyboard-response","8","48611","0.0-5.0-1.1","571144323d47e800096358d9","bdp_td","Sun Mar 26 2023 14:56:56 GMT-0400 (Eastern Daylight Time)","100072","","null","","","","FIX","","","<div class='trialBorder'><div class='vertical-center'><img style='vertical-align:center; align:center' src=img/fixation3.jpg></div></div>","null","","","","","","",""
"html-keyboard-response","9","49786","0.0-5.0-2.1","571144323d47e800096358d9","bdp_td","Sun Mar 26 2023 14:56:56 GMT-0400 (Eastern Daylight Time)","100072","","1175","","","","offer","","","<div class='trialBorder'><div class='vertical-center'><img style='vertical-align:center; align:center' src=img/fixation3.jpg></div><div class='cl'><div class='vertical-center'>$25<br><br>now</div></div><div class='cr'><div class='vertical-center'>$60<br>in<br>3 weeks</div></div><div class='respDivL'><div class='vertical-center'>(E)</div></div><div class='respDivR'><div class='vertical-center'>(I)</div></div></div>","I","$25<br><br>now","$60<br>in<br>3 weeks","0","25","60","3","THEN"
"html-keyboard-response","10","50037","0.0-5.0-3.1","571144323d47e800096358d9","bdp_td","Sun Mar 26 2023 14:56:56 GMT-0400 (Eastern Daylight Time)","100072","","null","","","","offerFB","","","<div class='trialBorder'><div class='vertical-center'><img style='vertical-align:center; align:center' src=img/fixation3.jpg></div><div class='cl'><div class='vertical-center'>$25<br><br>now</div></div><div class='cr'><div class='vertical-center'><font style='color:orange'>$60<br>in<br>3 weeks</font></div></div><div class='respDivL'><div class='vertical-center'>(E)</div></div><div class='respDivR'><div class='vertical-center'><font style='color:orange'>(I)</font></div></div></div>","null","$25<br><br>now","$60<br>in<br>3 weeks","0","25","60","3",""
"html-keyboard-response","11","50538","0.0-5.0-1.2","571144323d47e800096358d9","bdp_td","Sun Mar 26 2023 14:56:56 GMT-0400 (Eastern Daylight Time)","100072","","null","","","","FIX","","","<div class='trialBorder'><div class='vertical-center'><img style='vertical-align:center; align:center' src=img/fixation3.jpg></div></div>","null","","","","","","",""
"html-keyboard-response","12","51666","0.0-5.0-2.2","571144323d47e800096358d9","bdp_td","Sun Mar 26 2023 14:56:56 GMT-0400 (Eastern Daylight Time)","100072","","1127","","","","offer","","","<div class='trialBorder'><div class='vertical-center'><img style='vertical-align:center; align:center' src=img/fixation3.jpg></div><div class='cl'><div class='vertical-center'>$25<br>in<br>12 weeks</div></div><div class='cr'><div class='vertical-center'>$22<br><br>now</div></div><div class='respDivL'><div class='vertical-center'>(E)</div></div><div class='respDivR'><div class='vertical-center'>(I)</div></div></div>","I","$22<br><br>now","$25<br>in<br>12 weeks","1","22","25","12","NOW"
"html-keyboard-response","13","51917","0.0-5.0-3.2","571144323d47e800096358d9","bdp_td","Sun Mar 26 2023 14:56:56 GMT-0400 (Eastern Daylight Time)","100072","","null","","","","offerFB","","","<div class='trialBorder'><div class='vertical-center'><img style='vertical-align:center; align:center' src=img/fixation3.jpg></div><div class='cl'><div class='vertical-center'>$25<br>in<br>12 weeks</div></div><div class='cr'><div class='vertical-center'><font style='color:orange'>$22<br><br>now</font></div></div><div class='respDivL'><div class='vertical-center'>(E)</div></div><div class='respDivR'><div class='vertical-center'><font style='color:orange'>(I)</font></div></div></div>","null","$22<br><br>now","$25<br>in<br>12 weeks","1","22","25","12",""
"html-keyboard-response","14","52419","0.0-5.0-1.3","571144323d47e800096358d9","bdp_td","Sun Mar 26 2023 14:56:56 GMT-0400 (Eastern Daylight Time)","100072","","null","","","","FIX","","","<div class='trialBorder'><div class='vertical-center'><img style='vertical-align:center; align:center' src=img/fixation3.jpg></div></div>","null","","","","","","",""
"html-keyboard-response","15","54882","0.0-5.0-2.3","571144323d47e800096358d9","bdp_td","Sun Mar 26 2023 14:56:56 GMT-0400 (Eastern Daylight Time)","100072","","2463","","","","offer","","","<div class='trialBorder'><div class='vertical-center'><img style='vertical-align:center; align:center' src=img/fixation3.jpg></div><div class='cl'><div class='vertical-center'>$69<br><br>now</div></div><div class='cr'><div class='vertical-center'>$85<br>in<br>6 weeks</div></div><div class='respDivL'><div class='vertical-center'>(E)</div></div><div class='respDivR'><div class='vertical-center'>(I)</div></div></div>","E","$69<br><br>now","$85<br>in<br>6 weeks","0","69","85","6","NOW"
"html-keyboard-response","16","55134","0.0-5.0-3.3","571144323d47e800096358d9","bdp_td","Sun Mar 26 2023 14:56:56 GMT-0400 (Eastern Daylight Time)","100072","","null","","","","offerFB","","","<div class='trialBorder'><div class='vertical-center'><img style='vertical-align:center; align:center' src=img/fixation3.jpg></div><div class='cl'><div class='vertical-center'><font style='color:orange'>$69<br><br>now</font></div></div><div class='cr'><div class='vertical-center'>$85<br>in<br>6 weeks</div></div><div class='respDivL'><div class='vertical-center'><font style='color:orange'>(E)</font></div></div><div class='respDivR'><div class='vertical-center'>(I)</div></div></div>","null","$69<br><br>now","$85<br>in<br>6 weeks","0","69","85","6",""
"html-keyboard-response","17","55635","0.0-5.0-1.4","571144323d47e800096358d9","bdp_td","Sun Mar 26 2023 14:56:56 GMT-0400 (Eastern Daylight Time)","100072","","null","","","","FIX","","","<div class='trialBorder'><div class='vertical-center'><img style='vertical-align:center; align:center' src=img/fixation3.jpg></div></div>","null","","","","","","",""
"html-keyboard-response","18","56890","0.0-5.0-2.4","571144323d47e800096358d9","bdp_td","Sun Mar 26 2023 14:56:56 GMT-0400 (Eastern Daylight Time)","100072","","1255","","","","offer","","","<div class='trialBorder'><div class='vertical-center'><img style='vertical-align:center; align:center' src=img/fixation3.jpg></div><div class='cl'><div class='vertical-center'>$19<br><br>now</div></div><div class='cr'><div class='vertical-center'>$25<br>in<br>6 weeks</div></div><div class='respDivL'><div class='vertical-center'>(E)</div></div><div class='respDivR'><div class='vertical-center'>(I)</div></div></div>","E","$19<br><br>now","$25<br>in<br>6 weeks","0","19","25","6","NOW"
"html-keyboard-response","19","57141","0.0-5.0-3.4","571144323d47e800096358d9","bdp_td","Sun Mar 26 2023 14:56:56 GMT-0400 (Eastern Daylight Time)","100072","","null","","","","offerFB","","","<div class='trialBorder'><div class='vertical-center'><img style='vertical-align:center; align:center' src=img/fixation3.jpg></div><div class='cl'><div class='vertical-center'><font style='color:orange'>$19<br><br>now</font></div></div><div class='cr'><div class='vertical-center'>$25<br>in<br>6 weeks</div></div><div class='respDivL'><div class='vertical-center'><font style='color:orange'>(E)</font></div></div><div class='respDivR'><div class='vertical-center'>(I)</div></div></div>","null","$19<br><br>now","$25<br>in<br>6 weeks","0","19","25","6",""
"html-keyboard-response","20","57643","0.0-5.0-1.5","571144323d47e800096358d9","bdp_td","Sun Mar 26 2023 14:56:56 GMT-0400 (Eastern Daylight Time)","100072","","null","","","","FIX","","","<div class='trialBorder'><div class='vertical-center'><img style='vertical-align:center; align:center' src=img/fixation3.jpg></div></div>","null","","","","","","",""
"html-keyboard-response","21","58626","0.0-5.0-2.5","571144323d47e800096358d9","bdp_td","Sun Mar 26 2023 14:56:56 GMT-0400 (Eastern Daylight Time)","100072","","983","","","","offer","","","<div class='trialBorder'><div class='vertical-center'><img style='vertical-align:center; align:center' src=img/fixation3.jpg></div><div class='cl'><div class='vertical-center'>$27<br><br>now</div></div><div class='cr'><div class='vertical-center'>$50<br>in<br>3 weeks</div></div><div class='respDivL'><div class='vertical-center'>(E)</div></div><div class='respDivR'><div class='vertical-center'>(I)</div></div></div>","I","$27<br><br>now","$50<br>in<br>3 weeks","0","27","50","3","THEN"
"html-keyboard-response","22","58878","0.0-5.0-3.5","571144323d47e800096358d9","bdp_td","Sun Mar 26 2023 14:56:56 GMT-0400 (Eastern Daylight Time)","100072","","null","","","","offerFB","","","<div class='trialBorder'><div class='vertical-center'><img style='vertical-align:center; align:center' src=img/fixation3.jpg></div><div class='cl'><div class='vertical-center'>$27<br><br>now</div></div><div class='cr'><div class='vertical-center'><font style='color:orange'>$50<br>in<br>3 weeks</font></div></div><div class='respDivL'><div class='vertical-center'>(E)</div></div><div class='respDivR'><div class='vertical-center'><font style='color:orange'>(I)</font></div></div></div>","null","$27<br><br>now","$50<br>in<br>3 weeks","0","27","50","3",""
"html-keyboard-response","23","59380","0.0-5.0-1.6","571144323d47e800096358d9","bdp_td","Sun Mar 26 2023 14:56:56 GMT-0400 (Eastern Daylight Time)","100072","","null","","","","FIX","","","<div class='trialBorder'><div class='vertical-center'><img style='vertical-align:center; align:center' src=img/fixation3.jpg></div></div>","null","","","","","","",""
"html-keyboard-response","24","60642","0.0-5.0-2.6","571144323d47e800096358d9","bdp_td","Sun Mar 26 2023 14:56:56 GMT-0400 (Eastern Daylight Time)","100072","","1262","","","","offer","","","<div class='trialBorder'><div class='vertical-center'><img style='vertical-align:center; align:center' src=img/fixation3.jpg></div><div class='cl'><div class='vertical-center'>$24<br><br>now</div></div><div class='cr'><div class='vertical-center'>$35<br>in<br>3 weeks</div></div><div class='respDivL'><div class='vertical-center'>(E)</div></div><div class='respDivR'><div class='vertical-center'>(I)</div></div></div>","I","$24<br><br>now","$35<br>in<br>3 weeks","0","24","35","3","THEN"
"html-keyboard-response","25","60893","0.0-5.0-3.6","571144323d47e800096358d9","bdp_td","Sun Mar 26 2023 14:56:56 GMT-0400 (Eastern Daylight Time)","100072","","null","","","","offerFB","","","<div class='trialBorder'><div class='vertical-center'><img style='vertical-align:center; align:center' src=img/fixation3.jpg></div><div class='cl'><div class='vertical-center'>$24<br><br>now</div></div><div class='cr'><div class='vertical-center'><font style='color:orange'>$35<br>in<br>3 weeks</font></div></div><div class='respDivL'><div class='vertical-center'>(E)</div></div><div class='respDivR'><div class='vertical-center'><font style='color:orange'>(I)</font></div></div></div>","null","$24<br><br>now","$35<br>in<br>3 weeks","0","24","35","3",""
"html-keyboard-response","26","61394","0.0-5.0-1.7","571144323d47e800096358d9","bdp_td","Sun Mar 26 2023 14:56:56 GMT-0400 (Eastern Daylight Time)","100072","","null","","","","FIX","","","<div class='trialBorder'><div class='vertical-center'><img style='vertical-align:center; align:center' src=img/fixation3.jpg></div></div>","null","","","","","","",""
"html-keyboard-response","27","62562","0.0-5.0-2.7","571144323d47e800096358d9","bdp_td","Sun Mar 26 2023 14:56:56 GMT-0400 (Eastern Daylight Time)","100072","","1167","","","","offer","","","<div class='trialBorder'><div class='vertical-center'><img style='vertical-align:center; align:center' src=img/fixation3.jpg></div><div class='cl'><div class='vertical-center'>$30<br>in<br>6 weeks</div></div><div class='cr'><div class='vertical-center'>$25<br><br>now</div></div><div class='respDivL'><div class='vertical-center'>(E)</div></div><div class='respDivR'><div class='vertical-center'>(I)</div></div></div>","I","$25<br><br>now","$30<br>in<br>6 weeks","1","25","30","6","NOW"
"html-keyboard-response","28","62814","0.0-5.0-3.7","571144323d47e800096358d9","bdp_td","Sun Mar 26 2023 14:56:56 GMT-0400 (Eastern Daylight Time)","100072","","null","","","","offerFB","","","<div class='trialBorder'><div class='vertical-center'><img style='vertical-align:center; align:center' src=img/fixation3.jpg></div><div class='cl'><div class='vertical-center'>$30<br>in<br>6 weeks</div></div><div class='cr'><div class='vertical-center'><font style='color:orange'>$25<br><br>now</font></div></div><div class='respDivL'><div class='vertical-center'>(E)</div></div><div class='respDivR'><div class='vertical-center'><font style='color:orange'>(I)</font></div></div></div>","null","$25<br><br>now","$30<br>in<br>6 weeks","1","25","30","6",""
"html-keyboard-response","29","63316","0.0-5.0-1.8","571144323d47e800096358d9","bdp_td","Sun Mar 26 2023 14:56:56 GMT-0400 (Eastern Daylight Time)","100072","","null","","","","FIX","","","<div class='trialBorder'><div class='vertical-center'><img style='vertical-align:center; align:center' src=img/fixation3.jpg></div></div>","null","","","","","","",""
"html-keyboard-response","30","64490","0.0-5.0-2.8","571144323d47e800096358d9","bdp_td","Sun Mar 26 2023 14:56:56 GMT-0400 (Eastern Daylight Time)","100072","","1173","","","","offer","","","<div class='trialBorder'><div class='vertical-center'><img style='vertical-align:center; align:center' src=img/fixation3.jpg></div><div class='cl'><div class='vertical-center'>$50<br>in<br>6 weeks</div></div><div class='cr'><div class='vertical-center'>$34<br><br>now</div></div><div class='respDivL'><div class='vertical-center'>(E)</div></div><div class='respDivR'><div class='vertical-center'>(I)</div></div></div>","I","$34<br><br>now","$50<br>in<br>6 weeks","1","34","50","6","NOW"
"html-keyboard-response","31","64741","0.0-5.0-3.8","571144323d47e800096358d9","bdp_td","Sun Mar 26 2023 14:56:56 GMT-0400 (Eastern Daylight Time)","100072","","null","","","","offerFB","","","<div class='trialBorder'><div class='vertical-center'><img style='vertical-align:center; align:center' src=img/fixation3.jpg></div><div class='cl'><div class='vertical-center'>$50<br>in<br>6 weeks</div></div><div class='cr'><div class='vertical-center'><font style='color:orange'>$34<br><br>now</font></div></div><div class='respDivL'><div class='vertical-center'>(E)</div></div><div class='respDivR'><div class='vertical-center'><font style='color:orange'>(I)</font></div></div></div>","null","$34<br><br>now","$50<br>in<br>6 weeks","1","34","50","6",""
"html-keyboard-response","32","65241","0.0-5.0-1.9","571144323d47e800096358d9","bdp_td","Sun Mar 26 2023 14:56:56 GMT-0400 (Eastern Daylight Time)","100072","","null","","","","FIX","","","<div class='trialBorder'><div class='vertical-center'><img style='vertical-align:center; align:center' src=img/fixation3.jpg></div></div>","null","","","","","","",""
"html-keyboard-response","33","66378","0.0-5.0-2.9","571144323d47e800096358d9","bdp_td","Sun Mar 26 2023 14:56:56 GMT-0400 (Eastern Daylight Time)","100072","","1136","","","","offer","","","<div class='trialBorder'><div class='vertical-center'><img style='vertical-align:center; align:center' src=img/fixation3.jpg></div><div class='cl'><div class='vertical-center'>$54<br><br>now</div></div><div class='cr'><div class='vertical-center'>$55<br>in<br>12 weeks</div></div><div class='respDivL'><div class='vertical-center'>(E)</div></div><div class='respDivR'><div class='vertical-center'>(I)</div></div></div>","E","$54<br><br>now","$55<br>in<br>12 weeks","0","54","55","12","NOW"
"html-keyboard-response","34","66630","0.0-5.0-3.9","571144323d47e800096358d9","bdp_td","Sun Mar 26 2023 14:56:56 GMT-0400 (Eastern Daylight Time)","100072","","null","","","","offerFB","","","<div class='trialBorder'><div class='vertical-center'><img style='vertical-align:center; align:center' src=img/fixation3.jpg></div><div class='cl'><div class='vertical-center'><font style='color:orange'>$54<br><br>now</font></div></div><div class='cr'><div class='vertical-center'>$55<br>in<br>12 weeks</div></div><div class='respDivL'><div class='vertical-center'><font style='color:orange'>(E)</font></div></div><div class='respDivR'><div class='vertical-center'>(I)</div></div></div>","null","$54<br><br>now","$55<br>in<br>12 weeks","0","54","55","12",""
"html-keyboard-response","35","67131","0.0-5.0-1.10","571144323d47e800096358d9","bdp_td","Sun Mar 26 2023 14:56:56 GMT-0400 (Eastern Daylight Time)","100072","","null","","","","FIX","","","<div class='trialBorder'><div class='vertical-center'><img style='vertical-align:center; align:center' src=img/fixation3.jpg></div></div>","null","","","","","","",""
"html-keyboard-response","36","68242","0.0-5.0-2.10","571144323d47e800096358d9","bdp_td","Sun Mar 26 2023 14:56:56 GMT-0400 (Eastern Daylight Time)","100072","","1111","","","","offer","","","<div class='trialBorder'><div class='vertical-center'><img style='vertical-align:center; align:center' src=img/fixation3.jpg></div><div class='cl'><div class='vertical-center'>$78<br><br>now</div></div><div class='cr'><div class='vertical-center'>$80<br>in<br>12 weeks</div></div><div class='respDivL'><div class='vertical-center'>(E)</div></div><div class='respDivR'><div class='vertical-center'>(I)</div></div></div>","E","$78<br><br>now","$80<br>in<br>12 weeks","0","78","80","12","NOW"
"html-keyboard-response","37","68493","0.0-5.0-3.10","571144323d47e800096358d9","bdp_td","Sun Mar 26 2023 14:56:56 GMT-0400 (Eastern Daylight Time)","100072","","null","","","","offerFB","","","<div class='trialBorder'><div class='vertical-center'><img style='vertical-align:center; align:center' src=img/fixation3.jpg></div><div class='cl'><div class='vertical-center'><font style='color:orange'>$78<br><br>now</font></div></div><div class='cr'><div class='vertical-center'>$80<br>in<br>12 weeks</div></div><div class='respDivL'><div class='vertical-center'><font style='color:orange'>(E)</font></div></div><div class='respDivR'><div class='vertical-center'>(I)</div></div></div>","null","$78<br><br>now","$80<br>in<br>12 weeks","0","78","80","12",""
"html-keyboard-response","38","68995","0.0-5.0-1.11","571144323d47e800096358d9","bdp_td","Sun Mar 26 2023 14:56:56 GMT-0400 (Eastern Daylight Time)","100072","","null","","","","FIX","","","<div class='trialBorder'><div class='vertical-center'><img style='vertical-align:center; align:center' src=img/fixation3.jpg></div></div>","null","","","","","","",""
"html-keyboard-response","39","70002","0.0-5.0-2.11","571144323d47e800096358d9","bdp_td","Sun Mar 26 2023 14:56:56 GMT-0400 (Eastern Daylight Time)","100072","","1007","","","","offer","","","<div class='trialBorder'><div class='vertical-center'><img style='vertical-align:center; align:center' src=img/fixation3.jpg></div><div class='cl'><div class='vertical-center'>$49<br><br>now</div></div><div class='cr'><div class='vertical-center'>$60<br>in<br>6 weeks</div></div><div class='respDivL'><div class='vertical-center'>(E)</div></div><div class='respDivR'><div class='vertical-center'>(I)</div></div></div>","E","$49<br><br>now","$60<br>in<br>6 weeks","0","49","60","6","NOW"
"html-keyboard-response","40","70253","0.0-5.0-3.11","571144323d47e800096358d9","bdp_td","Sun Mar 26 2023 14:56:56 GMT-0400 (Eastern Daylight Time)","100072","","null","","","","offerFB","","","<div class='trialBorder'><div class='vertical-center'><img style='vertical-align:center; align:center' src=img/fixation3.jpg></div><div class='cl'><div class='vertical-center'><font style='color:orange'>$49<br><br>now</font></div></div><div class='cr'><div class='vertical-center'>$60<br>in<br>6 weeks</div></div><div class='respDivL'><div class='vertical-center'><font style='color:orange'>(E)</font></div></div><div class='respDivR'><div class='vertical-center'>(I)</div></div></div>","null","$49<br><br>now","$60<br>in<br>6 weeks","0","49","60","6",""
"html-keyboard-response","41","70754","0.0-5.0-1.12","571144323d47e800096358d9","bdp_td","Sun Mar 26 2023 14:56:56 GMT-0400 (Eastern Daylight Time)","100072","","null","","","","FIX","","","<div class='trialBorder'><div class='vertical-center'><img style='vertical-align:center; align:center' src=img/fixation3.jpg></div></div>","null","","","","","","",""
"html-keyboard-response","42","71834","0.0-5.0-2.12","571144323d47e800096358d9","bdp_td","Sun Mar 26 2023 14:56:56 GMT-0400 (Eastern Daylight Time)","100072","","1079","","","","offer","","","<div class='trialBorder'><div class='vertical-center'><img style='vertical-align:center; align:center' src=img/fixation3.jpg></div><div class='cl'><div class='vertical-center'>$54<br><br>now</div></div><div class='cr'><div class='vertical-center'>$80<br>in<br>3 weeks</div></div><div class='respDivL'><div class='vertical-center'>(E)</div></div><div class='respDivR'><div class='vertical-center'>(I)</div></div></div>","I","$54<br><br>now","$80<br>in<br>3 weeks","0","54","80","3","THEN"
"html-keyboard-response","43","72085","0.0-5.0-3.12","571144323d47e800096358d9","bdp_td","Sun Mar 26 2023 14:56:56 GMT-0400 (Eastern Daylight Time)","100072","","null","","","","offerFB","","","<div class='trialBorder'><div class='vertical-center'><img style='vertical-align:center; align:center' src=img/fixation3.jpg></div><div class='cl'><div class='vertical-center'>$54<br><br>now</div></div><div class='cr'><div class='vertical-center'><font style='color:orange'>$80<br>in<br>3 weeks</font></div></div><div class='respDivL'><div class='vertical-center'>(E)</div></div><div class='respDivR'><div class='vertical-center'><font style='color:orange'>(I)</font></div></div></div>","null","$54<br><br>now","$80<br>in<br>3 weeks","0","54","80","3",""
"html-keyboard-response","44","72586","0.0-5.0-1.13","571144323d47e800096358d9","bdp_td","Sun Mar 26 2023 14:56:56 GMT-0400 (Eastern Daylight Time)","100072","","null","","","","FIX","","","<div class='trialBorder'><div class='vertical-center'><img style='vertical-align:center; align:center' src=img/fixation3.jpg></div></div>","null","","","","","","",""
"html-keyboard-response","45","73754","0.0-5.0-2.13","571144323d47e800096358d9","bdp_td","Sun Mar 26 2023 14:56:56 GMT-0400 (Eastern Daylight Time)","100072","","1168","","","","offer","","","<div class='trialBorder'><div class='vertical-center'><img style='vertical-align:center; align:center' src=img/fixation3.jpg></div><div class='cl'><div class='vertical-center'>$30<br>in<br>12 weeks</div></div><div class='cr'><div class='vertical-center'>$28<br><br>now</div></div><div class='respDivL'><div class='vertical-center'>(E)</div></div><div class='respDivR'><div class='vertical-center'>(I)</div></div></div>","I","$28<br><br>now","$30<br>in<br>12 weeks","1","28","30","12","NOW"
"html-keyboard-response","46","74006","0.0-5.0-3.13","571144323d47e800096358d9","bdp_td","Sun Mar 26 2023 14:56:56 GMT-0400 (Eastern Daylight Time)","100072","","null","","","","offerFB","","","<div class='trialBorder'><div class='vertical-center'><img style='vertical-align:center; align:center' src=img/fixation3.jpg></div><div class='cl'><div class='vertical-center'>$30<br>in<br>12 weeks</div></div><div class='cr'><div class='vertical-center'><font style='color:orange'>$28<br><br>now</font></div></div><div class='respDivL'><div class='vertical-center'>(E)</div></div><div class='respDivR'><div class='vertical-center'><font style='color:orange'>(I)</font></div></div></div>","null","$28<br><br>now","$30<br>in<br>12 weeks","1","28","30","12",""
"html-keyboard-response","47","74507","0.0-5.0-1.14","571144323d47e800096358d9","bdp_td","Sun Mar 26 2023 14:56:56 GMT-0400 (Eastern Daylight Time)","100072","","null","","","","FIX","","","<div class='trialBorder'><div class='vertical-center'><img style='vertical-align:center; align:center' src=img/fixation3.jpg></div></div>","null","","","","","","",""
"html-keyboard-response","48","76290","0.0-5.0-2.14","571144323d47e800096358d9","bdp_td","Sun Mar 26 2023 14:56:56 GMT-0400 (Eastern Daylight Time)","100072","","1783","","","","offer","","","<div class='trialBorder'><div class='vertical-center'><img style='vertical-align:center; align:center' src=img/fixation3.jpg></div><div class='cl'><div class='vertical-center'>$35<br>in<br>2 weeks</div></div><div class='cr'><div class='vertical-center'>$15<br><br>now</div></div><div class='respDivL'><div class='vertical-center'>(E)</div></div><div class='respDivR'><div class='vertical-center'>(I)</div></div></div>","E","$15<br><br>now","$35<br>in<br>2 weeks","1","15","35","2","THEN"
"html-keyboard-response","49","76541","0.0-5.0-3.14","571144323d47e800096358d9","bdp_td","Sun Mar 26 2023 14:56:56 GMT-0400 (Eastern Daylight Time)","100072","","null","","","","offerFB","","","<div class='trialBorder'><div class='vertical-center'><img style='vertical-align:center; align:center' src=img/fixation3.jpg></div><div class='cl'><div class='vertical-center'><font style='color:orange'>$35<br>in<br>2 weeks</font></div></div><div class='cr'><div class='vertical-center'>$15<br><br>now</div></div><div class='respDivL'><div class='vertical-center'><font style='color:orange'>(E)</font></div></div><div class='respDivR'><div class='vertical-center'>(I)</div></div></div>","null","$15<br><br>now","$35<br>in<br>2 weeks","1","15","35","2",""
"html-keyboard-response","50","77043","0.0-5.0-1.15","571144323d47e800096358d9","bdp_td","Sun Mar 26 2023 14:56:56 GMT-0400 (Eastern Daylight Time)","100072","","null","","","","FIX","","","<div class='trialBorder'><div class='vertical-center'><img style='vertical-align:center; align:center' src=img/fixation3.jpg></div></div>","null","","","","","","",""
"html-keyboard-response","51","78467","0.0-5.0-2.15","571144323d47e800096358d9","bdp_td","Sun Mar 26 2023 14:56:56 GMT-0400 (Eastern Daylight Time)","100072","","1423","","","","offer","","","<div class='trialBorder'><div class='vertical-center'><img style='vertical-align:center; align:center' src=img/fixation3.jpg></div><div class='cl'><div class='vertical-center'>$34<br><br>now</div></div><div class='cr'><div class='vertical-center'>$35<br>in<br>12 weeks</div></div><div class='respDivL'><div class='vertical-center'>(E)</div></div><div class='respDivR'><div class='vertical-center'>(I)</div></div></div>","E","$34<br><br>now","$35<br>in<br>12 weeks","0","34","35","12","NOW"
"html-keyboard-response","52","78718","0.0-5.0-3.15","571144323d47e800096358d9","bdp_td","Sun Mar 26 2023 14:56:56 GMT-0400 (Eastern Daylight Time)","100072","","null","","","","offerFB","","","<div class='trialBorder'><div class='vertical-center'><img style='vertical-align:center; align:center' src=img/fixation3.jpg></div><div class='cl'><div class='vertical-center'><font style='color:orange'>$34<br><br>now</font></div></div><div class='cr'><div class='vertical-center'>$35<br>in<br>12 weeks</div></div><div class='respDivL'><div class='vertical-center'><font style='color:orange'>(E)</font></div></div><div class='respDivR'><div class='vertical-center'>(I)</div></div></div>","null","$34<br><br>now","$35<br>in<br>12 weeks","0","34","35","12",""
"html-keyboard-response","53","79219","0.0-5.0-1.16","571144323d47e800096358d9","bdp_td","Sun Mar 26 2023 14:56:56 GMT-0400 (Eastern Daylight Time)","100072","","null","","","","FIX","","","<div class='trialBorder'><div class='vertical-center'><img style='vertical-align:center; align:center' src=img/fixation3.jpg></div></div>","null","","","","","","",""
"html-keyboard-response","54","80242","0.0-5.0-2.16","571144323d47e800096358d9","bdp_td","Sun Mar 26 2023 14:56:56 GMT-0400 (Eastern Daylight Time)","100072","","1022","","","","offer","","","<div class='trialBorder'><div class='vertical-center'><img style='vertical-align:center; align:center' src=img/fixation3.jpg></div><div class='cl'><div class='vertical-center'>$85<br>in<br>12 weeks</div></div><div class='cr'><div class='vertical-center'>$80<br><br>now</div></div><div class='respDivL'><div class='vertical-center'>(E)</div></div><div class='respDivR'><div class='vertical-center'>(I)</div></div></div>","I","$80<br><br>now","$85<br>in<br>12 weeks","1","80","85","12","NOW"
"html-keyboard-response","55","80493","0.0-5.0-3.16","571144323d47e800096358d9","bdp_td","Sun Mar 26 2023 14:56:56 GMT-0400 (Eastern Daylight Time)","100072","","null","","","","offerFB","","","<div class='trialBorder'><div class='vertical-center'><img style='vertical-align:center; align:center' src=img/fixation3.jpg></div><div class='cl'><div class='vertical-center'>$85<br>in<br>12 weeks</div></div><div class='cr'><div class='vertical-center'><font style='color:orange'>$80<br><br>now</font></div></div><div class='respDivL'><div class='vertical-center'>(E)</div></div><div class='respDivR'><div class='vertical-center'><font style='color:orange'>(I)</font></div></div></div>","null","$80<br><br>now","$85<br>in<br>12 weeks","1","80","85","12",""
"html-keyboard-response","56","80994","0.0-5.0-1.17","571144323d47e800096358d9","bdp_td","Sun Mar 26 2023 14:56:56 GMT-0400 (Eastern Daylight Time)","100072","","null","","","","FIX","","","<div class='trialBorder'><div class='vertical-center'><img style='vertical-align:center; align:center' src=img/fixation3.jpg></div></div>","null","","","","","","",""
"html-keyboard-response","57","82018","0.0-5.0-2.17","571144323d47e800096358d9","bdp_td","Sun Mar 26 2023 14:56:56 GMT-0400 (Eastern Daylight Time)","100072","","1023","","","","offer","","","<div class='trialBorder'><div class='vertical-center'><img style='vertical-align:center; align:center' src=img/fixation3.jpg></div><div class='cl'><div class='vertical-center'>$55<br>in<br>1 week</div></div><div class='cr'><div class='vertical-center'>$20<br><br>now</div></div><div class='respDivL'><div class='vertical-center'>(E)</div></div><div class='respDivR'><div class='vertical-center'>(I)</div></div></div>","E","$20<br><br>now","$55<br>in<br>1 week","1","20","55","1","THEN"
"html-keyboard-response","58","82269","0.0-5.0-3.17","571144323d47e800096358d9","bdp_td","Sun Mar 26 2023 14:56:56 GMT-0400 (Eastern Daylight Time)","100072","","null","","","","offerFB","","","<div class='trialBorder'><div class='vertical-center'><img style='vertical-align:center; align:center' src=img/fixation3.jpg></div><div class='cl'><div class='vertical-center'><font style='color:orange'>$55<br>in<br>1 week</font></div></div><div class='cr'><div class='vertical-center'>$20<br><br>now</div></div><div class='respDivL'><div class='vertical-center'><font style='color:orange'>(E)</font></div></div><div class='respDivR'><div class='vertical-center'>(I)</div></div></div>","null","$20<br><br>now","$55<br>in<br>1 week","1","20","55","1",""
"html-keyboard-response","59","82770","0.0-5.0-1.18","571144323d47e800096358d9","bdp_td","Sun Mar 26 2023 14:56:56 GMT-0400 (Eastern Daylight Time)","100072","","null","","","","FIX","","","<div class='trialBorder'><div class='vertical-center'><img style='vertical-align:center; align:center' src=img/fixation3.jpg></div></div>","null","","","","","","",""
"html-keyboard-response","60","83658","0.0-5.0-2.18","571144323d47e800096358d9","bdp_td","Sun Mar 26 2023 14:56:56 GMT-0400 (Eastern Daylight Time)","100072","","887","","","","offer","","","<div class='trialBorder'><div class='vertical-center'><img style='vertical-align:center; align:center' src=img/fixation3.jpg></div><div class='cl'><div class='vertical-center'>$54<br><br>now</div></div><div class='cr'><div class='vertical-center'>$60<br>in<br>12 weeks</div></div><div class='respDivL'><div class='vertical-center'>(E)</div></div><div class='respDivR'><div class='vertical-center'>(I)</div></div></div>","E","$54<br><br>now","$60<br>in<br>12 weeks","0","54","60","12","NOW"
"html-keyboard-response","61","83909","0.0-5.0-3.18","571144323d47e800096358d9","bdp_td","Sun Mar 26 2023 14:56:56 GMT-0400 (Eastern Daylight Time)","100072","","null","","","","offerFB","","","<div class='trialBorder'><div class='vertical-center'><img style='vertical-align:center; align:center' src=img/fixation3.jpg></div><div class='cl'><div class='vertical-center'><font style='color:orange'>$54<br><br>now</font></div></div><div class='cr'><div class='vertical-center'>$60<br>in<br>12 weeks</div></div><div class='respDivL'><div class='vertical-center'><font style='color:orange'>(E)</font></div></div><div class='respDivR'><div class='vertical-center'>(I)</div></div></div>","null","$54<br><br>now","$60<br>in<br>12 weeks","0","54","60","12",""
"html-keyboard-response","62","84411","0.0-5.0-1.19","571144323d47e800096358d9","bdp_td","Sun Mar 26 2023 14:56:56 GMT-0400 (Eastern Daylight Time)","100072","","null","","","","FIX","","","<div class='trialBorder'><div class='vertical-center'><img style='vertical-align:center; align:center' src=img/fixation3.jpg></div></div>","null","","","","","","",""
"html-keyboard-response","63","85906","0.0-5.0-2.19","571144323d47e800096358d9","bdp_td","Sun Mar 26 2023 14:56:56 GMT-0400 (Eastern Daylight Time)","100072","","1495","","","","offer","","","<div class='trialBorder'><div class='vertical-center'><img style='vertical-align:center; align:center' src=img/fixation3.jpg></div><div class='cl'><div class='vertical-center'>$11<br><br>now</div></div><div class='cr'><div class='vertical-center'>$30<br>in<br>2 weeks</div></div><div class='respDivL'><div class='vertical-center'>(E)</div></div><div class='respDivR'><div class='vertical-center'>(I)</div></div></div>","I","$11<br><br>now","$30<br>in<br>2 weeks","0","11","30","2","THEN"
"html-keyboard-response","64","86158","0.0-5.0-3.19","571144323d47e800096358d9","bdp_td","Sun Mar 26 2023 14:56:56 GMT-0400 (Eastern Daylight Time)","100072","","null","","","","offerFB","","","<div class='trialBorder'><div class='vertical-center'><img style='vertical-align:center; align:center' src=img/fixation3.jpg></div><div class='cl'><div class='vertical-center'>$11<br><br>now</div></div><div class='cr'><div class='vertical-center'><font style='color:orange'>$30<br>in<br>2 weeks</font></div></div><div class='respDivL'><div class='vertical-center'>(E)</div></div><div class='respDivR'><div class='vertical-center'><font style='color:orange'>(I)</font></div></div></div>","null","$11<br><br>now","$30<br>in<br>2 weeks","0","11","30","2",""
"html-keyboard-response","65","86660","0.0-5.0-1.20","571144323d47e800096358d9","bdp_td","Sun Mar 26 2023 14:56:56 GMT-0400 (Eastern Daylight Time)","100072","","null","","","","FIX","","","<div class='trialBorder'><div class='vertical-center'><img style='vertical-align:center; align:center' src=img/fixation3.jpg></div></div>","null","","","","","","",""
"html-keyboard-response","66","87850","0.0-5.0-2.20","571144323d47e800096358d9","bdp_td","Sun Mar 26 2023 14:56:56 GMT-0400 (Eastern Daylight Time)","100072","","1190","","","","offer","","","<div class='trialBorder'><div class='vertical-center'><img style='vertical-align:center; align:center' src=img/fixation3.jpg></div><div class='cl'><div class='vertical-center'>$25<br>in<br>3 weeks</div></div><div class='cr'><div class='vertical-center'>$14<br><br>now</div></div><div class='respDivL'><div class='vertical-center'>(E)</div></div><div class='respDivR'><div class='vertical-center'>(I)</div></div></div>","E","$14<br><br>now","$25<br>in<br>3 weeks","1","14","25","3","THEN"
"html-keyboard-response","67","88102","0.0-5.0-3.20","571144323d47e800096358d9","bdp_td","Sun Mar 26 2023 14:56:56 GMT-0400 (Eastern Daylight Time)","100072","","null","","","","offerFB","","","<div class='trialBorder'><div class='vertical-center'><img style='vertical-align:center; align:center' src=img/fixation3.jpg></div><div class='cl'><div class='vertical-center'><font style='color:orange'>$25<br>in<br>3 weeks</font></div></div><div class='cr'><div class='vertical-center'>$14<br><br>now</div></div><div class='respDivL'><div class='vertical-center'><font style='color:orange'>(E)</font></div></div><div class='respDivR'><div class='vertical-center'>(I)</div></div></div>","null","$14<br><br>now","$25<br>in<br>3 weeks","1","14","25","3",""
"html-keyboard-response","68","88602","0.0-5.0-1.21","571144323d47e800096358d9","bdp_td","Sun Mar 26 2023 14:56:56 GMT-0400 (Eastern Daylight Time)","100072","","null","","","","FIX","","","<div class='trialBorder'><div class='vertical-center'><img style='vertical-align:center; align:center' src=img/fixation3.jpg></div></div>","null","","","","","","",""
"html-keyboard-response","69","89882","0.0-5.0-2.21","571144323d47e800096358d9","bdp_td","Sun Mar 26 2023 14:56:56 GMT-0400 (Eastern Daylight Time)","100072","","1279","","","","offer","","","<div class='trialBorder'><div class='vertical-center'><img style='vertical-align:center; align:center' src=img/fixation3.jpg></div><div class='cl'><div class='vertical-center'>$33<br><br>now</div></div><div class='cr'><div class='vertical-center'>$80<br>in<br>2 weeks</div></div><div class='respDivL'><div class='vertical-center'>(E)</div></div><div class='respDivR'><div class='vertical-center'>(I)</div></div></div>","I","$33<br><br>now","$80<br>in<br>2 weeks","0","33","80","2","THEN"
"html-keyboard-response","70","90134","0.0-5.0-3.21","571144323d47e800096358d9","bdp_td","Sun Mar 26 2023 14:56:56 GMT-0400 (Eastern Daylight Time)","100072","","null","","","","offerFB","","","<div class='trialBorder'><div class='vertical-center'><img style='vertical-align:center; align:center' src=img/fixation3.jpg></div><div class='cl'><div class='vertical-center'>$33<br><br>now</div></div><div class='cr'><div class='vertical-center'><font style='color:orange'>$80<br>in<br>2 weeks</font></div></div><div class='respDivL'><div class='vertical-center'>(E)</div></div><div class='respDivR'><div class='vertical-center'><font style='color:orange'>(I)</font></div></div></div>","null","$33<br><br>now","$80<br>in<br>2 weeks","0","33","80","2",""
"html-keyboard-response","71","90635","0.0-5.0-1.22","571144323d47e800096358d9","bdp_td","Sun Mar 26 2023 14:56:56 GMT-0400 (Eastern Daylight Time)","100072","","null","","","","FIX","","","<div class='trialBorder'><div class='vertical-center'><img style='vertical-align:center; align:center' src=img/fixation3.jpg></div></div>","null","","","","","","",""
"html-keyboard-response","72","91762","0.0-5.0-2.22","571144323d47e800096358d9","bdp_td","Sun Mar 26 2023 14:56:56 GMT-0400 (Eastern Daylight Time)","100072","","1127","","","","offer","","","<div class='trialBorder'><div class='vertical-center'><img style='vertical-align:center; align:center' src=img/fixation3.jpg></div><div class='cl'><div class='vertical-center'>$75<br>in<br>3 weeks</div></div><div class='cr'><div class='vertical-center'>$41<br><br>now</div></div><div class='respDivL'><div class='vertical-center'>(E)</div></div><div class='respDivR'><div class='vertical-center'>(I)</div></div></div>","E","$41<br><br>now","$75<br>in<br>3 weeks","1","41","75","3","THEN"
"html-keyboard-response","73","92013","0.0-5.0-3.22","571144323d47e800096358d9","bdp_td","Sun Mar 26 2023 14:56:56 GMT-0400 (Eastern Daylight Time)","100072","","null","","","","offerFB","","","<div class='trialBorder'><div class='vertical-center'><img style='vertical-align:center; align:center' src=img/fixation3.jpg></div><div class='cl'><div class='vertical-center'><font style='color:orange'>$75<br>in<br>3 weeks</font></div></div><div class='cr'><div class='vertical-center'>$41<br><br>now</div></div><div class='respDivL'><div class='vertical-center'><font style='color:orange'>(E)</font></div></div><div class='respDivR'><div class='vertical-center'>(I)</div></div></div>","null","$41<br><br>now","$75<br>in<br>3 weeks","1","41","75","3",""
"html-keyboard-response","74","92514","0.0-5.0-1.23","571144323d47e800096358d9","bdp_td","Sun Mar 26 2023 14:56:56 GMT-0400 (Eastern Daylight Time)","100072","","null","","","","FIX","","","<div class='trialBorder'><div class='vertical-center'><img style='vertical-align:center; align:center' src=img/fixation3.jpg></div></div>","null","","","","","","",""
"html-keyboard-response","75","93474","0.0-5.0-2.23","571144323d47e800096358d9","bdp_td","Sun Mar 26 2023 14:56:56 GMT-0400 (Eastern Daylight Time)","100072","","960","","","","offer","","","<div class='trialBorder'><div class='vertical-center'><img style='vertical-align:center; align:center' src=img/fixation3.jpg></div><div class='cl'><div class='vertical-center'>$40<br><br>now</div></div><div class='cr'><div class='vertical-center'>$55<br>in<br>6 weeks</div></div><div class='respDivL'><div class='vertical-center'>(E)</div></div><div class='respDivR'><div class='vertical-center'>(I)</div></div></div>","E","$40<br><br>now","$55<br>in<br>6 weeks","0","40","55","6","NOW"
"html-keyboard-response","76","93725","0.0-5.0-3.23","571144323d47e800096358d9","bdp_td","Sun Mar 26 2023 14:56:56 GMT-0400 (Eastern Daylight Time)","100072","","null","","","","offerFB","","","<div class='trialBorder'><div class='vertical-center'><img style='vertical-align:center; align:center' src=img/fixation3.jpg></div><div class='cl'><div class='vertical-center'><font style='color:orange'>$40<br><br>now</font></div></div><div class='cr'><div class='vertical-center'>$55<br>in<br>6 weeks</div></div><div class='respDivL'><div class='vertical-center'><font style='color:orange'>(E)</font></div></div><div class='respDivR'><div class='vertical-center'>(I)</div></div></div>","null","$40<br><br>now","$55<br>in<br>6 weeks","0","40","55","6",""
"html-keyboard-response","77","94226","0.0-5.0-1.24","571144323d47e800096358d9","bdp_td","Sun Mar 26 2023 14:56:56 GMT-0400 (Eastern Daylight Time)","100072","","null","","","","FIX","","","<div class='trialBorder'><div class='vertical-center'><img style='vertical-align:center; align:center' src=img/fixation3.jpg></div></div>","null","","","","","","",""
"html-keyboard-response","78","95010","0.0-5.0-2.24","571144323d47e800096358d9","bdp_td","Sun Mar 26 2023 14:56:56 GMT-0400 (Eastern Daylight Time)","100072","","783","","","","offer","","","<div class='trialBorder'><div class='vertical-center'><img style='vertical-align:center; align:center' src=img/fixation3.jpg></div><div class='cl'><div class='vertical-center'>$85<br>in<br>1 week</div></div><div class='cr'><div class='vertical-center'>$31<br><br>now</div></div><div class='respDivL'><div class='vertical-center'>(E)</div></div><div class='respDivR'><div class='vertical-center'>(I)</div></div></div>","E","$31<br><br>now","$85<br>in<br>1 week","1","31","85","1","THEN"
"html-keyboard-response","79","95261","0.0-5.0-3.24","571144323d47e800096358d9","bdp_td","Sun Mar 26 2023 14:56:56 GMT-0400 (Eastern Daylight Time)","100072","","null","","","","offerFB","","","<div class='trialBorder'><div class='vertical-center'><img style='vertical-align:center; align:center' src=img/fixation3.jpg></div><div class='cl'><div class='vertical-center'><font style='color:orange'>$85<br>in<br>1 week</font></div></div><div class='cr'><div class='vertical-center'>$31<br><br>now</div></div><div class='respDivL'><div class='vertical-center'><font style='color:orange'>(E)</font></div></div><div class='respDivR'><div class='vertical-center'>(I)</div></div></div>","null","$31<br><br>now","$85<br>in<br>1 week","1","31","85","1",""
"html-keyboard-response","80","95762","0.0-5.0-1.25","571144323d47e800096358d9","bdp_td","Sun Mar 26 2023 14:56:56 GMT-0400 (Eastern Daylight Time)","100072","","null","","","","FIX","","","<div class='trialBorder'><div class='vertical-center'><img style='vertical-align:center; align:center' src=img/fixation3.jpg></div></div>","null","","","","","","",""
"html-keyboard-response","81","96986","0.0-5.0-2.25","571144323d47e800096358d9","bdp_td","Sun Mar 26 2023 14:56:56 GMT-0400 (Eastern Daylight Time)","100072","","1223","","","","offer","","","<div class='trialBorder'><div class='vertical-center'><img style='vertical-align:center; align:center' src=img/fixation3.jpg></div><div class='cl'><div class='vertical-center'>$50<br>in<br>12 weeks</div></div><div class='cr'><div class='vertical-center'>$47<br><br>now</div></div><div class='respDivL'><div class='vertical-center'>(E)</div></div><div class='respDivR'><div class='vertical-center'>(I)</div></div></div>","I","$47<br><br>now","$50<br>in<br>12 weeks","1","47","50","12","NOW"
"html-keyboard-response","82","97237","0.0-5.0-3.25","571144323d47e800096358d9","bdp_td","Sun Mar 26 2023 14:56:56 GMT-0400 (Eastern Daylight Time)","100072","","null","","","","offerFB","","","<div class='trialBorder'><div class='vertical-center'><img style='vertical-align:center; align:center' src=img/fixation3.jpg></div><div class='cl'><div class='vertical-center'>$50<br>in<br>12 weeks</div></div><div class='cr'><div class='vertical-center'><font style='color:orange'>$47<br><br>now</font></div></div><div class='respDivL'><div class='vertical-center'>(E)</div></div><div class='respDivR'><div class='vertical-center'><font style='color:orange'>(I)</font></div></div></div>","null","$47<br><br>now","$50<br>in<br>12 weeks","1","47","50","12",""
"html-keyboard-response","83","97739","0.0-5.0-1.26","571144323d47e800096358d9","bdp_td","Sun Mar 26 2023 14:56:56 GMT-0400 (Eastern Daylight Time)","100072","","null","","","","FIX","","","<div class='trialBorder'><div class='vertical-center'><img style='vertical-align:center; align:center' src=img/fixation3.jpg></div></div>","null","","","","","","",""
"html-keyboard-response","84","98818","0.0-5.0-2.26","571144323d47e800096358d9","bdp_td","Sun Mar 26 2023 14:56:56 GMT-0400 (Eastern Daylight Time)","100072","","1078","","","","offer","","","<div class='trialBorder'><div class='vertical-center'><img style='vertical-align:center; align:center' src=img/fixation3.jpg></div><div class='cl'><div class='vertical-center'>$75<br>in<br>12 weeks</div></div><div class='cr'><div class='vertical-center'>$67<br><br>now</div></div><div class='respDivL'><div class='vertical-center'>(E)</div></div><div class='respDivR'><div class='vertical-center'>(I)</div></div></div>","I","$67<br><br>now","$75<br>in<br>12 weeks","1","67","75","12","NOW"
"html-keyboard-response","85","99070","0.0-5.0-3.26","571144323d47e800096358d9","bdp_td","Sun Mar 26 2023 14:56:56 GMT-0400 (Eastern Daylight Time)","100072","","null","","","","offerFB","","","<div class='trialBorder'><div class='vertical-center'><img style='vertical-align:center; align:center' src=img/fixation3.jpg></div><div class='cl'><div class='vertical-center'>$75<br>in<br>12 weeks</div></div><div class='cr'><div class='vertical-center'><font style='color:orange'>$67<br><br>now</font></div></div><div class='respDivL'><div class='vertical-center'>(E)</div></div><div class='respDivR'><div class='vertical-center'><font style='color:orange'>(I)</font></div></div></div>","null","$67<br><br>now","$75<br>in<br>12 weeks","1","67","75","12",""
"","","","","571144323d47e800096358d9","bdp_td","Sun Mar 26 2023 14:56:56 GMT-0400 (Eastern Daylight Time)","100072","","","fullscreenexit","86","99086","fullscreenexit","","","","","","","","","","",""
"fullscreen","86","100071","0.0-6.0","571144323d47e800096358d9","bdp_td","Sun Mar 26 2023 14:56:56 GMT-0400 (Eastern Daylight Time)","100072","","","","","","","","true","","","","","","","","",""
"html-keyboard-response","87","100572","0.0-7.0","","","","","","null","","","","","","","","null","","","","","","",""
