"trial_type","trial_index","time_elapsed","internal_node_id","subject_id","task","startTime","totalTime","view_history","rt","event","trial","time","trialtype","success","stimulus","key_press","nowOffer","thenOffer","thenLeft","nowAmt","thenAmt","thenWeeks","chosen"
"pavlovia","0","29","0.0-0.0","62dc4a5fef307ee53c61afcc","bdp_td","Tue Mar 28 2023 21:06:30 GMT-0800 (Alaska Daylight Time)","120151","","","","","","","","","","","","","","","",""
"instructions","1","12272","0.0-1.0","62dc4a5fef307ee53c61afcc","bdp_td","Tue Mar 28 2023 21:06:30 GMT-0800 (Alaska Daylight Time)","120151","[{""page_index"":0,""viewing_time"":12240}]","12241","","","","","","","","","","","","","",""
"","","","","62dc4a5fef307ee53c61afcc","bdp_td","Tue Mar 28 2023 21:06:30 GMT-0800 (Alaska Daylight Time)","120151","","","fullscreenenter","2","16485","fullscreenenter","","","","","","","","","",""
"fullscreen","2","17473","0.0-2.0","62dc4a5fef307ee53c61afcc","bdp_td","Tue Mar 28 2023 21:06:30 GMT-0800 (Alaska Daylight Time)","120151","","","","","","","true","","","","","","","","",""
"instructions","3","38492","0.0-4.0","62dc4a5fef307ee53c61afcc","bdp_td","Tue Mar 28 2023 21:06:30 GMT-0800 (Alaska Daylight Time)","120151","[{""page_index"":0,""viewing_time"":14921},{""page_index"":1,""viewing_time"":3755},{""page_index"":2,""viewing_time"":2327}]","21003","","","","","","","","","","","","","",""
"html-keyboard-response","4","39001","0.0-5.0-1.0","62dc4a5fef307ee53c61afcc","bdp_td","Tue Mar 28 2023 21:06:30 GMT-0800 (Alaska Daylight Time)","120151","","null","","","","FIX","","<div class='trialBorder'><div class='vertical-center'><img style='vertical-align:center; align:center' src=img/fixation3.jpg></div></div>","null","","","","","","",""
"html-keyboard-response","5","41098","0.0-5.0-2.0","62dc4a5fef307ee53c61afcc","bdp_td","Tue Mar 28 2023 21:06:30 GMT-0800 (Alaska Daylight Time)","120151","","2089","","","","offer","","<div class='trialBorder'><div class='vertical-center'><img style='vertical-align:center; align:center' src=img/fixation3.jpg></div><div class='cl'><div class='vertical-center'>$30<br>in<br>12 weeks</div></div><div class='cr'><div class='vertical-center'>$28<br><br>now</div></div><div class='respDivL'><div class='vertical-center'>(E)</div></div><div class='respDivR'><div class='vertical-center'>(I)</div></div></div>","I","$28<br><br>now","$30<br>in<br>12 weeks","1","28","30","12","NOW"
"html-keyboard-response","6","41354","0.0-5.0-3.0","62dc4a5fef307ee53c61afcc","bdp_td","Tue Mar 28 2023 21:06:30 GMT-0800 (Alaska Daylight Time)","120151","","null","","","","offerFB","","<div class='trialBorder'><div class='vertical-center'><img style='vertical-align:center; align:center' src=img/fixation3.jpg></div><div class='cl'><div class='vertical-center'>$30<br>in<br>12 weeks</div></div><div class='cr'><div class='vertical-center'><font style='color:orange'>$28<br><br>now</font></div></div><div class='respDivL'><div class='vertical-center'>(E)</div></div><div class='respDivR'><div class='vertical-center'><font style='color:orange'>(I)</font></div></div></div>","null","$28<br><br>now","$30<br>in<br>12 weeks","1","28","30","12",""
"html-keyboard-response","7","41861","0.0-5.0-1.1","62dc4a5fef307ee53c61afcc","bdp_td","Tue Mar 28 2023 21:06:30 GMT-0800 (Alaska Daylight Time)","120151","","null","","","","FIX","","<div class='trialBorder'><div class='vertical-center'><img style='vertical-align:center; align:center' src=img/fixation3.jpg></div></div>","null","","","","","","",""
"html-keyboard-response","8","43885","0.0-5.0-2.1","62dc4a5fef307ee53c61afcc","bdp_td","Tue Mar 28 2023 21:06:30 GMT-0800 (Alaska Daylight Time)","120151","","2019","","","","offer","","<div class='trialBorder'><div class='vertical-center'><img style='vertical-align:center; align:center' src=img/fixation3.jpg></div><div class='cl'><div class='vertical-center'>$40<br><br>now</div></div><div class='cr'><div class='vertical-center'>$55<br>in<br>6 weeks</div></div><div class='respDivL'><div class='vertical-center'>(E)</div></div><div class='respDivR'><div class='vertical-center'>(I)</div></div></div>","E","$40<br><br>now","$55<br>in<br>6 weeks","0","40","55","6","NOW"
"html-keyboard-response","9","44138","0.0-5.0-3.1","62dc4a5fef307ee53c61afcc","bdp_td","Tue Mar 28 2023 21:06:30 GMT-0800 (Alaska Daylight Time)","120151","","null","","","","offerFB","","<div class='trialBorder'><div class='vertical-center'><img style='vertical-align:center; align:center' src=img/fixation3.jpg></div><div class='cl'><div class='vertical-center'><font style='color:orange'>$40<br><br>now</font></div></div><div class='cr'><div class='vertical-center'>$55<br>in<br>6 weeks</div></div><div class='respDivL'><div class='vertical-center'><font style='color:orange'>(E)</font></div></div><div class='respDivR'><div class='vertical-center'>(I)</div></div></div>","null","$40<br><br>now","$55<br>in<br>6 weeks","0","40","55","6",""
"html-keyboard-response","10","44641","0.0-5.0-1.2","62dc4a5fef307ee53c61afcc","bdp_td","Tue Mar 28 2023 21:06:30 GMT-0800 (Alaska Daylight Time)","120151","","null","","","","FIX","","<div class='trialBorder'><div class='vertical-center'><img style='vertical-align:center; align:center' src=img/fixation3.jpg></div></div>","null","","","","","","",""
"html-keyboard-response","11","45945","0.0-5.0-2.2","62dc4a5fef307ee53c61afcc","bdp_td","Tue Mar 28 2023 21:06:30 GMT-0800 (Alaska Daylight Time)","120151","","1298","","","","offer","","<div class='trialBorder'><div class='vertical-center'><img style='vertical-align:center; align:center' src=img/fixation3.jpg></div><div class='cl'><div class='vertical-center'>$34<br><br>now</div></div><div class='cr'><div class='vertical-center'>$35<br>in<br>12 weeks</div></div><div class='respDivL'><div class='vertical-center'>(E)</div></div><div class='respDivR'><div class='vertical-center'>(I)</div></div></div>","E","$34<br><br>now","$35<br>in<br>12 weeks","0","34","35","12","NOW"
"html-keyboard-response","12","46203","0.0-5.0-3.2","62dc4a5fef307ee53c61afcc","bdp_td","Tue Mar 28 2023 21:06:30 GMT-0800 (Alaska Daylight Time)","120151","","null","","","","offerFB","","<div class='trialBorder'><div class='vertical-center'><img style='vertical-align:center; align:center' src=img/fixation3.jpg></div><div class='cl'><div class='vertical-center'><font style='color:orange'>$34<br><br>now</font></div></div><div class='cr'><div class='vertical-center'>$35<br>in<br>12 weeks</div></div><div class='respDivL'><div class='vertical-center'><font style='color:orange'>(E)</font></div></div><div class='respDivR'><div class='vertical-center'>(I)</div></div></div>","null","$34<br><br>now","$35<br>in<br>12 weeks","0","34","35","12",""
"html-keyboard-response","13","46706","0.0-5.0-1.3","62dc4a5fef307ee53c61afcc","bdp_td","Tue Mar 28 2023 21:06:30 GMT-0800 (Alaska Daylight Time)","120151","","null","","","","FIX","","<div class='trialBorder'><div class='vertical-center'><img style='vertical-align:center; align:center' src=img/fixation3.jpg></div></div>","null","","","","","","",""
"html-keyboard-response","14","49736","0.0-5.0-2.3","62dc4a5fef307ee53c61afcc","bdp_td","Tue Mar 28 2023 21:06:30 GMT-0800 (Alaska Daylight Time)","120151","","3023","","","","offer","","<div class='trialBorder'><div class='vertical-center'><img style='vertical-align:center; align:center' src=img/fixation3.jpg></div><div class='cl'><div class='vertical-center'>$25<br>in<br>3 weeks</div></div><div class='cr'><div class='vertical-center'>$14<br><br>now</div></div><div class='respDivL'><div class='vertical-center'>(E)</div></div><div class='respDivR'><div class='vertical-center'>(I)</div></div></div>","I","$14<br><br>now","$25<br>in<br>3 weeks","1","14","25","3","NOW"
"html-keyboard-response","15","49993","0.0-5.0-3.3","62dc4a5fef307ee53c61afcc","bdp_td","Tue Mar 28 2023 21:06:30 GMT-0800 (Alaska Daylight Time)","120151","","null","","","","offerFB","","<div class='trialBorder'><div class='vertical-center'><img style='vertical-align:center; align:center' src=img/fixation3.jpg></div><div class='cl'><div class='vertical-center'>$25<br>in<br>3 weeks</div></div><div class='cr'><div class='vertical-center'><font style='color:orange'>$14<br><br>now</font></div></div><div class='respDivL'><div class='vertical-center'>(E)</div></div><div class='respDivR'><div class='vertical-center'><font style='color:orange'>(I)</font></div></div></div>","null","$14<br><br>now","$25<br>in<br>3 weeks","1","14","25","3",""
"html-keyboard-response","16","50499","0.0-5.0-1.4","62dc4a5fef307ee53c61afcc","bdp_td","Tue Mar 28 2023 21:06:30 GMT-0800 (Alaska Daylight Time)","120151","","null","","","","FIX","","<div class='trialBorder'><div class='vertical-center'><img style='vertical-align:center; align:center' src=img/fixation3.jpg></div></div>","null","","","","","","",""
"html-keyboard-response","17","52079","0.0-5.0-2.4","62dc4a5fef307ee53c61afcc","bdp_td","Tue Mar 28 2023 21:06:30 GMT-0800 (Alaska Daylight Time)","120151","","1572","","","","offer","","<div class='trialBorder'><div class='vertical-center'><img style='vertical-align:center; align:center' src=img/fixation3.jpg></div><div class='cl'><div class='vertical-center'>$80<br>in<br>3 weeks</div></div><div class='cr'><div class='vertical-center'>$54<br><br>now</div></div><div class='respDivL'><div class='vertical-center'>(E)</div></div><div class='respDivR'><div class='vertical-center'>(I)</div></div></div>","E","$54<br><br>now","$80<br>in<br>3 weeks","1","54","80","3","THEN"
"html-keyboard-response","18","52337","0.0-5.0-3.4","62dc4a5fef307ee53c61afcc","bdp_td","Tue Mar 28 2023 21:06:30 GMT-0800 (Alaska Daylight Time)","120151","","null","","","","offerFB","","<div class='trialBorder'><div class='vertical-center'><img style='vertical-align:center; align:center' src=img/fixation3.jpg></div><div class='cl'><div class='vertical-center'><font style='color:orange'>$80<br>in<br>3 weeks</font></div></div><div class='cr'><div class='vertical-center'>$54<br><br>now</div></div><div class='respDivL'><div class='vertical-center'><font style='color:orange'>(E)</font></div></div><div class='respDivR'><div class='vertical-center'>(I)</div></div></div>","null","$54<br><br>now","$80<br>in<br>3 weeks","1","54","80","3",""
"html-keyboard-response","19","52841","0.0-5.0-1.5","62dc4a5fef307ee53c61afcc","bdp_td","Tue Mar 28 2023 21:06:30 GMT-0800 (Alaska Daylight Time)","120151","","null","","","","FIX","","<div class='trialBorder'><div class='vertical-center'><img style='vertical-align:center; align:center' src=img/fixation3.jpg></div></div>","null","","","","","","",""
"html-keyboard-response","20","54348","0.0-5.0-2.5","62dc4a5fef307ee53c61afcc","bdp_td","Tue Mar 28 2023 21:06:30 GMT-0800 (Alaska Daylight Time)","120151","","1503","","","","offer","","<div class='trialBorder'><div class='vertical-center'><img style='vertical-align:center; align:center' src=img/fixation3.jpg></div><div class='cl'><div class='vertical-center'>$35<br>in<br>2 weeks</div></div><div class='cr'><div class='vertical-center'>$15<br><br>now</div></div><div class='respDivL'><div class='vertical-center'>(E)</div></div><div class='respDivR'><div class='vertical-center'>(I)</div></div></div>","E","$15<br><br>now","$35<br>in<br>2 weeks","1","15","35","2","THEN"
"html-keyboard-response","21","54603","0.0-5.0-3.5","62dc4a5fef307ee53c61afcc","bdp_td","Tue Mar 28 2023 21:06:30 GMT-0800 (Alaska Daylight Time)","120151","","null","","","","offerFB","","<div class='trialBorder'><div class='vertical-center'><img style='vertical-align:center; align:center' src=img/fixation3.jpg></div><div class='cl'><div class='vertical-center'><font style='color:orange'>$35<br>in<br>2 weeks</font></div></div><div class='cr'><div class='vertical-center'>$15<br><br>now</div></div><div class='respDivL'><div class='vertical-center'><font style='color:orange'>(E)</font></div></div><div class='respDivR'><div class='vertical-center'>(I)</div></div></div>","null","$15<br><br>now","$35<br>in<br>2 weeks","1","15","35","2",""
"html-keyboard-response","22","55110","0.0-5.0-1.6","62dc4a5fef307ee53c61afcc","bdp_td","Tue Mar 28 2023 21:06:30 GMT-0800 (Alaska Daylight Time)","120151","","null","","","","FIX","","<div class='trialBorder'><div class='vertical-center'><img style='vertical-align:center; align:center' src=img/fixation3.jpg></div></div>","null","","","","","","",""
"html-keyboard-response","23","57415","0.0-5.0-2.6","62dc4a5fef307ee53c61afcc","bdp_td","Tue Mar 28 2023 21:06:30 GMT-0800 (Alaska Daylight Time)","120151","","2302","","","","offer","","<div class='trialBorder'><div class='vertical-center'><img style='vertical-align:center; align:center' src=img/fixation3.jpg></div><div class='cl'><div class='vertical-center'>$22<br><br>now</div></div><div class='cr'><div class='vertical-center'>$25<br>in<br>12 weeks</div></div><div class='respDivL'><div class='vertical-center'>(E)</div></div><div class='respDivR'><div class='vertical-center'>(I)</div></div></div>","E","$22<br><br>now","$25<br>in<br>12 weeks","0","22","25","12","NOW"
"html-keyboard-response","24","57670","0.0-5.0-3.6","62dc4a5fef307ee53c61afcc","bdp_td","Tue Mar 28 2023 21:06:30 GMT-0800 (Alaska Daylight Time)","120151","","null","","","","offerFB","","<div class='trialBorder'><div class='vertical-center'><img style='vertical-align:center; align:center' src=img/fixation3.jpg></div><div class='cl'><div class='vertical-center'><font style='color:orange'>$22<br><br>now</font></div></div><div class='cr'><div class='vertical-center'>$25<br>in<br>12 weeks</div></div><div class='respDivL'><div class='vertical-center'><font style='color:orange'>(E)</font></div></div><div class='respDivR'><div class='vertical-center'>(I)</div></div></div>","null","$22<br><br>now","$25<br>in<br>12 weeks","0","22","25","12",""
"html-keyboard-response","25","58175","0.0-5.0-1.7","62dc4a5fef307ee53c61afcc","bdp_td","Tue Mar 28 2023 21:06:30 GMT-0800 (Alaska Daylight Time)","120151","","null","","","","FIX","","<div class='trialBorder'><div class='vertical-center'><img style='vertical-align:center; align:center' src=img/fixation3.jpg></div></div>","null","","","","","","",""
"html-keyboard-response","26","61088","0.0-5.0-2.7","62dc4a5fef307ee53c61afcc","bdp_td","Tue Mar 28 2023 21:06:30 GMT-0800 (Alaska Daylight Time)","120151","","2906","","","","offer","","<div class='trialBorder'><div class='vertical-center'><img style='vertical-align:center; align:center' src=img/fixation3.jpg></div><div class='cl'><div class='vertical-center'>$85<br>in<br>1 week</div></div><div class='cr'><div class='vertical-center'>$31<br><br>now</div></div><div class='respDivL'><div class='vertical-center'>(E)</div></div><div class='respDivR'><div class='vertical-center'>(I)</div></div></div>","E","$31<br><br>now","$85<br>in<br>1 week","1","31","85","1","THEN"
"html-keyboard-response","27","61343","0.0-5.0-3.7","62dc4a5fef307ee53c61afcc","bdp_td","Tue Mar 28 2023 21:06:30 GMT-0800 (Alaska Daylight Time)","120151","","null","","","","offerFB","","<div class='trialBorder'><div class='vertical-center'><img style='vertical-align:center; align:center' src=img/fixation3.jpg></div><div class='cl'><div class='vertical-center'><font style='color:orange'>$85<br>in<br>1 week</font></div></div><div class='cr'><div class='vertical-center'>$31<br><br>now</div></div><div class='respDivL'><div class='vertical-center'><font style='color:orange'>(E)</font></div></div><div class='respDivR'><div class='vertical-center'>(I)</div></div></div>","null","$31<br><br>now","$85<br>in<br>1 week","1","31","85","1",""
"html-keyboard-response","28","61847","0.0-5.0-1.8","62dc4a5fef307ee53c61afcc","bdp_td","Tue Mar 28 2023 21:06:30 GMT-0800 (Alaska Daylight Time)","120151","","null","","","","FIX","","<div class='trialBorder'><div class='vertical-center'><img style='vertical-align:center; align:center' src=img/fixation3.jpg></div></div>","null","","","","","","",""
"html-keyboard-response","29","64172","0.0-5.0-2.8","62dc4a5fef307ee53c61afcc","bdp_td","Tue Mar 28 2023 21:06:30 GMT-0800 (Alaska Daylight Time)","120151","","2318","","","","offer","","<div class='trialBorder'><div class='vertical-center'><img style='vertical-align:center; align:center' src=img/fixation3.jpg></div><div class='cl'><div class='vertical-center'>$27<br><br>now</div></div><div class='cr'><div class='vertical-center'>$50<br>in<br>3 weeks</div></div><div class='respDivL'><div class='vertical-center'>(E)</div></div><div class='respDivR'><div class='vertical-center'>(I)</div></div></div>","I","$27<br><br>now","$50<br>in<br>3 weeks","0","27","50","3","THEN"
"html-keyboard-response","30","64427","0.0-5.0-3.8","62dc4a5fef307ee53c61afcc","bdp_td","Tue Mar 28 2023 21:06:30 GMT-0800 (Alaska Daylight Time)","120151","","null","","","","offerFB","","<div class='trialBorder'><div class='vertical-center'><img style='vertical-align:center; align:center' src=img/fixation3.jpg></div><div class='cl'><div class='vertical-center'>$27<br><br>now</div></div><div class='cr'><div class='vertical-center'><font style='color:orange'>$50<br>in<br>3 weeks</font></div></div><div class='respDivL'><div class='vertical-center'>(E)</div></div><div class='respDivR'><div class='vertical-center'><font style='color:orange'>(I)</font></div></div></div>","null","$27<br><br>now","$50<br>in<br>3 weeks","0","27","50","3",""
"html-keyboard-response","31","64930","0.0-5.0-1.9","62dc4a5fef307ee53c61afcc","bdp_td","Tue Mar 28 2023 21:06:30 GMT-0800 (Alaska Daylight Time)","120151","","null","","","","FIX","","<div class='trialBorder'><div class='vertical-center'><img style='vertical-align:center; align:center' src=img/fixation3.jpg></div></div>","null","","","","","","",""
"html-keyboard-response","32","67344","0.0-5.0-2.9","62dc4a5fef307ee53c61afcc","bdp_td","Tue Mar 28 2023 21:06:30 GMT-0800 (Alaska Daylight Time)","120151","","2409","","","","offer","","<div class='trialBorder'><div class='vertical-center'><img style='vertical-align:center; align:center' src=img/fixation3.jpg></div><div class='cl'><div class='vertical-center'>$25<br><br>now</div></div><div class='cr'><div class='vertical-center'>$60<br>in<br>3 weeks</div></div><div class='respDivL'><div class='vertical-center'>(E)</div></div><div class='respDivR'><div class='vertical-center'>(I)</div></div></div>","I","$25<br><br>now","$60<br>in<br>3 weeks","0","25","60","3","THEN"
"html-keyboard-response","33","67600","0.0-5.0-3.9","62dc4a5fef307ee53c61afcc","bdp_td","Tue Mar 28 2023 21:06:30 GMT-0800 (Alaska Daylight Time)","120151","","null","","","","offerFB","","<div class='trialBorder'><div class='vertical-center'><img style='vertical-align:center; align:center' src=img/fixation3.jpg></div><div class='cl'><div class='vertical-center'>$25<br><br>now</div></div><div class='cr'><div class='vertical-center'><font style='color:orange'>$60<br>in<br>3 weeks</font></div></div><div class='respDivL'><div class='vertical-center'>(E)</div></div><div class='respDivR'><div class='vertical-center'><font style='color:orange'>(I)</font></div></div></div>","null","$25<br><br>now","$60<br>in<br>3 weeks","0","25","60","3",""
"html-keyboard-response","34","68107","0.0-5.0-1.10","62dc4a5fef307ee53c61afcc","bdp_td","Tue Mar 28 2023 21:06:30 GMT-0800 (Alaska Daylight Time)","120151","","null","","","","FIX","","<div class='trialBorder'><div class='vertical-center'><img style='vertical-align:center; align:center' src=img/fixation3.jpg></div></div>","null","","","","","","",""
"html-keyboard-response","35","70230","0.0-5.0-2.10","62dc4a5fef307ee53c61afcc","bdp_td","Tue Mar 28 2023 21:06:30 GMT-0800 (Alaska Daylight Time)","120151","","2118","","","","offer","","<div class='trialBorder'><div class='vertical-center'><img style='vertical-align:center; align:center' src=img/fixation3.jpg></div><div class='cl'><div class='vertical-center'>$50<br>in<br>6 weeks</div></div><div class='cr'><div class='vertical-center'>$34<br><br>now</div></div><div class='respDivL'><div class='vertical-center'>(E)</div></div><div class='respDivR'><div class='vertical-center'>(I)</div></div></div>","I","$34<br><br>now","$50<br>in<br>6 weeks","1","34","50","6","NOW"
"html-keyboard-response","36","70487","0.0-5.0-3.10","62dc4a5fef307ee53c61afcc","bdp_td","Tue Mar 28 2023 21:06:30 GMT-0800 (Alaska Daylight Time)","120151","","null","","","","offerFB","","<div class='trialBorder'><div class='vertical-center'><img style='vertical-align:center; align:center' src=img/fixation3.jpg></div><div class='cl'><div class='vertical-center'>$50<br>in<br>6 weeks</div></div><div class='cr'><div class='vertical-center'><font style='color:orange'>$34<br><br>now</font></div></div><div class='respDivL'><div class='vertical-center'>(E)</div></div><div class='respDivR'><div class='vertical-center'><font style='color:orange'>(I)</font></div></div></div>","null","$34<br><br>now","$50<br>in<br>6 weeks","1","34","50","6",""
"html-keyboard-response","37","70992","0.0-5.0-1.11","62dc4a5fef307ee53c61afcc","bdp_td","Tue Mar 28 2023 21:06:30 GMT-0800 (Alaska Daylight Time)","120151","","null","","","","FIX","","<div class='trialBorder'><div class='vertical-center'><img style='vertical-align:center; align:center' src=img/fixation3.jpg></div></div>","null","","","","","","",""
"html-keyboard-response","38","73254","0.0-5.0-2.11","62dc4a5fef307ee53c61afcc","bdp_td","Tue Mar 28 2023 21:06:30 GMT-0800 (Alaska Daylight Time)","120151","","2255","","","","offer","","<div class='trialBorder'><div class='vertical-center'><img style='vertical-align:center; align:center' src=img/fixation3.jpg></div><div class='cl'><div class='vertical-center'>$75<br>in<br>6 weeks</div></div><div class='cr'><div class='vertical-center'>$55<br><br>now</div></div><div class='respDivL'><div class='vertical-center'>(E)</div></div><div class='respDivR'><div class='vertical-center'>(I)</div></div></div>","I","$55<br><br>now","$75<br>in<br>6 weeks","1","55","75","6","NOW"
"html-keyboard-response","39","73509","0.0-5.0-3.11","62dc4a5fef307ee53c61afcc","bdp_td","Tue Mar 28 2023 21:06:30 GMT-0800 (Alaska Daylight Time)","120151","","null","","","","offerFB","","<div class='trialBorder'><div class='vertical-center'><img style='vertical-align:center; align:center' src=img/fixation3.jpg></div><div class='cl'><div class='vertical-center'>$75<br>in<br>6 weeks</div></div><div class='cr'><div class='vertical-center'><font style='color:orange'>$55<br><br>now</font></div></div><div class='respDivL'><div class='vertical-center'>(E)</div></div><div class='respDivR'><div class='vertical-center'><font style='color:orange'>(I)</font></div></div></div>","null","$55<br><br>now","$75<br>in<br>6 weeks","1","55","75","6",""
"html-keyboard-response","40","74015","0.0-5.0-1.12","62dc4a5fef307ee53c61afcc","bdp_td","Tue Mar 28 2023 21:06:30 GMT-0800 (Alaska Daylight Time)","120151","","null","","","","FIX","","<div class='trialBorder'><div class='vertical-center'><img style='vertical-align:center; align:center' src=img/fixation3.jpg></div></div>","null","","","","","","",""
"html-keyboard-response","41","76109","0.0-5.0-2.12","62dc4a5fef307ee53c61afcc","bdp_td","Tue Mar 28 2023 21:06:30 GMT-0800 (Alaska Daylight Time)","120151","","2087","","","","offer","","<div class='trialBorder'><div class='vertical-center'><img style='vertical-align:center; align:center' src=img/fixation3.jpg></div><div class='cl'><div class='vertical-center'>$80<br>in<br>2 weeks</div></div><div class='cr'><div class='vertical-center'>$33<br><br>now</div></div><div class='respDivL'><div class='vertical-center'>(E)</div></div><div class='respDivR'><div class='vertical-center'>(I)</div></div></div>","E","$33<br><br>now","$80<br>in<br>2 weeks","1","33","80","2","THEN"
"html-keyboard-response","42","76364","0.0-5.0-3.12","62dc4a5fef307ee53c61afcc","bdp_td","Tue Mar 28 2023 21:06:30 GMT-0800 (Alaska Daylight Time)","120151","","null","","","","offerFB","","<div class='trialBorder'><div class='vertical-center'><img style='vertical-align:center; align:center' src=img/fixation3.jpg></div><div class='cl'><div class='vertical-center'><font style='color:orange'>$80<br>in<br>2 weeks</font></div></div><div class='cr'><div class='vertical-center'>$33<br><br>now</div></div><div class='respDivL'><div class='vertical-center'><font style='color:orange'>(E)</font></div></div><div class='respDivR'><div class='vertical-center'>(I)</div></div></div>","null","$33<br><br>now","$80<br>in<br>2 weeks","1","33","80","2",""
"html-keyboard-response","43","76870","0.0-5.0-1.13","62dc4a5fef307ee53c61afcc","bdp_td","Tue Mar 28 2023 21:06:30 GMT-0800 (Alaska Daylight Time)","120151","","null","","","","FIX","","<div class='trialBorder'><div class='vertical-center'><img style='vertical-align:center; align:center' src=img/fixation3.jpg></div></div>","null","","","","","","",""
"html-keyboard-response","44","79793","0.0-5.0-2.13","62dc4a5fef307ee53c61afcc","bdp_td","Tue Mar 28 2023 21:06:30 GMT-0800 (Alaska Daylight Time)","120151","","2918","","","","offer","","<div class='trialBorder'><div class='vertical-center'><img style='vertical-align:center; align:center' src=img/fixation3.jpg></div><div class='cl'><div class='vertical-center'>$30<br>in<br>2 weeks</div></div><div class='cr'><div class='vertical-center'>$11<br><br>now</div></div><div class='respDivL'><div class='vertical-center'>(E)</div></div><div class='respDivR'><div class='vertical-center'>(I)</div></div></div>","E","$11<br><br>now","$30<br>in<br>2 weeks","1","11","30","2","THEN"
"html-keyboard-response","45","80051","0.0-5.0-3.13","62dc4a5fef307ee53c61afcc","bdp_td","Tue Mar 28 2023 21:06:30 GMT-0800 (Alaska Daylight Time)","120151","","null","","","","offerFB","","<div class='trialBorder'><div class='vertical-center'><img style='vertical-align:center; align:center' src=img/fixation3.jpg></div><div class='cl'><div class='vertical-center'><font style='color:orange'>$30<br>in<br>2 weeks</font></div></div><div class='cr'><div class='vertical-center'>$11<br><br>now</div></div><div class='respDivL'><div class='vertical-center'><font style='color:orange'>(E)</font></div></div><div class='respDivR'><div class='vertical-center'>(I)</div></div></div>","null","$11<br><br>now","$30<br>in<br>2 weeks","1","11","30","2",""
"html-keyboard-response","46","80556","0.0-5.0-1.14","62dc4a5fef307ee53c61afcc","bdp_td","Tue Mar 28 2023 21:06:30 GMT-0800 (Alaska Daylight Time)","120151","","null","","","","FIX","","<div class='trialBorder'><div class='vertical-center'><img style='vertical-align:center; align:center' src=img/fixation3.jpg></div></div>","null","","","","","","",""
"html-keyboard-response","47","82672","0.0-5.0-2.14","62dc4a5fef307ee53c61afcc","bdp_td","Tue Mar 28 2023 21:06:30 GMT-0800 (Alaska Daylight Time)","120151","","2111","","","","offer","","<div class='trialBorder'><div class='vertical-center'><img style='vertical-align:center; align:center' src=img/fixation3.jpg></div><div class='cl'><div class='vertical-center'>$25<br><br>now</div></div><div class='cr'><div class='vertical-center'>$30<br>in<br>6 weeks</div></div><div class='respDivL'><div class='vertical-center'>(E)</div></div><div class='respDivR'><div class='vertical-center'>(I)</div></div></div>","E","$25<br><br>now","$30<br>in<br>6 weeks","0","25","30","6","NOW"
"html-keyboard-response","48","82927","0.0-5.0-3.14","62dc4a5fef307ee53c61afcc","bdp_td","Tue Mar 28 2023 21:06:30 GMT-0800 (Alaska Daylight Time)","120151","","null","","","","offerFB","","<div class='trialBorder'><div class='vertical-center'><img style='vertical-align:center; align:center' src=img/fixation3.jpg></div><div class='cl'><div class='vertical-center'><font style='color:orange'>$25<br><br>now</font></div></div><div class='cr'><div class='vertical-center'>$30<br>in<br>6 weeks</div></div><div class='respDivL'><div class='vertical-center'><font style='color:orange'>(E)</font></div></div><div class='respDivR'><div class='vertical-center'>(I)</div></div></div>","null","$25<br><br>now","$30<br>in<br>6 weeks","0","25","30","6",""
"html-keyboard-response","49","83431","0.0-5.0-1.15","62dc4a5fef307ee53c61afcc","bdp_td","Tue Mar 28 2023 21:06:30 GMT-0800 (Alaska Daylight Time)","120151","","null","","","","FIX","","<div class='trialBorder'><div class='vertical-center'><img style='vertical-align:center; align:center' src=img/fixation3.jpg></div></div>","null","","","","","","",""
"html-keyboard-response","50","86421","0.0-5.0-2.15","62dc4a5fef307ee53c61afcc","bdp_td","Tue Mar 28 2023 21:06:30 GMT-0800 (Alaska Daylight Time)","120151","","2985","","","","offer","","<div class='trialBorder'><div class='vertical-center'><img style='vertical-align:center; align:center' src=img/fixation3.jpg></div><div class='cl'><div class='vertical-center'>$78<br><br>now</div></div><div class='cr'><div class='vertical-center'>$80<br>in<br>12 weeks</div></div><div class='respDivL'><div class='vertical-center'>(E)</div></div><div class='respDivR'><div class='vertical-center'>(I)</div></div></div>","E","$78<br><br>now","$80<br>in<br>12 weeks","0","78","80","12","NOW"
"html-keyboard-response","51","86676","0.0-5.0-3.15","62dc4a5fef307ee53c61afcc","bdp_td","Tue Mar 28 2023 21:06:30 GMT-0800 (Alaska Daylight Time)","120151","","null","","","","offerFB","","<div class='trialBorder'><div class='vertical-center'><img style='vertical-align:center; align:center' src=img/fixation3.jpg></div><div class='cl'><div class='vertical-center'><font style='color:orange'>$78<br><br>now</font></div></div><div class='cr'><div class='vertical-center'>$80<br>in<br>12 weeks</div></div><div class='respDivL'><div class='vertical-center'><font style='color:orange'>(E)</font></div></div><div class='respDivR'><div class='vertical-center'>(I)</div></div></div>","null","$78<br><br>now","$80<br>in<br>12 weeks","0","78","80","12",""
"html-keyboard-response","52","87182","0.0-5.0-1.16","62dc4a5fef307ee53c61afcc","bdp_td","Tue Mar 28 2023 21:06:30 GMT-0800 (Alaska Daylight Time)","120151","","null","","","","FIX","","<div class='trialBorder'><div class='vertical-center'><img style='vertical-align:center; align:center' src=img/fixation3.jpg></div></div>","null","","","","","","",""
"html-keyboard-response","53","89572","0.0-5.0-2.16","62dc4a5fef307ee53c61afcc","bdp_td","Tue Mar 28 2023 21:06:30 GMT-0800 (Alaska Daylight Time)","120151","","2383","","","","offer","","<div class='trialBorder'><div class='vertical-center'><img style='vertical-align:center; align:center' src=img/fixation3.jpg></div><div class='cl'><div class='vertical-center'>$75<br>in<br>3 weeks</div></div><div class='cr'><div class='vertical-center'>$41<br><br>now</div></div><div class='respDivL'><div class='vertical-center'>(E)</div></div><div class='respDivR'><div class='vertical-center'>(I)</div></div></div>","E","$41<br><br>now","$75<br>in<br>3 weeks","1","41","75","3","THEN"
"html-keyboard-response","54","89827","0.0-5.0-3.16","62dc4a5fef307ee53c61afcc","bdp_td","Tue Mar 28 2023 21:06:30 GMT-0800 (Alaska Daylight Time)","120151","","null","","","","offerFB","","<div class='trialBorder'><div class='vertical-center'><img style='vertical-align:center; align:center' src=img/fixation3.jpg></div><div class='cl'><div class='vertical-center'><font style='color:orange'>$75<br>in<br>3 weeks</font></div></div><div class='cr'><div class='vertical-center'>$41<br><br>now</div></div><div class='respDivL'><div class='vertical-center'><font style='color:orange'>(E)</font></div></div><div class='respDivR'><div class='vertical-center'>(I)</div></div></div>","null","$41<br><br>now","$75<br>in<br>3 weeks","1","41","75","3",""
"html-keyboard-response","55","90331","0.0-5.0-1.17","62dc4a5fef307ee53c61afcc","bdp_td","Tue Mar 28 2023 21:06:30 GMT-0800 (Alaska Daylight Time)","120151","","null","","","","FIX","","<div class='trialBorder'><div class='vertical-center'><img style='vertical-align:center; align:center' src=img/fixation3.jpg></div></div>","null","","","","","","",""
"html-keyboard-response","56","93560","0.0-5.0-2.17","62dc4a5fef307ee53c61afcc","bdp_td","Tue Mar 28 2023 21:06:30 GMT-0800 (Alaska Daylight Time)","120151","","3225","","","","offer","","<div class='trialBorder'><div class='vertical-center'><img style='vertical-align:center; align:center' src=img/fixation3.jpg></div><div class='cl'><div class='vertical-center'>$24<br><br>now</div></div><div class='cr'><div class='vertical-center'>$35<br>in<br>3 weeks</div></div><div class='respDivL'><div class='vertical-center'>(E)</div></div><div class='respDivR'><div class='vertical-center'>(I)</div></div></div>","I","$24<br><br>now","$35<br>in<br>3 weeks","0","24","35","3","THEN"
"html-keyboard-response","57","93814","0.0-5.0-3.17","62dc4a5fef307ee53c61afcc","bdp_td","Tue Mar 28 2023 21:06:30 GMT-0800 (Alaska Daylight Time)","120151","","null","","","","offerFB","","<div class='trialBorder'><div class='vertical-center'><img style='vertical-align:center; align:center' src=img/fixation3.jpg></div><div class='cl'><div class='vertical-center'>$24<br><br>now</div></div><div class='cr'><div class='vertical-center'><font style='color:orange'>$35<br>in<br>3 weeks</font></div></div><div class='respDivL'><div class='vertical-center'>(E)</div></div><div class='respDivR'><div class='vertical-center'><font style='color:orange'>(I)</font></div></div></div>","null","$24<br><br>now","$35<br>in<br>3 weeks","0","24","35","3",""
"html-keyboard-response","58","94319","0.0-5.0-1.18","62dc4a5fef307ee53c61afcc","bdp_td","Tue Mar 28 2023 21:06:30 GMT-0800 (Alaska Daylight Time)","120151","","null","","","","FIX","","<div class='trialBorder'><div class='vertical-center'><img style='vertical-align:center; align:center' src=img/fixation3.jpg></div></div>","null","","","","","","",""
"html-keyboard-response","59","97557","0.0-5.0-2.18","62dc4a5fef307ee53c61afcc","bdp_td","Tue Mar 28 2023 21:06:30 GMT-0800 (Alaska Daylight Time)","120151","","3230","","","","offer","","<div class='trialBorder'><div class='vertical-center'><img style='vertical-align:center; align:center' src=img/fixation3.jpg></div><div class='cl'><div class='vertical-center'>$49<br><br>now</div></div><div class='cr'><div class='vertical-center'>$60<br>in<br>6 weeks</div></div><div class='respDivL'><div class='vertical-center'>(E)</div></div><div class='respDivR'><div class='vertical-center'>(I)</div></div></div>","E","$49<br><br>now","$60<br>in<br>6 weeks","0","49","60","6","NOW"
"html-keyboard-response","60","97813","0.0-5.0-3.18","62dc4a5fef307ee53c61afcc","bdp_td","Tue Mar 28 2023 21:06:30 GMT-0800 (Alaska Daylight Time)","120151","","null","","","","offerFB","","<div class='trialBorder'><div class='vertical-center'><img style='vertical-align:center; align:center' src=img/fixation3.jpg></div><div class='cl'><div class='vertical-center'><font style='color:orange'>$49<br><br>now</font></div></div><div class='cr'><div class='vertical-center'>$60<br>in<br>6 weeks</div></div><div class='respDivL'><div class='vertical-center'><font style='color:orange'>(E)</font></div></div><div class='respDivR'><div class='vertical-center'>(I)</div></div></div>","null","$49<br><br>now","$60<br>in<br>6 weeks","0","49","60","6",""
"html-keyboard-response","61","98318","0.0-5.0-1.19","62dc4a5fef307ee53c61afcc","bdp_td","Tue Mar 28 2023 21:06:30 GMT-0800 (Alaska Daylight Time)","120151","","null","","","","FIX","","<div class='trialBorder'><div class='vertical-center'><img style='vertical-align:center; align:center' src=img/fixation3.jpg></div></div>","null","","","","","","",""
"html-keyboard-response","62","99835","0.0-5.0-2.19","62dc4a5fef307ee53c61afcc","bdp_td","Tue Mar 28 2023 21:06:30 GMT-0800 (Alaska Daylight Time)","120151","","1509","","","","offer","","<div class='trialBorder'><div class='vertical-center'><img style='vertical-align:center; align:center' src=img/fixation3.jpg></div><div class='cl'><div class='vertical-center'>$75<br>in<br>12 weeks</div></div><div class='cr'><div class='vertical-center'>$67<br><br>now</div></div><div class='respDivL'><div class='vertical-center'>(E)</div></div><div class='respDivR'><div class='vertical-center'>(I)</div></div></div>","I","$67<br><br>now","$75<br>in<br>12 weeks","1","67","75","12","NOW"
"html-keyboard-response","63","100092","0.0-5.0-3.19","62dc4a5fef307ee53c61afcc","bdp_td","Tue Mar 28 2023 21:06:30 GMT-0800 (Alaska Daylight Time)","120151","","null","","","","offerFB","","<div class='trialBorder'><div class='vertical-center'><img style='vertical-align:center; align:center' src=img/fixation3.jpg></div><div class='cl'><div class='vertical-center'>$75<br>in<br>12 weeks</div></div><div class='cr'><div class='vertical-center'><font style='color:orange'>$67<br><br>now</font></div></div><div class='respDivL'><div class='vertical-center'>(E)</div></div><div class='respDivR'><div class='vertical-center'><font style='color:orange'>(I)</font></div></div></div>","null","$67<br><br>now","$75<br>in<br>12 weeks","1","67","75","12",""
"html-keyboard-response","64","100596","0.0-5.0-1.20","62dc4a5fef307ee53c61afcc","bdp_td","Tue Mar 28 2023 21:06:30 GMT-0800 (Alaska Daylight Time)","120151","","null","","","","FIX","","<div class='trialBorder'><div class='vertical-center'><img style='vertical-align:center; align:center' src=img/fixation3.jpg></div></div>","null","","","","","","",""
"html-keyboard-response","65","101864","0.0-5.0-2.20","62dc4a5fef307ee53c61afcc","bdp_td","Tue Mar 28 2023 21:06:30 GMT-0800 (Alaska Daylight Time)","120151","","1262","","","","offer","","<div class='trialBorder'><div class='vertical-center'><img style='vertical-align:center; align:center' src=img/fixation3.jpg></div><div class='cl'><div class='vertical-center'>$54<br><br>now</div></div><div class='cr'><div class='vertical-center'>$55<br>in<br>12 weeks</div></div><div class='respDivL'><div class='vertical-center'>(E)</div></div><div class='respDivR'><div class='vertical-center'>(I)</div></div></div>","E","$54<br><br>now","$55<br>in<br>12 weeks","0","54","55","12","NOW"
"html-keyboard-response","66","102119","0.0-5.0-3.20","62dc4a5fef307ee53c61afcc","bdp_td","Tue Mar 28 2023 21:06:30 GMT-0800 (Alaska Daylight Time)","120151","","null","","","","offerFB","","<div class='trialBorder'><div class='vertical-center'><img style='vertical-align:center; align:center' src=img/fixation3.jpg></div><div class='cl'><div class='vertical-center'><font style='color:orange'>$54<br><br>now</font></div></div><div class='cr'><div class='vertical-center'>$55<br>in<br>12 weeks</div></div><div class='respDivL'><div class='vertical-center'><font style='color:orange'>(E)</font></div></div><div class='respDivR'><div class='vertical-center'>(I)</div></div></div>","null","$54<br><br>now","$55<br>in<br>12 weeks","0","54","55","12",""
"html-keyboard-response","67","102624","0.0-5.0-1.21","62dc4a5fef307ee53c61afcc","bdp_td","Tue Mar 28 2023 21:06:30 GMT-0800 (Alaska Daylight Time)","120151","","null","","","","FIX","","<div class='trialBorder'><div class='vertical-center'><img style='vertical-align:center; align:center' src=img/fixation3.jpg></div></div>","null","","","","","","",""
"html-keyboard-response","68","104539","0.0-5.0-2.21","62dc4a5fef307ee53c61afcc","bdp_td","Tue Mar 28 2023 21:06:30 GMT-0800 (Alaska Daylight Time)","120151","","1907","","","","offer","","<div class='trialBorder'><div class='vertical-center'><img style='vertical-align:center; align:center' src=img/fixation3.jpg></div><div class='cl'><div class='vertical-center'>$69<br><br>now</div></div><div class='cr'><div class='vertical-center'>$85<br>in<br>6 weeks</div></div><div class='respDivL'><div class='vertical-center'>(E)</div></div><div class='respDivR'><div class='vertical-center'>(I)</div></div></div>","I","$69<br><br>now","$85<br>in<br>6 weeks","0","69","85","6","THEN"
"html-keyboard-response","69","104794","0.0-5.0-3.21","62dc4a5fef307ee53c61afcc","bdp_td","Tue Mar 28 2023 21:06:30 GMT-0800 (Alaska Daylight Time)","120151","","null","","","","offerFB","","<div class='trialBorder'><div class='vertical-center'><img style='vertical-align:center; align:center' src=img/fixation3.jpg></div><div class='cl'><div class='vertical-center'>$69<br><br>now</div></div><div class='cr'><div class='vertical-center'><font style='color:orange'>$85<br>in<br>6 weeks</font></div></div><div class='respDivL'><div class='vertical-center'>(E)</div></div><div class='respDivR'><div class='vertical-center'><font style='color:orange'>(I)</font></div></div></div>","null","$69<br><br>now","$85<br>in<br>6 weeks","0","69","85","6",""
"html-keyboard-response","70","105297","0.0-5.0-1.22","62dc4a5fef307ee53c61afcc","bdp_td","Tue Mar 28 2023 21:06:30 GMT-0800 (Alaska Daylight Time)","120151","","null","","","","FIX","","<div class='trialBorder'><div class='vertical-center'><img style='vertical-align:center; align:center' src=img/fixation3.jpg></div></div>","null","","","","","","",""
"html-keyboard-response","71","107136","0.0-5.0-2.22","62dc4a5fef307ee53c61afcc","bdp_td","Tue Mar 28 2023 21:06:30 GMT-0800 (Alaska Daylight Time)","120151","","1832","","","","offer","","<div class='trialBorder'><div class='vertical-center'><img style='vertical-align:center; align:center' src=img/fixation3.jpg></div><div class='cl'><div class='vertical-center'>$55<br>in<br>1 week</div></div><div class='cr'><div class='vertical-center'>$20<br><br>now</div></div><div class='respDivL'><div class='vertical-center'>(E)</div></div><div class='respDivR'><div class='vertical-center'>(I)</div></div></div>","I","$20<br><br>now","$55<br>in<br>1 week","1","20","55","1","NOW"
"html-keyboard-response","72","107392","0.0-5.0-3.22","62dc4a5fef307ee53c61afcc","bdp_td","Tue Mar 28 2023 21:06:30 GMT-0800 (Alaska Daylight Time)","120151","","null","","","","offerFB","","<div class='trialBorder'><div class='vertical-center'><img style='vertical-align:center; align:center' src=img/fixation3.jpg></div><div class='cl'><div class='vertical-center'>$55<br>in<br>1 week</div></div><div class='cr'><div class='vertical-center'><font style='color:orange'>$20<br><br>now</font></div></div><div class='respDivL'><div class='vertical-center'>(E)</div></div><div class='respDivR'><div class='vertical-center'><font style='color:orange'>(I)</font></div></div></div>","null","$20<br><br>now","$55<br>in<br>1 week","1","20","55","1",""
"html-keyboard-response","73","107895","0.0-5.0-1.23","62dc4a5fef307ee53c61afcc","bdp_td","Tue Mar 28 2023 21:06:30 GMT-0800 (Alaska Daylight Time)","120151","","null","","","","FIX","","<div class='trialBorder'><div class='vertical-center'><img style='vertical-align:center; align:center' src=img/fixation3.jpg></div></div>","null","","","","","","",""
"html-keyboard-response","74","110964","0.0-5.0-2.23","62dc4a5fef307ee53c61afcc","bdp_td","Tue Mar 28 2023 21:06:30 GMT-0800 (Alaska Daylight Time)","120151","","3062","","","","offer","","<div class='trialBorder'><div class='vertical-center'><img style='vertical-align:center; align:center' src=img/fixation3.jpg></div><div class='cl'><div class='vertical-center'>$80<br><br>now</div></div><div class='cr'><div class='vertical-center'>$85<br>in<br>12 weeks</div></div><div class='respDivL'><div class='vertical-center'>(E)</div></div><div class='respDivR'><div class='vertical-center'>(I)</div></div></div>","E","$80<br><br>now","$85<br>in<br>12 weeks","0","80","85","12","NOW"
"html-keyboard-response","75","111223","0.0-5.0-3.23","62dc4a5fef307ee53c61afcc","bdp_td","Tue Mar 28 2023 21:06:30 GMT-0800 (Alaska Daylight Time)","120151","","null","","","","offerFB","","<div class='trialBorder'><div class='vertical-center'><img style='vertical-align:center; align:center' src=img/fixation3.jpg></div><div class='cl'><div class='vertical-center'><font style='color:orange'>$80<br><br>now</font></div></div><div class='cr'><div class='vertical-center'>$85<br>in<br>12 weeks</div></div><div class='respDivL'><div class='vertical-center'><font style='color:orange'>(E)</font></div></div><div class='respDivR'><div class='vertical-center'>(I)</div></div></div>","null","$80<br><br>now","$85<br>in<br>12 weeks","0","80","85","12",""
"html-keyboard-response","76","111729","0.0-5.0-1.24","62dc4a5fef307ee53c61afcc","bdp_td","Tue Mar 28 2023 21:06:30 GMT-0800 (Alaska Daylight Time)","120151","","null","","","","FIX","","<div class='trialBorder'><div class='vertical-center'><img style='vertical-align:center; align:center' src=img/fixation3.jpg></div></div>","null","","","","","","",""
"html-keyboard-response","77","113276","0.0-5.0-2.24","62dc4a5fef307ee53c61afcc","bdp_td","Tue Mar 28 2023 21:06:30 GMT-0800 (Alaska Daylight Time)","120151","","1539","","","","offer","","<div class='trialBorder'><div class='vertical-center'><img style='vertical-align:center; align:center' src=img/fixation3.jpg></div><div class='cl'><div class='vertical-center'>$19<br><br>now</div></div><div class='cr'><div class='vertical-center'>$25<br>in<br>6 weeks</div></div><div class='respDivL'><div class='vertical-center'>(E)</div></div><div class='respDivR'><div class='vertical-center'>(I)</div></div></div>","E","$19<br><br>now","$25<br>in<br>6 weeks","0","19","25","6","NOW"
"html-keyboard-response","78","113533","0.0-5.0-3.24","62dc4a5fef307ee53c61afcc","bdp_td","Tue Mar 28 2023 21:06:30 GMT-0800 (Alaska Daylight Time)","120151","","null","","","","offerFB","","<div class='trialBorder'><div class='vertical-center'><img style='vertical-align:center; align:center' src=img/fixation3.jpg></div><div class='cl'><div class='vertical-center'><font style='color:orange'>$19<br><br>now</font></div></div><div class='cr'><div class='vertical-center'>$25<br>in<br>6 weeks</div></div><div class='respDivL'><div class='vertical-center'><font style='color:orange'>(E)</font></div></div><div class='respDivR'><div class='vertical-center'>(I)</div></div></div>","null","$19<br><br>now","$25<br>in<br>6 weeks","0","19","25","6",""
"html-keyboard-response","79","114037","0.0-5.0-1.25","62dc4a5fef307ee53c61afcc","bdp_td","Tue Mar 28 2023 21:06:30 GMT-0800 (Alaska Daylight Time)","120151","","null","","","","FIX","","<div class='trialBorder'><div class='vertical-center'><img style='vertical-align:center; align:center' src=img/fixation3.jpg></div></div>","null","","","","","","",""
"html-keyboard-response","80","116481","0.0-5.0-2.25","62dc4a5fef307ee53c61afcc","bdp_td","Tue Mar 28 2023 21:06:30 GMT-0800 (Alaska Daylight Time)","120151","","2439","","","","offer","","<div class='trialBorder'><div class='vertical-center'><img style='vertical-align:center; align:center' src=img/fixation3.jpg></div><div class='cl'><div class='vertical-center'>$47<br><br>now</div></div><div class='cr'><div class='vertical-center'>$50<br>in<br>12 weeks</div></div><div class='respDivL'><div class='vertical-center'>(E)</div></div><div class='respDivR'><div class='vertical-center'>(I)</div></div></div>","E","$47<br><br>now","$50<br>in<br>12 weeks","0","47","50","12","NOW"
"html-keyboard-response","81","116735","0.0-5.0-3.25","62dc4a5fef307ee53c61afcc","bdp_td","Tue Mar 28 2023 21:06:30 GMT-0800 (Alaska Daylight Time)","120151","","null","","","","offerFB","","<div class='trialBorder'><div class='vertical-center'><img style='vertical-align:center; align:center' src=img/fixation3.jpg></div><div class='cl'><div class='vertical-center'><font style='color:orange'>$47<br><br>now</font></div></div><div class='cr'><div class='vertical-center'>$50<br>in<br>12 weeks</div></div><div class='respDivL'><div class='vertical-center'><font style='color:orange'>(E)</font></div></div><div class='respDivR'><div class='vertical-center'>(I)</div></div></div>","null","$47<br><br>now","$50<br>in<br>12 weeks","0","47","50","12",""
"html-keyboard-response","82","117242","0.0-5.0-1.26","62dc4a5fef307ee53c61afcc","bdp_td","Tue Mar 28 2023 21:06:30 GMT-0800 (Alaska Daylight Time)","120151","","null","","","","FIX","","<div class='trialBorder'><div class='vertical-center'><img style='vertical-align:center; align:center' src=img/fixation3.jpg></div></div>","null","","","","","","",""
"html-keyboard-response","83","118891","0.0-5.0-2.26","62dc4a5fef307ee53c61afcc","bdp_td","Tue Mar 28 2023 21:06:30 GMT-0800 (Alaska Daylight Time)","120151","","1641","","","","offer","","<div class='trialBorder'><div class='vertical-center'><img style='vertical-align:center; align:center' src=img/fixation3.jpg></div><div class='cl'><div class='vertical-center'>$60<br>in<br>12 weeks</div></div><div class='cr'><div class='vertical-center'>$54<br><br>now</div></div><div class='respDivL'><div class='vertical-center'>(E)</div></div><div class='respDivR'><div class='vertical-center'>(I)</div></div></div>","I","$54<br><br>now","$60<br>in<br>12 weeks","1","54","60","12","NOW"
"html-keyboard-response","84","119146","0.0-5.0-3.26","62dc4a5fef307ee53c61afcc","bdp_td","Tue Mar 28 2023 21:06:30 GMT-0800 (Alaska Daylight Time)","120151","","null","","","","offerFB","","<div class='trialBorder'><div class='vertical-center'><img style='vertical-align:center; align:center' src=img/fixation3.jpg></div><div class='cl'><div class='vertical-center'>$60<br>in<br>12 weeks</div></div><div class='cr'><div class='vertical-center'><font style='color:orange'>$54<br><br>now</font></div></div><div class='respDivL'><div class='vertical-center'>(E)</div></div><div class='respDivR'><div class='vertical-center'><font style='color:orange'>(I)</font></div></div></div>","null","$54<br><br>now","$60<br>in<br>12 weeks","1","54","60","12",""
"","","","","62dc4a5fef307ee53c61afcc","bdp_td","Tue Mar 28 2023 21:06:30 GMT-0800 (Alaska Daylight Time)","120151","","","fullscreenexit","85","119196","fullscreenexit","","","","","","","","","",""
"fullscreen","85","120150","0.0-6.0","62dc4a5fef307ee53c61afcc","bdp_td","Tue Mar 28 2023 21:06:30 GMT-0800 (Alaska Daylight Time)","120151","","","","","","","true","","","","","","","","",""
"html-keyboard-response","86","120654","0.0-7.0","","","","","","null","","","","","","","null","","","","","","",""
