"trial_type","trial_index","time_elapsed","internal_node_id","subject_id","task","startTime","totalTime","view_history","rt","event","trial","time","trialtype","success","stimulus","key_press","nowOffer","thenOffer","thenLeft","nowAmt","thenAmt","thenWeeks","chosen"
"pavlovia","0","2","0.0-0.0","63034df51d918e1e3b97e5ce","bdp_td","Sun Mar 26 2023 18:22:32 GMT-0400 (Eastern Daylight Time)","185080","","","","","","","","","","","","","","","",""
"instructions","1","39983","0.0-1.0","63034df51d918e1e3b97e5ce","bdp_td","Sun Mar 26 2023 18:22:32 GMT-0400 (Eastern Daylight Time)","185080","[{""page_index"":0,""viewing_time"":39981}]","39981","","","","","","","","","","","","","",""
"","","","","63034df51d918e1e3b97e5ce","bdp_td","Sun Mar 26 2023 18:22:32 GMT-0400 (Eastern Daylight Time)","185080","","","fullscreenenter","2","41568","fullscreenenter","","","","","","","","","",""
"fullscreen","2","42560","0.0-2.0","63034df51d918e1e3b97e5ce","bdp_td","Sun Mar 26 2023 18:22:32 GMT-0400 (Eastern Daylight Time)","185080","","","","","","","true","","","","","","","","",""
"instructions","3","93735","0.0-4.0","63034df51d918e1e3b97e5ce","bdp_td","Sun Mar 26 2023 18:22:32 GMT-0400 (Eastern Daylight Time)","185080","[{""page_index"":0,""viewing_time"":12839},{""page_index"":1,""viewing_time"":27987},{""page_index"":2,""viewing_time"":10349}]","51175","","","","","","","","","","","","","",""
"html-keyboard-response","4","94236","0.0-5.0-1.0","63034df51d918e1e3b97e5ce","bdp_td","Sun Mar 26 2023 18:22:32 GMT-0400 (Eastern Daylight Time)","185080","","null","","","","FIX","","<div class='trialBorder'><div class='vertical-center'><img style='vertical-align:center; align:center' src=img/fixation3.jpg></div></div>","null","","","","","","",""
"html-keyboard-response","5","96431","0.0-5.0-2.0","63034df51d918e1e3b97e5ce","bdp_td","Sun Mar 26 2023 18:22:32 GMT-0400 (Eastern Daylight Time)","185080","","2194","","","","offer","","<div class='trialBorder'><div class='vertical-center'><img style='vertical-align:center; align:center' src=img/fixation3.jpg></div><div class='cl'><div class='vertical-center'>$55<br>in<br>1 week</div></div><div class='cr'><div class='vertical-center'>$20<br><br>now</div></div><div class='respDivL'><div class='vertical-center'>(E)</div></div><div class='respDivR'><div class='vertical-center'>(I)</div></div></div>","E","$20<br><br>now","$55<br>in<br>1 week","1","20","55","1","THEN"
"html-keyboard-response","6","96683","0.0-5.0-3.0","63034df51d918e1e3b97e5ce","bdp_td","Sun Mar 26 2023 18:22:32 GMT-0400 (Eastern Daylight Time)","185080","","null","","","","offerFB","","<div class='trialBorder'><div class='vertical-center'><img style='vertical-align:center; align:center' src=img/fixation3.jpg></div><div class='cl'><div class='vertical-center'><font style='color:orange'>$55<br>in<br>1 week</font></div></div><div class='cr'><div class='vertical-center'>$20<br><br>now</div></div><div class='respDivL'><div class='vertical-center'><font style='color:orange'>(E)</font></div></div><div class='respDivR'><div class='vertical-center'>(I)</div></div></div>","null","$20<br><br>now","$55<br>in<br>1 week","1","20","55","1",""
"html-keyboard-response","7","97185","0.0-5.0-1.1","63034df51d918e1e3b97e5ce","bdp_td","Sun Mar 26 2023 18:22:32 GMT-0400 (Eastern Daylight Time)","185080","","null","","","","FIX","","<div class='trialBorder'><div class='vertical-center'><img style='vertical-align:center; align:center' src=img/fixation3.jpg></div></div>","null","","","","","","",""
"html-keyboard-response","8","99087","0.0-5.0-2.1","63034df51d918e1e3b97e5ce","bdp_td","Sun Mar 26 2023 18:22:32 GMT-0400 (Eastern Daylight Time)","185080","","1902","","","","offer","","<div class='trialBorder'><div class='vertical-center'><img style='vertical-align:center; align:center' src=img/fixation3.jpg></div><div class='cl'><div class='vertical-center'>$80<br>in<br>12 weeks</div></div><div class='cr'><div class='vertical-center'>$78<br><br>now</div></div><div class='respDivL'><div class='vertical-center'>(E)</div></div><div class='respDivR'><div class='vertical-center'>(I)</div></div></div>","I","$78<br><br>now","$80<br>in<br>12 weeks","1","78","80","12","NOW"
"html-keyboard-response","9","99346","0.0-5.0-3.1","63034df51d918e1e3b97e5ce","bdp_td","Sun Mar 26 2023 18:22:32 GMT-0400 (Eastern Daylight Time)","185080","","null","","","","offerFB","","<div class='trialBorder'><div class='vertical-center'><img style='vertical-align:center; align:center' src=img/fixation3.jpg></div><div class='cl'><div class='vertical-center'>$80<br>in<br>12 weeks</div></div><div class='cr'><div class='vertical-center'><font style='color:orange'>$78<br><br>now</font></div></div><div class='respDivL'><div class='vertical-center'>(E)</div></div><div class='respDivR'><div class='vertical-center'><font style='color:orange'>(I)</font></div></div></div>","null","$78<br><br>now","$80<br>in<br>12 weeks","1","78","80","12",""
"html-keyboard-response","10","99847","0.0-5.0-1.2","63034df51d918e1e3b97e5ce","bdp_td","Sun Mar 26 2023 18:22:32 GMT-0400 (Eastern Daylight Time)","185080","","null","","","","FIX","","<div class='trialBorder'><div class='vertical-center'><img style='vertical-align:center; align:center' src=img/fixation3.jpg></div></div>","null","","","","","","",""
"html-keyboard-response","11","101604","0.0-5.0-2.2","63034df51d918e1e3b97e5ce","bdp_td","Sun Mar 26 2023 18:22:32 GMT-0400 (Eastern Daylight Time)","185080","","1756","","","","offer","","<div class='trialBorder'><div class='vertical-center'><img style='vertical-align:center; align:center' src=img/fixation3.jpg></div><div class='cl'><div class='vertical-center'>$55<br>in<br>6 weeks</div></div><div class='cr'><div class='vertical-center'>$40<br><br>now</div></div><div class='respDivL'><div class='vertical-center'>(E)</div></div><div class='respDivR'><div class='vertical-center'>(I)</div></div></div>","I","$40<br><br>now","$55<br>in<br>6 weeks","1","40","55","6","NOW"
"html-keyboard-response","12","101865","0.0-5.0-3.2","63034df51d918e1e3b97e5ce","bdp_td","Sun Mar 26 2023 18:22:32 GMT-0400 (Eastern Daylight Time)","185080","","null","","","","offerFB","","<div class='trialBorder'><div class='vertical-center'><img style='vertical-align:center; align:center' src=img/fixation3.jpg></div><div class='cl'><div class='vertical-center'>$55<br>in<br>6 weeks</div></div><div class='cr'><div class='vertical-center'><font style='color:orange'>$40<br><br>now</font></div></div><div class='respDivL'><div class='vertical-center'>(E)</div></div><div class='respDivR'><div class='vertical-center'><font style='color:orange'>(I)</font></div></div></div>","null","$40<br><br>now","$55<br>in<br>6 weeks","1","40","55","6",""
"html-keyboard-response","13","102367","0.0-5.0-1.3","63034df51d918e1e3b97e5ce","bdp_td","Sun Mar 26 2023 18:22:32 GMT-0400 (Eastern Daylight Time)","185080","","null","","","","FIX","","<div class='trialBorder'><div class='vertical-center'><img style='vertical-align:center; align:center' src=img/fixation3.jpg></div></div>","null","","","","","","",""
"html-keyboard-response","14","104622","0.0-5.0-2.3","63034df51d918e1e3b97e5ce","bdp_td","Sun Mar 26 2023 18:22:32 GMT-0400 (Eastern Daylight Time)","185080","","2255","","","","offer","","<div class='trialBorder'><div class='vertical-center'><img style='vertical-align:center; align:center' src=img/fixation3.jpg></div><div class='cl'><div class='vertical-center'>$34<br><br>now</div></div><div class='cr'><div class='vertical-center'>$50<br>in<br>6 weeks</div></div><div class='respDivL'><div class='vertical-center'>(E)</div></div><div class='respDivR'><div class='vertical-center'>(I)</div></div></div>","I","$34<br><br>now","$50<br>in<br>6 weeks","0","34","50","6","THEN"
"html-keyboard-response","15","104874","0.0-5.0-3.3","63034df51d918e1e3b97e5ce","bdp_td","Sun Mar 26 2023 18:22:32 GMT-0400 (Eastern Daylight Time)","185080","","null","","","","offerFB","","<div class='trialBorder'><div class='vertical-center'><img style='vertical-align:center; align:center' src=img/fixation3.jpg></div><div class='cl'><div class='vertical-center'>$34<br><br>now</div></div><div class='cr'><div class='vertical-center'><font style='color:orange'>$50<br>in<br>6 weeks</font></div></div><div class='respDivL'><div class='vertical-center'>(E)</div></div><div class='respDivR'><div class='vertical-center'><font style='color:orange'>(I)</font></div></div></div>","null","$34<br><br>now","$50<br>in<br>6 weeks","0","34","50","6",""
"html-keyboard-response","16","105376","0.0-5.0-1.4","63034df51d918e1e3b97e5ce","bdp_td","Sun Mar 26 2023 18:22:32 GMT-0400 (Eastern Daylight Time)","185080","","null","","","","FIX","","<div class='trialBorder'><div class='vertical-center'><img style='vertical-align:center; align:center' src=img/fixation3.jpg></div></div>","null","","","","","","",""
"html-keyboard-response","17","107744","0.0-5.0-2.4","63034df51d918e1e3b97e5ce","bdp_td","Sun Mar 26 2023 18:22:32 GMT-0400 (Eastern Daylight Time)","185080","","2368","","","","offer","","<div class='trialBorder'><div class='vertical-center'><img style='vertical-align:center; align:center' src=img/fixation3.jpg></div><div class='cl'><div class='vertical-center'>$25<br>in<br>6 weeks</div></div><div class='cr'><div class='vertical-center'>$19<br><br>now</div></div><div class='respDivL'><div class='vertical-center'>(E)</div></div><div class='respDivR'><div class='vertical-center'>(I)</div></div></div>","I","$19<br><br>now","$25<br>in<br>6 weeks","1","19","25","6","NOW"
"html-keyboard-response","18","107995","0.0-5.0-3.4","63034df51d918e1e3b97e5ce","bdp_td","Sun Mar 26 2023 18:22:32 GMT-0400 (Eastern Daylight Time)","185080","","null","","","","offerFB","","<div class='trialBorder'><div class='vertical-center'><img style='vertical-align:center; align:center' src=img/fixation3.jpg></div><div class='cl'><div class='vertical-center'>$25<br>in<br>6 weeks</div></div><div class='cr'><div class='vertical-center'><font style='color:orange'>$19<br><br>now</font></div></div><div class='respDivL'><div class='vertical-center'>(E)</div></div><div class='respDivR'><div class='vertical-center'><font style='color:orange'>(I)</font></div></div></div>","null","$19<br><br>now","$25<br>in<br>6 weeks","1","19","25","6",""
"html-keyboard-response","19","108496","0.0-5.0-1.5","63034df51d918e1e3b97e5ce","bdp_td","Sun Mar 26 2023 18:22:32 GMT-0400 (Eastern Daylight Time)","185080","","null","","","","FIX","","<div class='trialBorder'><div class='vertical-center'><img style='vertical-align:center; align:center' src=img/fixation3.jpg></div></div>","null","","","","","","",""
"html-keyboard-response","20","110969","0.0-5.0-2.5","63034df51d918e1e3b97e5ce","bdp_td","Sun Mar 26 2023 18:22:32 GMT-0400 (Eastern Daylight Time)","185080","","2472","","","","offer","","<div class='trialBorder'><div class='vertical-center'><img style='vertical-align:center; align:center' src=img/fixation3.jpg></div><div class='cl'><div class='vertical-center'>$30<br>in<br>12 weeks</div></div><div class='cr'><div class='vertical-center'>$28<br><br>now</div></div><div class='respDivL'><div class='vertical-center'>(E)</div></div><div class='respDivR'><div class='vertical-center'>(I)</div></div></div>","I","$28<br><br>now","$30<br>in<br>12 weeks","1","28","30","12","NOW"
"html-keyboard-response","21","111221","0.0-5.0-3.5","63034df51d918e1e3b97e5ce","bdp_td","Sun Mar 26 2023 18:22:32 GMT-0400 (Eastern Daylight Time)","185080","","null","","","","offerFB","","<div class='trialBorder'><div class='vertical-center'><img style='vertical-align:center; align:center' src=img/fixation3.jpg></div><div class='cl'><div class='vertical-center'>$30<br>in<br>12 weeks</div></div><div class='cr'><div class='vertical-center'><font style='color:orange'>$28<br><br>now</font></div></div><div class='respDivL'><div class='vertical-center'>(E)</div></div><div class='respDivR'><div class='vertical-center'><font style='color:orange'>(I)</font></div></div></div>","null","$28<br><br>now","$30<br>in<br>12 weeks","1","28","30","12",""
"html-keyboard-response","22","111722","0.0-5.0-1.6","63034df51d918e1e3b97e5ce","bdp_td","Sun Mar 26 2023 18:22:32 GMT-0400 (Eastern Daylight Time)","185080","","null","","","","FIX","","<div class='trialBorder'><div class='vertical-center'><img style='vertical-align:center; align:center' src=img/fixation3.jpg></div></div>","null","","","","","","",""
"html-keyboard-response","23","113927","0.0-5.0-2.6","63034df51d918e1e3b97e5ce","bdp_td","Sun Mar 26 2023 18:22:32 GMT-0400 (Eastern Daylight Time)","185080","","2205","","","","offer","","<div class='trialBorder'><div class='vertical-center'><img style='vertical-align:center; align:center' src=img/fixation3.jpg></div><div class='cl'><div class='vertical-center'>$54<br><br>now</div></div><div class='cr'><div class='vertical-center'>$60<br>in<br>12 weeks</div></div><div class='respDivL'><div class='vertical-center'>(E)</div></div><div class='respDivR'><div class='vertical-center'>(I)</div></div></div>","E","$54<br><br>now","$60<br>in<br>12 weeks","0","54","60","12","NOW"
"html-keyboard-response","24","114179","0.0-5.0-3.6","63034df51d918e1e3b97e5ce","bdp_td","Sun Mar 26 2023 18:22:32 GMT-0400 (Eastern Daylight Time)","185080","","null","","","","offerFB","","<div class='trialBorder'><div class='vertical-center'><img style='vertical-align:center; align:center' src=img/fixation3.jpg></div><div class='cl'><div class='vertical-center'><font style='color:orange'>$54<br><br>now</font></div></div><div class='cr'><div class='vertical-center'>$60<br>in<br>12 weeks</div></div><div class='respDivL'><div class='vertical-center'><font style='color:orange'>(E)</font></div></div><div class='respDivR'><div class='vertical-center'>(I)</div></div></div>","null","$54<br><br>now","$60<br>in<br>12 weeks","0","54","60","12",""
"html-keyboard-response","25","114681","0.0-5.0-1.7","63034df51d918e1e3b97e5ce","bdp_td","Sun Mar 26 2023 18:22:32 GMT-0400 (Eastern Daylight Time)","185080","","null","","","","FIX","","<div class='trialBorder'><div class='vertical-center'><img style='vertical-align:center; align:center' src=img/fixation3.jpg></div></div>","null","","","","","","",""
"html-keyboard-response","26","117095","0.0-5.0-2.7","63034df51d918e1e3b97e5ce","bdp_td","Sun Mar 26 2023 18:22:32 GMT-0400 (Eastern Daylight Time)","185080","","2414","","","","offer","","<div class='trialBorder'><div class='vertical-center'><img style='vertical-align:center; align:center' src=img/fixation3.jpg></div><div class='cl'><div class='vertical-center'>$35<br>in<br>3 weeks</div></div><div class='cr'><div class='vertical-center'>$24<br><br>now</div></div><div class='respDivL'><div class='vertical-center'>(E)</div></div><div class='respDivR'><div class='vertical-center'>(I)</div></div></div>","E","$24<br><br>now","$35<br>in<br>3 weeks","1","24","35","3","THEN"
"html-keyboard-response","27","117346","0.0-5.0-3.7","63034df51d918e1e3b97e5ce","bdp_td","Sun Mar 26 2023 18:22:32 GMT-0400 (Eastern Daylight Time)","185080","","null","","","","offerFB","","<div class='trialBorder'><div class='vertical-center'><img style='vertical-align:center; align:center' src=img/fixation3.jpg></div><div class='cl'><div class='vertical-center'><font style='color:orange'>$35<br>in<br>3 weeks</font></div></div><div class='cr'><div class='vertical-center'>$24<br><br>now</div></div><div class='respDivL'><div class='vertical-center'><font style='color:orange'>(E)</font></div></div><div class='respDivR'><div class='vertical-center'>(I)</div></div></div>","null","$24<br><br>now","$35<br>in<br>3 weeks","1","24","35","3",""
"html-keyboard-response","28","117848","0.0-5.0-1.8","63034df51d918e1e3b97e5ce","bdp_td","Sun Mar 26 2023 18:22:32 GMT-0400 (Eastern Daylight Time)","185080","","null","","","","FIX","","<div class='trialBorder'><div class='vertical-center'><img style='vertical-align:center; align:center' src=img/fixation3.jpg></div></div>","null","","","","","","",""
"html-keyboard-response","29","120622","0.0-5.0-2.8","63034df51d918e1e3b97e5ce","bdp_td","Sun Mar 26 2023 18:22:32 GMT-0400 (Eastern Daylight Time)","185080","","2773","","","","offer","","<div class='trialBorder'><div class='vertical-center'><img style='vertical-align:center; align:center' src=img/fixation3.jpg></div><div class='cl'><div class='vertical-center'>$35<br>in<br>12 weeks</div></div><div class='cr'><div class='vertical-center'>$34<br><br>now</div></div><div class='respDivL'><div class='vertical-center'>(E)</div></div><div class='respDivR'><div class='vertical-center'>(I)</div></div></div>","I","$34<br><br>now","$35<br>in<br>12 weeks","1","34","35","12","NOW"
"html-keyboard-response","30","120874","0.0-5.0-3.8","63034df51d918e1e3b97e5ce","bdp_td","Sun Mar 26 2023 18:22:32 GMT-0400 (Eastern Daylight Time)","185080","","null","","","","offerFB","","<div class='trialBorder'><div class='vertical-center'><img style='vertical-align:center; align:center' src=img/fixation3.jpg></div><div class='cl'><div class='vertical-center'>$35<br>in<br>12 weeks</div></div><div class='cr'><div class='vertical-center'><font style='color:orange'>$34<br><br>now</font></div></div><div class='respDivL'><div class='vertical-center'>(E)</div></div><div class='respDivR'><div class='vertical-center'><font style='color:orange'>(I)</font></div></div></div>","null","$34<br><br>now","$35<br>in<br>12 weeks","1","34","35","12",""
"html-keyboard-response","31","121376","0.0-5.0-1.9","63034df51d918e1e3b97e5ce","bdp_td","Sun Mar 26 2023 18:22:32 GMT-0400 (Eastern Daylight Time)","185080","","null","","","","FIX","","<div class='trialBorder'><div class='vertical-center'><img style='vertical-align:center; align:center' src=img/fixation3.jpg></div></div>","null","","","","","","",""
"html-keyboard-response","32","123856","0.0-5.0-2.9","63034df51d918e1e3b97e5ce","bdp_td","Sun Mar 26 2023 18:22:32 GMT-0400 (Eastern Daylight Time)","185080","","2480","","","","offer","","<div class='trialBorder'><div class='vertical-center'><img style='vertical-align:center; align:center' src=img/fixation3.jpg></div><div class='cl'><div class='vertical-center'>$11<br><br>now</div></div><div class='cr'><div class='vertical-center'>$30<br>in<br>2 weeks</div></div><div class='respDivL'><div class='vertical-center'>(E)</div></div><div class='respDivR'><div class='vertical-center'>(I)</div></div></div>","I","$11<br><br>now","$30<br>in<br>2 weeks","0","11","30","2","THEN"
"html-keyboard-response","33","124108","0.0-5.0-3.9","63034df51d918e1e3b97e5ce","bdp_td","Sun Mar 26 2023 18:22:32 GMT-0400 (Eastern Daylight Time)","185080","","null","","","","offerFB","","<div class='trialBorder'><div class='vertical-center'><img style='vertical-align:center; align:center' src=img/fixation3.jpg></div><div class='cl'><div class='vertical-center'>$11<br><br>now</div></div><div class='cr'><div class='vertical-center'><font style='color:orange'>$30<br>in<br>2 weeks</font></div></div><div class='respDivL'><div class='vertical-center'>(E)</div></div><div class='respDivR'><div class='vertical-center'><font style='color:orange'>(I)</font></div></div></div>","null","$11<br><br>now","$30<br>in<br>2 weeks","0","11","30","2",""
"html-keyboard-response","34","124609","0.0-5.0-1.10","63034df51d918e1e3b97e5ce","bdp_td","Sun Mar 26 2023 18:22:32 GMT-0400 (Eastern Daylight Time)","185080","","null","","","","FIX","","<div class='trialBorder'><div class='vertical-center'><img style='vertical-align:center; align:center' src=img/fixation3.jpg></div></div>","null","","","","","","",""
"html-keyboard-response","35","129119","0.0-5.0-2.10","63034df51d918e1e3b97e5ce","bdp_td","Sun Mar 26 2023 18:22:32 GMT-0400 (Eastern Daylight Time)","185080","","4510","","","","offer","","<div class='trialBorder'><div class='vertical-center'><img style='vertical-align:center; align:center' src=img/fixation3.jpg></div><div class='cl'><div class='vertical-center'>$25<br><br>now</div></div><div class='cr'><div class='vertical-center'>$30<br>in<br>6 weeks</div></div><div class='respDivL'><div class='vertical-center'>(E)</div></div><div class='respDivR'><div class='vertical-center'>(I)</div></div></div>","E","$25<br><br>now","$30<br>in<br>6 weeks","0","25","30","6","NOW"
"html-keyboard-response","36","129371","0.0-5.0-3.10","63034df51d918e1e3b97e5ce","bdp_td","Sun Mar 26 2023 18:22:32 GMT-0400 (Eastern Daylight Time)","185080","","null","","","","offerFB","","<div class='trialBorder'><div class='vertical-center'><img style='vertical-align:center; align:center' src=img/fixation3.jpg></div><div class='cl'><div class='vertical-center'><font style='color:orange'>$25<br><br>now</font></div></div><div class='cr'><div class='vertical-center'>$30<br>in<br>6 weeks</div></div><div class='respDivL'><div class='vertical-center'><font style='color:orange'>(E)</font></div></div><div class='respDivR'><div class='vertical-center'>(I)</div></div></div>","null","$25<br><br>now","$30<br>in<br>6 weeks","0","25","30","6",""
"html-keyboard-response","37","129873","0.0-5.0-1.11","63034df51d918e1e3b97e5ce","bdp_td","Sun Mar 26 2023 18:22:32 GMT-0400 (Eastern Daylight Time)","185080","","null","","","","FIX","","<div class='trialBorder'><div class='vertical-center'><img style='vertical-align:center; align:center' src=img/fixation3.jpg></div></div>","null","","","","","","",""
"html-keyboard-response","38","131489","0.0-5.0-2.11","63034df51d918e1e3b97e5ce","bdp_td","Sun Mar 26 2023 18:22:32 GMT-0400 (Eastern Daylight Time)","185080","","1616","","","","offer","","<div class='trialBorder'><div class='vertical-center'><img style='vertical-align:center; align:center' src=img/fixation3.jpg></div><div class='cl'><div class='vertical-center'>$35<br>in<br>2 weeks</div></div><div class='cr'><div class='vertical-center'>$15<br><br>now</div></div><div class='respDivL'><div class='vertical-center'>(E)</div></div><div class='respDivR'><div class='vertical-center'>(I)</div></div></div>","E","$15<br><br>now","$35<br>in<br>2 weeks","1","15","35","2","THEN"
"html-keyboard-response","39","131741","0.0-5.0-3.11","63034df51d918e1e3b97e5ce","bdp_td","Sun Mar 26 2023 18:22:32 GMT-0400 (Eastern Daylight Time)","185080","","null","","","","offerFB","","<div class='trialBorder'><div class='vertical-center'><img style='vertical-align:center; align:center' src=img/fixation3.jpg></div><div class='cl'><div class='vertical-center'><font style='color:orange'>$35<br>in<br>2 weeks</font></div></div><div class='cr'><div class='vertical-center'>$15<br><br>now</div></div><div class='respDivL'><div class='vertical-center'><font style='color:orange'>(E)</font></div></div><div class='respDivR'><div class='vertical-center'>(I)</div></div></div>","null","$15<br><br>now","$35<br>in<br>2 weeks","1","15","35","2",""
"html-keyboard-response","40","132243","0.0-5.0-1.12","63034df51d918e1e3b97e5ce","bdp_td","Sun Mar 26 2023 18:22:32 GMT-0400 (Eastern Daylight Time)","185080","","null","","","","FIX","","<div class='trialBorder'><div class='vertical-center'><img style='vertical-align:center; align:center' src=img/fixation3.jpg></div></div>","null","","","","","","",""
"html-keyboard-response","41","134377","0.0-5.0-2.12","63034df51d918e1e3b97e5ce","bdp_td","Sun Mar 26 2023 18:22:32 GMT-0400 (Eastern Daylight Time)","185080","","2134","","","","offer","","<div class='trialBorder'><div class='vertical-center'><img style='vertical-align:center; align:center' src=img/fixation3.jpg></div><div class='cl'><div class='vertical-center'>$54<br><br>now</div></div><div class='cr'><div class='vertical-center'>$80<br>in<br>3 weeks</div></div><div class='respDivL'><div class='vertical-center'>(E)</div></div><div class='respDivR'><div class='vertical-center'>(I)</div></div></div>","I","$54<br><br>now","$80<br>in<br>3 weeks","0","54","80","3","THEN"
"html-keyboard-response","42","134628","0.0-5.0-3.12","63034df51d918e1e3b97e5ce","bdp_td","Sun Mar 26 2023 18:22:32 GMT-0400 (Eastern Daylight Time)","185080","","null","","","","offerFB","","<div class='trialBorder'><div class='vertical-center'><img style='vertical-align:center; align:center' src=img/fixation3.jpg></div><div class='cl'><div class='vertical-center'>$54<br><br>now</div></div><div class='cr'><div class='vertical-center'><font style='color:orange'>$80<br>in<br>3 weeks</font></div></div><div class='respDivL'><div class='vertical-center'>(E)</div></div><div class='respDivR'><div class='vertical-center'><font style='color:orange'>(I)</font></div></div></div>","null","$54<br><br>now","$80<br>in<br>3 weeks","0","54","80","3",""
"html-keyboard-response","43","135130","0.0-5.0-1.13","63034df51d918e1e3b97e5ce","bdp_td","Sun Mar 26 2023 18:22:32 GMT-0400 (Eastern Daylight Time)","185080","","null","","","","FIX","","<div class='trialBorder'><div class='vertical-center'><img style='vertical-align:center; align:center' src=img/fixation3.jpg></div></div>","null","","","","","","",""
"html-keyboard-response","44","137736","0.0-5.0-2.13","63034df51d918e1e3b97e5ce","bdp_td","Sun Mar 26 2023 18:22:32 GMT-0400 (Eastern Daylight Time)","185080","","2606","","","","offer","","<div class='trialBorder'><div class='vertical-center'><img style='vertical-align:center; align:center' src=img/fixation3.jpg></div><div class='cl'><div class='vertical-center'>$22<br><br>now</div></div><div class='cr'><div class='vertical-center'>$25<br>in<br>12 weeks</div></div><div class='respDivL'><div class='vertical-center'>(E)</div></div><div class='respDivR'><div class='vertical-center'>(I)</div></div></div>","E","$22<br><br>now","$25<br>in<br>12 weeks","0","22","25","12","NOW"
"html-keyboard-response","45","137988","0.0-5.0-3.13","63034df51d918e1e3b97e5ce","bdp_td","Sun Mar 26 2023 18:22:32 GMT-0400 (Eastern Daylight Time)","185080","","null","","","","offerFB","","<div class='trialBorder'><div class='vertical-center'><img style='vertical-align:center; align:center' src=img/fixation3.jpg></div><div class='cl'><div class='vertical-center'><font style='color:orange'>$22<br><br>now</font></div></div><div class='cr'><div class='vertical-center'>$25<br>in<br>12 weeks</div></div><div class='respDivL'><div class='vertical-center'><font style='color:orange'>(E)</font></div></div><div class='respDivR'><div class='vertical-center'>(I)</div></div></div>","null","$22<br><br>now","$25<br>in<br>12 weeks","0","22","25","12",""
"html-keyboard-response","46","138490","0.0-5.0-1.14","63034df51d918e1e3b97e5ce","bdp_td","Sun Mar 26 2023 18:22:32 GMT-0400 (Eastern Daylight Time)","185080","","null","","","","FIX","","<div class='trialBorder'><div class='vertical-center'><img style='vertical-align:center; align:center' src=img/fixation3.jpg></div></div>","null","","","","","","",""
"html-keyboard-response","47","140608","0.0-5.0-2.14","63034df51d918e1e3b97e5ce","bdp_td","Sun Mar 26 2023 18:22:32 GMT-0400 (Eastern Daylight Time)","185080","","2118","","","","offer","","<div class='trialBorder'><div class='vertical-center'><img style='vertical-align:center; align:center' src=img/fixation3.jpg></div><div class='cl'><div class='vertical-center'>$55<br><br>now</div></div><div class='cr'><div class='vertical-center'>$75<br>in<br>6 weeks</div></div><div class='respDivL'><div class='vertical-center'>(E)</div></div><div class='respDivR'><div class='vertical-center'>(I)</div></div></div>","E","$55<br><br>now","$75<br>in<br>6 weeks","0","55","75","6","NOW"
"html-keyboard-response","48","140861","0.0-5.0-3.14","63034df51d918e1e3b97e5ce","bdp_td","Sun Mar 26 2023 18:22:32 GMT-0400 (Eastern Daylight Time)","185080","","null","","","","offerFB","","<div class='trialBorder'><div class='vertical-center'><img style='vertical-align:center; align:center' src=img/fixation3.jpg></div><div class='cl'><div class='vertical-center'><font style='color:orange'>$55<br><br>now</font></div></div><div class='cr'><div class='vertical-center'>$75<br>in<br>6 weeks</div></div><div class='respDivL'><div class='vertical-center'><font style='color:orange'>(E)</font></div></div><div class='respDivR'><div class='vertical-center'>(I)</div></div></div>","null","$55<br><br>now","$75<br>in<br>6 weeks","0","55","75","6",""
"html-keyboard-response","49","141362","0.0-5.0-1.15","63034df51d918e1e3b97e5ce","bdp_td","Sun Mar 26 2023 18:22:32 GMT-0400 (Eastern Daylight Time)","185080","","null","","","","FIX","","<div class='trialBorder'><div class='vertical-center'><img style='vertical-align:center; align:center' src=img/fixation3.jpg></div></div>","null","","","","","","",""
"html-keyboard-response","50","144590","0.0-5.0-2.15","63034df51d918e1e3b97e5ce","bdp_td","Sun Mar 26 2023 18:22:32 GMT-0400 (Eastern Daylight Time)","185080","","3228","","","","offer","","<div class='trialBorder'><div class='vertical-center'><img style='vertical-align:center; align:center' src=img/fixation3.jpg></div><div class='cl'><div class='vertical-center'>$75<br>in<br>3 weeks</div></div><div class='cr'><div class='vertical-center'>$41<br><br>now</div></div><div class='respDivL'><div class='vertical-center'>(E)</div></div><div class='respDivR'><div class='vertical-center'>(I)</div></div></div>","E","$41<br><br>now","$75<br>in<br>3 weeks","1","41","75","3","THEN"
"html-keyboard-response","51","144843","0.0-5.0-3.15","63034df51d918e1e3b97e5ce","bdp_td","Sun Mar 26 2023 18:22:32 GMT-0400 (Eastern Daylight Time)","185080","","null","","","","offerFB","","<div class='trialBorder'><div class='vertical-center'><img style='vertical-align:center; align:center' src=img/fixation3.jpg></div><div class='cl'><div class='vertical-center'><font style='color:orange'>$75<br>in<br>3 weeks</font></div></div><div class='cr'><div class='vertical-center'>$41<br><br>now</div></div><div class='respDivL'><div class='vertical-center'><font style='color:orange'>(E)</font></div></div><div class='respDivR'><div class='vertical-center'>(I)</div></div></div>","null","$41<br><br>now","$75<br>in<br>3 weeks","1","41","75","3",""
"html-keyboard-response","52","145345","0.0-5.0-1.16","63034df51d918e1e3b97e5ce","bdp_td","Sun Mar 26 2023 18:22:32 GMT-0400 (Eastern Daylight Time)","185080","","null","","","","FIX","","<div class='trialBorder'><div class='vertical-center'><img style='vertical-align:center; align:center' src=img/fixation3.jpg></div></div>","null","","","","","","",""
"html-keyboard-response","53","147849","0.0-5.0-2.16","63034df51d918e1e3b97e5ce","bdp_td","Sun Mar 26 2023 18:22:32 GMT-0400 (Eastern Daylight Time)","185080","","2504","","","","offer","","<div class='trialBorder'><div class='vertical-center'><img style='vertical-align:center; align:center' src=img/fixation3.jpg></div><div class='cl'><div class='vertical-center'>$27<br><br>now</div></div><div class='cr'><div class='vertical-center'>$50<br>in<br>3 weeks</div></div><div class='respDivL'><div class='vertical-center'>(E)</div></div><div class='respDivR'><div class='vertical-center'>(I)</div></div></div>","I","$27<br><br>now","$50<br>in<br>3 weeks","0","27","50","3","THEN"
"html-keyboard-response","54","148100","0.0-5.0-3.16","63034df51d918e1e3b97e5ce","bdp_td","Sun Mar 26 2023 18:22:32 GMT-0400 (Eastern Daylight Time)","185080","","null","","","","offerFB","","<div class='trialBorder'><div class='vertical-center'><img style='vertical-align:center; align:center' src=img/fixation3.jpg></div><div class='cl'><div class='vertical-center'>$27<br><br>now</div></div><div class='cr'><div class='vertical-center'><font style='color:orange'>$50<br>in<br>3 weeks</font></div></div><div class='respDivL'><div class='vertical-center'>(E)</div></div><div class='respDivR'><div class='vertical-center'><font style='color:orange'>(I)</font></div></div></div>","null","$27<br><br>now","$50<br>in<br>3 weeks","0","27","50","3",""
"html-keyboard-response","55","148601","0.0-5.0-1.17","63034df51d918e1e3b97e5ce","bdp_td","Sun Mar 26 2023 18:22:32 GMT-0400 (Eastern Daylight Time)","185080","","null","","","","FIX","","<div class='trialBorder'><div class='vertical-center'><img style='vertical-align:center; align:center' src=img/fixation3.jpg></div></div>","null","","","","","","",""
"html-keyboard-response","56","152530","0.0-5.0-2.17","63034df51d918e1e3b97e5ce","bdp_td","Sun Mar 26 2023 18:22:32 GMT-0400 (Eastern Daylight Time)","185080","","3929","","","","offer","","<div class='trialBorder'><div class='vertical-center'><img style='vertical-align:center; align:center' src=img/fixation3.jpg></div><div class='cl'><div class='vertical-center'>$60<br>in<br>3 weeks</div></div><div class='cr'><div class='vertical-center'>$25<br><br>now</div></div><div class='respDivL'><div class='vertical-center'>(E)</div></div><div class='respDivR'><div class='vertical-center'>(I)</div></div></div>","E","$25<br><br>now","$60<br>in<br>3 weeks","1","25","60","3","THEN"
"html-keyboard-response","57","152781","0.0-5.0-3.17","63034df51d918e1e3b97e5ce","bdp_td","Sun Mar 26 2023 18:22:32 GMT-0400 (Eastern Daylight Time)","185080","","null","","","","offerFB","","<div class='trialBorder'><div class='vertical-center'><img style='vertical-align:center; align:center' src=img/fixation3.jpg></div><div class='cl'><div class='vertical-center'><font style='color:orange'>$60<br>in<br>3 weeks</font></div></div><div class='cr'><div class='vertical-center'>$25<br><br>now</div></div><div class='respDivL'><div class='vertical-center'><font style='color:orange'>(E)</font></div></div><div class='respDivR'><div class='vertical-center'>(I)</div></div></div>","null","$25<br><br>now","$60<br>in<br>3 weeks","1","25","60","3",""
"html-keyboard-response","58","153282","0.0-5.0-1.18","63034df51d918e1e3b97e5ce","bdp_td","Sun Mar 26 2023 18:22:32 GMT-0400 (Eastern Daylight Time)","185080","","null","","","","FIX","","<div class='trialBorder'><div class='vertical-center'><img style='vertical-align:center; align:center' src=img/fixation3.jpg></div></div>","null","","","","","","",""
"html-keyboard-response","59","156880","0.0-5.0-2.18","63034df51d918e1e3b97e5ce","bdp_td","Sun Mar 26 2023 18:22:32 GMT-0400 (Eastern Daylight Time)","185080","","3598","","","","offer","","<div class='trialBorder'><div class='vertical-center'><img style='vertical-align:center; align:center' src=img/fixation3.jpg></div><div class='cl'><div class='vertical-center'>$31<br><br>now</div></div><div class='cr'><div class='vertical-center'>$85<br>in<br>1 week</div></div><div class='respDivL'><div class='vertical-center'>(E)</div></div><div class='respDivR'><div class='vertical-center'>(I)</div></div></div>","I","$31<br><br>now","$85<br>in<br>1 week","0","31","85","1","THEN"
"html-keyboard-response","60","157131","0.0-5.0-3.18","63034df51d918e1e3b97e5ce","bdp_td","Sun Mar 26 2023 18:22:32 GMT-0400 (Eastern Daylight Time)","185080","","null","","","","offerFB","","<div class='trialBorder'><div class='vertical-center'><img style='vertical-align:center; align:center' src=img/fixation3.jpg></div><div class='cl'><div class='vertical-center'>$31<br><br>now</div></div><div class='cr'><div class='vertical-center'><font style='color:orange'>$85<br>in<br>1 week</font></div></div><div class='respDivL'><div class='vertical-center'>(E)</div></div><div class='respDivR'><div class='vertical-center'><font style='color:orange'>(I)</font></div></div></div>","null","$31<br><br>now","$85<br>in<br>1 week","0","31","85","1",""
"html-keyboard-response","61","157632","0.0-5.0-1.19","63034df51d918e1e3b97e5ce","bdp_td","Sun Mar 26 2023 18:22:32 GMT-0400 (Eastern Daylight Time)","185080","","null","","","","FIX","","<div class='trialBorder'><div class='vertical-center'><img style='vertical-align:center; align:center' src=img/fixation3.jpg></div></div>","null","","","","","","",""
"html-keyboard-response","62","159320","0.0-5.0-2.19","63034df51d918e1e3b97e5ce","bdp_td","Sun Mar 26 2023 18:22:32 GMT-0400 (Eastern Daylight Time)","185080","","1688","","","","offer","","<div class='trialBorder'><div class='vertical-center'><img style='vertical-align:center; align:center' src=img/fixation3.jpg></div><div class='cl'><div class='vertical-center'>$55<br>in<br>12 weeks</div></div><div class='cr'><div class='vertical-center'>$54<br><br>now</div></div><div class='respDivL'><div class='vertical-center'>(E)</div></div><div class='respDivR'><div class='vertical-center'>(I)</div></div></div>","I","$54<br><br>now","$55<br>in<br>12 weeks","1","54","55","12","NOW"
"html-keyboard-response","63","159572","0.0-5.0-3.19","63034df51d918e1e3b97e5ce","bdp_td","Sun Mar 26 2023 18:22:32 GMT-0400 (Eastern Daylight Time)","185080","","null","","","","offerFB","","<div class='trialBorder'><div class='vertical-center'><img style='vertical-align:center; align:center' src=img/fixation3.jpg></div><div class='cl'><div class='vertical-center'>$55<br>in<br>12 weeks</div></div><div class='cr'><div class='vertical-center'><font style='color:orange'>$54<br><br>now</font></div></div><div class='respDivL'><div class='vertical-center'>(E)</div></div><div class='respDivR'><div class='vertical-center'><font style='color:orange'>(I)</font></div></div></div>","null","$54<br><br>now","$55<br>in<br>12 weeks","1","54","55","12",""
"html-keyboard-response","64","160074","0.0-5.0-1.20","63034df51d918e1e3b97e5ce","bdp_td","Sun Mar 26 2023 18:22:32 GMT-0400 (Eastern Daylight Time)","185080","","null","","","","FIX","","<div class='trialBorder'><div class='vertical-center'><img style='vertical-align:center; align:center' src=img/fixation3.jpg></div></div>","null","","","","","","",""
"html-keyboard-response","65","162595","0.0-5.0-2.20","63034df51d918e1e3b97e5ce","bdp_td","Sun Mar 26 2023 18:22:32 GMT-0400 (Eastern Daylight Time)","185080","","2520","","","","offer","","<div class='trialBorder'><div class='vertical-center'><img style='vertical-align:center; align:center' src=img/fixation3.jpg></div><div class='cl'><div class='vertical-center'>$75<br>in<br>12 weeks</div></div><div class='cr'><div class='vertical-center'>$67<br><br>now</div></div><div class='respDivL'><div class='vertical-center'>(E)</div></div><div class='respDivR'><div class='vertical-center'>(I)</div></div></div>","I","$67<br><br>now","$75<br>in<br>12 weeks","1","67","75","12","NOW"
"html-keyboard-response","66","162846","0.0-5.0-3.20","63034df51d918e1e3b97e5ce","bdp_td","Sun Mar 26 2023 18:22:32 GMT-0400 (Eastern Daylight Time)","185080","","null","","","","offerFB","","<div class='trialBorder'><div class='vertical-center'><img style='vertical-align:center; align:center' src=img/fixation3.jpg></div><div class='cl'><div class='vertical-center'>$75<br>in<br>12 weeks</div></div><div class='cr'><div class='vertical-center'><font style='color:orange'>$67<br><br>now</font></div></div><div class='respDivL'><div class='vertical-center'>(E)</div></div><div class='respDivR'><div class='vertical-center'><font style='color:orange'>(I)</font></div></div></div>","null","$67<br><br>now","$75<br>in<br>12 weeks","1","67","75","12",""
"html-keyboard-response","67","163347","0.0-5.0-1.21","63034df51d918e1e3b97e5ce","bdp_td","Sun Mar 26 2023 18:22:32 GMT-0400 (Eastern Daylight Time)","185080","","null","","","","FIX","","<div class='trialBorder'><div class='vertical-center'><img style='vertical-align:center; align:center' src=img/fixation3.jpg></div></div>","null","","","","","","",""
"html-keyboard-response","68","165117","0.0-5.0-2.21","63034df51d918e1e3b97e5ce","bdp_td","Sun Mar 26 2023 18:22:32 GMT-0400 (Eastern Daylight Time)","185080","","1770","","","","offer","","<div class='trialBorder'><div class='vertical-center'><img style='vertical-align:center; align:center' src=img/fixation3.jpg></div><div class='cl'><div class='vertical-center'>$80<br><br>now</div></div><div class='cr'><div class='vertical-center'>$85<br>in<br>12 weeks</div></div><div class='respDivL'><div class='vertical-center'>(E)</div></div><div class='respDivR'><div class='vertical-center'>(I)</div></div></div>","E","$80<br><br>now","$85<br>in<br>12 weeks","0","80","85","12","NOW"
"html-keyboard-response","69","165368","0.0-5.0-3.21","63034df51d918e1e3b97e5ce","bdp_td","Sun Mar 26 2023 18:22:32 GMT-0400 (Eastern Daylight Time)","185080","","null","","","","offerFB","","<div class='trialBorder'><div class='vertical-center'><img style='vertical-align:center; align:center' src=img/fixation3.jpg></div><div class='cl'><div class='vertical-center'><font style='color:orange'>$80<br><br>now</font></div></div><div class='cr'><div class='vertical-center'>$85<br>in<br>12 weeks</div></div><div class='respDivL'><div class='vertical-center'><font style='color:orange'>(E)</font></div></div><div class='respDivR'><div class='vertical-center'>(I)</div></div></div>","null","$80<br><br>now","$85<br>in<br>12 weeks","0","80","85","12",""
"html-keyboard-response","70","165869","0.0-5.0-1.22","63034df51d918e1e3b97e5ce","bdp_td","Sun Mar 26 2023 18:22:32 GMT-0400 (Eastern Daylight Time)","185080","","null","","","","FIX","","<div class='trialBorder'><div class='vertical-center'><img style='vertical-align:center; align:center' src=img/fixation3.jpg></div></div>","null","","","","","","",""
"html-keyboard-response","71","167869","0.0-5.0-2.22","63034df51d918e1e3b97e5ce","bdp_td","Sun Mar 26 2023 18:22:32 GMT-0400 (Eastern Daylight Time)","185080","","2000","","","","offer","","<div class='trialBorder'><div class='vertical-center'><img style='vertical-align:center; align:center' src=img/fixation3.jpg></div><div class='cl'><div class='vertical-center'>$50<br>in<br>12 weeks</div></div><div class='cr'><div class='vertical-center'>$47<br><br>now</div></div><div class='respDivL'><div class='vertical-center'>(E)</div></div><div class='respDivR'><div class='vertical-center'>(I)</div></div></div>","I","$47<br><br>now","$50<br>in<br>12 weeks","1","47","50","12","NOW"
"html-keyboard-response","72","168120","0.0-5.0-3.22","63034df51d918e1e3b97e5ce","bdp_td","Sun Mar 26 2023 18:22:32 GMT-0400 (Eastern Daylight Time)","185080","","null","","","","offerFB","","<div class='trialBorder'><div class='vertical-center'><img style='vertical-align:center; align:center' src=img/fixation3.jpg></div><div class='cl'><div class='vertical-center'>$50<br>in<br>12 weeks</div></div><div class='cr'><div class='vertical-center'><font style='color:orange'>$47<br><br>now</font></div></div><div class='respDivL'><div class='vertical-center'>(E)</div></div><div class='respDivR'><div class='vertical-center'><font style='color:orange'>(I)</font></div></div></div>","null","$47<br><br>now","$50<br>in<br>12 weeks","1","47","50","12",""
"html-keyboard-response","73","168622","0.0-5.0-1.23","63034df51d918e1e3b97e5ce","bdp_td","Sun Mar 26 2023 18:22:32 GMT-0400 (Eastern Daylight Time)","185080","","null","","","","FIX","","<div class='trialBorder'><div class='vertical-center'><img style='vertical-align:center; align:center' src=img/fixation3.jpg></div></div>","null","","","","","","",""
"html-keyboard-response","74","172105","0.0-5.0-2.23","63034df51d918e1e3b97e5ce","bdp_td","Sun Mar 26 2023 18:22:32 GMT-0400 (Eastern Daylight Time)","185080","","3483","","","","offer","","<div class='trialBorder'><div class='vertical-center'><img style='vertical-align:center; align:center' src=img/fixation3.jpg></div><div class='cl'><div class='vertical-center'>$14<br><br>now</div></div><div class='cr'><div class='vertical-center'>$25<br>in<br>3 weeks</div></div><div class='respDivL'><div class='vertical-center'>(E)</div></div><div class='respDivR'><div class='vertical-center'>(I)</div></div></div>","I","$14<br><br>now","$25<br>in<br>3 weeks","0","14","25","3","THEN"
"html-keyboard-response","75","172357","0.0-5.0-3.23","63034df51d918e1e3b97e5ce","bdp_td","Sun Mar 26 2023 18:22:32 GMT-0400 (Eastern Daylight Time)","185080","","null","","","","offerFB","","<div class='trialBorder'><div class='vertical-center'><img style='vertical-align:center; align:center' src=img/fixation3.jpg></div><div class='cl'><div class='vertical-center'>$14<br><br>now</div></div><div class='cr'><div class='vertical-center'><font style='color:orange'>$25<br>in<br>3 weeks</font></div></div><div class='respDivL'><div class='vertical-center'>(E)</div></div><div class='respDivR'><div class='vertical-center'><font style='color:orange'>(I)</font></div></div></div>","null","$14<br><br>now","$25<br>in<br>3 weeks","0","14","25","3",""
"html-keyboard-response","76","172858","0.0-5.0-1.24","63034df51d918e1e3b97e5ce","bdp_td","Sun Mar 26 2023 18:22:32 GMT-0400 (Eastern Daylight Time)","185080","","null","","","","FIX","","<div class='trialBorder'><div class='vertical-center'><img style='vertical-align:center; align:center' src=img/fixation3.jpg></div></div>","null","","","","","","",""
"html-keyboard-response","77","176914","0.0-5.0-2.24","63034df51d918e1e3b97e5ce","bdp_td","Sun Mar 26 2023 18:22:32 GMT-0400 (Eastern Daylight Time)","185080","","4056","","","","offer","","<div class='trialBorder'><div class='vertical-center'><img style='vertical-align:center; align:center' src=img/fixation3.jpg></div><div class='cl'><div class='vertical-center'>$60<br>in<br>6 weeks</div></div><div class='cr'><div class='vertical-center'>$49<br><br>now</div></div><div class='respDivL'><div class='vertical-center'>(E)</div></div><div class='respDivR'><div class='vertical-center'>(I)</div></div></div>","I","$49<br><br>now","$60<br>in<br>6 weeks","1","49","60","6","NOW"
"html-keyboard-response","78","177166","0.0-5.0-3.24","63034df51d918e1e3b97e5ce","bdp_td","Sun Mar 26 2023 18:22:32 GMT-0400 (Eastern Daylight Time)","185080","","null","","","","offerFB","","<div class='trialBorder'><div class='vertical-center'><img style='vertical-align:center; align:center' src=img/fixation3.jpg></div><div class='cl'><div class='vertical-center'>$60<br>in<br>6 weeks</div></div><div class='cr'><div class='vertical-center'><font style='color:orange'>$49<br><br>now</font></div></div><div class='respDivL'><div class='vertical-center'>(E)</div></div><div class='respDivR'><div class='vertical-center'><font style='color:orange'>(I)</font></div></div></div>","null","$49<br><br>now","$60<br>in<br>6 weeks","1","49","60","6",""
"html-keyboard-response","79","177668","0.0-5.0-1.25","63034df51d918e1e3b97e5ce","bdp_td","Sun Mar 26 2023 18:22:32 GMT-0400 (Eastern Daylight Time)","185080","","null","","","","FIX","","<div class='trialBorder'><div class='vertical-center'><img style='vertical-align:center; align:center' src=img/fixation3.jpg></div></div>","null","","","","","","",""
"html-keyboard-response","80","179951","0.0-5.0-2.25","63034df51d918e1e3b97e5ce","bdp_td","Sun Mar 26 2023 18:22:32 GMT-0400 (Eastern Daylight Time)","185080","","2283","","","","offer","","<div class='trialBorder'><div class='vertical-center'><img style='vertical-align:center; align:center' src=img/fixation3.jpg></div><div class='cl'><div class='vertical-center'>$33<br><br>now</div></div><div class='cr'><div class='vertical-center'>$80<br>in<br>2 weeks</div></div><div class='respDivL'><div class='vertical-center'>(E)</div></div><div class='respDivR'><div class='vertical-center'>(I)</div></div></div>","I","$33<br><br>now","$80<br>in<br>2 weeks","0","33","80","2","THEN"
"html-keyboard-response","81","180202","0.0-5.0-3.25","63034df51d918e1e3b97e5ce","bdp_td","Sun Mar 26 2023 18:22:32 GMT-0400 (Eastern Daylight Time)","185080","","null","","","","offerFB","","<div class='trialBorder'><div class='vertical-center'><img style='vertical-align:center; align:center' src=img/fixation3.jpg></div><div class='cl'><div class='vertical-center'>$33<br><br>now</div></div><div class='cr'><div class='vertical-center'><font style='color:orange'>$80<br>in<br>2 weeks</font></div></div><div class='respDivL'><div class='vertical-center'>(E)</div></div><div class='respDivR'><div class='vertical-center'><font style='color:orange'>(I)</font></div></div></div>","null","$33<br><br>now","$80<br>in<br>2 weeks","0","33","80","2",""
"html-keyboard-response","82","180703","0.0-5.0-1.26","63034df51d918e1e3b97e5ce","bdp_td","Sun Mar 26 2023 18:22:32 GMT-0400 (Eastern Daylight Time)","185080","","null","","","","FIX","","<div class='trialBorder'><div class='vertical-center'><img style='vertical-align:center; align:center' src=img/fixation3.jpg></div></div>","null","","","","","","",""
"html-keyboard-response","83","183827","0.0-5.0-2.26","63034df51d918e1e3b97e5ce","bdp_td","Sun Mar 26 2023 18:22:32 GMT-0400 (Eastern Daylight Time)","185080","","3124","","","","offer","","<div class='trialBorder'><div class='vertical-center'><img style='vertical-align:center; align:center' src=img/fixation3.jpg></div><div class='cl'><div class='vertical-center'>$69<br><br>now</div></div><div class='cr'><div class='vertical-center'>$85<br>in<br>6 weeks</div></div><div class='respDivL'><div class='vertical-center'>(E)</div></div><div class='respDivR'><div class='vertical-center'>(I)</div></div></div>","E","$69<br><br>now","$85<br>in<br>6 weeks","0","69","85","6","NOW"
"html-keyboard-response","84","184079","0.0-5.0-3.26","63034df51d918e1e3b97e5ce","bdp_td","Sun Mar 26 2023 18:22:32 GMT-0400 (Eastern Daylight Time)","185080","","null","","","","offerFB","","<div class='trialBorder'><div class='vertical-center'><img style='vertical-align:center; align:center' src=img/fixation3.jpg></div><div class='cl'><div class='vertical-center'><font style='color:orange'>$69<br><br>now</font></div></div><div class='cr'><div class='vertical-center'>$85<br>in<br>6 weeks</div></div><div class='respDivL'><div class='vertical-center'><font style='color:orange'>(E)</font></div></div><div class='respDivR'><div class='vertical-center'>(I)</div></div></div>","null","$69<br><br>now","$85<br>in<br>6 weeks","0","69","85","6",""
"","","","","63034df51d918e1e3b97e5ce","bdp_td","Sun Mar 26 2023 18:22:32 GMT-0400 (Eastern Daylight Time)","185080","","","fullscreenexit","85","184096","fullscreenexit","","","","","","","","","",""
"fullscreen","85","185080","0.0-6.0","63034df51d918e1e3b97e5ce","bdp_td","Sun Mar 26 2023 18:22:32 GMT-0400 (Eastern Daylight Time)","185080","","","","","","","true","","","","","","","","",""
"html-keyboard-response","86","185582","0.0-7.0","","","","","","null","","","","","","","null","","","","","","",""
