"event","trial","time","trialtype","subject_id","task","startTime","totalTime","trial_type","trial_index","time_elapsed","internal_node_id","view_history","rt","success","stimulus","key_press","nowOffer","thenOffer","thenLeft","nowAmt","thenAmt","thenWeeks","chosen"
"focus","0","0","focusevent","612fbc37af2136fe81fc71a9","bdp_td","Wed Mar 29 2023 09:32:04 GMT-0700 (Pacific Daylight Time)","111720","","","","","","","","","","","","","","","",""
"","","","","612fbc37af2136fe81fc71a9","bdp_td","Wed Mar 29 2023 09:32:04 GMT-0700 (Pacific Daylight Time)","111720","pavlovia","0","11","0.0-0.0","","","","","","","","","","","",""
"","","","","612fbc37af2136fe81fc71a9","bdp_td","Wed Mar 29 2023 09:32:04 GMT-0700 (Pacific Daylight Time)","111720","instructions","1","1972","0.0-1.0","[{""page_index"":0,""viewing_time"":1958}]","1959","","","","","","","","","",""
"fullscreenexit","2","4198","fullscreenexit","612fbc37af2136fe81fc71a9","bdp_td","Wed Mar 29 2023 09:32:04 GMT-0700 (Pacific Daylight Time)","111720","","","","","","","","","","","","","","","",""
"","","","","612fbc37af2136fe81fc71a9","bdp_td","Wed Mar 29 2023 09:32:04 GMT-0700 (Pacific Daylight Time)","111720","fullscreen","2","5186","0.0-2.0","","","true","","","","","","","","",""
"","","","fullscreenfail","612fbc37af2136fe81fc71a9","bdp_td","Wed Mar 29 2023 09:32:04 GMT-0700 (Pacific Daylight Time)","111720","image-keyboard-response","3","6538","0.0-3.0-0.0","","1349","","","32","","","","","","",""
"","","","","612fbc37af2136fe81fc71a9","bdp_td","Wed Mar 29 2023 09:32:04 GMT-0700 (Pacific Daylight Time)","111720","instructions","4","27335","0.0-4.0","[{""page_index"":0,""viewing_time"":10626},{""page_index"":1,""viewing_time"":7559},{""page_index"":2,""viewing_time"":2360}]","20546","","","","","","","","","",""
"","","","FIX","612fbc37af2136fe81fc71a9","bdp_td","Wed Mar 29 2023 09:32:04 GMT-0700 (Pacific Daylight Time)","111720","html-keyboard-response","5","27839","0.0-5.0-1.0","","null","","<div class='trialBorder'><div class='vertical-center'><img style='vertical-align:center; align:center' src=img/fixation3.jpg></div></div>","null","","","","","","",""
"","","","offer","612fbc37af2136fe81fc71a9","bdp_td","Wed Mar 29 2023 09:32:04 GMT-0700 (Pacific Daylight Time)","111720","html-keyboard-response","6","32975","0.0-5.0-2.0","","5135","","<div class='trialBorder'><div class='vertical-center'><img style='vertical-align:center; align:center' src=img/fixation3.jpg></div><div class='cl'><div class='vertical-center'>$50<br>in<br>6 weeks</div></div><div class='cr'><div class='vertical-center'>$34<br><br>now</div></div><div class='respDivL'><div class='vertical-center'>(E)</div></div><div class='respDivR'><div class='vertical-center'>(I)</div></div></div>","I","$34<br><br>now","$50<br>in<br>6 weeks","1","34","50","6","NOW"
"","","","offerFB","612fbc37af2136fe81fc71a9","bdp_td","Wed Mar 29 2023 09:32:04 GMT-0700 (Pacific Daylight Time)","111720","html-keyboard-response","7","33230","0.0-5.0-3.0","","null","","<div class='trialBorder'><div class='vertical-center'><img style='vertical-align:center; align:center' src=img/fixation3.jpg></div><div class='cl'><div class='vertical-center'>$50<br>in<br>6 weeks</div></div><div class='cr'><div class='vertical-center'><font style='color:orange'>$34<br><br>now</font></div></div><div class='respDivL'><div class='vertical-center'>(E)</div></div><div class='respDivR'><div class='vertical-center'><font style='color:orange'>(I)</font></div></div></div>","null","$34<br><br>now","$50<br>in<br>6 weeks","1","34","50","6",""
"","","","FIX","612fbc37af2136fe81fc71a9","bdp_td","Wed Mar 29 2023 09:32:04 GMT-0700 (Pacific Daylight Time)","111720","html-keyboard-response","8","33732","0.0-5.0-1.1","","null","","<div class='trialBorder'><div class='vertical-center'><img style='vertical-align:center; align:center' src=img/fixation3.jpg></div></div>","null","","","","","","",""
"","","","offer","612fbc37af2136fe81fc71a9","bdp_td","Wed Mar 29 2023 09:32:04 GMT-0700 (Pacific Daylight Time)","111720","html-keyboard-response","9","36950","0.0-5.0-2.1","","3216","","<div class='trialBorder'><div class='vertical-center'><img style='vertical-align:center; align:center' src=img/fixation3.jpg></div><div class='cl'><div class='vertical-center'>$40<br><br>now</div></div><div class='cr'><div class='vertical-center'>$55<br>in<br>6 weeks</div></div><div class='respDivL'><div class='vertical-center'>(E)</div></div><div class='respDivR'><div class='vertical-center'>(I)</div></div></div>","E","$40<br><br>now","$55<br>in<br>6 weeks","0","40","55","6","NOW"
"","","","offerFB","612fbc37af2136fe81fc71a9","bdp_td","Wed Mar 29 2023 09:32:04 GMT-0700 (Pacific Daylight Time)","111720","html-keyboard-response","10","37205","0.0-5.0-3.1","","null","","<div class='trialBorder'><div class='vertical-center'><img style='vertical-align:center; align:center' src=img/fixation3.jpg></div><div class='cl'><div class='vertical-center'><font style='color:orange'>$40<br><br>now</font></div></div><div class='cr'><div class='vertical-center'>$55<br>in<br>6 weeks</div></div><div class='respDivL'><div class='vertical-center'><font style='color:orange'>(E)</font></div></div><div class='respDivR'><div class='vertical-center'>(I)</div></div></div>","null","$40<br><br>now","$55<br>in<br>6 weeks","0","40","55","6",""
"","","","FIX","612fbc37af2136fe81fc71a9","bdp_td","Wed Mar 29 2023 09:32:04 GMT-0700 (Pacific Daylight Time)","111720","html-keyboard-response","11","37710","0.0-5.0-1.2","","null","","<div class='trialBorder'><div class='vertical-center'><img style='vertical-align:center; align:center' src=img/fixation3.jpg></div></div>","null","","","","","","",""
"","","","offer","612fbc37af2136fe81fc71a9","bdp_td","Wed Mar 29 2023 09:32:04 GMT-0700 (Pacific Daylight Time)","111720","html-keyboard-response","12","39886","0.0-5.0-2.2","","2174","","<div class='trialBorder'><div class='vertical-center'><img style='vertical-align:center; align:center' src=img/fixation3.jpg></div><div class='cl'><div class='vertical-center'>$14<br><br>now</div></div><div class='cr'><div class='vertical-center'>$25<br>in<br>3 weeks</div></div><div class='respDivL'><div class='vertical-center'>(E)</div></div><div class='respDivR'><div class='vertical-center'>(I)</div></div></div>","E","$14<br><br>now","$25<br>in<br>3 weeks","0","14","25","3","NOW"
"","","","offerFB","612fbc37af2136fe81fc71a9","bdp_td","Wed Mar 29 2023 09:32:04 GMT-0700 (Pacific Daylight Time)","111720","html-keyboard-response","13","40143","0.0-5.0-3.2","","null","","<div class='trialBorder'><div class='vertical-center'><img style='vertical-align:center; align:center' src=img/fixation3.jpg></div><div class='cl'><div class='vertical-center'><font style='color:orange'>$14<br><br>now</font></div></div><div class='cr'><div class='vertical-center'>$25<br>in<br>3 weeks</div></div><div class='respDivL'><div class='vertical-center'><font style='color:orange'>(E)</font></div></div><div class='respDivR'><div class='vertical-center'>(I)</div></div></div>","null","$14<br><br>now","$25<br>in<br>3 weeks","0","14","25","3",""
"","","","FIX","612fbc37af2136fe81fc71a9","bdp_td","Wed Mar 29 2023 09:32:04 GMT-0700 (Pacific Daylight Time)","111720","html-keyboard-response","14","40644","0.0-5.0-1.3","","null","","<div class='trialBorder'><div class='vertical-center'><img style='vertical-align:center; align:center' src=img/fixation3.jpg></div></div>","null","","","","","","",""
"","","","offer","612fbc37af2136fe81fc71a9","bdp_td","Wed Mar 29 2023 09:32:04 GMT-0700 (Pacific Daylight Time)","111720","html-keyboard-response","15","42773","0.0-5.0-2.3","","2127","","<div class='trialBorder'><div class='vertical-center'><img style='vertical-align:center; align:center' src=img/fixation3.jpg></div><div class='cl'><div class='vertical-center'>$25<br><br>now</div></div><div class='cr'><div class='vertical-center'>$30<br>in<br>6 weeks</div></div><div class='respDivL'><div class='vertical-center'>(E)</div></div><div class='respDivR'><div class='vertical-center'>(I)</div></div></div>","E","$25<br><br>now","$30<br>in<br>6 weeks","0","25","30","6","NOW"
"","","","offerFB","612fbc37af2136fe81fc71a9","bdp_td","Wed Mar 29 2023 09:32:04 GMT-0700 (Pacific Daylight Time)","111720","html-keyboard-response","16","43026","0.0-5.0-3.3","","null","","<div class='trialBorder'><div class='vertical-center'><img style='vertical-align:center; align:center' src=img/fixation3.jpg></div><div class='cl'><div class='vertical-center'><font style='color:orange'>$25<br><br>now</font></div></div><div class='cr'><div class='vertical-center'>$30<br>in<br>6 weeks</div></div><div class='respDivL'><div class='vertical-center'><font style='color:orange'>(E)</font></div></div><div class='respDivR'><div class='vertical-center'>(I)</div></div></div>","null","$25<br><br>now","$30<br>in<br>6 weeks","0","25","30","6",""
"","","","FIX","612fbc37af2136fe81fc71a9","bdp_td","Wed Mar 29 2023 09:32:04 GMT-0700 (Pacific Daylight Time)","111720","html-keyboard-response","17","43531","0.0-5.0-1.4","","null","","<div class='trialBorder'><div class='vertical-center'><img style='vertical-align:center; align:center' src=img/fixation3.jpg></div></div>","null","","","","","","",""
"","","","offer","612fbc37af2136fe81fc71a9","bdp_td","Wed Mar 29 2023 09:32:04 GMT-0700 (Pacific Daylight Time)","111720","html-keyboard-response","18","45444","0.0-5.0-2.4","","1912","","<div class='trialBorder'><div class='vertical-center'><img style='vertical-align:center; align:center' src=img/fixation3.jpg></div><div class='cl'><div class='vertical-center'>$60<br>in<br>6 weeks</div></div><div class='cr'><div class='vertical-center'>$49<br><br>now</div></div><div class='respDivL'><div class='vertical-center'>(E)</div></div><div class='respDivR'><div class='vertical-center'>(I)</div></div></div>","E","$49<br><br>now","$60<br>in<br>6 weeks","1","49","60","6","THEN"
"","","","offerFB","612fbc37af2136fe81fc71a9","bdp_td","Wed Mar 29 2023 09:32:04 GMT-0700 (Pacific Daylight Time)","111720","html-keyboard-response","19","45696","0.0-5.0-3.4","","null","","<div class='trialBorder'><div class='vertical-center'><img style='vertical-align:center; align:center' src=img/fixation3.jpg></div><div class='cl'><div class='vertical-center'><font style='color:orange'>$60<br>in<br>6 weeks</font></div></div><div class='cr'><div class='vertical-center'>$49<br><br>now</div></div><div class='respDivL'><div class='vertical-center'><font style='color:orange'>(E)</font></div></div><div class='respDivR'><div class='vertical-center'>(I)</div></div></div>","null","$49<br><br>now","$60<br>in<br>6 weeks","1","49","60","6",""
"","","","FIX","612fbc37af2136fe81fc71a9","bdp_td","Wed Mar 29 2023 09:32:04 GMT-0700 (Pacific Daylight Time)","111720","html-keyboard-response","20","46198","0.0-5.0-1.5","","null","","<div class='trialBorder'><div class='vertical-center'><img style='vertical-align:center; align:center' src=img/fixation3.jpg></div></div>","null","","","","","","",""
"","","","offer","612fbc37af2136fe81fc71a9","bdp_td","Wed Mar 29 2023 09:32:04 GMT-0700 (Pacific Daylight Time)","111720","html-keyboard-response","21","48212","0.0-5.0-2.5","","2012","","<div class='trialBorder'><div class='vertical-center'><img style='vertical-align:center; align:center' src=img/fixation3.jpg></div><div class='cl'><div class='vertical-center'>$55<br><br>now</div></div><div class='cr'><div class='vertical-center'>$75<br>in<br>6 weeks</div></div><div class='respDivL'><div class='vertical-center'>(E)</div></div><div class='respDivR'><div class='vertical-center'>(I)</div></div></div>","I","$55<br><br>now","$75<br>in<br>6 weeks","0","55","75","6","THEN"
"","","","offerFB","612fbc37af2136fe81fc71a9","bdp_td","Wed Mar 29 2023 09:32:04 GMT-0700 (Pacific Daylight Time)","111720","html-keyboard-response","22","48465","0.0-5.0-3.5","","null","","<div class='trialBorder'><div class='vertical-center'><img style='vertical-align:center; align:center' src=img/fixation3.jpg></div><div class='cl'><div class='vertical-center'>$55<br><br>now</div></div><div class='cr'><div class='vertical-center'><font style='color:orange'>$75<br>in<br>6 weeks</font></div></div><div class='respDivL'><div class='vertical-center'>(E)</div></div><div class='respDivR'><div class='vertical-center'><font style='color:orange'>(I)</font></div></div></div>","null","$55<br><br>now","$75<br>in<br>6 weeks","0","55","75","6",""
"","","","FIX","612fbc37af2136fe81fc71a9","bdp_td","Wed Mar 29 2023 09:32:04 GMT-0700 (Pacific Daylight Time)","111720","html-keyboard-response","23","48969","0.0-5.0-1.6","","null","","<div class='trialBorder'><div class='vertical-center'><img style='vertical-align:center; align:center' src=img/fixation3.jpg></div></div>","null","","","","","","",""
"","","","offer","612fbc37af2136fe81fc71a9","bdp_td","Wed Mar 29 2023 09:32:04 GMT-0700 (Pacific Daylight Time)","111720","html-keyboard-response","24","50931","0.0-5.0-2.6","","1960","","<div class='trialBorder'><div class='vertical-center'><img style='vertical-align:center; align:center' src=img/fixation3.jpg></div><div class='cl'><div class='vertical-center'>$41<br><br>now</div></div><div class='cr'><div class='vertical-center'>$75<br>in<br>3 weeks</div></div><div class='respDivL'><div class='vertical-center'>(E)</div></div><div class='respDivR'><div class='vertical-center'>(I)</div></div></div>","I","$41<br><br>now","$75<br>in<br>3 weeks","0","41","75","3","THEN"
"","","","offerFB","612fbc37af2136fe81fc71a9","bdp_td","Wed Mar 29 2023 09:32:04 GMT-0700 (Pacific Daylight Time)","111720","html-keyboard-response","25","51183","0.0-5.0-3.6","","null","","<div class='trialBorder'><div class='vertical-center'><img style='vertical-align:center; align:center' src=img/fixation3.jpg></div><div class='cl'><div class='vertical-center'>$41<br><br>now</div></div><div class='cr'><div class='vertical-center'><font style='color:orange'>$75<br>in<br>3 weeks</font></div></div><div class='respDivL'><div class='vertical-center'>(E)</div></div><div class='respDivR'><div class='vertical-center'><font style='color:orange'>(I)</font></div></div></div>","null","$41<br><br>now","$75<br>in<br>3 weeks","0","41","75","3",""
"","","","FIX","612fbc37af2136fe81fc71a9","bdp_td","Wed Mar 29 2023 09:32:04 GMT-0700 (Pacific Daylight Time)","111720","html-keyboard-response","26","51685","0.0-5.0-1.7","","null","","<div class='trialBorder'><div class='vertical-center'><img style='vertical-align:center; align:center' src=img/fixation3.jpg></div></div>","null","","","","","","",""
"","","","offer","612fbc37af2136fe81fc71a9","bdp_td","Wed Mar 29 2023 09:32:04 GMT-0700 (Pacific Daylight Time)","111720","html-keyboard-response","27","53689","0.0-5.0-2.7","","2003","","<div class='trialBorder'><div class='vertical-center'><img style='vertical-align:center; align:center' src=img/fixation3.jpg></div><div class='cl'><div class='vertical-center'>$20<br><br>now</div></div><div class='cr'><div class='vertical-center'>$55<br>in<br>1 week</div></div><div class='respDivL'><div class='vertical-center'>(E)</div></div><div class='respDivR'><div class='vertical-center'>(I)</div></div></div>","I","$20<br><br>now","$55<br>in<br>1 week","0","20","55","1","THEN"
"","","","offerFB","612fbc37af2136fe81fc71a9","bdp_td","Wed Mar 29 2023 09:32:04 GMT-0700 (Pacific Daylight Time)","111720","html-keyboard-response","28","53941","0.0-5.0-3.7","","null","","<div class='trialBorder'><div class='vertical-center'><img style='vertical-align:center; align:center' src=img/fixation3.jpg></div><div class='cl'><div class='vertical-center'>$20<br><br>now</div></div><div class='cr'><div class='vertical-center'><font style='color:orange'>$55<br>in<br>1 week</font></div></div><div class='respDivL'><div class='vertical-center'>(E)</div></div><div class='respDivR'><div class='vertical-center'><font style='color:orange'>(I)</font></div></div></div>","null","$20<br><br>now","$55<br>in<br>1 week","0","20","55","1",""
"","","","FIX","612fbc37af2136fe81fc71a9","bdp_td","Wed Mar 29 2023 09:32:04 GMT-0700 (Pacific Daylight Time)","111720","html-keyboard-response","29","54445","0.0-5.0-1.8","","null","","<div class='trialBorder'><div class='vertical-center'><img style='vertical-align:center; align:center' src=img/fixation3.jpg></div></div>","null","","","","","","",""
"","","","offer","612fbc37af2136fe81fc71a9","bdp_td","Wed Mar 29 2023 09:32:04 GMT-0700 (Pacific Daylight Time)","111720","html-keyboard-response","30","56521","0.0-5.0-2.8","","2076","","<div class='trialBorder'><div class='vertical-center'><img style='vertical-align:center; align:center' src=img/fixation3.jpg></div><div class='cl'><div class='vertical-center'>$55<br>in<br>12 weeks</div></div><div class='cr'><div class='vertical-center'>$54<br><br>now</div></div><div class='respDivL'><div class='vertical-center'>(E)</div></div><div class='respDivR'><div class='vertical-center'>(I)</div></div></div>","I","$54<br><br>now","$55<br>in<br>12 weeks","1","54","55","12","NOW"
"","","","offerFB","612fbc37af2136fe81fc71a9","bdp_td","Wed Mar 29 2023 09:32:04 GMT-0700 (Pacific Daylight Time)","111720","html-keyboard-response","31","56775","0.0-5.0-3.8","","null","","<div class='trialBorder'><div class='vertical-center'><img style='vertical-align:center; align:center' src=img/fixation3.jpg></div><div class='cl'><div class='vertical-center'>$55<br>in<br>12 weeks</div></div><div class='cr'><div class='vertical-center'><font style='color:orange'>$54<br><br>now</font></div></div><div class='respDivL'><div class='vertical-center'>(E)</div></div><div class='respDivR'><div class='vertical-center'><font style='color:orange'>(I)</font></div></div></div>","null","$54<br><br>now","$55<br>in<br>12 weeks","1","54","55","12",""
"","","","FIX","612fbc37af2136fe81fc71a9","bdp_td","Wed Mar 29 2023 09:32:04 GMT-0700 (Pacific Daylight Time)","111720","html-keyboard-response","32","57277","0.0-5.0-1.9","","null","","<div class='trialBorder'><div class='vertical-center'><img style='vertical-align:center; align:center' src=img/fixation3.jpg></div></div>","null","","","","","","",""
"","","","offer","612fbc37af2136fe81fc71a9","bdp_td","Wed Mar 29 2023 09:32:04 GMT-0700 (Pacific Daylight Time)","111720","html-keyboard-response","33","60687","0.0-5.0-2.9","","3407","","<div class='trialBorder'><div class='vertical-center'><img style='vertical-align:center; align:center' src=img/fixation3.jpg></div><div class='cl'><div class='vertical-center'>$69<br><br>now</div></div><div class='cr'><div class='vertical-center'>$85<br>in<br>6 weeks</div></div><div class='respDivL'><div class='vertical-center'>(E)</div></div><div class='respDivR'><div class='vertical-center'>(I)</div></div></div>","E","$69<br><br>now","$85<br>in<br>6 weeks","0","69","85","6","NOW"
"","","","offerFB","612fbc37af2136fe81fc71a9","bdp_td","Wed Mar 29 2023 09:32:04 GMT-0700 (Pacific Daylight Time)","111720","html-keyboard-response","34","60943","0.0-5.0-3.9","","null","","<div class='trialBorder'><div class='vertical-center'><img style='vertical-align:center; align:center' src=img/fixation3.jpg></div><div class='cl'><div class='vertical-center'><font style='color:orange'>$69<br><br>now</font></div></div><div class='cr'><div class='vertical-center'>$85<br>in<br>6 weeks</div></div><div class='respDivL'><div class='vertical-center'><font style='color:orange'>(E)</font></div></div><div class='respDivR'><div class='vertical-center'>(I)</div></div></div>","null","$69<br><br>now","$85<br>in<br>6 weeks","0","69","85","6",""
"","","","FIX","612fbc37af2136fe81fc71a9","bdp_td","Wed Mar 29 2023 09:32:04 GMT-0700 (Pacific Daylight Time)","111720","html-keyboard-response","35","61444","0.0-5.0-1.10","","null","","<div class='trialBorder'><div class='vertical-center'><img style='vertical-align:center; align:center' src=img/fixation3.jpg></div></div>","null","","","","","","",""
"","","","offer","612fbc37af2136fe81fc71a9","bdp_td","Wed Mar 29 2023 09:32:04 GMT-0700 (Pacific Daylight Time)","111720","html-keyboard-response","36","63829","0.0-5.0-2.10","","2383","","<div class='trialBorder'><div class='vertical-center'><img style='vertical-align:center; align:center' src=img/fixation3.jpg></div><div class='cl'><div class='vertical-center'>$50<br>in<br>12 weeks</div></div><div class='cr'><div class='vertical-center'>$47<br><br>now</div></div><div class='respDivL'><div class='vertical-center'>(E)</div></div><div class='respDivR'><div class='vertical-center'>(I)</div></div></div>","I","$47<br><br>now","$50<br>in<br>12 weeks","1","47","50","12","NOW"
"","","","offerFB","612fbc37af2136fe81fc71a9","bdp_td","Wed Mar 29 2023 09:32:04 GMT-0700 (Pacific Daylight Time)","111720","html-keyboard-response","37","64082","0.0-5.0-3.10","","null","","<div class='trialBorder'><div class='vertical-center'><img style='vertical-align:center; align:center' src=img/fixation3.jpg></div><div class='cl'><div class='vertical-center'>$50<br>in<br>12 weeks</div></div><div class='cr'><div class='vertical-center'><font style='color:orange'>$47<br><br>now</font></div></div><div class='respDivL'><div class='vertical-center'>(E)</div></div><div class='respDivR'><div class='vertical-center'><font style='color:orange'>(I)</font></div></div></div>","null","$47<br><br>now","$50<br>in<br>12 weeks","1","47","50","12",""
"","","","FIX","612fbc37af2136fe81fc71a9","bdp_td","Wed Mar 29 2023 09:32:04 GMT-0700 (Pacific Daylight Time)","111720","html-keyboard-response","38","64585","0.0-5.0-1.11","","null","","<div class='trialBorder'><div class='vertical-center'><img style='vertical-align:center; align:center' src=img/fixation3.jpg></div></div>","null","","","","","","",""
"","","","offer","612fbc37af2136fe81fc71a9","bdp_td","Wed Mar 29 2023 09:32:04 GMT-0700 (Pacific Daylight Time)","111720","html-keyboard-response","39","66037","0.0-5.0-2.11","","1449","","<div class='trialBorder'><div class='vertical-center'><img style='vertical-align:center; align:center' src=img/fixation3.jpg></div><div class='cl'><div class='vertical-center'>$22<br><br>now</div></div><div class='cr'><div class='vertical-center'>$25<br>in<br>12 weeks</div></div><div class='respDivL'><div class='vertical-center'>(E)</div></div><div class='respDivR'><div class='vertical-center'>(I)</div></div></div>","E","$22<br><br>now","$25<br>in<br>12 weeks","0","22","25","12","NOW"
"","","","offerFB","612fbc37af2136fe81fc71a9","bdp_td","Wed Mar 29 2023 09:32:04 GMT-0700 (Pacific Daylight Time)","111720","html-keyboard-response","40","66290","0.0-5.0-3.11","","null","","<div class='trialBorder'><div class='vertical-center'><img style='vertical-align:center; align:center' src=img/fixation3.jpg></div><div class='cl'><div class='vertical-center'><font style='color:orange'>$22<br><br>now</font></div></div><div class='cr'><div class='vertical-center'>$25<br>in<br>12 weeks</div></div><div class='respDivL'><div class='vertical-center'><font style='color:orange'>(E)</font></div></div><div class='respDivR'><div class='vertical-center'>(I)</div></div></div>","null","$22<br><br>now","$25<br>in<br>12 weeks","0","22","25","12",""
"","","","FIX","612fbc37af2136fe81fc71a9","bdp_td","Wed Mar 29 2023 09:32:04 GMT-0700 (Pacific Daylight Time)","111720","html-keyboard-response","41","66792","0.0-5.0-1.12","","null","","<div class='trialBorder'><div class='vertical-center'><img style='vertical-align:center; align:center' src=img/fixation3.jpg></div></div>","null","","","","","","",""
"","","","offer","612fbc37af2136fe81fc71a9","bdp_td","Wed Mar 29 2023 09:32:04 GMT-0700 (Pacific Daylight Time)","111720","html-keyboard-response","42","68748","0.0-5.0-2.12","","1955","","<div class='trialBorder'><div class='vertical-center'><img style='vertical-align:center; align:center' src=img/fixation3.jpg></div><div class='cl'><div class='vertical-center'>$35<br>in<br>3 weeks</div></div><div class='cr'><div class='vertical-center'>$24<br><br>now</div></div><div class='respDivL'><div class='vertical-center'>(E)</div></div><div class='respDivR'><div class='vertical-center'>(I)</div></div></div>","I","$24<br><br>now","$35<br>in<br>3 weeks","1","24","35","3","NOW"
"","","","offerFB","612fbc37af2136fe81fc71a9","bdp_td","Wed Mar 29 2023 09:32:04 GMT-0700 (Pacific Daylight Time)","111720","html-keyboard-response","43","69001","0.0-5.0-3.12","","null","","<div class='trialBorder'><div class='vertical-center'><img style='vertical-align:center; align:center' src=img/fixation3.jpg></div><div class='cl'><div class='vertical-center'>$35<br>in<br>3 weeks</div></div><div class='cr'><div class='vertical-center'><font style='color:orange'>$24<br><br>now</font></div></div><div class='respDivL'><div class='vertical-center'>(E)</div></div><div class='respDivR'><div class='vertical-center'><font style='color:orange'>(I)</font></div></div></div>","null","$24<br><br>now","$35<br>in<br>3 weeks","1","24","35","3",""
"","","","FIX","612fbc37af2136fe81fc71a9","bdp_td","Wed Mar 29 2023 09:32:04 GMT-0700 (Pacific Daylight Time)","111720","html-keyboard-response","44","69502","0.0-5.0-1.13","","null","","<div class='trialBorder'><div class='vertical-center'><img style='vertical-align:center; align:center' src=img/fixation3.jpg></div></div>","null","","","","","","",""
"","","","offer","612fbc37af2136fe81fc71a9","bdp_td","Wed Mar 29 2023 09:32:04 GMT-0700 (Pacific Daylight Time)","111720","html-keyboard-response","45","71331","0.0-5.0-2.13","","1828","","<div class='trialBorder'><div class='vertical-center'><img style='vertical-align:center; align:center' src=img/fixation3.jpg></div><div class='cl'><div class='vertical-center'>$27<br><br>now</div></div><div class='cr'><div class='vertical-center'>$50<br>in<br>3 weeks</div></div><div class='respDivL'><div class='vertical-center'>(E)</div></div><div class='respDivR'><div class='vertical-center'>(I)</div></div></div>","I","$27<br><br>now","$50<br>in<br>3 weeks","0","27","50","3","THEN"
"","","","offerFB","612fbc37af2136fe81fc71a9","bdp_td","Wed Mar 29 2023 09:32:04 GMT-0700 (Pacific Daylight Time)","111720","html-keyboard-response","46","71587","0.0-5.0-3.13","","null","","<div class='trialBorder'><div class='vertical-center'><img style='vertical-align:center; align:center' src=img/fixation3.jpg></div><div class='cl'><div class='vertical-center'>$27<br><br>now</div></div><div class='cr'><div class='vertical-center'><font style='color:orange'>$50<br>in<br>3 weeks</font></div></div><div class='respDivL'><div class='vertical-center'>(E)</div></div><div class='respDivR'><div class='vertical-center'><font style='color:orange'>(I)</font></div></div></div>","null","$27<br><br>now","$50<br>in<br>3 weeks","0","27","50","3",""
"","","","FIX","612fbc37af2136fe81fc71a9","bdp_td","Wed Mar 29 2023 09:32:04 GMT-0700 (Pacific Daylight Time)","111720","html-keyboard-response","47","72091","0.0-5.0-1.14","","null","","<div class='trialBorder'><div class='vertical-center'><img style='vertical-align:center; align:center' src=img/fixation3.jpg></div></div>","null","","","","","","",""
"","","","offer","612fbc37af2136fe81fc71a9","bdp_td","Wed Mar 29 2023 09:32:04 GMT-0700 (Pacific Daylight Time)","111720","html-keyboard-response","48","75330","0.0-5.0-2.14","","3239","","<div class='trialBorder'><div class='vertical-center'><img style='vertical-align:center; align:center' src=img/fixation3.jpg></div><div class='cl'><div class='vertical-center'>$30<br>in<br>2 weeks</div></div><div class='cr'><div class='vertical-center'>$11<br><br>now</div></div><div class='respDivL'><div class='vertical-center'>(E)</div></div><div class='respDivR'><div class='vertical-center'>(I)</div></div></div>","E","$11<br><br>now","$30<br>in<br>2 weeks","1","11","30","2","THEN"
"","","","offerFB","612fbc37af2136fe81fc71a9","bdp_td","Wed Mar 29 2023 09:32:04 GMT-0700 (Pacific Daylight Time)","111720","html-keyboard-response","49","75585","0.0-5.0-3.14","","null","","<div class='trialBorder'><div class='vertical-center'><img style='vertical-align:center; align:center' src=img/fixation3.jpg></div><div class='cl'><div class='vertical-center'><font style='color:orange'>$30<br>in<br>2 weeks</font></div></div><div class='cr'><div class='vertical-center'>$11<br><br>now</div></div><div class='respDivL'><div class='vertical-center'><font style='color:orange'>(E)</font></div></div><div class='respDivR'><div class='vertical-center'>(I)</div></div></div>","null","$11<br><br>now","$30<br>in<br>2 weeks","1","11","30","2",""
"","","","FIX","612fbc37af2136fe81fc71a9","bdp_td","Wed Mar 29 2023 09:32:04 GMT-0700 (Pacific Daylight Time)","111720","html-keyboard-response","50","76086","0.0-5.0-1.15","","null","","<div class='trialBorder'><div class='vertical-center'><img style='vertical-align:center; align:center' src=img/fixation3.jpg></div></div>","null","","","","","","",""
"","","","offer","612fbc37af2136fe81fc71a9","bdp_td","Wed Mar 29 2023 09:32:04 GMT-0700 (Pacific Daylight Time)","111720","html-keyboard-response","51","78378","0.0-5.0-2.15","","2290","","<div class='trialBorder'><div class='vertical-center'><img style='vertical-align:center; align:center' src=img/fixation3.jpg></div><div class='cl'><div class='vertical-center'>$80<br>in<br>3 weeks</div></div><div class='cr'><div class='vertical-center'>$54<br><br>now</div></div><div class='respDivL'><div class='vertical-center'>(E)</div></div><div class='respDivR'><div class='vertical-center'>(I)</div></div></div>","E","$54<br><br>now","$80<br>in<br>3 weeks","1","54","80","3","THEN"
"","","","offerFB","612fbc37af2136fe81fc71a9","bdp_td","Wed Mar 29 2023 09:32:04 GMT-0700 (Pacific Daylight Time)","111720","html-keyboard-response","52","78631","0.0-5.0-3.15","","null","","<div class='trialBorder'><div class='vertical-center'><img style='vertical-align:center; align:center' src=img/fixation3.jpg></div><div class='cl'><div class='vertical-center'><font style='color:orange'>$80<br>in<br>3 weeks</font></div></div><div class='cr'><div class='vertical-center'>$54<br><br>now</div></div><div class='respDivL'><div class='vertical-center'><font style='color:orange'>(E)</font></div></div><div class='respDivR'><div class='vertical-center'>(I)</div></div></div>","null","$54<br><br>now","$80<br>in<br>3 weeks","1","54","80","3",""
"","","","FIX","612fbc37af2136fe81fc71a9","bdp_td","Wed Mar 29 2023 09:32:04 GMT-0700 (Pacific Daylight Time)","111720","html-keyboard-response","53","79133","0.0-5.0-1.16","","null","","<div class='trialBorder'><div class='vertical-center'><img style='vertical-align:center; align:center' src=img/fixation3.jpg></div></div>","null","","","","","","",""
"","","","offer","612fbc37af2136fe81fc71a9","bdp_td","Wed Mar 29 2023 09:32:04 GMT-0700 (Pacific Daylight Time)","111720","html-keyboard-response","54","81928","0.0-5.0-2.16","","2794","","<div class='trialBorder'><div class='vertical-center'><img style='vertical-align:center; align:center' src=img/fixation3.jpg></div><div class='cl'><div class='vertical-center'>$75<br>in<br>12 weeks</div></div><div class='cr'><div class='vertical-center'>$67<br><br>now</div></div><div class='respDivL'><div class='vertical-center'>(E)</div></div><div class='respDivR'><div class='vertical-center'>(I)</div></div></div>","I","$67<br><br>now","$75<br>in<br>12 weeks","1","67","75","12","NOW"
"","","","offerFB","612fbc37af2136fe81fc71a9","bdp_td","Wed Mar 29 2023 09:32:04 GMT-0700 (Pacific Daylight Time)","111720","html-keyboard-response","55","82180","0.0-5.0-3.16","","null","","<div class='trialBorder'><div class='vertical-center'><img style='vertical-align:center; align:center' src=img/fixation3.jpg></div><div class='cl'><div class='vertical-center'>$75<br>in<br>12 weeks</div></div><div class='cr'><div class='vertical-center'><font style='color:orange'>$67<br><br>now</font></div></div><div class='respDivL'><div class='vertical-center'>(E)</div></div><div class='respDivR'><div class='vertical-center'><font style='color:orange'>(I)</font></div></div></div>","null","$67<br><br>now","$75<br>in<br>12 weeks","1","67","75","12",""
"","","","FIX","612fbc37af2136fe81fc71a9","bdp_td","Wed Mar 29 2023 09:32:04 GMT-0700 (Pacific Daylight Time)","111720","html-keyboard-response","56","82682","0.0-5.0-1.17","","null","","<div class='trialBorder'><div class='vertical-center'><img style='vertical-align:center; align:center' src=img/fixation3.jpg></div></div>","null","","","","","","",""
"","","","offer","612fbc37af2136fe81fc71a9","bdp_td","Wed Mar 29 2023 09:32:04 GMT-0700 (Pacific Daylight Time)","111720","html-keyboard-response","57","84640","0.0-5.0-2.17","","1957","","<div class='trialBorder'><div class='vertical-center'><img style='vertical-align:center; align:center' src=img/fixation3.jpg></div><div class='cl'><div class='vertical-center'>$80<br><br>now</div></div><div class='cr'><div class='vertical-center'>$85<br>in<br>12 weeks</div></div><div class='respDivL'><div class='vertical-center'>(E)</div></div><div class='respDivR'><div class='vertical-center'>(I)</div></div></div>","E","$80<br><br>now","$85<br>in<br>12 weeks","0","80","85","12","NOW"
"","","","offerFB","612fbc37af2136fe81fc71a9","bdp_td","Wed Mar 29 2023 09:32:04 GMT-0700 (Pacific Daylight Time)","111720","html-keyboard-response","58","84893","0.0-5.0-3.17","","null","","<div class='trialBorder'><div class='vertical-center'><img style='vertical-align:center; align:center' src=img/fixation3.jpg></div><div class='cl'><div class='vertical-center'><font style='color:orange'>$80<br><br>now</font></div></div><div class='cr'><div class='vertical-center'>$85<br>in<br>12 weeks</div></div><div class='respDivL'><div class='vertical-center'><font style='color:orange'>(E)</font></div></div><div class='respDivR'><div class='vertical-center'>(I)</div></div></div>","null","$80<br><br>now","$85<br>in<br>12 weeks","0","80","85","12",""
"","","","FIX","612fbc37af2136fe81fc71a9","bdp_td","Wed Mar 29 2023 09:32:04 GMT-0700 (Pacific Daylight Time)","111720","html-keyboard-response","59","85395","0.0-5.0-1.18","","null","","<div class='trialBorder'><div class='vertical-center'><img style='vertical-align:center; align:center' src=img/fixation3.jpg></div></div>","null","","","","","","",""
"","","","offer","612fbc37af2136fe81fc71a9","bdp_td","Wed Mar 29 2023 09:32:04 GMT-0700 (Pacific Daylight Time)","111720","html-keyboard-response","60","87631","0.0-5.0-2.18","","2235","","<div class='trialBorder'><div class='vertical-center'><img style='vertical-align:center; align:center' src=img/fixation3.jpg></div><div class='cl'><div class='vertical-center'>$25<br><br>now</div></div><div class='cr'><div class='vertical-center'>$60<br>in<br>3 weeks</div></div><div class='respDivL'><div class='vertical-center'>(E)</div></div><div class='respDivR'><div class='vertical-center'>(I)</div></div></div>","I","$25<br><br>now","$60<br>in<br>3 weeks","0","25","60","3","THEN"
"","","","offerFB","612fbc37af2136fe81fc71a9","bdp_td","Wed Mar 29 2023 09:32:04 GMT-0700 (Pacific Daylight Time)","111720","html-keyboard-response","61","87885","0.0-5.0-3.18","","null","","<div class='trialBorder'><div class='vertical-center'><img style='vertical-align:center; align:center' src=img/fixation3.jpg></div><div class='cl'><div class='vertical-center'>$25<br><br>now</div></div><div class='cr'><div class='vertical-center'><font style='color:orange'>$60<br>in<br>3 weeks</font></div></div><div class='respDivL'><div class='vertical-center'>(E)</div></div><div class='respDivR'><div class='vertical-center'><font style='color:orange'>(I)</font></div></div></div>","null","$25<br><br>now","$60<br>in<br>3 weeks","0","25","60","3",""
"","","","FIX","612fbc37af2136fe81fc71a9","bdp_td","Wed Mar 29 2023 09:32:04 GMT-0700 (Pacific Daylight Time)","111720","html-keyboard-response","62","88390","0.0-5.0-1.19","","null","","<div class='trialBorder'><div class='vertical-center'><img style='vertical-align:center; align:center' src=img/fixation3.jpg></div></div>","null","","","","","","",""
"","","","offer","612fbc37af2136fe81fc71a9","bdp_td","Wed Mar 29 2023 09:32:04 GMT-0700 (Pacific Daylight Time)","111720","html-keyboard-response","63","91070","0.0-5.0-2.19","","2680","","<div class='trialBorder'><div class='vertical-center'><img style='vertical-align:center; align:center' src=img/fixation3.jpg></div><div class='cl'><div class='vertical-center'>$85<br>in<br>1 week</div></div><div class='cr'><div class='vertical-center'>$31<br><br>now</div></div><div class='respDivL'><div class='vertical-center'>(E)</div></div><div class='respDivR'><div class='vertical-center'>(I)</div></div></div>","E","$31<br><br>now","$85<br>in<br>1 week","1","31","85","1","THEN"
"","","","offerFB","612fbc37af2136fe81fc71a9","bdp_td","Wed Mar 29 2023 09:32:04 GMT-0700 (Pacific Daylight Time)","111720","html-keyboard-response","64","91327","0.0-5.0-3.19","","null","","<div class='trialBorder'><div class='vertical-center'><img style='vertical-align:center; align:center' src=img/fixation3.jpg></div><div class='cl'><div class='vertical-center'><font style='color:orange'>$85<br>in<br>1 week</font></div></div><div class='cr'><div class='vertical-center'>$31<br><br>now</div></div><div class='respDivL'><div class='vertical-center'><font style='color:orange'>(E)</font></div></div><div class='respDivR'><div class='vertical-center'>(I)</div></div></div>","null","$31<br><br>now","$85<br>in<br>1 week","1","31","85","1",""
"","","","FIX","612fbc37af2136fe81fc71a9","bdp_td","Wed Mar 29 2023 09:32:04 GMT-0700 (Pacific Daylight Time)","111720","html-keyboard-response","65","91828","0.0-5.0-1.20","","null","","<div class='trialBorder'><div class='vertical-center'><img style='vertical-align:center; align:center' src=img/fixation3.jpg></div></div>","null","","","","","","",""
"","","","offer","612fbc37af2136fe81fc71a9","bdp_td","Wed Mar 29 2023 09:32:04 GMT-0700 (Pacific Daylight Time)","111720","html-keyboard-response","66","94812","0.0-5.0-2.20","","2983","","<div class='trialBorder'><div class='vertical-center'><img style='vertical-align:center; align:center' src=img/fixation3.jpg></div><div class='cl'><div class='vertical-center'>$19<br><br>now</div></div><div class='cr'><div class='vertical-center'>$25<br>in<br>6 weeks</div></div><div class='respDivL'><div class='vertical-center'>(E)</div></div><div class='respDivR'><div class='vertical-center'>(I)</div></div></div>","E","$19<br><br>now","$25<br>in<br>6 weeks","0","19","25","6","NOW"
"","","","offerFB","612fbc37af2136fe81fc71a9","bdp_td","Wed Mar 29 2023 09:32:04 GMT-0700 (Pacific Daylight Time)","111720","html-keyboard-response","67","95064","0.0-5.0-3.20","","null","","<div class='trialBorder'><div class='vertical-center'><img style='vertical-align:center; align:center' src=img/fixation3.jpg></div><div class='cl'><div class='vertical-center'><font style='color:orange'>$19<br><br>now</font></div></div><div class='cr'><div class='vertical-center'>$25<br>in<br>6 weeks</div></div><div class='respDivL'><div class='vertical-center'><font style='color:orange'>(E)</font></div></div><div class='respDivR'><div class='vertical-center'>(I)</div></div></div>","null","$19<br><br>now","$25<br>in<br>6 weeks","0","19","25","6",""
"","","","FIX","612fbc37af2136fe81fc71a9","bdp_td","Wed Mar 29 2023 09:32:04 GMT-0700 (Pacific Daylight Time)","111720","html-keyboard-response","68","95569","0.0-5.0-1.21","","null","","<div class='trialBorder'><div class='vertical-center'><img style='vertical-align:center; align:center' src=img/fixation3.jpg></div></div>","null","","","","","","",""
"","","","offer","612fbc37af2136fe81fc71a9","bdp_td","Wed Mar 29 2023 09:32:04 GMT-0700 (Pacific Daylight Time)","111720","html-keyboard-response","69","97276","0.0-5.0-2.21","","1707","","<div class='trialBorder'><div class='vertical-center'><img style='vertical-align:center; align:center' src=img/fixation3.jpg></div><div class='cl'><div class='vertical-center'>$15<br><br>now</div></div><div class='cr'><div class='vertical-center'>$35<br>in<br>2 weeks</div></div><div class='respDivL'><div class='vertical-center'>(E)</div></div><div class='respDivR'><div class='vertical-center'>(I)</div></div></div>","I","$15<br><br>now","$35<br>in<br>2 weeks","0","15","35","2","THEN"
"","","","offerFB","612fbc37af2136fe81fc71a9","bdp_td","Wed Mar 29 2023 09:32:04 GMT-0700 (Pacific Daylight Time)","111720","html-keyboard-response","70","97527","0.0-5.0-3.21","","null","","<div class='trialBorder'><div class='vertical-center'><img style='vertical-align:center; align:center' src=img/fixation3.jpg></div><div class='cl'><div class='vertical-center'>$15<br><br>now</div></div><div class='cr'><div class='vertical-center'><font style='color:orange'>$35<br>in<br>2 weeks</font></div></div><div class='respDivL'><div class='vertical-center'>(E)</div></div><div class='respDivR'><div class='vertical-center'><font style='color:orange'>(I)</font></div></div></div>","null","$15<br><br>now","$35<br>in<br>2 weeks","0","15","35","2",""
"","","","FIX","612fbc37af2136fe81fc71a9","bdp_td","Wed Mar 29 2023 09:32:04 GMT-0700 (Pacific Daylight Time)","111720","html-keyboard-response","71","98032","0.0-5.0-1.22","","null","","<div class='trialBorder'><div class='vertical-center'><img style='vertical-align:center; align:center' src=img/fixation3.jpg></div></div>","null","","","","","","",""
"","","","offer","612fbc37af2136fe81fc71a9","bdp_td","Wed Mar 29 2023 09:32:04 GMT-0700 (Pacific Daylight Time)","111720","html-keyboard-response","72","99707","0.0-5.0-2.22","","1673","","<div class='trialBorder'><div class='vertical-center'><img style='vertical-align:center; align:center' src=img/fixation3.jpg></div><div class='cl'><div class='vertical-center'>$35<br>in<br>12 weeks</div></div><div class='cr'><div class='vertical-center'>$34<br><br>now</div></div><div class='respDivL'><div class='vertical-center'>(E)</div></div><div class='respDivR'><div class='vertical-center'>(I)</div></div></div>","I","$34<br><br>now","$35<br>in<br>12 weeks","1","34","35","12","NOW"
"","","","offerFB","612fbc37af2136fe81fc71a9","bdp_td","Wed Mar 29 2023 09:32:04 GMT-0700 (Pacific Daylight Time)","111720","html-keyboard-response","73","99959","0.0-5.0-3.22","","null","","<div class='trialBorder'><div class='vertical-center'><img style='vertical-align:center; align:center' src=img/fixation3.jpg></div><div class='cl'><div class='vertical-center'>$35<br>in<br>12 weeks</div></div><div class='cr'><div class='vertical-center'><font style='color:orange'>$34<br><br>now</font></div></div><div class='respDivL'><div class='vertical-center'>(E)</div></div><div class='respDivR'><div class='vertical-center'><font style='color:orange'>(I)</font></div></div></div>","null","$34<br><br>now","$35<br>in<br>12 weeks","1","34","35","12",""
"","","","FIX","612fbc37af2136fe81fc71a9","bdp_td","Wed Mar 29 2023 09:32:04 GMT-0700 (Pacific Daylight Time)","111720","html-keyboard-response","74","100461","0.0-5.0-1.23","","null","","<div class='trialBorder'><div class='vertical-center'><img style='vertical-align:center; align:center' src=img/fixation3.jpg></div></div>","null","","","","","","",""
"","","","offer","612fbc37af2136fe81fc71a9","bdp_td","Wed Mar 29 2023 09:32:04 GMT-0700 (Pacific Daylight Time)","111720","html-keyboard-response","75","102234","0.0-5.0-2.23","","1773","","<div class='trialBorder'><div class='vertical-center'><img style='vertical-align:center; align:center' src=img/fixation3.jpg></div><div class='cl'><div class='vertical-center'>$28<br><br>now</div></div><div class='cr'><div class='vertical-center'>$30<br>in<br>12 weeks</div></div><div class='respDivL'><div class='vertical-center'>(E)</div></div><div class='respDivR'><div class='vertical-center'>(I)</div></div></div>","E","$28<br><br>now","$30<br>in<br>12 weeks","0","28","30","12","NOW"
"","","","offerFB","612fbc37af2136fe81fc71a9","bdp_td","Wed Mar 29 2023 09:32:04 GMT-0700 (Pacific Daylight Time)","111720","html-keyboard-response","76","102490","0.0-5.0-3.23","","null","","<div class='trialBorder'><div class='vertical-center'><img style='vertical-align:center; align:center' src=img/fixation3.jpg></div><div class='cl'><div class='vertical-center'><font style='color:orange'>$28<br><br>now</font></div></div><div class='cr'><div class='vertical-center'>$30<br>in<br>12 weeks</div></div><div class='respDivL'><div class='vertical-center'><font style='color:orange'>(E)</font></div></div><div class='respDivR'><div class='vertical-center'>(I)</div></div></div>","null","$28<br><br>now","$30<br>in<br>12 weeks","0","28","30","12",""
"","","","FIX","612fbc37af2136fe81fc71a9","bdp_td","Wed Mar 29 2023 09:32:04 GMT-0700 (Pacific Daylight Time)","111720","html-keyboard-response","77","102995","0.0-5.0-1.24","","null","","<div class='trialBorder'><div class='vertical-center'><img style='vertical-align:center; align:center' src=img/fixation3.jpg></div></div>","null","","","","","","",""
"","","","offer","612fbc37af2136fe81fc71a9","bdp_td","Wed Mar 29 2023 09:32:04 GMT-0700 (Pacific Daylight Time)","111720","html-keyboard-response","78","104969","0.0-5.0-2.24","","1974","","<div class='trialBorder'><div class='vertical-center'><img style='vertical-align:center; align:center' src=img/fixation3.jpg></div><div class='cl'><div class='vertical-center'>$80<br>in<br>2 weeks</div></div><div class='cr'><div class='vertical-center'>$33<br><br>now</div></div><div class='respDivL'><div class='vertical-center'>(E)</div></div><div class='respDivR'><div class='vertical-center'>(I)</div></div></div>","E","$33<br><br>now","$80<br>in<br>2 weeks","1","33","80","2","THEN"
"","","","offerFB","612fbc37af2136fe81fc71a9","bdp_td","Wed Mar 29 2023 09:32:04 GMT-0700 (Pacific Daylight Time)","111720","html-keyboard-response","79","105225","0.0-5.0-3.24","","null","","<div class='trialBorder'><div class='vertical-center'><img style='vertical-align:center; align:center' src=img/fixation3.jpg></div><div class='cl'><div class='vertical-center'><font style='color:orange'>$80<br>in<br>2 weeks</font></div></div><div class='cr'><div class='vertical-center'>$33<br><br>now</div></div><div class='respDivL'><div class='vertical-center'><font style='color:orange'>(E)</font></div></div><div class='respDivR'><div class='vertical-center'>(I)</div></div></div>","null","$33<br><br>now","$80<br>in<br>2 weeks","1","33","80","2",""
"","","","FIX","612fbc37af2136fe81fc71a9","bdp_td","Wed Mar 29 2023 09:32:04 GMT-0700 (Pacific Daylight Time)","111720","html-keyboard-response","80","105727","0.0-5.0-1.25","","null","","<div class='trialBorder'><div class='vertical-center'><img style='vertical-align:center; align:center' src=img/fixation3.jpg></div></div>","null","","","","","","",""
"","","","offer","612fbc37af2136fe81fc71a9","bdp_td","Wed Mar 29 2023 09:32:04 GMT-0700 (Pacific Daylight Time)","111720","html-keyboard-response","81","108097","0.0-5.0-2.25","","2368","","<div class='trialBorder'><div class='vertical-center'><img style='vertical-align:center; align:center' src=img/fixation3.jpg></div><div class='cl'><div class='vertical-center'>$80<br>in<br>12 weeks</div></div><div class='cr'><div class='vertical-center'>$78<br><br>now</div></div><div class='respDivL'><div class='vertical-center'>(E)</div></div><div class='respDivR'><div class='vertical-center'>(I)</div></div></div>","I","$78<br><br>now","$80<br>in<br>12 weeks","1","78","80","12","NOW"
"","","","offerFB","612fbc37af2136fe81fc71a9","bdp_td","Wed Mar 29 2023 09:32:04 GMT-0700 (Pacific Daylight Time)","111720","html-keyboard-response","82","108348","0.0-5.0-3.25","","null","","<div class='trialBorder'><div class='vertical-center'><img style='vertical-align:center; align:center' src=img/fixation3.jpg></div><div class='cl'><div class='vertical-center'>$80<br>in<br>12 weeks</div></div><div class='cr'><div class='vertical-center'><font style='color:orange'>$78<br><br>now</font></div></div><div class='respDivL'><div class='vertical-center'>(E)</div></div><div class='respDivR'><div class='vertical-center'><font style='color:orange'>(I)</font></div></div></div>","null","$78<br><br>now","$80<br>in<br>12 weeks","1","78","80","12",""
"","","","FIX","612fbc37af2136fe81fc71a9","bdp_td","Wed Mar 29 2023 09:32:04 GMT-0700 (Pacific Daylight Time)","111720","html-keyboard-response","83","108853","0.0-5.0-1.26","","null","","<div class='trialBorder'><div class='vertical-center'><img style='vertical-align:center; align:center' src=img/fixation3.jpg></div></div>","null","","","","","","",""
"","","","offer","612fbc37af2136fe81fc71a9","bdp_td","Wed Mar 29 2023 09:32:04 GMT-0700 (Pacific Daylight Time)","111720","html-keyboard-response","84","110464","0.0-5.0-2.26","","1610","","<div class='trialBorder'><div class='vertical-center'><img style='vertical-align:center; align:center' src=img/fixation3.jpg></div><div class='cl'><div class='vertical-center'>$60<br>in<br>12 weeks</div></div><div class='cr'><div class='vertical-center'>$54<br><br>now</div></div><div class='respDivL'><div class='vertical-center'>(E)</div></div><div class='respDivR'><div class='vertical-center'>(I)</div></div></div>","I","$54<br><br>now","$60<br>in<br>12 weeks","1","54","60","12","NOW"
"","","","offerFB","612fbc37af2136fe81fc71a9","bdp_td","Wed Mar 29 2023 09:32:04 GMT-0700 (Pacific Daylight Time)","111720","html-keyboard-response","85","110719","0.0-5.0-3.26","","null","","<div class='trialBorder'><div class='vertical-center'><img style='vertical-align:center; align:center' src=img/fixation3.jpg></div><div class='cl'><div class='vertical-center'>$60<br>in<br>12 weeks</div></div><div class='cr'><div class='vertical-center'><font style='color:orange'>$54<br><br>now</font></div></div><div class='respDivL'><div class='vertical-center'>(E)</div></div><div class='respDivR'><div class='vertical-center'><font style='color:orange'>(I)</font></div></div></div>","null","$54<br><br>now","$60<br>in<br>12 weeks","1","54","60","12",""
"fullscreenexit","86","110739","fullscreenexit","612fbc37af2136fe81fc71a9","bdp_td","Wed Mar 29 2023 09:32:04 GMT-0700 (Pacific Daylight Time)","111720","","","","","","","","","","","","","","","",""
"","","","","612fbc37af2136fe81fc71a9","bdp_td","Wed Mar 29 2023 09:32:04 GMT-0700 (Pacific Daylight Time)","111720","fullscreen","86","111720","0.0-6.0","","","true","","","","","","","","",""
"","","","","","","","","html-keyboard-response","87","112225","0.0-7.0","","null","","","null","","","","","","",""
