"trial_type","trial_index","time_elapsed","internal_node_id","subject_id","task","startTime","totalTime","view_history","rt","event","trial","time","trialtype","success","stimulus","key_press","nowOffer","thenOffer","thenLeft","nowAmt","thenAmt","thenWeeks","chosen"
"pavlovia","0","2","0.0-0.0","63e857fe022e159687d56f41","bdp_td","Mon Mar 27 2023 16:51:45 GMT-0700 (Pacific Daylight Time)","160678","","","","","","","","","","","","","","","",""
"instructions","1","2828","0.0-1.0","63e857fe022e159687d56f41","bdp_td","Mon Mar 27 2023 16:51:45 GMT-0700 (Pacific Daylight Time)","160678","[{""page_index"":0,""viewing_time"":2825}]","2825","","","","","","","","","","","","","",""
"","","","","63e857fe022e159687d56f41","bdp_td","Mon Mar 27 2023 16:51:45 GMT-0700 (Pacific Daylight Time)","160678","","","fullscreenenter","2","5757","fullscreenenter","","","","","","","","","",""
"fullscreen","2","6745","0.0-2.0","63e857fe022e159687d56f41","bdp_td","Mon Mar 27 2023 16:51:45 GMT-0700 (Pacific Daylight Time)","160678","","","","","","","true","","","","","","","","",""
"instructions","3","51683","0.0-4.0","63e857fe022e159687d56f41","bdp_td","Mon Mar 27 2023 16:51:45 GMT-0700 (Pacific Daylight Time)","160678","[{""page_index"":0,""viewing_time"":11896},{""page_index"":1,""viewing_time"":15929},{""page_index"":0,""viewing_time"":3894},{""page_index"":1,""viewing_time"":2759},{""page_index"":2,""viewing_time"":10458}]","44936","","","","","","","","","","","","","",""
"html-keyboard-response","4","52193","0.0-5.0-1.0","63e857fe022e159687d56f41","bdp_td","Mon Mar 27 2023 16:51:45 GMT-0700 (Pacific Daylight Time)","160678","","null","","","","FIX","","<div class='trialBorder'><div class='vertical-center'><img style='vertical-align:center; align:center' src=img/fixation3.jpg></div></div>","null","","","","","","",""
"html-keyboard-response","5","55531","0.0-5.0-2.0","63e857fe022e159687d56f41","bdp_td","Mon Mar 27 2023 16:51:45 GMT-0700 (Pacific Daylight Time)","160678","","3335","","","","offer","","<div class='trialBorder'><div class='vertical-center'><img style='vertical-align:center; align:center' src=img/fixation3.jpg></div><div class='cl'><div class='vertical-center'>$85<br>in<br>12 weeks</div></div><div class='cr'><div class='vertical-center'>$80<br><br>now</div></div><div class='respDivL'><div class='vertical-center'>(E)</div></div><div class='respDivR'><div class='vertical-center'>(I)</div></div></div>","I","$80<br><br>now","$85<br>in<br>12 weeks","1","80","85","12","NOW"
"html-keyboard-response","6","55790","0.0-5.0-3.0","63e857fe022e159687d56f41","bdp_td","Mon Mar 27 2023 16:51:45 GMT-0700 (Pacific Daylight Time)","160678","","null","","","","offerFB","","<div class='trialBorder'><div class='vertical-center'><img style='vertical-align:center; align:center' src=img/fixation3.jpg></div><div class='cl'><div class='vertical-center'>$85<br>in<br>12 weeks</div></div><div class='cr'><div class='vertical-center'><font style='color:orange'>$80<br><br>now</font></div></div><div class='respDivL'><div class='vertical-center'>(E)</div></div><div class='respDivR'><div class='vertical-center'><font style='color:orange'>(I)</font></div></div></div>","null","$80<br><br>now","$85<br>in<br>12 weeks","1","80","85","12",""
"html-keyboard-response","7","56296","0.0-5.0-1.1","63e857fe022e159687d56f41","bdp_td","Mon Mar 27 2023 16:51:45 GMT-0700 (Pacific Daylight Time)","160678","","null","","","","FIX","","<div class='trialBorder'><div class='vertical-center'><img style='vertical-align:center; align:center' src=img/fixation3.jpg></div></div>","null","","","","","","",""
"html-keyboard-response","8","59779","0.0-5.0-2.1","63e857fe022e159687d56f41","bdp_td","Mon Mar 27 2023 16:51:45 GMT-0700 (Pacific Daylight Time)","160678","","3481","","","","offer","","<div class='trialBorder'><div class='vertical-center'><img style='vertical-align:center; align:center' src=img/fixation3.jpg></div><div class='cl'><div class='vertical-center'>$85<br>in<br>6 weeks</div></div><div class='cr'><div class='vertical-center'>$69<br><br>now</div></div><div class='respDivL'><div class='vertical-center'>(E)</div></div><div class='respDivR'><div class='vertical-center'>(I)</div></div></div>","E","$69<br><br>now","$85<br>in<br>6 weeks","1","69","85","6","THEN"
"html-keyboard-response","9","60034","0.0-5.0-3.1","63e857fe022e159687d56f41","bdp_td","Mon Mar 27 2023 16:51:45 GMT-0700 (Pacific Daylight Time)","160678","","null","","","","offerFB","","<div class='trialBorder'><div class='vertical-center'><img style='vertical-align:center; align:center' src=img/fixation3.jpg></div><div class='cl'><div class='vertical-center'><font style='color:orange'>$85<br>in<br>6 weeks</font></div></div><div class='cr'><div class='vertical-center'>$69<br><br>now</div></div><div class='respDivL'><div class='vertical-center'><font style='color:orange'>(E)</font></div></div><div class='respDivR'><div class='vertical-center'>(I)</div></div></div>","null","$69<br><br>now","$85<br>in<br>6 weeks","1","69","85","6",""
"html-keyboard-response","10","60540","0.0-5.0-1.2","63e857fe022e159687d56f41","bdp_td","Mon Mar 27 2023 16:51:45 GMT-0700 (Pacific Daylight Time)","160678","","null","","","","FIX","","<div class='trialBorder'><div class='vertical-center'><img style='vertical-align:center; align:center' src=img/fixation3.jpg></div></div>","null","","","","","","",""
"html-keyboard-response","11","63130","0.0-5.0-2.2","63e857fe022e159687d56f41","bdp_td","Mon Mar 27 2023 16:51:45 GMT-0700 (Pacific Daylight Time)","160678","","2588","","","","offer","","<div class='trialBorder'><div class='vertical-center'><img style='vertical-align:center; align:center' src=img/fixation3.jpg></div><div class='cl'><div class='vertical-center'>$50<br>in<br>12 weeks</div></div><div class='cr'><div class='vertical-center'>$47<br><br>now</div></div><div class='respDivL'><div class='vertical-center'>(E)</div></div><div class='respDivR'><div class='vertical-center'>(I)</div></div></div>","I","$47<br><br>now","$50<br>in<br>12 weeks","1","47","50","12","NOW"
"html-keyboard-response","12","63393","0.0-5.0-3.2","63e857fe022e159687d56f41","bdp_td","Mon Mar 27 2023 16:51:45 GMT-0700 (Pacific Daylight Time)","160678","","null","","","","offerFB","","<div class='trialBorder'><div class='vertical-center'><img style='vertical-align:center; align:center' src=img/fixation3.jpg></div><div class='cl'><div class='vertical-center'>$50<br>in<br>12 weeks</div></div><div class='cr'><div class='vertical-center'><font style='color:orange'>$47<br><br>now</font></div></div><div class='respDivL'><div class='vertical-center'>(E)</div></div><div class='respDivR'><div class='vertical-center'><font style='color:orange'>(I)</font></div></div></div>","null","$47<br><br>now","$50<br>in<br>12 weeks","1","47","50","12",""
"html-keyboard-response","13","63900","0.0-5.0-1.3","63e857fe022e159687d56f41","bdp_td","Mon Mar 27 2023 16:51:45 GMT-0700 (Pacific Daylight Time)","160678","","null","","","","FIX","","<div class='trialBorder'><div class='vertical-center'><img style='vertical-align:center; align:center' src=img/fixation3.jpg></div></div>","null","","","","","","",""
"html-keyboard-response","14","67053","0.0-5.0-2.3","63e857fe022e159687d56f41","bdp_td","Mon Mar 27 2023 16:51:45 GMT-0700 (Pacific Daylight Time)","160678","","3152","","","","offer","","<div class='trialBorder'><div class='vertical-center'><img style='vertical-align:center; align:center' src=img/fixation3.jpg></div><div class='cl'><div class='vertical-center'>$78<br><br>now</div></div><div class='cr'><div class='vertical-center'>$80<br>in<br>12 weeks</div></div><div class='respDivL'><div class='vertical-center'>(E)</div></div><div class='respDivR'><div class='vertical-center'>(I)</div></div></div>","E","$78<br><br>now","$80<br>in<br>12 weeks","0","78","80","12","NOW"
"html-keyboard-response","15","67317","0.0-5.0-3.3","63e857fe022e159687d56f41","bdp_td","Mon Mar 27 2023 16:51:45 GMT-0700 (Pacific Daylight Time)","160678","","null","","","","offerFB","","<div class='trialBorder'><div class='vertical-center'><img style='vertical-align:center; align:center' src=img/fixation3.jpg></div><div class='cl'><div class='vertical-center'><font style='color:orange'>$78<br><br>now</font></div></div><div class='cr'><div class='vertical-center'>$80<br>in<br>12 weeks</div></div><div class='respDivL'><div class='vertical-center'><font style='color:orange'>(E)</font></div></div><div class='respDivR'><div class='vertical-center'>(I)</div></div></div>","null","$78<br><br>now","$80<br>in<br>12 weeks","0","78","80","12",""
"html-keyboard-response","16","67821","0.0-5.0-1.4","63e857fe022e159687d56f41","bdp_td","Mon Mar 27 2023 16:51:45 GMT-0700 (Pacific Daylight Time)","160678","","null","","","","FIX","","<div class='trialBorder'><div class='vertical-center'><img style='vertical-align:center; align:center' src=img/fixation3.jpg></div></div>","null","","","","","","",""
"html-keyboard-response","17","69740","0.0-5.0-2.4","63e857fe022e159687d56f41","bdp_td","Mon Mar 27 2023 16:51:45 GMT-0700 (Pacific Daylight Time)","160678","","1917","","","","offer","","<div class='trialBorder'><div class='vertical-center'><img style='vertical-align:center; align:center' src=img/fixation3.jpg></div><div class='cl'><div class='vertical-center'>$31<br><br>now</div></div><div class='cr'><div class='vertical-center'>$85<br>in<br>1 week</div></div><div class='respDivL'><div class='vertical-center'>(E)</div></div><div class='respDivR'><div class='vertical-center'>(I)</div></div></div>","I","$31<br><br>now","$85<br>in<br>1 week","0","31","85","1","THEN"
"html-keyboard-response","18","70004","0.0-5.0-3.4","63e857fe022e159687d56f41","bdp_td","Mon Mar 27 2023 16:51:45 GMT-0700 (Pacific Daylight Time)","160678","","null","","","","offerFB","","<div class='trialBorder'><div class='vertical-center'><img style='vertical-align:center; align:center' src=img/fixation3.jpg></div><div class='cl'><div class='vertical-center'>$31<br><br>now</div></div><div class='cr'><div class='vertical-center'><font style='color:orange'>$85<br>in<br>1 week</font></div></div><div class='respDivL'><div class='vertical-center'>(E)</div></div><div class='respDivR'><div class='vertical-center'><font style='color:orange'>(I)</font></div></div></div>","null","$31<br><br>now","$85<br>in<br>1 week","0","31","85","1",""
"html-keyboard-response","19","70507","0.0-5.0-1.5","63e857fe022e159687d56f41","bdp_td","Mon Mar 27 2023 16:51:45 GMT-0700 (Pacific Daylight Time)","160678","","null","","","","FIX","","<div class='trialBorder'><div class='vertical-center'><img style='vertical-align:center; align:center' src=img/fixation3.jpg></div></div>","null","","","","","","",""
"html-keyboard-response","20","72889","0.0-5.0-2.5","63e857fe022e159687d56f41","bdp_td","Mon Mar 27 2023 16:51:45 GMT-0700 (Pacific Daylight Time)","160678","","2381","","","","offer","","<div class='trialBorder'><div class='vertical-center'><img style='vertical-align:center; align:center' src=img/fixation3.jpg></div><div class='cl'><div class='vertical-center'>$25<br>in<br>6 weeks</div></div><div class='cr'><div class='vertical-center'>$19<br><br>now</div></div><div class='respDivL'><div class='vertical-center'>(E)</div></div><div class='respDivR'><div class='vertical-center'>(I)</div></div></div>","I","$19<br><br>now","$25<br>in<br>6 weeks","1","19","25","6","NOW"
"html-keyboard-response","21","73148","0.0-5.0-3.5","63e857fe022e159687d56f41","bdp_td","Mon Mar 27 2023 16:51:45 GMT-0700 (Pacific Daylight Time)","160678","","null","","","","offerFB","","<div class='trialBorder'><div class='vertical-center'><img style='vertical-align:center; align:center' src=img/fixation3.jpg></div><div class='cl'><div class='vertical-center'>$25<br>in<br>6 weeks</div></div><div class='cr'><div class='vertical-center'><font style='color:orange'>$19<br><br>now</font></div></div><div class='respDivL'><div class='vertical-center'>(E)</div></div><div class='respDivR'><div class='vertical-center'><font style='color:orange'>(I)</font></div></div></div>","null","$19<br><br>now","$25<br>in<br>6 weeks","1","19","25","6",""
"html-keyboard-response","22","73658","0.0-5.0-1.6","63e857fe022e159687d56f41","bdp_td","Mon Mar 27 2023 16:51:45 GMT-0700 (Pacific Daylight Time)","160678","","null","","","","FIX","","<div class='trialBorder'><div class='vertical-center'><img style='vertical-align:center; align:center' src=img/fixation3.jpg></div></div>","null","","","","","","",""
"html-keyboard-response","23","76206","0.0-5.0-2.6","63e857fe022e159687d56f41","bdp_td","Mon Mar 27 2023 16:51:45 GMT-0700 (Pacific Daylight Time)","160678","","2546","","","","offer","","<div class='trialBorder'><div class='vertical-center'><img style='vertical-align:center; align:center' src=img/fixation3.jpg></div><div class='cl'><div class='vertical-center'>$20<br><br>now</div></div><div class='cr'><div class='vertical-center'>$55<br>in<br>1 week</div></div><div class='respDivL'><div class='vertical-center'>(E)</div></div><div class='respDivR'><div class='vertical-center'>(I)</div></div></div>","I","$20<br><br>now","$55<br>in<br>1 week","0","20","55","1","THEN"
"html-keyboard-response","24","76464","0.0-5.0-3.6","63e857fe022e159687d56f41","bdp_td","Mon Mar 27 2023 16:51:45 GMT-0700 (Pacific Daylight Time)","160678","","null","","","","offerFB","","<div class='trialBorder'><div class='vertical-center'><img style='vertical-align:center; align:center' src=img/fixation3.jpg></div><div class='cl'><div class='vertical-center'>$20<br><br>now</div></div><div class='cr'><div class='vertical-center'><font style='color:orange'>$55<br>in<br>1 week</font></div></div><div class='respDivL'><div class='vertical-center'>(E)</div></div><div class='respDivR'><div class='vertical-center'><font style='color:orange'>(I)</font></div></div></div>","null","$20<br><br>now","$55<br>in<br>1 week","0","20","55","1",""
"html-keyboard-response","25","76966","0.0-5.0-1.7","63e857fe022e159687d56f41","bdp_td","Mon Mar 27 2023 16:51:45 GMT-0700 (Pacific Daylight Time)","160678","","null","","","","FIX","","<div class='trialBorder'><div class='vertical-center'><img style='vertical-align:center; align:center' src=img/fixation3.jpg></div></div>","null","","","","","","",""
"html-keyboard-response","26","79694","0.0-5.0-2.7","63e857fe022e159687d56f41","bdp_td","Mon Mar 27 2023 16:51:45 GMT-0700 (Pacific Daylight Time)","160678","","2726","","","","offer","","<div class='trialBorder'><div class='vertical-center'><img style='vertical-align:center; align:center' src=img/fixation3.jpg></div><div class='cl'><div class='vertical-center'>$30<br>in<br>2 weeks</div></div><div class='cr'><div class='vertical-center'>$11<br><br>now</div></div><div class='respDivL'><div class='vertical-center'>(E)</div></div><div class='respDivR'><div class='vertical-center'>(I)</div></div></div>","E","$11<br><br>now","$30<br>in<br>2 weeks","1","11","30","2","THEN"
"html-keyboard-response","27","79951","0.0-5.0-3.7","63e857fe022e159687d56f41","bdp_td","Mon Mar 27 2023 16:51:45 GMT-0700 (Pacific Daylight Time)","160678","","null","","","","offerFB","","<div class='trialBorder'><div class='vertical-center'><img style='vertical-align:center; align:center' src=img/fixation3.jpg></div><div class='cl'><div class='vertical-center'><font style='color:orange'>$30<br>in<br>2 weeks</font></div></div><div class='cr'><div class='vertical-center'>$11<br><br>now</div></div><div class='respDivL'><div class='vertical-center'><font style='color:orange'>(E)</font></div></div><div class='respDivR'><div class='vertical-center'>(I)</div></div></div>","null","$11<br><br>now","$30<br>in<br>2 weeks","1","11","30","2",""
"html-keyboard-response","28","80456","0.0-5.0-1.8","63e857fe022e159687d56f41","bdp_td","Mon Mar 27 2023 16:51:45 GMT-0700 (Pacific Daylight Time)","160678","","null","","","","FIX","","<div class='trialBorder'><div class='vertical-center'><img style='vertical-align:center; align:center' src=img/fixation3.jpg></div></div>","null","","","","","","",""
"html-keyboard-response","29","90256","0.0-5.0-2.8","63e857fe022e159687d56f41","bdp_td","Mon Mar 27 2023 16:51:45 GMT-0700 (Pacific Daylight Time)","160678","","9798","","","","offer","","<div class='trialBorder'><div class='vertical-center'><img style='vertical-align:center; align:center' src=img/fixation3.jpg></div><div class='cl'><div class='vertical-center'>$14<br><br>now</div></div><div class='cr'><div class='vertical-center'>$25<br>in<br>3 weeks</div></div><div class='respDivL'><div class='vertical-center'>(E)</div></div><div class='respDivR'><div class='vertical-center'>(I)</div></div></div>","I","$14<br><br>now","$25<br>in<br>3 weeks","0","14","25","3","THEN"
"html-keyboard-response","30","90514","0.0-5.0-3.8","63e857fe022e159687d56f41","bdp_td","Mon Mar 27 2023 16:51:45 GMT-0700 (Pacific Daylight Time)","160678","","null","","","","offerFB","","<div class='trialBorder'><div class='vertical-center'><img style='vertical-align:center; align:center' src=img/fixation3.jpg></div><div class='cl'><div class='vertical-center'>$14<br><br>now</div></div><div class='cr'><div class='vertical-center'><font style='color:orange'>$25<br>in<br>3 weeks</font></div></div><div class='respDivL'><div class='vertical-center'>(E)</div></div><div class='respDivR'><div class='vertical-center'><font style='color:orange'>(I)</font></div></div></div>","null","$14<br><br>now","$25<br>in<br>3 weeks","0","14","25","3",""
"html-keyboard-response","31","91020","0.0-5.0-1.9","63e857fe022e159687d56f41","bdp_td","Mon Mar 27 2023 16:51:45 GMT-0700 (Pacific Daylight Time)","160678","","null","","","","FIX","","<div class='trialBorder'><div class='vertical-center'><img style='vertical-align:center; align:center' src=img/fixation3.jpg></div></div>","null","","","","","","",""
"html-keyboard-response","32","92776","0.0-5.0-2.9","63e857fe022e159687d56f41","bdp_td","Mon Mar 27 2023 16:51:45 GMT-0700 (Pacific Daylight Time)","160678","","1754","","","","offer","","<div class='trialBorder'><div class='vertical-center'><img style='vertical-align:center; align:center' src=img/fixation3.jpg></div><div class='cl'><div class='vertical-center'>$30<br>in<br>6 weeks</div></div><div class='cr'><div class='vertical-center'>$25<br><br>now</div></div><div class='respDivL'><div class='vertical-center'>(E)</div></div><div class='respDivR'><div class='vertical-center'>(I)</div></div></div>","I","$25<br><br>now","$30<br>in<br>6 weeks","1","25","30","6","NOW"
"html-keyboard-response","33","93031","0.0-5.0-3.9","63e857fe022e159687d56f41","bdp_td","Mon Mar 27 2023 16:51:45 GMT-0700 (Pacific Daylight Time)","160678","","null","","","","offerFB","","<div class='trialBorder'><div class='vertical-center'><img style='vertical-align:center; align:center' src=img/fixation3.jpg></div><div class='cl'><div class='vertical-center'>$30<br>in<br>6 weeks</div></div><div class='cr'><div class='vertical-center'><font style='color:orange'>$25<br><br>now</font></div></div><div class='respDivL'><div class='vertical-center'>(E)</div></div><div class='respDivR'><div class='vertical-center'><font style='color:orange'>(I)</font></div></div></div>","null","$25<br><br>now","$30<br>in<br>6 weeks","1","25","30","6",""
"html-keyboard-response","34","93535","0.0-5.0-1.10","63e857fe022e159687d56f41","bdp_td","Mon Mar 27 2023 16:51:45 GMT-0700 (Pacific Daylight Time)","160678","","null","","","","FIX","","<div class='trialBorder'><div class='vertical-center'><img style='vertical-align:center; align:center' src=img/fixation3.jpg></div></div>","null","","","","","","",""
"html-keyboard-response","35","95468","0.0-5.0-2.10","63e857fe022e159687d56f41","bdp_td","Mon Mar 27 2023 16:51:45 GMT-0700 (Pacific Daylight Time)","160678","","1931","","","","offer","","<div class='trialBorder'><div class='vertical-center'><img style='vertical-align:center; align:center' src=img/fixation3.jpg></div><div class='cl'><div class='vertical-center'>$55<br><br>now</div></div><div class='cr'><div class='vertical-center'>$75<br>in<br>6 weeks</div></div><div class='respDivL'><div class='vertical-center'>(E)</div></div><div class='respDivR'><div class='vertical-center'>(I)</div></div></div>","I","$55<br><br>now","$75<br>in<br>6 weeks","0","55","75","6","THEN"
"html-keyboard-response","36","95736","0.0-5.0-3.10","63e857fe022e159687d56f41","bdp_td","Mon Mar 27 2023 16:51:45 GMT-0700 (Pacific Daylight Time)","160678","","null","","","","offerFB","","<div class='trialBorder'><div class='vertical-center'><img style='vertical-align:center; align:center' src=img/fixation3.jpg></div><div class='cl'><div class='vertical-center'>$55<br><br>now</div></div><div class='cr'><div class='vertical-center'><font style='color:orange'>$75<br>in<br>6 weeks</font></div></div><div class='respDivL'><div class='vertical-center'>(E)</div></div><div class='respDivR'><div class='vertical-center'><font style='color:orange'>(I)</font></div></div></div>","null","$55<br><br>now","$75<br>in<br>6 weeks","0","55","75","6",""
"html-keyboard-response","37","96237","0.0-5.0-1.11","63e857fe022e159687d56f41","bdp_td","Mon Mar 27 2023 16:51:45 GMT-0700 (Pacific Daylight Time)","160678","","null","","","","FIX","","<div class='trialBorder'><div class='vertical-center'><img style='vertical-align:center; align:center' src=img/fixation3.jpg></div></div>","null","","","","","","",""
"html-keyboard-response","38","99083","0.0-5.0-2.11","63e857fe022e159687d56f41","bdp_td","Mon Mar 27 2023 16:51:45 GMT-0700 (Pacific Daylight Time)","160678","","2844","","","","offer","","<div class='trialBorder'><div class='vertical-center'><img style='vertical-align:center; align:center' src=img/fixation3.jpg></div><div class='cl'><div class='vertical-center'>$34<br><br>now</div></div><div class='cr'><div class='vertical-center'>$35<br>in<br>12 weeks</div></div><div class='respDivL'><div class='vertical-center'>(E)</div></div><div class='respDivR'><div class='vertical-center'>(I)</div></div></div>","E","$34<br><br>now","$35<br>in<br>12 weeks","0","34","35","12","NOW"
"html-keyboard-response","39","99348","0.0-5.0-3.11","63e857fe022e159687d56f41","bdp_td","Mon Mar 27 2023 16:51:45 GMT-0700 (Pacific Daylight Time)","160678","","null","","","","offerFB","","<div class='trialBorder'><div class='vertical-center'><img style='vertical-align:center; align:center' src=img/fixation3.jpg></div><div class='cl'><div class='vertical-center'><font style='color:orange'>$34<br><br>now</font></div></div><div class='cr'><div class='vertical-center'>$35<br>in<br>12 weeks</div></div><div class='respDivL'><div class='vertical-center'><font style='color:orange'>(E)</font></div></div><div class='respDivR'><div class='vertical-center'>(I)</div></div></div>","null","$34<br><br>now","$35<br>in<br>12 weeks","0","34","35","12",""
"html-keyboard-response","40","99855","0.0-5.0-1.12","63e857fe022e159687d56f41","bdp_td","Mon Mar 27 2023 16:51:45 GMT-0700 (Pacific Daylight Time)","160678","","null","","","","FIX","","<div class='trialBorder'><div class='vertical-center'><img style='vertical-align:center; align:center' src=img/fixation3.jpg></div></div>","null","","","","","","",""
"html-keyboard-response","41","102855","0.0-5.0-2.12","63e857fe022e159687d56f41","bdp_td","Mon Mar 27 2023 16:51:45 GMT-0700 (Pacific Daylight Time)","160678","","2998","","","","offer","","<div class='trialBorder'><div class='vertical-center'><img style='vertical-align:center; align:center' src=img/fixation3.jpg></div><div class='cl'><div class='vertical-center'>$25<br>in<br>12 weeks</div></div><div class='cr'><div class='vertical-center'>$22<br><br>now</div></div><div class='respDivL'><div class='vertical-center'>(E)</div></div><div class='respDivR'><div class='vertical-center'>(I)</div></div></div>","I","$22<br><br>now","$25<br>in<br>12 weeks","1","22","25","12","NOW"
"html-keyboard-response","42","103110","0.0-5.0-3.12","63e857fe022e159687d56f41","bdp_td","Mon Mar 27 2023 16:51:45 GMT-0700 (Pacific Daylight Time)","160678","","null","","","","offerFB","","<div class='trialBorder'><div class='vertical-center'><img style='vertical-align:center; align:center' src=img/fixation3.jpg></div><div class='cl'><div class='vertical-center'>$25<br>in<br>12 weeks</div></div><div class='cr'><div class='vertical-center'><font style='color:orange'>$22<br><br>now</font></div></div><div class='respDivL'><div class='vertical-center'>(E)</div></div><div class='respDivR'><div class='vertical-center'><font style='color:orange'>(I)</font></div></div></div>","null","$22<br><br>now","$25<br>in<br>12 weeks","1","22","25","12",""
"html-keyboard-response","43","103618","0.0-5.0-1.13","63e857fe022e159687d56f41","bdp_td","Mon Mar 27 2023 16:51:45 GMT-0700 (Pacific Daylight Time)","160678","","null","","","","FIX","","<div class='trialBorder'><div class='vertical-center'><img style='vertical-align:center; align:center' src=img/fixation3.jpg></div></div>","null","","","","","","",""
"html-keyboard-response","44","115631","0.0-5.0-2.13","63e857fe022e159687d56f41","bdp_td","Mon Mar 27 2023 16:51:45 GMT-0700 (Pacific Daylight Time)","160678","","12012","","","","offer","","<div class='trialBorder'><div class='vertical-center'><img style='vertical-align:center; align:center' src=img/fixation3.jpg></div><div class='cl'><div class='vertical-center'>$55<br>in<br>12 weeks</div></div><div class='cr'><div class='vertical-center'>$54<br><br>now</div></div><div class='respDivL'><div class='vertical-center'>(E)</div></div><div class='respDivR'><div class='vertical-center'>(I)</div></div></div>","I","$54<br><br>now","$55<br>in<br>12 weeks","1","54","55","12","NOW"
"html-keyboard-response","45","115888","0.0-5.0-3.13","63e857fe022e159687d56f41","bdp_td","Mon Mar 27 2023 16:51:45 GMT-0700 (Pacific Daylight Time)","160678","","null","","","","offerFB","","<div class='trialBorder'><div class='vertical-center'><img style='vertical-align:center; align:center' src=img/fixation3.jpg></div><div class='cl'><div class='vertical-center'>$55<br>in<br>12 weeks</div></div><div class='cr'><div class='vertical-center'><font style='color:orange'>$54<br><br>now</font></div></div><div class='respDivL'><div class='vertical-center'>(E)</div></div><div class='respDivR'><div class='vertical-center'><font style='color:orange'>(I)</font></div></div></div>","null","$54<br><br>now","$55<br>in<br>12 weeks","1","54","55","12",""
"html-keyboard-response","46","116393","0.0-5.0-1.14","63e857fe022e159687d56f41","bdp_td","Mon Mar 27 2023 16:51:45 GMT-0700 (Pacific Daylight Time)","160678","","null","","","","FIX","","<div class='trialBorder'><div class='vertical-center'><img style='vertical-align:center; align:center' src=img/fixation3.jpg></div></div>","null","","","","","","",""
"html-keyboard-response","47","118444","0.0-5.0-2.14","63e857fe022e159687d56f41","bdp_td","Mon Mar 27 2023 16:51:45 GMT-0700 (Pacific Daylight Time)","160678","","2049","","","","offer","","<div class='trialBorder'><div class='vertical-center'><img style='vertical-align:center; align:center' src=img/fixation3.jpg></div><div class='cl'><div class='vertical-center'>$55<br>in<br>6 weeks</div></div><div class='cr'><div class='vertical-center'>$40<br><br>now</div></div><div class='respDivL'><div class='vertical-center'>(E)</div></div><div class='respDivR'><div class='vertical-center'>(I)</div></div></div>","E","$40<br><br>now","$55<br>in<br>6 weeks","1","40","55","6","THEN"
"html-keyboard-response","48","118705","0.0-5.0-3.14","63e857fe022e159687d56f41","bdp_td","Mon Mar 27 2023 16:51:45 GMT-0700 (Pacific Daylight Time)","160678","","null","","","","offerFB","","<div class='trialBorder'><div class='vertical-center'><img style='vertical-align:center; align:center' src=img/fixation3.jpg></div><div class='cl'><div class='vertical-center'><font style='color:orange'>$55<br>in<br>6 weeks</font></div></div><div class='cr'><div class='vertical-center'>$40<br><br>now</div></div><div class='respDivL'><div class='vertical-center'><font style='color:orange'>(E)</font></div></div><div class='respDivR'><div class='vertical-center'>(I)</div></div></div>","null","$40<br><br>now","$55<br>in<br>6 weeks","1","40","55","6",""
"html-keyboard-response","49","119210","0.0-5.0-1.15","63e857fe022e159687d56f41","bdp_td","Mon Mar 27 2023 16:51:45 GMT-0700 (Pacific Daylight Time)","160678","","null","","","","FIX","","<div class='trialBorder'><div class='vertical-center'><img style='vertical-align:center; align:center' src=img/fixation3.jpg></div></div>","null","","","","","","",""
"html-keyboard-response","50","123122","0.0-5.0-2.15","63e857fe022e159687d56f41","bdp_td","Mon Mar 27 2023 16:51:45 GMT-0700 (Pacific Daylight Time)","160678","","3911","","","","offer","","<div class='trialBorder'><div class='vertical-center'><img style='vertical-align:center; align:center' src=img/fixation3.jpg></div><div class='cl'><div class='vertical-center'>$60<br>in<br>12 weeks</div></div><div class='cr'><div class='vertical-center'>$54<br><br>now</div></div><div class='respDivL'><div class='vertical-center'>(E)</div></div><div class='respDivR'><div class='vertical-center'>(I)</div></div></div>","I","$54<br><br>now","$60<br>in<br>12 weeks","1","54","60","12","NOW"
"html-keyboard-response","51","123384","0.0-5.0-3.15","63e857fe022e159687d56f41","bdp_td","Mon Mar 27 2023 16:51:45 GMT-0700 (Pacific Daylight Time)","160678","","null","","","","offerFB","","<div class='trialBorder'><div class='vertical-center'><img style='vertical-align:center; align:center' src=img/fixation3.jpg></div><div class='cl'><div class='vertical-center'>$60<br>in<br>12 weeks</div></div><div class='cr'><div class='vertical-center'><font style='color:orange'>$54<br><br>now</font></div></div><div class='respDivL'><div class='vertical-center'>(E)</div></div><div class='respDivR'><div class='vertical-center'><font style='color:orange'>(I)</font></div></div></div>","null","$54<br><br>now","$60<br>in<br>12 weeks","1","54","60","12",""
"html-keyboard-response","52","123901","0.0-5.0-1.16","63e857fe022e159687d56f41","bdp_td","Mon Mar 27 2023 16:51:45 GMT-0700 (Pacific Daylight Time)","160678","","null","","","","FIX","","<div class='trialBorder'><div class='vertical-center'><img style='vertical-align:center; align:center' src=img/fixation3.jpg></div></div>","null","","","","","","",""
"html-keyboard-response","53","126501","0.0-5.0-2.16","63e857fe022e159687d56f41","bdp_td","Mon Mar 27 2023 16:51:45 GMT-0700 (Pacific Daylight Time)","160678","","2599","","","","offer","","<div class='trialBorder'><div class='vertical-center'><img style='vertical-align:center; align:center' src=img/fixation3.jpg></div><div class='cl'><div class='vertical-center'>$80<br>in<br>3 weeks</div></div><div class='cr'><div class='vertical-center'>$54<br><br>now</div></div><div class='respDivL'><div class='vertical-center'>(E)</div></div><div class='respDivR'><div class='vertical-center'>(I)</div></div></div>","E","$54<br><br>now","$80<br>in<br>3 weeks","1","54","80","3","THEN"
"html-keyboard-response","54","126756","0.0-5.0-3.16","63e857fe022e159687d56f41","bdp_td","Mon Mar 27 2023 16:51:45 GMT-0700 (Pacific Daylight Time)","160678","","null","","","","offerFB","","<div class='trialBorder'><div class='vertical-center'><img style='vertical-align:center; align:center' src=img/fixation3.jpg></div><div class='cl'><div class='vertical-center'><font style='color:orange'>$80<br>in<br>3 weeks</font></div></div><div class='cr'><div class='vertical-center'>$54<br><br>now</div></div><div class='respDivL'><div class='vertical-center'><font style='color:orange'>(E)</font></div></div><div class='respDivR'><div class='vertical-center'>(I)</div></div></div>","null","$54<br><br>now","$80<br>in<br>3 weeks","1","54","80","3",""
"html-keyboard-response","55","127258","0.0-5.0-1.17","63e857fe022e159687d56f41","bdp_td","Mon Mar 27 2023 16:51:45 GMT-0700 (Pacific Daylight Time)","160678","","null","","","","FIX","","<div class='trialBorder'><div class='vertical-center'><img style='vertical-align:center; align:center' src=img/fixation3.jpg></div></div>","null","","","","","","",""
"html-keyboard-response","56","132571","0.0-5.0-2.17","63e857fe022e159687d56f41","bdp_td","Mon Mar 27 2023 16:51:45 GMT-0700 (Pacific Daylight Time)","160678","","5312","","","","offer","","<div class='trialBorder'><div class='vertical-center'><img style='vertical-align:center; align:center' src=img/fixation3.jpg></div><div class='cl'><div class='vertical-center'>$28<br><br>now</div></div><div class='cr'><div class='vertical-center'>$30<br>in<br>12 weeks</div></div><div class='respDivL'><div class='vertical-center'>(E)</div></div><div class='respDivR'><div class='vertical-center'>(I)</div></div></div>","E","$28<br><br>now","$30<br>in<br>12 weeks","0","28","30","12","NOW"
"html-keyboard-response","57","132826","0.0-5.0-3.17","63e857fe022e159687d56f41","bdp_td","Mon Mar 27 2023 16:51:45 GMT-0700 (Pacific Daylight Time)","160678","","null","","","","offerFB","","<div class='trialBorder'><div class='vertical-center'><img style='vertical-align:center; align:center' src=img/fixation3.jpg></div><div class='cl'><div class='vertical-center'><font style='color:orange'>$28<br><br>now</font></div></div><div class='cr'><div class='vertical-center'>$30<br>in<br>12 weeks</div></div><div class='respDivL'><div class='vertical-center'><font style='color:orange'>(E)</font></div></div><div class='respDivR'><div class='vertical-center'>(I)</div></div></div>","null","$28<br><br>now","$30<br>in<br>12 weeks","0","28","30","12",""
"html-keyboard-response","58","133332","0.0-5.0-1.18","63e857fe022e159687d56f41","bdp_td","Mon Mar 27 2023 16:51:45 GMT-0700 (Pacific Daylight Time)","160678","","null","","","","FIX","","<div class='trialBorder'><div class='vertical-center'><img style='vertical-align:center; align:center' src=img/fixation3.jpg></div></div>","null","","","","","","",""
"html-keyboard-response","59","135324","0.0-5.0-2.18","63e857fe022e159687d56f41","bdp_td","Mon Mar 27 2023 16:51:45 GMT-0700 (Pacific Daylight Time)","160678","","1990","","","","offer","","<div class='trialBorder'><div class='vertical-center'><img style='vertical-align:center; align:center' src=img/fixation3.jpg></div><div class='cl'><div class='vertical-center'>$27<br><br>now</div></div><div class='cr'><div class='vertical-center'>$50<br>in<br>3 weeks</div></div><div class='respDivL'><div class='vertical-center'>(E)</div></div><div class='respDivR'><div class='vertical-center'>(I)</div></div></div>","I","$27<br><br>now","$50<br>in<br>3 weeks","0","27","50","3","THEN"
"html-keyboard-response","60","135585","0.0-5.0-3.18","63e857fe022e159687d56f41","bdp_td","Mon Mar 27 2023 16:51:45 GMT-0700 (Pacific Daylight Time)","160678","","null","","","","offerFB","","<div class='trialBorder'><div class='vertical-center'><img style='vertical-align:center; align:center' src=img/fixation3.jpg></div><div class='cl'><div class='vertical-center'>$27<br><br>now</div></div><div class='cr'><div class='vertical-center'><font style='color:orange'>$50<br>in<br>3 weeks</font></div></div><div class='respDivL'><div class='vertical-center'>(E)</div></div><div class='respDivR'><div class='vertical-center'><font style='color:orange'>(I)</font></div></div></div>","null","$27<br><br>now","$50<br>in<br>3 weeks","0","27","50","3",""
"html-keyboard-response","61","136102","0.0-5.0-1.19","63e857fe022e159687d56f41","bdp_td","Mon Mar 27 2023 16:51:45 GMT-0700 (Pacific Daylight Time)","160678","","null","","","","FIX","","<div class='trialBorder'><div class='vertical-center'><img style='vertical-align:center; align:center' src=img/fixation3.jpg></div></div>","null","","","","","","",""
"html-keyboard-response","62","138621","0.0-5.0-2.19","63e857fe022e159687d56f41","bdp_td","Mon Mar 27 2023 16:51:45 GMT-0700 (Pacific Daylight Time)","160678","","2518","","","","offer","","<div class='trialBorder'><div class='vertical-center'><img style='vertical-align:center; align:center' src=img/fixation3.jpg></div><div class='cl'><div class='vertical-center'>$25<br><br>now</div></div><div class='cr'><div class='vertical-center'>$60<br>in<br>3 weeks</div></div><div class='respDivL'><div class='vertical-center'>(E)</div></div><div class='respDivR'><div class='vertical-center'>(I)</div></div></div>","I","$25<br><br>now","$60<br>in<br>3 weeks","0","25","60","3","THEN"
"html-keyboard-response","63","138884","0.0-5.0-3.19","63e857fe022e159687d56f41","bdp_td","Mon Mar 27 2023 16:51:45 GMT-0700 (Pacific Daylight Time)","160678","","null","","","","offerFB","","<div class='trialBorder'><div class='vertical-center'><img style='vertical-align:center; align:center' src=img/fixation3.jpg></div><div class='cl'><div class='vertical-center'>$25<br><br>now</div></div><div class='cr'><div class='vertical-center'><font style='color:orange'>$60<br>in<br>3 weeks</font></div></div><div class='respDivL'><div class='vertical-center'>(E)</div></div><div class='respDivR'><div class='vertical-center'><font style='color:orange'>(I)</font></div></div></div>","null","$25<br><br>now","$60<br>in<br>3 weeks","0","25","60","3",""
"html-keyboard-response","64","139386","0.0-5.0-1.20","63e857fe022e159687d56f41","bdp_td","Mon Mar 27 2023 16:51:45 GMT-0700 (Pacific Daylight Time)","160678","","null","","","","FIX","","<div class='trialBorder'><div class='vertical-center'><img style='vertical-align:center; align:center' src=img/fixation3.jpg></div></div>","null","","","","","","",""
"html-keyboard-response","65","140886","0.0-5.0-2.20","63e857fe022e159687d56f41","bdp_td","Mon Mar 27 2023 16:51:45 GMT-0700 (Pacific Daylight Time)","160678","","1499","","","","offer","","<div class='trialBorder'><div class='vertical-center'><img style='vertical-align:center; align:center' src=img/fixation3.jpg></div><div class='cl'><div class='vertical-center'>$75<br>in<br>3 weeks</div></div><div class='cr'><div class='vertical-center'>$41<br><br>now</div></div><div class='respDivL'><div class='vertical-center'>(E)</div></div><div class='respDivR'><div class='vertical-center'>(I)</div></div></div>","E","$41<br><br>now","$75<br>in<br>3 weeks","1","41","75","3","THEN"
"html-keyboard-response","66","141145","0.0-5.0-3.20","63e857fe022e159687d56f41","bdp_td","Mon Mar 27 2023 16:51:45 GMT-0700 (Pacific Daylight Time)","160678","","null","","","","offerFB","","<div class='trialBorder'><div class='vertical-center'><img style='vertical-align:center; align:center' src=img/fixation3.jpg></div><div class='cl'><div class='vertical-center'><font style='color:orange'>$75<br>in<br>3 weeks</font></div></div><div class='cr'><div class='vertical-center'>$41<br><br>now</div></div><div class='respDivL'><div class='vertical-center'><font style='color:orange'>(E)</font></div></div><div class='respDivR'><div class='vertical-center'>(I)</div></div></div>","null","$41<br><br>now","$75<br>in<br>3 weeks","1","41","75","3",""
"html-keyboard-response","67","141652","0.0-5.0-1.21","63e857fe022e159687d56f41","bdp_td","Mon Mar 27 2023 16:51:45 GMT-0700 (Pacific Daylight Time)","160678","","null","","","","FIX","","<div class='trialBorder'><div class='vertical-center'><img style='vertical-align:center; align:center' src=img/fixation3.jpg></div></div>","null","","","","","","",""
"html-keyboard-response","68","142988","0.0-5.0-2.21","63e857fe022e159687d56f41","bdp_td","Mon Mar 27 2023 16:51:45 GMT-0700 (Pacific Daylight Time)","160678","","1334","","","","offer","","<div class='trialBorder'><div class='vertical-center'><img style='vertical-align:center; align:center' src=img/fixation3.jpg></div><div class='cl'><div class='vertical-center'>$33<br><br>now</div></div><div class='cr'><div class='vertical-center'>$80<br>in<br>2 weeks</div></div><div class='respDivL'><div class='vertical-center'>(E)</div></div><div class='respDivR'><div class='vertical-center'>(I)</div></div></div>","I","$33<br><br>now","$80<br>in<br>2 weeks","0","33","80","2","THEN"
"html-keyboard-response","69","143242","0.0-5.0-3.21","63e857fe022e159687d56f41","bdp_td","Mon Mar 27 2023 16:51:45 GMT-0700 (Pacific Daylight Time)","160678","","null","","","","offerFB","","<div class='trialBorder'><div class='vertical-center'><img style='vertical-align:center; align:center' src=img/fixation3.jpg></div><div class='cl'><div class='vertical-center'>$33<br><br>now</div></div><div class='cr'><div class='vertical-center'><font style='color:orange'>$80<br>in<br>2 weeks</font></div></div><div class='respDivL'><div class='vertical-center'>(E)</div></div><div class='respDivR'><div class='vertical-center'><font style='color:orange'>(I)</font></div></div></div>","null","$33<br><br>now","$80<br>in<br>2 weeks","0","33","80","2",""
"html-keyboard-response","70","144292","0.0-5.0-1.22","63e857fe022e159687d56f41","bdp_td","Mon Mar 27 2023 16:51:45 GMT-0700 (Pacific Daylight Time)","160678","","null","","","","FIX","","<div class='trialBorder'><div class='vertical-center'><img style='vertical-align:center; align:center' src=img/fixation3.jpg></div></div>","null","","","","","","",""
"html-keyboard-response","71","146265","0.0-5.0-2.22","63e857fe022e159687d56f41","bdp_td","Mon Mar 27 2023 16:51:45 GMT-0700 (Pacific Daylight Time)","160678","","1971","","","","offer","","<div class='trialBorder'><div class='vertical-center'><img style='vertical-align:center; align:center' src=img/fixation3.jpg></div><div class='cl'><div class='vertical-center'>$67<br><br>now</div></div><div class='cr'><div class='vertical-center'>$75<br>in<br>12 weeks</div></div><div class='respDivL'><div class='vertical-center'>(E)</div></div><div class='respDivR'><div class='vertical-center'>(I)</div></div></div>","I","$67<br><br>now","$75<br>in<br>12 weeks","0","67","75","12","THEN"
"html-keyboard-response","72","146522","0.0-5.0-3.22","63e857fe022e159687d56f41","bdp_td","Mon Mar 27 2023 16:51:45 GMT-0700 (Pacific Daylight Time)","160678","","null","","","","offerFB","","<div class='trialBorder'><div class='vertical-center'><img style='vertical-align:center; align:center' src=img/fixation3.jpg></div><div class='cl'><div class='vertical-center'>$67<br><br>now</div></div><div class='cr'><div class='vertical-center'><font style='color:orange'>$75<br>in<br>12 weeks</font></div></div><div class='respDivL'><div class='vertical-center'>(E)</div></div><div class='respDivR'><div class='vertical-center'><font style='color:orange'>(I)</font></div></div></div>","null","$67<br><br>now","$75<br>in<br>12 weeks","0","67","75","12",""
"html-keyboard-response","73","147026","0.0-5.0-1.23","63e857fe022e159687d56f41","bdp_td","Mon Mar 27 2023 16:51:45 GMT-0700 (Pacific Daylight Time)","160678","","null","","","","FIX","","<div class='trialBorder'><div class='vertical-center'><img style='vertical-align:center; align:center' src=img/fixation3.jpg></div></div>","null","","","","","","",""
"html-keyboard-response","74","149623","0.0-5.0-2.23","63e857fe022e159687d56f41","bdp_td","Mon Mar 27 2023 16:51:45 GMT-0700 (Pacific Daylight Time)","160678","","2595","","","","offer","","<div class='trialBorder'><div class='vertical-center'><img style='vertical-align:center; align:center' src=img/fixation3.jpg></div><div class='cl'><div class='vertical-center'>$24<br><br>now</div></div><div class='cr'><div class='vertical-center'>$35<br>in<br>3 weeks</div></div><div class='respDivL'><div class='vertical-center'>(E)</div></div><div class='respDivR'><div class='vertical-center'>(I)</div></div></div>","E","$24<br><br>now","$35<br>in<br>3 weeks","0","24","35","3","NOW"
"html-keyboard-response","75","149885","0.0-5.0-3.23","63e857fe022e159687d56f41","bdp_td","Mon Mar 27 2023 16:51:45 GMT-0700 (Pacific Daylight Time)","160678","","null","","","","offerFB","","<div class='trialBorder'><div class='vertical-center'><img style='vertical-align:center; align:center' src=img/fixation3.jpg></div><div class='cl'><div class='vertical-center'><font style='color:orange'>$24<br><br>now</font></div></div><div class='cr'><div class='vertical-center'>$35<br>in<br>3 weeks</div></div><div class='respDivL'><div class='vertical-center'><font style='color:orange'>(E)</font></div></div><div class='respDivR'><div class='vertical-center'>(I)</div></div></div>","null","$24<br><br>now","$35<br>in<br>3 weeks","0","24","35","3",""
"html-keyboard-response","76","150388","0.0-5.0-1.24","63e857fe022e159687d56f41","bdp_td","Mon Mar 27 2023 16:51:45 GMT-0700 (Pacific Daylight Time)","160678","","null","","","","FIX","","<div class='trialBorder'><div class='vertical-center'><img style='vertical-align:center; align:center' src=img/fixation3.jpg></div></div>","null","","","","","","",""
"html-keyboard-response","77","152379","0.0-5.0-2.24","63e857fe022e159687d56f41","bdp_td","Mon Mar 27 2023 16:51:45 GMT-0700 (Pacific Daylight Time)","160678","","1989","","","","offer","","<div class='trialBorder'><div class='vertical-center'><img style='vertical-align:center; align:center' src=img/fixation3.jpg></div><div class='cl'><div class='vertical-center'>$15<br><br>now</div></div><div class='cr'><div class='vertical-center'>$35<br>in<br>2 weeks</div></div><div class='respDivL'><div class='vertical-center'>(E)</div></div><div class='respDivR'><div class='vertical-center'>(I)</div></div></div>","I","$15<br><br>now","$35<br>in<br>2 weeks","0","15","35","2","THEN"
"html-keyboard-response","78","152634","0.0-5.0-3.24","63e857fe022e159687d56f41","bdp_td","Mon Mar 27 2023 16:51:45 GMT-0700 (Pacific Daylight Time)","160678","","null","","","","offerFB","","<div class='trialBorder'><div class='vertical-center'><img style='vertical-align:center; align:center' src=img/fixation3.jpg></div><div class='cl'><div class='vertical-center'>$15<br><br>now</div></div><div class='cr'><div class='vertical-center'><font style='color:orange'>$35<br>in<br>2 weeks</font></div></div><div class='respDivL'><div class='vertical-center'>(E)</div></div><div class='respDivR'><div class='vertical-center'><font style='color:orange'>(I)</font></div></div></div>","null","$15<br><br>now","$35<br>in<br>2 weeks","0","15","35","2",""
"html-keyboard-response","79","153139","0.0-5.0-1.25","63e857fe022e159687d56f41","bdp_td","Mon Mar 27 2023 16:51:45 GMT-0700 (Pacific Daylight Time)","160678","","null","","","","FIX","","<div class='trialBorder'><div class='vertical-center'><img style='vertical-align:center; align:center' src=img/fixation3.jpg></div></div>","null","","","","","","",""
"html-keyboard-response","80","154899","0.0-5.0-2.25","63e857fe022e159687d56f41","bdp_td","Mon Mar 27 2023 16:51:45 GMT-0700 (Pacific Daylight Time)","160678","","1759","","","","offer","","<div class='trialBorder'><div class='vertical-center'><img style='vertical-align:center; align:center' src=img/fixation3.jpg></div><div class='cl'><div class='vertical-center'>$50<br>in<br>6 weeks</div></div><div class='cr'><div class='vertical-center'>$34<br><br>now</div></div><div class='respDivL'><div class='vertical-center'>(E)</div></div><div class='respDivR'><div class='vertical-center'>(I)</div></div></div>","E","$34<br><br>now","$50<br>in<br>6 weeks","1","34","50","6","THEN"
"html-keyboard-response","81","155164","0.0-5.0-3.25","63e857fe022e159687d56f41","bdp_td","Mon Mar 27 2023 16:51:45 GMT-0700 (Pacific Daylight Time)","160678","","null","","","","offerFB","","<div class='trialBorder'><div class='vertical-center'><img style='vertical-align:center; align:center' src=img/fixation3.jpg></div><div class='cl'><div class='vertical-center'><font style='color:orange'>$50<br>in<br>6 weeks</font></div></div><div class='cr'><div class='vertical-center'>$34<br><br>now</div></div><div class='respDivL'><div class='vertical-center'><font style='color:orange'>(E)</font></div></div><div class='respDivR'><div class='vertical-center'>(I)</div></div></div>","null","$34<br><br>now","$50<br>in<br>6 weeks","1","34","50","6",""
"html-keyboard-response","82","155667","0.0-5.0-1.26","63e857fe022e159687d56f41","bdp_td","Mon Mar 27 2023 16:51:45 GMT-0700 (Pacific Daylight Time)","160678","","null","","","","FIX","","<div class='trialBorder'><div class='vertical-center'><img style='vertical-align:center; align:center' src=img/fixation3.jpg></div></div>","null","","","","","","",""
"html-keyboard-response","83","159403","0.0-5.0-2.26","63e857fe022e159687d56f41","bdp_td","Mon Mar 27 2023 16:51:45 GMT-0700 (Pacific Daylight Time)","160678","","3735","","","","offer","","<div class='trialBorder'><div class='vertical-center'><img style='vertical-align:center; align:center' src=img/fixation3.jpg></div><div class='cl'><div class='vertical-center'>$60<br>in<br>6 weeks</div></div><div class='cr'><div class='vertical-center'>$49<br><br>now</div></div><div class='respDivL'><div class='vertical-center'>(E)</div></div><div class='respDivR'><div class='vertical-center'>(I)</div></div></div>","E","$49<br><br>now","$60<br>in<br>6 weeks","1","49","60","6","THEN"
"html-keyboard-response","84","159669","0.0-5.0-3.26","63e857fe022e159687d56f41","bdp_td","Mon Mar 27 2023 16:51:45 GMT-0700 (Pacific Daylight Time)","160678","","null","","","","offerFB","","<div class='trialBorder'><div class='vertical-center'><img style='vertical-align:center; align:center' src=img/fixation3.jpg></div><div class='cl'><div class='vertical-center'><font style='color:orange'>$60<br>in<br>6 weeks</font></div></div><div class='cr'><div class='vertical-center'>$49<br><br>now</div></div><div class='respDivL'><div class='vertical-center'><font style='color:orange'>(E)</font></div></div><div class='respDivR'><div class='vertical-center'>(I)</div></div></div>","null","$49<br><br>now","$60<br>in<br>6 weeks","1","49","60","6",""
"","","","","63e857fe022e159687d56f41","bdp_td","Mon Mar 27 2023 16:51:45 GMT-0700 (Pacific Daylight Time)","160678","","","fullscreenexit","85","159676","fullscreenexit","","","","","","","","","",""
"fullscreen","85","160677","0.0-6.0","63e857fe022e159687d56f41","bdp_td","Mon Mar 27 2023 16:51:45 GMT-0700 (Pacific Daylight Time)","160678","","","","","","","true","","","","","","","","",""
"html-keyboard-response","86","161181","0.0-7.0","","","","","","null","","","","","","","null","","","","","","",""
