"trial_type","trial_index","time_elapsed","internal_node_id","subject_id","task","startTime","totalTime","view_history","rt","event","trial","time","trialtype","numBlurs","success","stimulus","key_press","nowOffer","thenOffer","thenLeft","nowAmt","thenAmt","thenWeeks","chosen"
"pavlovia","0","2","0.0-0.0","63cff34d33a9948e3b0b28d6","bdp_td","Wed Mar 29 2023 03:24:30 GMT-0500 (Central Daylight Time)","133285","","","","","","","","","","","","","","","","",""
"instructions","1","2184","0.0-1.0","63cff34d33a9948e3b0b28d6","bdp_td","Wed Mar 29 2023 03:24:30 GMT-0500 (Central Daylight Time)","133285","[{""page_index"":0,""viewing_time"":2181}]","2181","","","","","","","","","","","","","","",""
"","","","","63cff34d33a9948e3b0b28d6","bdp_td","Wed Mar 29 2023 03:24:30 GMT-0500 (Central Daylight Time)","133285","","","blur","2","4639","blurevent","1","","","","","","","","","",""
"","","","","63cff34d33a9948e3b0b28d6","bdp_td","Wed Mar 29 2023 03:24:30 GMT-0500 (Central Daylight Time)","133285","","","focus","2","4748","focusevent","","","","","","","","","","",""
"","","","","63cff34d33a9948e3b0b28d6","bdp_td","Wed Mar 29 2023 03:24:30 GMT-0500 (Central Daylight Time)","133285","","","fullscreenenter","2","7185","fullscreenenter","","","","","","","","","","",""
"fullscreen","2","8177","0.0-2.0","63cff34d33a9948e3b0b28d6","bdp_td","Wed Mar 29 2023 03:24:30 GMT-0500 (Central Daylight Time)","133285","","","","","","","","true","","","","","","","","",""
"instructions","3","40962","0.0-4.0","63cff34d33a9948e3b0b28d6","bdp_td","Wed Mar 29 2023 03:24:30 GMT-0500 (Central Daylight Time)","133285","[{""page_index"":0,""viewing_time"":7141},{""page_index"":1,""viewing_time"":19570},{""page_index"":2,""viewing_time"":6065}]","32776","","","","","","","","","","","","","","",""
"image-keyboard-response","4","47570","0.0-5.0-0.0-0.0","63cff34d33a9948e3b0b28d6","bdp_td","Wed Mar 29 2023 03:24:30 GMT-0500 (Central Daylight Time)","133285","","6607","","","","blurwarn","1","","","49","","","","","","",""
"html-keyboard-response","5","48326","0.0-5.0-1.0","63cff34d33a9948e3b0b28d6","bdp_td","Wed Mar 29 2023 03:24:30 GMT-0500 (Central Daylight Time)","133285","","null","","","","FIX","","","<div class='trialBorder'><div class='vertical-center'><img style='vertical-align:center; align:center' src=img/fixation3.jpg></div></div>","null","","","","","","",""
"html-keyboard-response","6","51123","0.0-5.0-2.0","63cff34d33a9948e3b0b28d6","bdp_td","Wed Mar 29 2023 03:24:30 GMT-0500 (Central Daylight Time)","133285","","2795","","","","offer","","","<div class='trialBorder'><div class='vertical-center'><img style='vertical-align:center; align:center' src=img/fixation3.jpg></div><div class='cl'><div class='vertical-center'>$80<br><br>now</div></div><div class='cr'><div class='vertical-center'>$85<br>in<br>12 weeks</div></div><div class='respDivL'><div class='vertical-center'>(E)</div></div><div class='respDivR'><div class='vertical-center'>(I)</div></div></div>","E","$80<br><br>now","$85<br>in<br>12 weeks","0","80","85","12","NOW"
"html-keyboard-response","7","51375","0.0-5.0-3.0","63cff34d33a9948e3b0b28d6","bdp_td","Wed Mar 29 2023 03:24:30 GMT-0500 (Central Daylight Time)","133285","","null","","","","offerFB","","","<div class='trialBorder'><div class='vertical-center'><img style='vertical-align:center; align:center' src=img/fixation3.jpg></div><div class='cl'><div class='vertical-center'><font style='color:orange'>$80<br><br>now</font></div></div><div class='cr'><div class='vertical-center'>$85<br>in<br>12 weeks</div></div><div class='respDivL'><div class='vertical-center'><font style='color:orange'>(E)</font></div></div><div class='respDivR'><div class='vertical-center'>(I)</div></div></div>","null","$80<br><br>now","$85<br>in<br>12 weeks","0","80","85","12",""
"html-keyboard-response","8","51885","0.0-5.0-1.1","63cff34d33a9948e3b0b28d6","bdp_td","Wed Mar 29 2023 03:24:30 GMT-0500 (Central Daylight Time)","133285","","null","","","","FIX","","","<div class='trialBorder'><div class='vertical-center'><img style='vertical-align:center; align:center' src=img/fixation3.jpg></div></div>","null","","","","","","",""
"html-keyboard-response","9","56402","0.0-5.0-2.1","63cff34d33a9948e3b0b28d6","bdp_td","Wed Mar 29 2023 03:24:30 GMT-0500 (Central Daylight Time)","133285","","4517","","","","offer","","","<div class='trialBorder'><div class='vertical-center'><img style='vertical-align:center; align:center' src=img/fixation3.jpg></div><div class='cl'><div class='vertical-center'>$54<br><br>now</div></div><div class='cr'><div class='vertical-center'>$80<br>in<br>3 weeks</div></div><div class='respDivL'><div class='vertical-center'>(E)</div></div><div class='respDivR'><div class='vertical-center'>(I)</div></div></div>","I","$54<br><br>now","$80<br>in<br>3 weeks","0","54","80","3","THEN"
"html-keyboard-response","10","56654","0.0-5.0-3.1","63cff34d33a9948e3b0b28d6","bdp_td","Wed Mar 29 2023 03:24:30 GMT-0500 (Central Daylight Time)","133285","","null","","","","offerFB","","","<div class='trialBorder'><div class='vertical-center'><img style='vertical-align:center; align:center' src=img/fixation3.jpg></div><div class='cl'><div class='vertical-center'>$54<br><br>now</div></div><div class='cr'><div class='vertical-center'><font style='color:orange'>$80<br>in<br>3 weeks</font></div></div><div class='respDivL'><div class='vertical-center'>(E)</div></div><div class='respDivR'><div class='vertical-center'><font style='color:orange'>(I)</font></div></div></div>","null","$54<br><br>now","$80<br>in<br>3 weeks","0","54","80","3",""
"html-keyboard-response","11","57156","0.0-5.0-1.2","63cff34d33a9948e3b0b28d6","bdp_td","Wed Mar 29 2023 03:24:30 GMT-0500 (Central Daylight Time)","133285","","null","","","","FIX","","","<div class='trialBorder'><div class='vertical-center'><img style='vertical-align:center; align:center' src=img/fixation3.jpg></div></div>","null","","","","","","",""
"html-keyboard-response","12","59763","0.0-5.0-2.2","63cff34d33a9948e3b0b28d6","bdp_td","Wed Mar 29 2023 03:24:30 GMT-0500 (Central Daylight Time)","133285","","2606","","","","offer","","","<div class='trialBorder'><div class='vertical-center'><img style='vertical-align:center; align:center' src=img/fixation3.jpg></div><div class='cl'><div class='vertical-center'>$34<br><br>now</div></div><div class='cr'><div class='vertical-center'>$50<br>in<br>6 weeks</div></div><div class='respDivL'><div class='vertical-center'>(E)</div></div><div class='respDivR'><div class='vertical-center'>(I)</div></div></div>","I","$34<br><br>now","$50<br>in<br>6 weeks","0","34","50","6","THEN"
"html-keyboard-response","13","60015","0.0-5.0-3.2","63cff34d33a9948e3b0b28d6","bdp_td","Wed Mar 29 2023 03:24:30 GMT-0500 (Central Daylight Time)","133285","","null","","","","offerFB","","","<div class='trialBorder'><div class='vertical-center'><img style='vertical-align:center; align:center' src=img/fixation3.jpg></div><div class='cl'><div class='vertical-center'>$34<br><br>now</div></div><div class='cr'><div class='vertical-center'><font style='color:orange'>$50<br>in<br>6 weeks</font></div></div><div class='respDivL'><div class='vertical-center'>(E)</div></div><div class='respDivR'><div class='vertical-center'><font style='color:orange'>(I)</font></div></div></div>","null","$34<br><br>now","$50<br>in<br>6 weeks","0","34","50","6",""
"html-keyboard-response","14","60517","0.0-5.0-1.3","63cff34d33a9948e3b0b28d6","bdp_td","Wed Mar 29 2023 03:24:30 GMT-0500 (Central Daylight Time)","133285","","null","","","","FIX","","","<div class='trialBorder'><div class='vertical-center'><img style='vertical-align:center; align:center' src=img/fixation3.jpg></div></div>","null","","","","","","",""
"html-keyboard-response","15","61965","0.0-5.0-2.3","63cff34d33a9948e3b0b28d6","bdp_td","Wed Mar 29 2023 03:24:30 GMT-0500 (Central Daylight Time)","133285","","1446","","","","offer","","","<div class='trialBorder'><div class='vertical-center'><img style='vertical-align:center; align:center' src=img/fixation3.jpg></div><div class='cl'><div class='vertical-center'>$34<br><br>now</div></div><div class='cr'><div class='vertical-center'>$35<br>in<br>12 weeks</div></div><div class='respDivL'><div class='vertical-center'>(E)</div></div><div class='respDivR'><div class='vertical-center'>(I)</div></div></div>","E","$34<br><br>now","$35<br>in<br>12 weeks","0","34","35","12","NOW"
"html-keyboard-response","16","62217","0.0-5.0-3.3","63cff34d33a9948e3b0b28d6","bdp_td","Wed Mar 29 2023 03:24:30 GMT-0500 (Central Daylight Time)","133285","","null","","","","offerFB","","","<div class='trialBorder'><div class='vertical-center'><img style='vertical-align:center; align:center' src=img/fixation3.jpg></div><div class='cl'><div class='vertical-center'><font style='color:orange'>$34<br><br>now</font></div></div><div class='cr'><div class='vertical-center'>$35<br>in<br>12 weeks</div></div><div class='respDivL'><div class='vertical-center'><font style='color:orange'>(E)</font></div></div><div class='respDivR'><div class='vertical-center'>(I)</div></div></div>","null","$34<br><br>now","$35<br>in<br>12 weeks","0","34","35","12",""
"html-keyboard-response","17","62718","0.0-5.0-1.4","63cff34d33a9948e3b0b28d6","bdp_td","Wed Mar 29 2023 03:24:30 GMT-0500 (Central Daylight Time)","133285","","null","","","","FIX","","","<div class='trialBorder'><div class='vertical-center'><img style='vertical-align:center; align:center' src=img/fixation3.jpg></div></div>","null","","","","","","",""
"html-keyboard-response","18","66447","0.0-5.0-2.4","63cff34d33a9948e3b0b28d6","bdp_td","Wed Mar 29 2023 03:24:30 GMT-0500 (Central Daylight Time)","133285","","3728","","","","offer","","","<div class='trialBorder'><div class='vertical-center'><img style='vertical-align:center; align:center' src=img/fixation3.jpg></div><div class='cl'><div class='vertical-center'>$60<br>in<br>6 weeks</div></div><div class='cr'><div class='vertical-center'>$49<br><br>now</div></div><div class='respDivL'><div class='vertical-center'>(E)</div></div><div class='respDivR'><div class='vertical-center'>(I)</div></div></div>","I","$49<br><br>now","$60<br>in<br>6 weeks","1","49","60","6","NOW"
"html-keyboard-response","19","66717","0.0-5.0-3.4","63cff34d33a9948e3b0b28d6","bdp_td","Wed Mar 29 2023 03:24:30 GMT-0500 (Central Daylight Time)","133285","","null","","","","offerFB","","","<div class='trialBorder'><div class='vertical-center'><img style='vertical-align:center; align:center' src=img/fixation3.jpg></div><div class='cl'><div class='vertical-center'>$60<br>in<br>6 weeks</div></div><div class='cr'><div class='vertical-center'><font style='color:orange'>$49<br><br>now</font></div></div><div class='respDivL'><div class='vertical-center'>(E)</div></div><div class='respDivR'><div class='vertical-center'><font style='color:orange'>(I)</font></div></div></div>","null","$49<br><br>now","$60<br>in<br>6 weeks","1","49","60","6",""
"html-keyboard-response","20","67217","0.0-5.0-1.5","63cff34d33a9948e3b0b28d6","bdp_td","Wed Mar 29 2023 03:24:30 GMT-0500 (Central Daylight Time)","133285","","null","","","","FIX","","","<div class='trialBorder'><div class='vertical-center'><img style='vertical-align:center; align:center' src=img/fixation3.jpg></div></div>","null","","","","","","",""
"html-keyboard-response","21","69426","0.0-5.0-2.5","63cff34d33a9948e3b0b28d6","bdp_td","Wed Mar 29 2023 03:24:30 GMT-0500 (Central Daylight Time)","133285","","2208","","","","offer","","","<div class='trialBorder'><div class='vertical-center'><img style='vertical-align:center; align:center' src=img/fixation3.jpg></div><div class='cl'><div class='vertical-center'>$55<br>in<br>1 week</div></div><div class='cr'><div class='vertical-center'>$20<br><br>now</div></div><div class='respDivL'><div class='vertical-center'>(E)</div></div><div class='respDivR'><div class='vertical-center'>(I)</div></div></div>","E","$20<br><br>now","$55<br>in<br>1 week","1","20","55","1","THEN"
"html-keyboard-response","22","69677","0.0-5.0-3.5","63cff34d33a9948e3b0b28d6","bdp_td","Wed Mar 29 2023 03:24:30 GMT-0500 (Central Daylight Time)","133285","","null","","","","offerFB","","","<div class='trialBorder'><div class='vertical-center'><img style='vertical-align:center; align:center' src=img/fixation3.jpg></div><div class='cl'><div class='vertical-center'><font style='color:orange'>$55<br>in<br>1 week</font></div></div><div class='cr'><div class='vertical-center'>$20<br><br>now</div></div><div class='respDivL'><div class='vertical-center'><font style='color:orange'>(E)</font></div></div><div class='respDivR'><div class='vertical-center'>(I)</div></div></div>","null","$20<br><br>now","$55<br>in<br>1 week","1","20","55","1",""
"html-keyboard-response","23","70179","0.0-5.0-1.6","63cff34d33a9948e3b0b28d6","bdp_td","Wed Mar 29 2023 03:24:30 GMT-0500 (Central Daylight Time)","133285","","null","","","","FIX","","","<div class='trialBorder'><div class='vertical-center'><img style='vertical-align:center; align:center' src=img/fixation3.jpg></div></div>","null","","","","","","",""
"html-keyboard-response","24","72231","0.0-5.0-2.6","63cff34d33a9948e3b0b28d6","bdp_td","Wed Mar 29 2023 03:24:30 GMT-0500 (Central Daylight Time)","133285","","2051","","","","offer","","","<div class='trialBorder'><div class='vertical-center'><img style='vertical-align:center; align:center' src=img/fixation3.jpg></div><div class='cl'><div class='vertical-center'>$33<br><br>now</div></div><div class='cr'><div class='vertical-center'>$80<br>in<br>2 weeks</div></div><div class='respDivL'><div class='vertical-center'>(E)</div></div><div class='respDivR'><div class='vertical-center'>(I)</div></div></div>","I","$33<br><br>now","$80<br>in<br>2 weeks","0","33","80","2","THEN"
"html-keyboard-response","25","72483","0.0-5.0-3.6","63cff34d33a9948e3b0b28d6","bdp_td","Wed Mar 29 2023 03:24:30 GMT-0500 (Central Daylight Time)","133285","","null","","","","offerFB","","","<div class='trialBorder'><div class='vertical-center'><img style='vertical-align:center; align:center' src=img/fixation3.jpg></div><div class='cl'><div class='vertical-center'>$33<br><br>now</div></div><div class='cr'><div class='vertical-center'><font style='color:orange'>$80<br>in<br>2 weeks</font></div></div><div class='respDivL'><div class='vertical-center'>(E)</div></div><div class='respDivR'><div class='vertical-center'><font style='color:orange'>(I)</font></div></div></div>","null","$33<br><br>now","$80<br>in<br>2 weeks","0","33","80","2",""
"html-keyboard-response","26","72991","0.0-5.0-1.7","63cff34d33a9948e3b0b28d6","bdp_td","Wed Mar 29 2023 03:24:30 GMT-0500 (Central Daylight Time)","133285","","null","","","","FIX","","","<div class='trialBorder'><div class='vertical-center'><img style='vertical-align:center; align:center' src=img/fixation3.jpg></div></div>","null","","","","","","",""
"html-keyboard-response","27","75591","0.0-5.0-2.7","63cff34d33a9948e3b0b28d6","bdp_td","Wed Mar 29 2023 03:24:30 GMT-0500 (Central Daylight Time)","133285","","2600","","","","offer","","","<div class='trialBorder'><div class='vertical-center'><img style='vertical-align:center; align:center' src=img/fixation3.jpg></div><div class='cl'><div class='vertical-center'>$85<br>in<br>6 weeks</div></div><div class='cr'><div class='vertical-center'>$69<br><br>now</div></div><div class='respDivL'><div class='vertical-center'>(E)</div></div><div class='respDivR'><div class='vertical-center'>(I)</div></div></div>","I","$69<br><br>now","$85<br>in<br>6 weeks","1","69","85","6","NOW"
"html-keyboard-response","28","75859","0.0-5.0-3.7","63cff34d33a9948e3b0b28d6","bdp_td","Wed Mar 29 2023 03:24:30 GMT-0500 (Central Daylight Time)","133285","","null","","","","offerFB","","","<div class='trialBorder'><div class='vertical-center'><img style='vertical-align:center; align:center' src=img/fixation3.jpg></div><div class='cl'><div class='vertical-center'>$85<br>in<br>6 weeks</div></div><div class='cr'><div class='vertical-center'><font style='color:orange'>$69<br><br>now</font></div></div><div class='respDivL'><div class='vertical-center'>(E)</div></div><div class='respDivR'><div class='vertical-center'><font style='color:orange'>(I)</font></div></div></div>","null","$69<br><br>now","$85<br>in<br>6 weeks","1","69","85","6",""
"html-keyboard-response","29","76361","0.0-5.0-1.8","63cff34d33a9948e3b0b28d6","bdp_td","Wed Mar 29 2023 03:24:30 GMT-0500 (Central Daylight Time)","133285","","null","","","","FIX","","","<div class='trialBorder'><div class='vertical-center'><img style='vertical-align:center; align:center' src=img/fixation3.jpg></div></div>","null","","","","","","",""
"html-keyboard-response","30","78526","0.0-5.0-2.8","63cff34d33a9948e3b0b28d6","bdp_td","Wed Mar 29 2023 03:24:30 GMT-0500 (Central Daylight Time)","133285","","2164","","","","offer","","","<div class='trialBorder'><div class='vertical-center'><img style='vertical-align:center; align:center' src=img/fixation3.jpg></div><div class='cl'><div class='vertical-center'>$31<br><br>now</div></div><div class='cr'><div class='vertical-center'>$85<br>in<br>1 week</div></div><div class='respDivL'><div class='vertical-center'>(E)</div></div><div class='respDivR'><div class='vertical-center'>(I)</div></div></div>","I","$31<br><br>now","$85<br>in<br>1 week","0","31","85","1","THEN"
"html-keyboard-response","31","78784","0.0-5.0-3.8","63cff34d33a9948e3b0b28d6","bdp_td","Wed Mar 29 2023 03:24:30 GMT-0500 (Central Daylight Time)","133285","","null","","","","offerFB","","","<div class='trialBorder'><div class='vertical-center'><img style='vertical-align:center; align:center' src=img/fixation3.jpg></div><div class='cl'><div class='vertical-center'>$31<br><br>now</div></div><div class='cr'><div class='vertical-center'><font style='color:orange'>$85<br>in<br>1 week</font></div></div><div class='respDivL'><div class='vertical-center'>(E)</div></div><div class='respDivR'><div class='vertical-center'><font style='color:orange'>(I)</font></div></div></div>","null","$31<br><br>now","$85<br>in<br>1 week","0","31","85","1",""
"html-keyboard-response","32","79288","0.0-5.0-1.9","63cff34d33a9948e3b0b28d6","bdp_td","Wed Mar 29 2023 03:24:30 GMT-0500 (Central Daylight Time)","133285","","null","","","","FIX","","","<div class='trialBorder'><div class='vertical-center'><img style='vertical-align:center; align:center' src=img/fixation3.jpg></div></div>","null","","","","","","",""
"html-keyboard-response","33","81673","0.0-5.0-2.9","63cff34d33a9948e3b0b28d6","bdp_td","Wed Mar 29 2023 03:24:30 GMT-0500 (Central Daylight Time)","133285","","2385","","","","offer","","","<div class='trialBorder'><div class='vertical-center'><img style='vertical-align:center; align:center' src=img/fixation3.jpg></div><div class='cl'><div class='vertical-center'>$25<br><br>now</div></div><div class='cr'><div class='vertical-center'>$30<br>in<br>6 weeks</div></div><div class='respDivL'><div class='vertical-center'>(E)</div></div><div class='respDivR'><div class='vertical-center'>(I)</div></div></div>","E","$25<br><br>now","$30<br>in<br>6 weeks","0","25","30","6","NOW"
"html-keyboard-response","34","81924","0.0-5.0-3.9","63cff34d33a9948e3b0b28d6","bdp_td","Wed Mar 29 2023 03:24:30 GMT-0500 (Central Daylight Time)","133285","","null","","","","offerFB","","","<div class='trialBorder'><div class='vertical-center'><img style='vertical-align:center; align:center' src=img/fixation3.jpg></div><div class='cl'><div class='vertical-center'><font style='color:orange'>$25<br><br>now</font></div></div><div class='cr'><div class='vertical-center'>$30<br>in<br>6 weeks</div></div><div class='respDivL'><div class='vertical-center'><font style='color:orange'>(E)</font></div></div><div class='respDivR'><div class='vertical-center'>(I)</div></div></div>","null","$25<br><br>now","$30<br>in<br>6 weeks","0","25","30","6",""
"html-keyboard-response","35","82428","0.0-5.0-1.10","63cff34d33a9948e3b0b28d6","bdp_td","Wed Mar 29 2023 03:24:30 GMT-0500 (Central Daylight Time)","133285","","null","","","","FIX","","","<div class='trialBorder'><div class='vertical-center'><img style='vertical-align:center; align:center' src=img/fixation3.jpg></div></div>","null","","","","","","",""
"html-keyboard-response","36","84533","0.0-5.0-2.10","63cff34d33a9948e3b0b28d6","bdp_td","Wed Mar 29 2023 03:24:30 GMT-0500 (Central Daylight Time)","133285","","2099","","","","offer","","","<div class='trialBorder'><div class='vertical-center'><img style='vertical-align:center; align:center' src=img/fixation3.jpg></div><div class='cl'><div class='vertical-center'>$15<br><br>now</div></div><div class='cr'><div class='vertical-center'>$35<br>in<br>2 weeks</div></div><div class='respDivL'><div class='vertical-center'>(E)</div></div><div class='respDivR'><div class='vertical-center'>(I)</div></div></div>","I","$15<br><br>now","$35<br>in<br>2 weeks","0","15","35","2","THEN"
"html-keyboard-response","37","84786","0.0-5.0-3.10","63cff34d33a9948e3b0b28d6","bdp_td","Wed Mar 29 2023 03:24:30 GMT-0500 (Central Daylight Time)","133285","","null","","","","offerFB","","","<div class='trialBorder'><div class='vertical-center'><img style='vertical-align:center; align:center' src=img/fixation3.jpg></div><div class='cl'><div class='vertical-center'>$15<br><br>now</div></div><div class='cr'><div class='vertical-center'><font style='color:orange'>$35<br>in<br>2 weeks</font></div></div><div class='respDivL'><div class='vertical-center'>(E)</div></div><div class='respDivR'><div class='vertical-center'><font style='color:orange'>(I)</font></div></div></div>","null","$15<br><br>now","$35<br>in<br>2 weeks","0","15","35","2",""
"html-keyboard-response","38","85289","0.0-5.0-1.11","63cff34d33a9948e3b0b28d6","bdp_td","Wed Mar 29 2023 03:24:30 GMT-0500 (Central Daylight Time)","133285","","null","","","","FIX","","","<div class='trialBorder'><div class='vertical-center'><img style='vertical-align:center; align:center' src=img/fixation3.jpg></div></div>","null","","","","","","",""
"html-keyboard-response","39","87701","0.0-5.0-2.11","63cff34d33a9948e3b0b28d6","bdp_td","Wed Mar 29 2023 03:24:30 GMT-0500 (Central Daylight Time)","133285","","2410","","","","offer","","","<div class='trialBorder'><div class='vertical-center'><img style='vertical-align:center; align:center' src=img/fixation3.jpg></div><div class='cl'><div class='vertical-center'>$75<br>in<br>12 weeks</div></div><div class='cr'><div class='vertical-center'>$67<br><br>now</div></div><div class='respDivL'><div class='vertical-center'>(E)</div></div><div class='respDivR'><div class='vertical-center'>(I)</div></div></div>","I","$67<br><br>now","$75<br>in<br>12 weeks","1","67","75","12","NOW"
"html-keyboard-response","40","87958","0.0-5.0-3.11","63cff34d33a9948e3b0b28d6","bdp_td","Wed Mar 29 2023 03:24:30 GMT-0500 (Central Daylight Time)","133285","","null","","","","offerFB","","","<div class='trialBorder'><div class='vertical-center'><img style='vertical-align:center; align:center' src=img/fixation3.jpg></div><div class='cl'><div class='vertical-center'>$75<br>in<br>12 weeks</div></div><div class='cr'><div class='vertical-center'><font style='color:orange'>$67<br><br>now</font></div></div><div class='respDivL'><div class='vertical-center'>(E)</div></div><div class='respDivR'><div class='vertical-center'><font style='color:orange'>(I)</font></div></div></div>","null","$67<br><br>now","$75<br>in<br>12 weeks","1","67","75","12",""
"html-keyboard-response","41","88461","0.0-5.0-1.12","63cff34d33a9948e3b0b28d6","bdp_td","Wed Mar 29 2023 03:24:30 GMT-0500 (Central Daylight Time)","133285","","null","","","","FIX","","","<div class='trialBorder'><div class='vertical-center'><img style='vertical-align:center; align:center' src=img/fixation3.jpg></div></div>","null","","","","","","",""
"html-keyboard-response","42","90182","0.0-5.0-2.12","63cff34d33a9948e3b0b28d6","bdp_td","Wed Mar 29 2023 03:24:30 GMT-0500 (Central Daylight Time)","133285","","1713","","","","offer","","","<div class='trialBorder'><div class='vertical-center'><img style='vertical-align:center; align:center' src=img/fixation3.jpg></div><div class='cl'><div class='vertical-center'>$25<br><br>now</div></div><div class='cr'><div class='vertical-center'>$60<br>in<br>3 weeks</div></div><div class='respDivL'><div class='vertical-center'>(E)</div></div><div class='respDivR'><div class='vertical-center'>(I)</div></div></div>","I","$25<br><br>now","$60<br>in<br>3 weeks","0","25","60","3","THEN"
"html-keyboard-response","43","90437","0.0-5.0-3.12","63cff34d33a9948e3b0b28d6","bdp_td","Wed Mar 29 2023 03:24:30 GMT-0500 (Central Daylight Time)","133285","","null","","","","offerFB","","","<div class='trialBorder'><div class='vertical-center'><img style='vertical-align:center; align:center' src=img/fixation3.jpg></div><div class='cl'><div class='vertical-center'>$25<br><br>now</div></div><div class='cr'><div class='vertical-center'><font style='color:orange'>$60<br>in<br>3 weeks</font></div></div><div class='respDivL'><div class='vertical-center'>(E)</div></div><div class='respDivR'><div class='vertical-center'><font style='color:orange'>(I)</font></div></div></div>","null","$25<br><br>now","$60<br>in<br>3 weeks","0","25","60","3",""
"html-keyboard-response","44","90938","0.0-5.0-1.13","63cff34d33a9948e3b0b28d6","bdp_td","Wed Mar 29 2023 03:24:30 GMT-0500 (Central Daylight Time)","133285","","null","","","","FIX","","","<div class='trialBorder'><div class='vertical-center'><img style='vertical-align:center; align:center' src=img/fixation3.jpg></div></div>","null","","","","","","",""
"html-keyboard-response","45","92949","0.0-5.0-2.13","63cff34d33a9948e3b0b28d6","bdp_td","Wed Mar 29 2023 03:24:30 GMT-0500 (Central Daylight Time)","133285","","2010","","","","offer","","","<div class='trialBorder'><div class='vertical-center'><img style='vertical-align:center; align:center' src=img/fixation3.jpg></div><div class='cl'><div class='vertical-center'>$40<br><br>now</div></div><div class='cr'><div class='vertical-center'>$55<br>in<br>6 weeks</div></div><div class='respDivL'><div class='vertical-center'>(E)</div></div><div class='respDivR'><div class='vertical-center'>(I)</div></div></div>","I","$40<br><br>now","$55<br>in<br>6 weeks","0","40","55","6","THEN"
"html-keyboard-response","46","93210","0.0-5.0-3.13","63cff34d33a9948e3b0b28d6","bdp_td","Wed Mar 29 2023 03:24:30 GMT-0500 (Central Daylight Time)","133285","","null","","","","offerFB","","","<div class='trialBorder'><div class='vertical-center'><img style='vertical-align:center; align:center' src=img/fixation3.jpg></div><div class='cl'><div class='vertical-center'>$40<br><br>now</div></div><div class='cr'><div class='vertical-center'><font style='color:orange'>$55<br>in<br>6 weeks</font></div></div><div class='respDivL'><div class='vertical-center'>(E)</div></div><div class='respDivR'><div class='vertical-center'><font style='color:orange'>(I)</font></div></div></div>","null","$40<br><br>now","$55<br>in<br>6 weeks","0","40","55","6",""
"html-keyboard-response","47","93711","0.0-5.0-1.14","63cff34d33a9948e3b0b28d6","bdp_td","Wed Mar 29 2023 03:24:30 GMT-0500 (Central Daylight Time)","133285","","null","","","","FIX","","","<div class='trialBorder'><div class='vertical-center'><img style='vertical-align:center; align:center' src=img/fixation3.jpg></div></div>","null","","","","","","",""
"html-keyboard-response","48","96238","0.0-5.0-2.14","63cff34d33a9948e3b0b28d6","bdp_td","Wed Mar 29 2023 03:24:30 GMT-0500 (Central Daylight Time)","133285","","2526","","","","offer","","","<div class='trialBorder'><div class='vertical-center'><img style='vertical-align:center; align:center' src=img/fixation3.jpg></div><div class='cl'><div class='vertical-center'>$47<br><br>now</div></div><div class='cr'><div class='vertical-center'>$50<br>in<br>12 weeks</div></div><div class='respDivL'><div class='vertical-center'>(E)</div></div><div class='respDivR'><div class='vertical-center'>(I)</div></div></div>","E","$47<br><br>now","$50<br>in<br>12 weeks","0","47","50","12","NOW"
"html-keyboard-response","49","96489","0.0-5.0-3.14","63cff34d33a9948e3b0b28d6","bdp_td","Wed Mar 29 2023 03:24:30 GMT-0500 (Central Daylight Time)","133285","","null","","","","offerFB","","","<div class='trialBorder'><div class='vertical-center'><img style='vertical-align:center; align:center' src=img/fixation3.jpg></div><div class='cl'><div class='vertical-center'><font style='color:orange'>$47<br><br>now</font></div></div><div class='cr'><div class='vertical-center'>$50<br>in<br>12 weeks</div></div><div class='respDivL'><div class='vertical-center'><font style='color:orange'>(E)</font></div></div><div class='respDivR'><div class='vertical-center'>(I)</div></div></div>","null","$47<br><br>now","$50<br>in<br>12 weeks","0","47","50","12",""
"html-keyboard-response","50","96994","0.0-5.0-1.15","63cff34d33a9948e3b0b28d6","bdp_td","Wed Mar 29 2023 03:24:30 GMT-0500 (Central Daylight Time)","133285","","null","","","","FIX","","","<div class='trialBorder'><div class='vertical-center'><img style='vertical-align:center; align:center' src=img/fixation3.jpg></div></div>","null","","","","","","",""
"html-keyboard-response","51","100888","0.0-5.0-2.15","63cff34d33a9948e3b0b28d6","bdp_td","Wed Mar 29 2023 03:24:30 GMT-0500 (Central Daylight Time)","133285","","3893","","","","offer","","","<div class='trialBorder'><div class='vertical-center'><img style='vertical-align:center; align:center' src=img/fixation3.jpg></div><div class='cl'><div class='vertical-center'>$55<br>in<br>12 weeks</div></div><div class='cr'><div class='vertical-center'>$54<br><br>now</div></div><div class='respDivL'><div class='vertical-center'>(E)</div></div><div class='respDivR'><div class='vertical-center'>(I)</div></div></div>","I","$54<br><br>now","$55<br>in<br>12 weeks","1","54","55","12","NOW"
"html-keyboard-response","52","101141","0.0-5.0-3.15","63cff34d33a9948e3b0b28d6","bdp_td","Wed Mar 29 2023 03:24:30 GMT-0500 (Central Daylight Time)","133285","","null","","","","offerFB","","","<div class='trialBorder'><div class='vertical-center'><img style='vertical-align:center; align:center' src=img/fixation3.jpg></div><div class='cl'><div class='vertical-center'>$55<br>in<br>12 weeks</div></div><div class='cr'><div class='vertical-center'><font style='color:orange'>$54<br><br>now</font></div></div><div class='respDivL'><div class='vertical-center'>(E)</div></div><div class='respDivR'><div class='vertical-center'><font style='color:orange'>(I)</font></div></div></div>","null","$54<br><br>now","$55<br>in<br>12 weeks","1","54","55","12",""
"html-keyboard-response","53","101642","0.0-5.0-1.16","63cff34d33a9948e3b0b28d6","bdp_td","Wed Mar 29 2023 03:24:30 GMT-0500 (Central Daylight Time)","133285","","null","","","","FIX","","","<div class='trialBorder'><div class='vertical-center'><img style='vertical-align:center; align:center' src=img/fixation3.jpg></div></div>","null","","","","","","",""
"html-keyboard-response","54","103993","0.0-5.0-2.16","63cff34d33a9948e3b0b28d6","bdp_td","Wed Mar 29 2023 03:24:30 GMT-0500 (Central Daylight Time)","133285","","2349","","","","offer","","","<div class='trialBorder'><div class='vertical-center'><img style='vertical-align:center; align:center' src=img/fixation3.jpg></div><div class='cl'><div class='vertical-center'>$11<br><br>now</div></div><div class='cr'><div class='vertical-center'>$30<br>in<br>2 weeks</div></div><div class='respDivL'><div class='vertical-center'>(E)</div></div><div class='respDivR'><div class='vertical-center'>(I)</div></div></div>","I","$11<br><br>now","$30<br>in<br>2 weeks","0","11","30","2","THEN"
"html-keyboard-response","55","104244","0.0-5.0-3.16","63cff34d33a9948e3b0b28d6","bdp_td","Wed Mar 29 2023 03:24:30 GMT-0500 (Central Daylight Time)","133285","","null","","","","offerFB","","","<div class='trialBorder'><div class='vertical-center'><img style='vertical-align:center; align:center' src=img/fixation3.jpg></div><div class='cl'><div class='vertical-center'>$11<br><br>now</div></div><div class='cr'><div class='vertical-center'><font style='color:orange'>$30<br>in<br>2 weeks</font></div></div><div class='respDivL'><div class='vertical-center'>(E)</div></div><div class='respDivR'><div class='vertical-center'><font style='color:orange'>(I)</font></div></div></div>","null","$11<br><br>now","$30<br>in<br>2 weeks","0","11","30","2",""
"html-keyboard-response","56","104747","0.0-5.0-1.17","63cff34d33a9948e3b0b28d6","bdp_td","Wed Mar 29 2023 03:24:30 GMT-0500 (Central Daylight Time)","133285","","null","","","","FIX","","","<div class='trialBorder'><div class='vertical-center'><img style='vertical-align:center; align:center' src=img/fixation3.jpg></div></div>","null","","","","","","",""
"html-keyboard-response","57","106690","0.0-5.0-2.17","63cff34d33a9948e3b0b28d6","bdp_td","Wed Mar 29 2023 03:24:30 GMT-0500 (Central Daylight Time)","133285","","1941","","","","offer","","","<div class='trialBorder'><div class='vertical-center'><img style='vertical-align:center; align:center' src=img/fixation3.jpg></div><div class='cl'><div class='vertical-center'>$75<br>in<br>3 weeks</div></div><div class='cr'><div class='vertical-center'>$41<br><br>now</div></div><div class='respDivL'><div class='vertical-center'>(E)</div></div><div class='respDivR'><div class='vertical-center'>(I)</div></div></div>","E","$41<br><br>now","$75<br>in<br>3 weeks","1","41","75","3","THEN"
"html-keyboard-response","58","106943","0.0-5.0-3.17","63cff34d33a9948e3b0b28d6","bdp_td","Wed Mar 29 2023 03:24:30 GMT-0500 (Central Daylight Time)","133285","","null","","","","offerFB","","","<div class='trialBorder'><div class='vertical-center'><img style='vertical-align:center; align:center' src=img/fixation3.jpg></div><div class='cl'><div class='vertical-center'><font style='color:orange'>$75<br>in<br>3 weeks</font></div></div><div class='cr'><div class='vertical-center'>$41<br><br>now</div></div><div class='respDivL'><div class='vertical-center'><font style='color:orange'>(E)</font></div></div><div class='respDivR'><div class='vertical-center'>(I)</div></div></div>","null","$41<br><br>now","$75<br>in<br>3 weeks","1","41","75","3",""
"html-keyboard-response","59","107449","0.0-5.0-1.18","63cff34d33a9948e3b0b28d6","bdp_td","Wed Mar 29 2023 03:24:30 GMT-0500 (Central Daylight Time)","133285","","null","","","","FIX","","","<div class='trialBorder'><div class='vertical-center'><img style='vertical-align:center; align:center' src=img/fixation3.jpg></div></div>","null","","","","","","",""
"html-keyboard-response","60","110118","0.0-5.0-2.18","63cff34d33a9948e3b0b28d6","bdp_td","Wed Mar 29 2023 03:24:30 GMT-0500 (Central Daylight Time)","133285","","2669","","","","offer","","","<div class='trialBorder'><div class='vertical-center'><img style='vertical-align:center; align:center' src=img/fixation3.jpg></div><div class='cl'><div class='vertical-center'>$25<br>in<br>6 weeks</div></div><div class='cr'><div class='vertical-center'>$19<br><br>now</div></div><div class='respDivL'><div class='vertical-center'>(E)</div></div><div class='respDivR'><div class='vertical-center'>(I)</div></div></div>","I","$19<br><br>now","$25<br>in<br>6 weeks","1","19","25","6","NOW"
"html-keyboard-response","61","110371","0.0-5.0-3.18","63cff34d33a9948e3b0b28d6","bdp_td","Wed Mar 29 2023 03:24:30 GMT-0500 (Central Daylight Time)","133285","","null","","","","offerFB","","","<div class='trialBorder'><div class='vertical-center'><img style='vertical-align:center; align:center' src=img/fixation3.jpg></div><div class='cl'><div class='vertical-center'>$25<br>in<br>6 weeks</div></div><div class='cr'><div class='vertical-center'><font style='color:orange'>$19<br><br>now</font></div></div><div class='respDivL'><div class='vertical-center'>(E)</div></div><div class='respDivR'><div class='vertical-center'><font style='color:orange'>(I)</font></div></div></div>","null","$19<br><br>now","$25<br>in<br>6 weeks","1","19","25","6",""
"html-keyboard-response","62","110872","0.0-5.0-1.19","63cff34d33a9948e3b0b28d6","bdp_td","Wed Mar 29 2023 03:24:30 GMT-0500 (Central Daylight Time)","133285","","null","","","","FIX","","","<div class='trialBorder'><div class='vertical-center'><img style='vertical-align:center; align:center' src=img/fixation3.jpg></div></div>","null","","","","","","",""
"html-keyboard-response","63","112858","0.0-5.0-2.19","63cff34d33a9948e3b0b28d6","bdp_td","Wed Mar 29 2023 03:24:30 GMT-0500 (Central Daylight Time)","133285","","1986","","","","offer","","","<div class='trialBorder'><div class='vertical-center'><img style='vertical-align:center; align:center' src=img/fixation3.jpg></div><div class='cl'><div class='vertical-center'>$50<br>in<br>3 weeks</div></div><div class='cr'><div class='vertical-center'>$27<br><br>now</div></div><div class='respDivL'><div class='vertical-center'>(E)</div></div><div class='respDivR'><div class='vertical-center'>(I)</div></div></div>","E","$27<br><br>now","$50<br>in<br>3 weeks","1","27","50","3","THEN"
"html-keyboard-response","64","113110","0.0-5.0-3.19","63cff34d33a9948e3b0b28d6","bdp_td","Wed Mar 29 2023 03:24:30 GMT-0500 (Central Daylight Time)","133285","","null","","","","offerFB","","","<div class='trialBorder'><div class='vertical-center'><img style='vertical-align:center; align:center' src=img/fixation3.jpg></div><div class='cl'><div class='vertical-center'><font style='color:orange'>$50<br>in<br>3 weeks</font></div></div><div class='cr'><div class='vertical-center'>$27<br><br>now</div></div><div class='respDivL'><div class='vertical-center'><font style='color:orange'>(E)</font></div></div><div class='respDivR'><div class='vertical-center'>(I)</div></div></div>","null","$27<br><br>now","$50<br>in<br>3 weeks","1","27","50","3",""
"html-keyboard-response","65","113616","0.0-5.0-1.20","63cff34d33a9948e3b0b28d6","bdp_td","Wed Mar 29 2023 03:24:30 GMT-0500 (Central Daylight Time)","133285","","null","","","","FIX","","","<div class='trialBorder'><div class='vertical-center'><img style='vertical-align:center; align:center' src=img/fixation3.jpg></div></div>","null","","","","","","",""
"html-keyboard-response","66","116116","0.0-5.0-2.20","63cff34d33a9948e3b0b28d6","bdp_td","Wed Mar 29 2023 03:24:30 GMT-0500 (Central Daylight Time)","133285","","2499","","","","offer","","","<div class='trialBorder'><div class='vertical-center'><img style='vertical-align:center; align:center' src=img/fixation3.jpg></div><div class='cl'><div class='vertical-center'>$14<br><br>now</div></div><div class='cr'><div class='vertical-center'>$25<br>in<br>3 weeks</div></div><div class='respDivL'><div class='vertical-center'>(E)</div></div><div class='respDivR'><div class='vertical-center'>(I)</div></div></div>","I","$14<br><br>now","$25<br>in<br>3 weeks","0","14","25","3","THEN"
"html-keyboard-response","67","116367","0.0-5.0-3.20","63cff34d33a9948e3b0b28d6","bdp_td","Wed Mar 29 2023 03:24:30 GMT-0500 (Central Daylight Time)","133285","","null","","","","offerFB","","","<div class='trialBorder'><div class='vertical-center'><img style='vertical-align:center; align:center' src=img/fixation3.jpg></div><div class='cl'><div class='vertical-center'>$14<br><br>now</div></div><div class='cr'><div class='vertical-center'><font style='color:orange'>$25<br>in<br>3 weeks</font></div></div><div class='respDivL'><div class='vertical-center'>(E)</div></div><div class='respDivR'><div class='vertical-center'><font style='color:orange'>(I)</font></div></div></div>","null","$14<br><br>now","$25<br>in<br>3 weeks","0","14","25","3",""
"html-keyboard-response","68","116871","0.0-5.0-1.21","63cff34d33a9948e3b0b28d6","bdp_td","Wed Mar 29 2023 03:24:30 GMT-0500 (Central Daylight Time)","133285","","null","","","","FIX","","","<div class='trialBorder'><div class='vertical-center'><img style='vertical-align:center; align:center' src=img/fixation3.jpg></div></div>","null","","","","","","",""
"html-keyboard-response","69","118373","0.0-5.0-2.21","63cff34d33a9948e3b0b28d6","bdp_td","Wed Mar 29 2023 03:24:30 GMT-0500 (Central Daylight Time)","133285","","1502","","","","offer","","","<div class='trialBorder'><div class='vertical-center'><img style='vertical-align:center; align:center' src=img/fixation3.jpg></div><div class='cl'><div class='vertical-center'>$30<br>in<br>12 weeks</div></div><div class='cr'><div class='vertical-center'>$28<br><br>now</div></div><div class='respDivL'><div class='vertical-center'>(E)</div></div><div class='respDivR'><div class='vertical-center'>(I)</div></div></div>","I","$28<br><br>now","$30<br>in<br>12 weeks","1","28","30","12","NOW"
"html-keyboard-response","70","118627","0.0-5.0-3.21","63cff34d33a9948e3b0b28d6","bdp_td","Wed Mar 29 2023 03:24:30 GMT-0500 (Central Daylight Time)","133285","","null","","","","offerFB","","","<div class='trialBorder'><div class='vertical-center'><img style='vertical-align:center; align:center' src=img/fixation3.jpg></div><div class='cl'><div class='vertical-center'>$30<br>in<br>12 weeks</div></div><div class='cr'><div class='vertical-center'><font style='color:orange'>$28<br><br>now</font></div></div><div class='respDivL'><div class='vertical-center'>(E)</div></div><div class='respDivR'><div class='vertical-center'><font style='color:orange'>(I)</font></div></div></div>","null","$28<br><br>now","$30<br>in<br>12 weeks","1","28","30","12",""
"html-keyboard-response","71","119133","0.0-5.0-1.22","63cff34d33a9948e3b0b28d6","bdp_td","Wed Mar 29 2023 03:24:30 GMT-0500 (Central Daylight Time)","133285","","null","","","","FIX","","","<div class='trialBorder'><div class='vertical-center'><img style='vertical-align:center; align:center' src=img/fixation3.jpg></div></div>","null","","","","","","",""
"html-keyboard-response","72","121029","0.0-5.0-2.22","63cff34d33a9948e3b0b28d6","bdp_td","Wed Mar 29 2023 03:24:30 GMT-0500 (Central Daylight Time)","133285","","1895","","","","offer","","","<div class='trialBorder'><div class='vertical-center'><img style='vertical-align:center; align:center' src=img/fixation3.jpg></div><div class='cl'><div class='vertical-center'>$35<br>in<br>3 weeks</div></div><div class='cr'><div class='vertical-center'>$24<br><br>now</div></div><div class='respDivL'><div class='vertical-center'>(E)</div></div><div class='respDivR'><div class='vertical-center'>(I)</div></div></div>","E","$24<br><br>now","$35<br>in<br>3 weeks","1","24","35","3","THEN"
"html-keyboard-response","73","121281","0.0-5.0-3.22","63cff34d33a9948e3b0b28d6","bdp_td","Wed Mar 29 2023 03:24:30 GMT-0500 (Central Daylight Time)","133285","","null","","","","offerFB","","","<div class='trialBorder'><div class='vertical-center'><img style='vertical-align:center; align:center' src=img/fixation3.jpg></div><div class='cl'><div class='vertical-center'><font style='color:orange'>$35<br>in<br>3 weeks</font></div></div><div class='cr'><div class='vertical-center'>$24<br><br>now</div></div><div class='respDivL'><div class='vertical-center'><font style='color:orange'>(E)</font></div></div><div class='respDivR'><div class='vertical-center'>(I)</div></div></div>","null","$24<br><br>now","$35<br>in<br>3 weeks","1","24","35","3",""
"html-keyboard-response","74","121782","0.0-5.0-1.23","63cff34d33a9948e3b0b28d6","bdp_td","Wed Mar 29 2023 03:24:30 GMT-0500 (Central Daylight Time)","133285","","null","","","","FIX","","","<div class='trialBorder'><div class='vertical-center'><img style='vertical-align:center; align:center' src=img/fixation3.jpg></div></div>","null","","","","","","",""
"html-keyboard-response","75","124153","0.0-5.0-2.23","63cff34d33a9948e3b0b28d6","bdp_td","Wed Mar 29 2023 03:24:30 GMT-0500 (Central Daylight Time)","133285","","2370","","","","offer","","","<div class='trialBorder'><div class='vertical-center'><img style='vertical-align:center; align:center' src=img/fixation3.jpg></div><div class='cl'><div class='vertical-center'>$80<br>in<br>12 weeks</div></div><div class='cr'><div class='vertical-center'>$78<br><br>now</div></div><div class='respDivL'><div class='vertical-center'>(E)</div></div><div class='respDivR'><div class='vertical-center'>(I)</div></div></div>","I","$78<br><br>now","$80<br>in<br>12 weeks","1","78","80","12","NOW"
"html-keyboard-response","76","124407","0.0-5.0-3.23","63cff34d33a9948e3b0b28d6","bdp_td","Wed Mar 29 2023 03:24:30 GMT-0500 (Central Daylight Time)","133285","","null","","","","offerFB","","","<div class='trialBorder'><div class='vertical-center'><img style='vertical-align:center; align:center' src=img/fixation3.jpg></div><div class='cl'><div class='vertical-center'>$80<br>in<br>12 weeks</div></div><div class='cr'><div class='vertical-center'><font style='color:orange'>$78<br><br>now</font></div></div><div class='respDivL'><div class='vertical-center'>(E)</div></div><div class='respDivR'><div class='vertical-center'><font style='color:orange'>(I)</font></div></div></div>","null","$78<br><br>now","$80<br>in<br>12 weeks","1","78","80","12",""
"html-keyboard-response","77","124907","0.0-5.0-1.24","63cff34d33a9948e3b0b28d6","bdp_td","Wed Mar 29 2023 03:24:30 GMT-0500 (Central Daylight Time)","133285","","null","","","","FIX","","","<div class='trialBorder'><div class='vertical-center'><img style='vertical-align:center; align:center' src=img/fixation3.jpg></div></div>","null","","","","","","",""
"html-keyboard-response","78","127149","0.0-5.0-2.24","63cff34d33a9948e3b0b28d6","bdp_td","Wed Mar 29 2023 03:24:30 GMT-0500 (Central Daylight Time)","133285","","2240","","","","offer","","","<div class='trialBorder'><div class='vertical-center'><img style='vertical-align:center; align:center' src=img/fixation3.jpg></div><div class='cl'><div class='vertical-center'>$75<br>in<br>6 weeks</div></div><div class='cr'><div class='vertical-center'>$55<br><br>now</div></div><div class='respDivL'><div class='vertical-center'>(E)</div></div><div class='respDivR'><div class='vertical-center'>(I)</div></div></div>","I","$55<br><br>now","$75<br>in<br>6 weeks","1","55","75","6","NOW"
"html-keyboard-response","79","127404","0.0-5.0-3.24","63cff34d33a9948e3b0b28d6","bdp_td","Wed Mar 29 2023 03:24:30 GMT-0500 (Central Daylight Time)","133285","","null","","","","offerFB","","","<div class='trialBorder'><div class='vertical-center'><img style='vertical-align:center; align:center' src=img/fixation3.jpg></div><div class='cl'><div class='vertical-center'>$75<br>in<br>6 weeks</div></div><div class='cr'><div class='vertical-center'><font style='color:orange'>$55<br><br>now</font></div></div><div class='respDivL'><div class='vertical-center'>(E)</div></div><div class='respDivR'><div class='vertical-center'><font style='color:orange'>(I)</font></div></div></div>","null","$55<br><br>now","$75<br>in<br>6 weeks","1","55","75","6",""
"html-keyboard-response","80","127918","0.0-5.0-1.25","63cff34d33a9948e3b0b28d6","bdp_td","Wed Mar 29 2023 03:24:30 GMT-0500 (Central Daylight Time)","133285","","null","","","","FIX","","","<div class='trialBorder'><div class='vertical-center'><img style='vertical-align:center; align:center' src=img/fixation3.jpg></div></div>","null","","","","","","",""
"html-keyboard-response","81","129987","0.0-5.0-2.25","63cff34d33a9948e3b0b28d6","bdp_td","Wed Mar 29 2023 03:24:30 GMT-0500 (Central Daylight Time)","133285","","2067","","","","offer","","","<div class='trialBorder'><div class='vertical-center'><img style='vertical-align:center; align:center' src=img/fixation3.jpg></div><div class='cl'><div class='vertical-center'>$54<br><br>now</div></div><div class='cr'><div class='vertical-center'>$60<br>in<br>12 weeks</div></div><div class='respDivL'><div class='vertical-center'>(E)</div></div><div class='respDivR'><div class='vertical-center'>(I)</div></div></div>","E","$54<br><br>now","$60<br>in<br>12 weeks","0","54","60","12","NOW"
"html-keyboard-response","82","130243","0.0-5.0-3.25","63cff34d33a9948e3b0b28d6","bdp_td","Wed Mar 29 2023 03:24:30 GMT-0500 (Central Daylight Time)","133285","","null","","","","offerFB","","","<div class='trialBorder'><div class='vertical-center'><img style='vertical-align:center; align:center' src=img/fixation3.jpg></div><div class='cl'><div class='vertical-center'><font style='color:orange'>$54<br><br>now</font></div></div><div class='cr'><div class='vertical-center'>$60<br>in<br>12 weeks</div></div><div class='respDivL'><div class='vertical-center'><font style='color:orange'>(E)</font></div></div><div class='respDivR'><div class='vertical-center'>(I)</div></div></div>","null","$54<br><br>now","$60<br>in<br>12 weeks","0","54","60","12",""
"html-keyboard-response","83","130744","0.0-5.0-1.26","63cff34d33a9948e3b0b28d6","bdp_td","Wed Mar 29 2023 03:24:30 GMT-0500 (Central Daylight Time)","133285","","null","","","","FIX","","","<div class='trialBorder'><div class='vertical-center'><img style='vertical-align:center; align:center' src=img/fixation3.jpg></div></div>","null","","","","","","",""
"html-keyboard-response","84","132028","0.0-5.0-2.26","63cff34d33a9948e3b0b28d6","bdp_td","Wed Mar 29 2023 03:24:30 GMT-0500 (Central Daylight Time)","133285","","1283","","","","offer","","","<div class='trialBorder'><div class='vertical-center'><img style='vertical-align:center; align:center' src=img/fixation3.jpg></div><div class='cl'><div class='vertical-center'>$25<br>in<br>12 weeks</div></div><div class='cr'><div class='vertical-center'>$22<br><br>now</div></div><div class='respDivL'><div class='vertical-center'>(E)</div></div><div class='respDivR'><div class='vertical-center'>(I)</div></div></div>","I","$22<br><br>now","$25<br>in<br>12 weeks","1","22","25","12","NOW"
"html-keyboard-response","85","132283","0.0-5.0-3.26","63cff34d33a9948e3b0b28d6","bdp_td","Wed Mar 29 2023 03:24:30 GMT-0500 (Central Daylight Time)","133285","","null","","","","offerFB","","","<div class='trialBorder'><div class='vertical-center'><img style='vertical-align:center; align:center' src=img/fixation3.jpg></div><div class='cl'><div class='vertical-center'>$25<br>in<br>12 weeks</div></div><div class='cr'><div class='vertical-center'><font style='color:orange'>$22<br><br>now</font></div></div><div class='respDivL'><div class='vertical-center'>(E)</div></div><div class='respDivR'><div class='vertical-center'><font style='color:orange'>(I)</font></div></div></div>","null","$22<br><br>now","$25<br>in<br>12 weeks","1","22","25","12",""
"","","","","63cff34d33a9948e3b0b28d6","bdp_td","Wed Mar 29 2023 03:24:30 GMT-0500 (Central Daylight Time)","133285","","","fullscreenexit","86","132297","fullscreenexit","","","","","","","","","","",""
"fullscreen","86","133285","0.0-6.0","63cff34d33a9948e3b0b28d6","bdp_td","Wed Mar 29 2023 03:24:30 GMT-0500 (Central Daylight Time)","133285","","","","","","","","true","","","","","","","","",""
"html-keyboard-response","87","133790","0.0-7.0","","","","","","null","","","","","","","","null","","","","","","",""
