"trial_type","trial_index","time_elapsed","internal_node_id","subject_id","task","startTime","totalTime","view_history","rt","event","trial","time","trialtype","success","stimulus","key_press","nowOffer","thenOffer","thenLeft","nowAmt","thenAmt","thenWeeks","chosen"
"pavlovia","0","3","0.0-0.0","628419137c4c3ded72e4874d","bdp_td","Mon Mar 27 2023 15:33:26 GMT-0700 (Pacific Daylight Time)","161805","","","","","","","","","","","","","","","",""
"instructions","1","2254","0.0-1.0","628419137c4c3ded72e4874d","bdp_td","Mon Mar 27 2023 15:33:26 GMT-0700 (Pacific Daylight Time)","161805","[{""page_index"":0,""viewing_time"":2250}]","2250","","","","","","","","","","","","","",""
"","","","","628419137c4c3ded72e4874d","bdp_td","Mon Mar 27 2023 15:33:26 GMT-0700 (Pacific Daylight Time)","161805","","","fullscreenenter","2","4622","fullscreenenter","","","","","","","","","",""
"fullscreen","2","5610","0.0-2.0","628419137c4c3ded72e4874d","bdp_td","Mon Mar 27 2023 15:33:26 GMT-0700 (Pacific Daylight Time)","161805","","","","","","","true","","","","","","","","",""
"instructions","3","22990","0.0-4.0","628419137c4c3ded72e4874d","bdp_td","Mon Mar 27 2023 15:33:26 GMT-0700 (Pacific Daylight Time)","161805","[{""page_index"":0,""viewing_time"":9729},{""page_index"":1,""viewing_time"":5839},{""page_index"":2,""viewing_time"":1811}]","17379","","","","","","","","","","","","","",""
"html-keyboard-response","4","23492","0.0-5.0-1.0","628419137c4c3ded72e4874d","bdp_td","Mon Mar 27 2023 15:33:26 GMT-0700 (Pacific Daylight Time)","161805","","null","","","","FIX","","<div class='trialBorder'><div class='vertical-center'><img style='vertical-align:center; align:center' src=img/fixation3.jpg></div></div>","null","","","","","","",""
"html-keyboard-response","5","28856","0.0-5.0-2.0","628419137c4c3ded72e4874d","bdp_td","Mon Mar 27 2023 15:33:26 GMT-0700 (Pacific Daylight Time)","161805","","5361","","","","offer","","<div class='trialBorder'><div class='vertical-center'><img style='vertical-align:center; align:center' src=img/fixation3.jpg></div><div class='cl'><div class='vertical-center'>$60<br>in<br>3 weeks</div></div><div class='cr'><div class='vertical-center'>$25<br><br>now</div></div><div class='respDivL'><div class='vertical-center'>(E)</div></div><div class='respDivR'><div class='vertical-center'>(I)</div></div></div>","E","$25<br><br>now","$60<br>in<br>3 weeks","1","25","60","3","THEN"
"html-keyboard-response","6","29108","0.0-5.0-3.0","628419137c4c3ded72e4874d","bdp_td","Mon Mar 27 2023 15:33:26 GMT-0700 (Pacific Daylight Time)","161805","","null","","","","offerFB","","<div class='trialBorder'><div class='vertical-center'><img style='vertical-align:center; align:center' src=img/fixation3.jpg></div><div class='cl'><div class='vertical-center'><font style='color:orange'>$60<br>in<br>3 weeks</font></div></div><div class='cr'><div class='vertical-center'>$25<br><br>now</div></div><div class='respDivL'><div class='vertical-center'><font style='color:orange'>(E)</font></div></div><div class='respDivR'><div class='vertical-center'>(I)</div></div></div>","null","$25<br><br>now","$60<br>in<br>3 weeks","1","25","60","3",""
"html-keyboard-response","7","29611","0.0-5.0-1.1","628419137c4c3ded72e4874d","bdp_td","Mon Mar 27 2023 15:33:26 GMT-0700 (Pacific Daylight Time)","161805","","null","","","","FIX","","<div class='trialBorder'><div class='vertical-center'><img style='vertical-align:center; align:center' src=img/fixation3.jpg></div></div>","null","","","","","","",""
"html-keyboard-response","8","33963","0.0-5.0-2.1","628419137c4c3ded72e4874d","bdp_td","Mon Mar 27 2023 15:33:26 GMT-0700 (Pacific Daylight Time)","161805","","4352","","","","offer","","<div class='trialBorder'><div class='vertical-center'><img style='vertical-align:center; align:center' src=img/fixation3.jpg></div><div class='cl'><div class='vertical-center'>$50<br>in<br>3 weeks</div></div><div class='cr'><div class='vertical-center'>$27<br><br>now</div></div><div class='respDivL'><div class='vertical-center'>(E)</div></div><div class='respDivR'><div class='vertical-center'>(I)</div></div></div>","E","$27<br><br>now","$50<br>in<br>3 weeks","1","27","50","3","THEN"
"html-keyboard-response","9","34216","0.0-5.0-3.1","628419137c4c3ded72e4874d","bdp_td","Mon Mar 27 2023 15:33:26 GMT-0700 (Pacific Daylight Time)","161805","","null","","","","offerFB","","<div class='trialBorder'><div class='vertical-center'><img style='vertical-align:center; align:center' src=img/fixation3.jpg></div><div class='cl'><div class='vertical-center'><font style='color:orange'>$50<br>in<br>3 weeks</font></div></div><div class='cr'><div class='vertical-center'>$27<br><br>now</div></div><div class='respDivL'><div class='vertical-center'><font style='color:orange'>(E)</font></div></div><div class='respDivR'><div class='vertical-center'>(I)</div></div></div>","null","$27<br><br>now","$50<br>in<br>3 weeks","1","27","50","3",""
"html-keyboard-response","10","34720","0.0-5.0-1.2","628419137c4c3ded72e4874d","bdp_td","Mon Mar 27 2023 15:33:26 GMT-0700 (Pacific Daylight Time)","161805","","null","","","","FIX","","<div class='trialBorder'><div class='vertical-center'><img style='vertical-align:center; align:center' src=img/fixation3.jpg></div></div>","null","","","","","","",""
"html-keyboard-response","11","38831","0.0-5.0-2.2","628419137c4c3ded72e4874d","bdp_td","Mon Mar 27 2023 15:33:26 GMT-0700 (Pacific Daylight Time)","161805","","4109","","","","offer","","<div class='trialBorder'><div class='vertical-center'><img style='vertical-align:center; align:center' src=img/fixation3.jpg></div><div class='cl'><div class='vertical-center'>$35<br>in<br>2 weeks</div></div><div class='cr'><div class='vertical-center'>$15<br><br>now</div></div><div class='respDivL'><div class='vertical-center'>(E)</div></div><div class='respDivR'><div class='vertical-center'>(I)</div></div></div>","I","$15<br><br>now","$35<br>in<br>2 weeks","1","15","35","2","NOW"
"html-keyboard-response","12","39082","0.0-5.0-3.2","628419137c4c3ded72e4874d","bdp_td","Mon Mar 27 2023 15:33:26 GMT-0700 (Pacific Daylight Time)","161805","","null","","","","offerFB","","<div class='trialBorder'><div class='vertical-center'><img style='vertical-align:center; align:center' src=img/fixation3.jpg></div><div class='cl'><div class='vertical-center'>$35<br>in<br>2 weeks</div></div><div class='cr'><div class='vertical-center'><font style='color:orange'>$15<br><br>now</font></div></div><div class='respDivL'><div class='vertical-center'>(E)</div></div><div class='respDivR'><div class='vertical-center'><font style='color:orange'>(I)</font></div></div></div>","null","$15<br><br>now","$35<br>in<br>2 weeks","1","15","35","2",""
"html-keyboard-response","13","39584","0.0-5.0-1.3","628419137c4c3ded72e4874d","bdp_td","Mon Mar 27 2023 15:33:26 GMT-0700 (Pacific Daylight Time)","161805","","null","","","","FIX","","<div class='trialBorder'><div class='vertical-center'><img style='vertical-align:center; align:center' src=img/fixation3.jpg></div></div>","null","","","","","","",""
"html-keyboard-response","14","42380","0.0-5.0-2.3","628419137c4c3ded72e4874d","bdp_td","Mon Mar 27 2023 15:33:26 GMT-0700 (Pacific Daylight Time)","161805","","2795","","","","offer","","<div class='trialBorder'><div class='vertical-center'><img style='vertical-align:center; align:center' src=img/fixation3.jpg></div><div class='cl'><div class='vertical-center'>$55<br><br>now</div></div><div class='cr'><div class='vertical-center'>$75<br>in<br>6 weeks</div></div><div class='respDivL'><div class='vertical-center'>(E)</div></div><div class='respDivR'><div class='vertical-center'>(I)</div></div></div>","E","$55<br><br>now","$75<br>in<br>6 weeks","0","55","75","6","NOW"
"html-keyboard-response","15","42632","0.0-5.0-3.3","628419137c4c3ded72e4874d","bdp_td","Mon Mar 27 2023 15:33:26 GMT-0700 (Pacific Daylight Time)","161805","","null","","","","offerFB","","<div class='trialBorder'><div class='vertical-center'><img style='vertical-align:center; align:center' src=img/fixation3.jpg></div><div class='cl'><div class='vertical-center'><font style='color:orange'>$55<br><br>now</font></div></div><div class='cr'><div class='vertical-center'>$75<br>in<br>6 weeks</div></div><div class='respDivL'><div class='vertical-center'><font style='color:orange'>(E)</font></div></div><div class='respDivR'><div class='vertical-center'>(I)</div></div></div>","null","$55<br><br>now","$75<br>in<br>6 weeks","0","55","75","6",""
"html-keyboard-response","16","43133","0.0-5.0-1.4","628419137c4c3ded72e4874d","bdp_td","Mon Mar 27 2023 15:33:26 GMT-0700 (Pacific Daylight Time)","161805","","null","","","","FIX","","<div class='trialBorder'><div class='vertical-center'><img style='vertical-align:center; align:center' src=img/fixation3.jpg></div></div>","null","","","","","","",""
"html-keyboard-response","17","45083","0.0-5.0-2.4","628419137c4c3ded72e4874d","bdp_td","Mon Mar 27 2023 15:33:26 GMT-0700 (Pacific Daylight Time)","161805","","1950","","","","offer","","<div class='trialBorder'><div class='vertical-center'><img style='vertical-align:center; align:center' src=img/fixation3.jpg></div><div class='cl'><div class='vertical-center'>$75<br>in<br>12 weeks</div></div><div class='cr'><div class='vertical-center'>$67<br><br>now</div></div><div class='respDivL'><div class='vertical-center'>(E)</div></div><div class='respDivR'><div class='vertical-center'>(I)</div></div></div>","I","$67<br><br>now","$75<br>in<br>12 weeks","1","67","75","12","NOW"
"html-keyboard-response","18","45335","0.0-5.0-3.4","628419137c4c3ded72e4874d","bdp_td","Mon Mar 27 2023 15:33:26 GMT-0700 (Pacific Daylight Time)","161805","","null","","","","offerFB","","<div class='trialBorder'><div class='vertical-center'><img style='vertical-align:center; align:center' src=img/fixation3.jpg></div><div class='cl'><div class='vertical-center'>$75<br>in<br>12 weeks</div></div><div class='cr'><div class='vertical-center'><font style='color:orange'>$67<br><br>now</font></div></div><div class='respDivL'><div class='vertical-center'>(E)</div></div><div class='respDivR'><div class='vertical-center'><font style='color:orange'>(I)</font></div></div></div>","null","$67<br><br>now","$75<br>in<br>12 weeks","1","67","75","12",""
"html-keyboard-response","19","45837","0.0-5.0-1.5","628419137c4c3ded72e4874d","bdp_td","Mon Mar 27 2023 15:33:26 GMT-0700 (Pacific Daylight Time)","161805","","null","","","","FIX","","<div class='trialBorder'><div class='vertical-center'><img style='vertical-align:center; align:center' src=img/fixation3.jpg></div></div>","null","","","","","","",""
"html-keyboard-response","20","47624","0.0-5.0-2.5","628419137c4c3ded72e4874d","bdp_td","Mon Mar 27 2023 15:33:26 GMT-0700 (Pacific Daylight Time)","161805","","1787","","","","offer","","<div class='trialBorder'><div class='vertical-center'><img style='vertical-align:center; align:center' src=img/fixation3.jpg></div><div class='cl'><div class='vertical-center'>$85<br>in<br>12 weeks</div></div><div class='cr'><div class='vertical-center'>$80<br><br>now</div></div><div class='respDivL'><div class='vertical-center'>(E)</div></div><div class='respDivR'><div class='vertical-center'>(I)</div></div></div>","I","$80<br><br>now","$85<br>in<br>12 weeks","1","80","85","12","NOW"
"html-keyboard-response","21","47876","0.0-5.0-3.5","628419137c4c3ded72e4874d","bdp_td","Mon Mar 27 2023 15:33:26 GMT-0700 (Pacific Daylight Time)","161805","","null","","","","offerFB","","<div class='trialBorder'><div class='vertical-center'><img style='vertical-align:center; align:center' src=img/fixation3.jpg></div><div class='cl'><div class='vertical-center'>$85<br>in<br>12 weeks</div></div><div class='cr'><div class='vertical-center'><font style='color:orange'>$80<br><br>now</font></div></div><div class='respDivL'><div class='vertical-center'>(E)</div></div><div class='respDivR'><div class='vertical-center'><font style='color:orange'>(I)</font></div></div></div>","null","$80<br><br>now","$85<br>in<br>12 weeks","1","80","85","12",""
"html-keyboard-response","22","48378","0.0-5.0-1.6","628419137c4c3ded72e4874d","bdp_td","Mon Mar 27 2023 15:33:26 GMT-0700 (Pacific Daylight Time)","161805","","null","","","","FIX","","<div class='trialBorder'><div class='vertical-center'><img style='vertical-align:center; align:center' src=img/fixation3.jpg></div></div>","null","","","","","","",""
"html-keyboard-response","23","51137","0.0-5.0-2.6","628419137c4c3ded72e4874d","bdp_td","Mon Mar 27 2023 15:33:26 GMT-0700 (Pacific Daylight Time)","161805","","2757","","","","offer","","<div class='trialBorder'><div class='vertical-center'><img style='vertical-align:center; align:center' src=img/fixation3.jpg></div><div class='cl'><div class='vertical-center'>$19<br><br>now</div></div><div class='cr'><div class='vertical-center'>$25<br>in<br>6 weeks</div></div><div class='respDivL'><div class='vertical-center'>(E)</div></div><div class='respDivR'><div class='vertical-center'>(I)</div></div></div>","E","$19<br><br>now","$25<br>in<br>6 weeks","0","19","25","6","NOW"
"html-keyboard-response","24","51389","0.0-5.0-3.6","628419137c4c3ded72e4874d","bdp_td","Mon Mar 27 2023 15:33:26 GMT-0700 (Pacific Daylight Time)","161805","","null","","","","offerFB","","<div class='trialBorder'><div class='vertical-center'><img style='vertical-align:center; align:center' src=img/fixation3.jpg></div><div class='cl'><div class='vertical-center'><font style='color:orange'>$19<br><br>now</font></div></div><div class='cr'><div class='vertical-center'>$25<br>in<br>6 weeks</div></div><div class='respDivL'><div class='vertical-center'><font style='color:orange'>(E)</font></div></div><div class='respDivR'><div class='vertical-center'>(I)</div></div></div>","null","$19<br><br>now","$25<br>in<br>6 weeks","0","19","25","6",""
"html-keyboard-response","25","51891","0.0-5.0-1.7","628419137c4c3ded72e4874d","bdp_td","Mon Mar 27 2023 15:33:26 GMT-0700 (Pacific Daylight Time)","161805","","null","","","","FIX","","<div class='trialBorder'><div class='vertical-center'><img style='vertical-align:center; align:center' src=img/fixation3.jpg></div></div>","null","","","","","","",""
"html-keyboard-response","26","53934","0.0-5.0-2.7","628419137c4c3ded72e4874d","bdp_td","Mon Mar 27 2023 15:33:26 GMT-0700 (Pacific Daylight Time)","161805","","2043","","","","offer","","<div class='trialBorder'><div class='vertical-center'><img style='vertical-align:center; align:center' src=img/fixation3.jpg></div><div class='cl'><div class='vertical-center'>$28<br><br>now</div></div><div class='cr'><div class='vertical-center'>$30<br>in<br>12 weeks</div></div><div class='respDivL'><div class='vertical-center'>(E)</div></div><div class='respDivR'><div class='vertical-center'>(I)</div></div></div>","E","$28<br><br>now","$30<br>in<br>12 weeks","0","28","30","12","NOW"
"html-keyboard-response","27","54186","0.0-5.0-3.7","628419137c4c3ded72e4874d","bdp_td","Mon Mar 27 2023 15:33:26 GMT-0700 (Pacific Daylight Time)","161805","","null","","","","offerFB","","<div class='trialBorder'><div class='vertical-center'><img style='vertical-align:center; align:center' src=img/fixation3.jpg></div><div class='cl'><div class='vertical-center'><font style='color:orange'>$28<br><br>now</font></div></div><div class='cr'><div class='vertical-center'>$30<br>in<br>12 weeks</div></div><div class='respDivL'><div class='vertical-center'><font style='color:orange'>(E)</font></div></div><div class='respDivR'><div class='vertical-center'>(I)</div></div></div>","null","$28<br><br>now","$30<br>in<br>12 weeks","0","28","30","12",""
"html-keyboard-response","28","54687","0.0-5.0-1.8","628419137c4c3ded72e4874d","bdp_td","Mon Mar 27 2023 15:33:26 GMT-0700 (Pacific Daylight Time)","161805","","null","","","","FIX","","<div class='trialBorder'><div class='vertical-center'><img style='vertical-align:center; align:center' src=img/fixation3.jpg></div></div>","null","","","","","","",""
"html-keyboard-response","29","67152","0.0-5.0-2.8","628419137c4c3ded72e4874d","bdp_td","Mon Mar 27 2023 15:33:26 GMT-0700 (Pacific Daylight Time)","161805","","12464","","","","offer","","<div class='trialBorder'><div class='vertical-center'><img style='vertical-align:center; align:center' src=img/fixation3.jpg></div><div class='cl'><div class='vertical-center'>$47<br><br>now</div></div><div class='cr'><div class='vertical-center'>$50<br>in<br>12 weeks</div></div><div class='respDivL'><div class='vertical-center'>(E)</div></div><div class='respDivR'><div class='vertical-center'>(I)</div></div></div>","E","$47<br><br>now","$50<br>in<br>12 weeks","0","47","50","12","NOW"
"html-keyboard-response","30","67406","0.0-5.0-3.8","628419137c4c3ded72e4874d","bdp_td","Mon Mar 27 2023 15:33:26 GMT-0700 (Pacific Daylight Time)","161805","","null","","","","offerFB","","<div class='trialBorder'><div class='vertical-center'><img style='vertical-align:center; align:center' src=img/fixation3.jpg></div><div class='cl'><div class='vertical-center'><font style='color:orange'>$47<br><br>now</font></div></div><div class='cr'><div class='vertical-center'>$50<br>in<br>12 weeks</div></div><div class='respDivL'><div class='vertical-center'><font style='color:orange'>(E)</font></div></div><div class='respDivR'><div class='vertical-center'>(I)</div></div></div>","null","$47<br><br>now","$50<br>in<br>12 weeks","0","47","50","12",""
"html-keyboard-response","31","67907","0.0-5.0-1.9","628419137c4c3ded72e4874d","bdp_td","Mon Mar 27 2023 15:33:26 GMT-0700 (Pacific Daylight Time)","161805","","null","","","","FIX","","<div class='trialBorder'><div class='vertical-center'><img style='vertical-align:center; align:center' src=img/fixation3.jpg></div></div>","null","","","","","","",""
"html-keyboard-response","32","70524","0.0-5.0-2.9","628419137c4c3ded72e4874d","bdp_td","Mon Mar 27 2023 15:33:26 GMT-0700 (Pacific Daylight Time)","161805","","2617","","","","offer","","<div class='trialBorder'><div class='vertical-center'><img style='vertical-align:center; align:center' src=img/fixation3.jpg></div><div class='cl'><div class='vertical-center'>$80<br>in<br>2 weeks</div></div><div class='cr'><div class='vertical-center'>$33<br><br>now</div></div><div class='respDivL'><div class='vertical-center'>(E)</div></div><div class='respDivR'><div class='vertical-center'>(I)</div></div></div>","E","$33<br><br>now","$80<br>in<br>2 weeks","1","33","80","2","THEN"
"html-keyboard-response","33","70776","0.0-5.0-3.9","628419137c4c3ded72e4874d","bdp_td","Mon Mar 27 2023 15:33:26 GMT-0700 (Pacific Daylight Time)","161805","","null","","","","offerFB","","<div class='trialBorder'><div class='vertical-center'><img style='vertical-align:center; align:center' src=img/fixation3.jpg></div><div class='cl'><div class='vertical-center'><font style='color:orange'>$80<br>in<br>2 weeks</font></div></div><div class='cr'><div class='vertical-center'>$33<br><br>now</div></div><div class='respDivL'><div class='vertical-center'><font style='color:orange'>(E)</font></div></div><div class='respDivR'><div class='vertical-center'>(I)</div></div></div>","null","$33<br><br>now","$80<br>in<br>2 weeks","1","33","80","2",""
"html-keyboard-response","34","71278","0.0-5.0-1.10","628419137c4c3ded72e4874d","bdp_td","Mon Mar 27 2023 15:33:26 GMT-0700 (Pacific Daylight Time)","161805","","null","","","","FIX","","<div class='trialBorder'><div class='vertical-center'><img style='vertical-align:center; align:center' src=img/fixation3.jpg></div></div>","null","","","","","","",""
"html-keyboard-response","35","74610","0.0-5.0-2.10","628419137c4c3ded72e4874d","bdp_td","Mon Mar 27 2023 15:33:26 GMT-0700 (Pacific Daylight Time)","161805","","3331","","","","offer","","<div class='trialBorder'><div class='vertical-center'><img style='vertical-align:center; align:center' src=img/fixation3.jpg></div><div class='cl'><div class='vertical-center'>$20<br><br>now</div></div><div class='cr'><div class='vertical-center'>$55<br>in<br>1 week</div></div><div class='respDivL'><div class='vertical-center'>(E)</div></div><div class='respDivR'><div class='vertical-center'>(I)</div></div></div>","I","$20<br><br>now","$55<br>in<br>1 week","0","20","55","1","THEN"
"html-keyboard-response","36","74861","0.0-5.0-3.10","628419137c4c3ded72e4874d","bdp_td","Mon Mar 27 2023 15:33:26 GMT-0700 (Pacific Daylight Time)","161805","","null","","","","offerFB","","<div class='trialBorder'><div class='vertical-center'><img style='vertical-align:center; align:center' src=img/fixation3.jpg></div><div class='cl'><div class='vertical-center'>$20<br><br>now</div></div><div class='cr'><div class='vertical-center'><font style='color:orange'>$55<br>in<br>1 week</font></div></div><div class='respDivL'><div class='vertical-center'>(E)</div></div><div class='respDivR'><div class='vertical-center'><font style='color:orange'>(I)</font></div></div></div>","null","$20<br><br>now","$55<br>in<br>1 week","0","20","55","1",""
"html-keyboard-response","37","75363","0.0-5.0-1.11","628419137c4c3ded72e4874d","bdp_td","Mon Mar 27 2023 15:33:26 GMT-0700 (Pacific Daylight Time)","161805","","null","","","","FIX","","<div class='trialBorder'><div class='vertical-center'><img style='vertical-align:center; align:center' src=img/fixation3.jpg></div></div>","null","","","","","","",""
"html-keyboard-response","38","77830","0.0-5.0-2.11","628419137c4c3ded72e4874d","bdp_td","Mon Mar 27 2023 15:33:26 GMT-0700 (Pacific Daylight Time)","161805","","2467","","","","offer","","<div class='trialBorder'><div class='vertical-center'><img style='vertical-align:center; align:center' src=img/fixation3.jpg></div><div class='cl'><div class='vertical-center'>$34<br><br>now</div></div><div class='cr'><div class='vertical-center'>$35<br>in<br>12 weeks</div></div><div class='respDivL'><div class='vertical-center'>(E)</div></div><div class='respDivR'><div class='vertical-center'>(I)</div></div></div>","E","$34<br><br>now","$35<br>in<br>12 weeks","0","34","35","12","NOW"
"html-keyboard-response","39","78081","0.0-5.0-3.11","628419137c4c3ded72e4874d","bdp_td","Mon Mar 27 2023 15:33:26 GMT-0700 (Pacific Daylight Time)","161805","","null","","","","offerFB","","<div class='trialBorder'><div class='vertical-center'><img style='vertical-align:center; align:center' src=img/fixation3.jpg></div><div class='cl'><div class='vertical-center'><font style='color:orange'>$34<br><br>now</font></div></div><div class='cr'><div class='vertical-center'>$35<br>in<br>12 weeks</div></div><div class='respDivL'><div class='vertical-center'><font style='color:orange'>(E)</font></div></div><div class='respDivR'><div class='vertical-center'>(I)</div></div></div>","null","$34<br><br>now","$35<br>in<br>12 weeks","0","34","35","12",""
"html-keyboard-response","40","78583","0.0-5.0-1.12","628419137c4c3ded72e4874d","bdp_td","Mon Mar 27 2023 15:33:26 GMT-0700 (Pacific Daylight Time)","161805","","null","","","","FIX","","<div class='trialBorder'><div class='vertical-center'><img style='vertical-align:center; align:center' src=img/fixation3.jpg></div></div>","null","","","","","","",""
"html-keyboard-response","41","91619","0.0-5.0-2.12","628419137c4c3ded72e4874d","bdp_td","Mon Mar 27 2023 15:33:26 GMT-0700 (Pacific Daylight Time)","161805","","13036","","","","offer","","<div class='trialBorder'><div class='vertical-center'><img style='vertical-align:center; align:center' src=img/fixation3.jpg></div><div class='cl'><div class='vertical-center'>$25<br>in<br>3 weeks</div></div><div class='cr'><div class='vertical-center'>$14<br><br>now</div></div><div class='respDivL'><div class='vertical-center'>(E)</div></div><div class='respDivR'><div class='vertical-center'>(I)</div></div></div>","I","$14<br><br>now","$25<br>in<br>3 weeks","1","14","25","3","NOW"
"html-keyboard-response","42","91871","0.0-5.0-3.12","628419137c4c3ded72e4874d","bdp_td","Mon Mar 27 2023 15:33:26 GMT-0700 (Pacific Daylight Time)","161805","","null","","","","offerFB","","<div class='trialBorder'><div class='vertical-center'><img style='vertical-align:center; align:center' src=img/fixation3.jpg></div><div class='cl'><div class='vertical-center'>$25<br>in<br>3 weeks</div></div><div class='cr'><div class='vertical-center'><font style='color:orange'>$14<br><br>now</font></div></div><div class='respDivL'><div class='vertical-center'>(E)</div></div><div class='respDivR'><div class='vertical-center'><font style='color:orange'>(I)</font></div></div></div>","null","$14<br><br>now","$25<br>in<br>3 weeks","1","14","25","3",""
"html-keyboard-response","43","92373","0.0-5.0-1.13","628419137c4c3ded72e4874d","bdp_td","Mon Mar 27 2023 15:33:26 GMT-0700 (Pacific Daylight Time)","161805","","null","","","","FIX","","<div class='trialBorder'><div class='vertical-center'><img style='vertical-align:center; align:center' src=img/fixation3.jpg></div></div>","null","","","","","","",""
"html-keyboard-response","44","106932","0.0-5.0-2.13","628419137c4c3ded72e4874d","bdp_td","Mon Mar 27 2023 15:33:26 GMT-0700 (Pacific Daylight Time)","161805","","14558","","","","offer","","<div class='trialBorder'><div class='vertical-center'><img style='vertical-align:center; align:center' src=img/fixation3.jpg></div><div class='cl'><div class='vertical-center'>$50<br>in<br>6 weeks</div></div><div class='cr'><div class='vertical-center'>$34<br><br>now</div></div><div class='respDivL'><div class='vertical-center'>(E)</div></div><div class='respDivR'><div class='vertical-center'>(I)</div></div></div>","I","$34<br><br>now","$50<br>in<br>6 weeks","1","34","50","6","NOW"
"html-keyboard-response","45","107184","0.0-5.0-3.13","628419137c4c3ded72e4874d","bdp_td","Mon Mar 27 2023 15:33:26 GMT-0700 (Pacific Daylight Time)","161805","","null","","","","offerFB","","<div class='trialBorder'><div class='vertical-center'><img style='vertical-align:center; align:center' src=img/fixation3.jpg></div><div class='cl'><div class='vertical-center'>$50<br>in<br>6 weeks</div></div><div class='cr'><div class='vertical-center'><font style='color:orange'>$34<br><br>now</font></div></div><div class='respDivL'><div class='vertical-center'>(E)</div></div><div class='respDivR'><div class='vertical-center'><font style='color:orange'>(I)</font></div></div></div>","null","$34<br><br>now","$50<br>in<br>6 weeks","1","34","50","6",""
"html-keyboard-response","46","107687","0.0-5.0-1.14","628419137c4c3ded72e4874d","bdp_td","Mon Mar 27 2023 15:33:26 GMT-0700 (Pacific Daylight Time)","161805","","null","","","","FIX","","<div class='trialBorder'><div class='vertical-center'><img style='vertical-align:center; align:center' src=img/fixation3.jpg></div></div>","null","","","","","","",""
"html-keyboard-response","47","109411","0.0-5.0-2.14","628419137c4c3ded72e4874d","bdp_td","Mon Mar 27 2023 15:33:26 GMT-0700 (Pacific Daylight Time)","161805","","1724","","","","offer","","<div class='trialBorder'><div class='vertical-center'><img style='vertical-align:center; align:center' src=img/fixation3.jpg></div><div class='cl'><div class='vertical-center'>$55<br>in<br>12 weeks</div></div><div class='cr'><div class='vertical-center'>$54<br><br>now</div></div><div class='respDivL'><div class='vertical-center'>(E)</div></div><div class='respDivR'><div class='vertical-center'>(I)</div></div></div>","I","$54<br><br>now","$55<br>in<br>12 weeks","1","54","55","12","NOW"
"html-keyboard-response","48","109663","0.0-5.0-3.14","628419137c4c3ded72e4874d","bdp_td","Mon Mar 27 2023 15:33:26 GMT-0700 (Pacific Daylight Time)","161805","","null","","","","offerFB","","<div class='trialBorder'><div class='vertical-center'><img style='vertical-align:center; align:center' src=img/fixation3.jpg></div><div class='cl'><div class='vertical-center'>$55<br>in<br>12 weeks</div></div><div class='cr'><div class='vertical-center'><font style='color:orange'>$54<br><br>now</font></div></div><div class='respDivL'><div class='vertical-center'>(E)</div></div><div class='respDivR'><div class='vertical-center'><font style='color:orange'>(I)</font></div></div></div>","null","$54<br><br>now","$55<br>in<br>12 weeks","1","54","55","12",""
"html-keyboard-response","49","110165","0.0-5.0-1.15","628419137c4c3ded72e4874d","bdp_td","Mon Mar 27 2023 15:33:26 GMT-0700 (Pacific Daylight Time)","161805","","null","","","","FIX","","<div class='trialBorder'><div class='vertical-center'><img style='vertical-align:center; align:center' src=img/fixation3.jpg></div></div>","null","","","","","","",""
"html-keyboard-response","50","118910","0.0-5.0-2.15","628419137c4c3ded72e4874d","bdp_td","Mon Mar 27 2023 15:33:26 GMT-0700 (Pacific Daylight Time)","161805","","8744","","","","offer","","<div class='trialBorder'><div class='vertical-center'><img style='vertical-align:center; align:center' src=img/fixation3.jpg></div><div class='cl'><div class='vertical-center'>$54<br><br>now</div></div><div class='cr'><div class='vertical-center'>$80<br>in<br>3 weeks</div></div><div class='respDivL'><div class='vertical-center'>(E)</div></div><div class='respDivR'><div class='vertical-center'>(I)</div></div></div>","E","$54<br><br>now","$80<br>in<br>3 weeks","0","54","80","3","NOW"
"html-keyboard-response","51","119162","0.0-5.0-3.15","628419137c4c3ded72e4874d","bdp_td","Mon Mar 27 2023 15:33:26 GMT-0700 (Pacific Daylight Time)","161805","","null","","","","offerFB","","<div class='trialBorder'><div class='vertical-center'><img style='vertical-align:center; align:center' src=img/fixation3.jpg></div><div class='cl'><div class='vertical-center'><font style='color:orange'>$54<br><br>now</font></div></div><div class='cr'><div class='vertical-center'>$80<br>in<br>3 weeks</div></div><div class='respDivL'><div class='vertical-center'><font style='color:orange'>(E)</font></div></div><div class='respDivR'><div class='vertical-center'>(I)</div></div></div>","null","$54<br><br>now","$80<br>in<br>3 weeks","0","54","80","3",""
"html-keyboard-response","52","119663","0.0-5.0-1.16","628419137c4c3ded72e4874d","bdp_td","Mon Mar 27 2023 15:33:26 GMT-0700 (Pacific Daylight Time)","161805","","null","","","","FIX","","<div class='trialBorder'><div class='vertical-center'><img style='vertical-align:center; align:center' src=img/fixation3.jpg></div></div>","null","","","","","","",""
"html-keyboard-response","53","121166","0.0-5.0-2.16","628419137c4c3ded72e4874d","bdp_td","Mon Mar 27 2023 15:33:26 GMT-0700 (Pacific Daylight Time)","161805","","1502","","","","offer","","<div class='trialBorder'><div class='vertical-center'><img style='vertical-align:center; align:center' src=img/fixation3.jpg></div><div class='cl'><div class='vertical-center'>$22<br><br>now</div></div><div class='cr'><div class='vertical-center'>$25<br>in<br>12 weeks</div></div><div class='respDivL'><div class='vertical-center'>(E)</div></div><div class='respDivR'><div class='vertical-center'>(I)</div></div></div>","E","$22<br><br>now","$25<br>in<br>12 weeks","0","22","25","12","NOW"
"html-keyboard-response","54","121419","0.0-5.0-3.16","628419137c4c3ded72e4874d","bdp_td","Mon Mar 27 2023 15:33:26 GMT-0700 (Pacific Daylight Time)","161805","","null","","","","offerFB","","<div class='trialBorder'><div class='vertical-center'><img style='vertical-align:center; align:center' src=img/fixation3.jpg></div><div class='cl'><div class='vertical-center'><font style='color:orange'>$22<br><br>now</font></div></div><div class='cr'><div class='vertical-center'>$25<br>in<br>12 weeks</div></div><div class='respDivL'><div class='vertical-center'><font style='color:orange'>(E)</font></div></div><div class='respDivR'><div class='vertical-center'>(I)</div></div></div>","null","$22<br><br>now","$25<br>in<br>12 weeks","0","22","25","12",""
"html-keyboard-response","55","121920","0.0-5.0-1.17","628419137c4c3ded72e4874d","bdp_td","Mon Mar 27 2023 15:33:26 GMT-0700 (Pacific Daylight Time)","161805","","null","","","","FIX","","<div class='trialBorder'><div class='vertical-center'><img style='vertical-align:center; align:center' src=img/fixation3.jpg></div></div>","null","","","","","","",""
"html-keyboard-response","56","123956","0.0-5.0-2.17","628419137c4c3ded72e4874d","bdp_td","Mon Mar 27 2023 15:33:26 GMT-0700 (Pacific Daylight Time)","161805","","2035","","","","offer","","<div class='trialBorder'><div class='vertical-center'><img style='vertical-align:center; align:center' src=img/fixation3.jpg></div><div class='cl'><div class='vertical-center'>$30<br>in<br>6 weeks</div></div><div class='cr'><div class='vertical-center'>$25<br><br>now</div></div><div class='respDivL'><div class='vertical-center'>(E)</div></div><div class='respDivR'><div class='vertical-center'>(I)</div></div></div>","I","$25<br><br>now","$30<br>in<br>6 weeks","1","25","30","6","NOW"
"html-keyboard-response","57","124208","0.0-5.0-3.17","628419137c4c3ded72e4874d","bdp_td","Mon Mar 27 2023 15:33:26 GMT-0700 (Pacific Daylight Time)","161805","","null","","","","offerFB","","<div class='trialBorder'><div class='vertical-center'><img style='vertical-align:center; align:center' src=img/fixation3.jpg></div><div class='cl'><div class='vertical-center'>$30<br>in<br>6 weeks</div></div><div class='cr'><div class='vertical-center'><font style='color:orange'>$25<br><br>now</font></div></div><div class='respDivL'><div class='vertical-center'>(E)</div></div><div class='respDivR'><div class='vertical-center'><font style='color:orange'>(I)</font></div></div></div>","null","$25<br><br>now","$30<br>in<br>6 weeks","1","25","30","6",""
"html-keyboard-response","58","124710","0.0-5.0-1.18","628419137c4c3ded72e4874d","bdp_td","Mon Mar 27 2023 15:33:26 GMT-0700 (Pacific Daylight Time)","161805","","null","","","","FIX","","<div class='trialBorder'><div class='vertical-center'><img style='vertical-align:center; align:center' src=img/fixation3.jpg></div></div>","null","","","","","","",""
"html-keyboard-response","59","130125","0.0-5.0-2.18","628419137c4c3ded72e4874d","bdp_td","Mon Mar 27 2023 15:33:26 GMT-0700 (Pacific Daylight Time)","161805","","5415","","","","offer","","<div class='trialBorder'><div class='vertical-center'><img style='vertical-align:center; align:center' src=img/fixation3.jpg></div><div class='cl'><div class='vertical-center'>$11<br><br>now</div></div><div class='cr'><div class='vertical-center'>$30<br>in<br>2 weeks</div></div><div class='respDivL'><div class='vertical-center'>(E)</div></div><div class='respDivR'><div class='vertical-center'>(I)</div></div></div>","I","$11<br><br>now","$30<br>in<br>2 weeks","0","11","30","2","THEN"
"html-keyboard-response","60","130377","0.0-5.0-3.18","628419137c4c3ded72e4874d","bdp_td","Mon Mar 27 2023 15:33:26 GMT-0700 (Pacific Daylight Time)","161805","","null","","","","offerFB","","<div class='trialBorder'><div class='vertical-center'><img style='vertical-align:center; align:center' src=img/fixation3.jpg></div><div class='cl'><div class='vertical-center'>$11<br><br>now</div></div><div class='cr'><div class='vertical-center'><font style='color:orange'>$30<br>in<br>2 weeks</font></div></div><div class='respDivL'><div class='vertical-center'>(E)</div></div><div class='respDivR'><div class='vertical-center'><font style='color:orange'>(I)</font></div></div></div>","null","$11<br><br>now","$30<br>in<br>2 weeks","0","11","30","2",""
"html-keyboard-response","61","130878","0.0-5.0-1.19","628419137c4c3ded72e4874d","bdp_td","Mon Mar 27 2023 15:33:26 GMT-0700 (Pacific Daylight Time)","161805","","null","","","","FIX","","<div class='trialBorder'><div class='vertical-center'><img style='vertical-align:center; align:center' src=img/fixation3.jpg></div></div>","null","","","","","","",""
"html-keyboard-response","62","132390","0.0-5.0-2.19","628419137c4c3ded72e4874d","bdp_td","Mon Mar 27 2023 15:33:26 GMT-0700 (Pacific Daylight Time)","161805","","1511","","","","offer","","<div class='trialBorder'><div class='vertical-center'><img style='vertical-align:center; align:center' src=img/fixation3.jpg></div><div class='cl'><div class='vertical-center'>$40<br><br>now</div></div><div class='cr'><div class='vertical-center'>$55<br>in<br>6 weeks</div></div><div class='respDivL'><div class='vertical-center'>(E)</div></div><div class='respDivR'><div class='vertical-center'>(I)</div></div></div>","E","$40<br><br>now","$55<br>in<br>6 weeks","0","40","55","6","NOW"
"html-keyboard-response","63","132642","0.0-5.0-3.19","628419137c4c3ded72e4874d","bdp_td","Mon Mar 27 2023 15:33:26 GMT-0700 (Pacific Daylight Time)","161805","","null","","","","offerFB","","<div class='trialBorder'><div class='vertical-center'><img style='vertical-align:center; align:center' src=img/fixation3.jpg></div><div class='cl'><div class='vertical-center'><font style='color:orange'>$40<br><br>now</font></div></div><div class='cr'><div class='vertical-center'>$55<br>in<br>6 weeks</div></div><div class='respDivL'><div class='vertical-center'><font style='color:orange'>(E)</font></div></div><div class='respDivR'><div class='vertical-center'>(I)</div></div></div>","null","$40<br><br>now","$55<br>in<br>6 weeks","0","40","55","6",""
"html-keyboard-response","64","133143","0.0-5.0-1.20","628419137c4c3ded72e4874d","bdp_td","Mon Mar 27 2023 15:33:26 GMT-0700 (Pacific Daylight Time)","161805","","null","","","","FIX","","<div class='trialBorder'><div class='vertical-center'><img style='vertical-align:center; align:center' src=img/fixation3.jpg></div></div>","null","","","","","","",""
"html-keyboard-response","65","138514","0.0-5.0-2.20","628419137c4c3ded72e4874d","bdp_td","Mon Mar 27 2023 15:33:26 GMT-0700 (Pacific Daylight Time)","161805","","5371","","","","offer","","<div class='trialBorder'><div class='vertical-center'><img style='vertical-align:center; align:center' src=img/fixation3.jpg></div><div class='cl'><div class='vertical-center'>$69<br><br>now</div></div><div class='cr'><div class='vertical-center'>$85<br>in<br>6 weeks</div></div><div class='respDivL'><div class='vertical-center'>(E)</div></div><div class='respDivR'><div class='vertical-center'>(I)</div></div></div>","E","$69<br><br>now","$85<br>in<br>6 weeks","0","69","85","6","NOW"
"html-keyboard-response","66","138765","0.0-5.0-3.20","628419137c4c3ded72e4874d","bdp_td","Mon Mar 27 2023 15:33:26 GMT-0700 (Pacific Daylight Time)","161805","","null","","","","offerFB","","<div class='trialBorder'><div class='vertical-center'><img style='vertical-align:center; align:center' src=img/fixation3.jpg></div><div class='cl'><div class='vertical-center'><font style='color:orange'>$69<br><br>now</font></div></div><div class='cr'><div class='vertical-center'>$85<br>in<br>6 weeks</div></div><div class='respDivL'><div class='vertical-center'><font style='color:orange'>(E)</font></div></div><div class='respDivR'><div class='vertical-center'>(I)</div></div></div>","null","$69<br><br>now","$85<br>in<br>6 weeks","0","69","85","6",""
"html-keyboard-response","67","139268","0.0-5.0-1.21","628419137c4c3ded72e4874d","bdp_td","Mon Mar 27 2023 15:33:26 GMT-0700 (Pacific Daylight Time)","161805","","null","","","","FIX","","<div class='trialBorder'><div class='vertical-center'><img style='vertical-align:center; align:center' src=img/fixation3.jpg></div></div>","null","","","","","","",""
"html-keyboard-response","68","145830","0.0-5.0-2.21","628419137c4c3ded72e4874d","bdp_td","Mon Mar 27 2023 15:33:26 GMT-0700 (Pacific Daylight Time)","161805","","6562","","","","offer","","<div class='trialBorder'><div class='vertical-center'><img style='vertical-align:center; align:center' src=img/fixation3.jpg></div><div class='cl'><div class='vertical-center'>$35<br>in<br>3 weeks</div></div><div class='cr'><div class='vertical-center'>$24<br><br>now</div></div><div class='respDivL'><div class='vertical-center'>(E)</div></div><div class='respDivR'><div class='vertical-center'>(I)</div></div></div>","I","$24<br><br>now","$35<br>in<br>3 weeks","1","24","35","3","NOW"
"html-keyboard-response","69","146082","0.0-5.0-3.21","628419137c4c3ded72e4874d","bdp_td","Mon Mar 27 2023 15:33:26 GMT-0700 (Pacific Daylight Time)","161805","","null","","","","offerFB","","<div class='trialBorder'><div class='vertical-center'><img style='vertical-align:center; align:center' src=img/fixation3.jpg></div><div class='cl'><div class='vertical-center'>$35<br>in<br>3 weeks</div></div><div class='cr'><div class='vertical-center'><font style='color:orange'>$24<br><br>now</font></div></div><div class='respDivL'><div class='vertical-center'>(E)</div></div><div class='respDivR'><div class='vertical-center'><font style='color:orange'>(I)</font></div></div></div>","null","$24<br><br>now","$35<br>in<br>3 weeks","1","24","35","3",""
"html-keyboard-response","70","146584","0.0-5.0-1.22","628419137c4c3ded72e4874d","bdp_td","Mon Mar 27 2023 15:33:26 GMT-0700 (Pacific Daylight Time)","161805","","null","","","","FIX","","<div class='trialBorder'><div class='vertical-center'><img style='vertical-align:center; align:center' src=img/fixation3.jpg></div></div>","null","","","","","","",""
"html-keyboard-response","71","149632","0.0-5.0-2.22","628419137c4c3ded72e4874d","bdp_td","Mon Mar 27 2023 15:33:26 GMT-0700 (Pacific Daylight Time)","161805","","3047","","","","offer","","<div class='trialBorder'><div class='vertical-center'><img style='vertical-align:center; align:center' src=img/fixation3.jpg></div><div class='cl'><div class='vertical-center'>$31<br><br>now</div></div><div class='cr'><div class='vertical-center'>$85<br>in<br>1 week</div></div><div class='respDivL'><div class='vertical-center'>(E)</div></div><div class='respDivR'><div class='vertical-center'>(I)</div></div></div>","I","$31<br><br>now","$85<br>in<br>1 week","0","31","85","1","THEN"
"html-keyboard-response","72","149884","0.0-5.0-3.22","628419137c4c3ded72e4874d","bdp_td","Mon Mar 27 2023 15:33:26 GMT-0700 (Pacific Daylight Time)","161805","","null","","","","offerFB","","<div class='trialBorder'><div class='vertical-center'><img style='vertical-align:center; align:center' src=img/fixation3.jpg></div><div class='cl'><div class='vertical-center'>$31<br><br>now</div></div><div class='cr'><div class='vertical-center'><font style='color:orange'>$85<br>in<br>1 week</font></div></div><div class='respDivL'><div class='vertical-center'>(E)</div></div><div class='respDivR'><div class='vertical-center'><font style='color:orange'>(I)</font></div></div></div>","null","$31<br><br>now","$85<br>in<br>1 week","0","31","85","1",""
"html-keyboard-response","73","150387","0.0-5.0-1.23","628419137c4c3ded72e4874d","bdp_td","Mon Mar 27 2023 15:33:26 GMT-0700 (Pacific Daylight Time)","161805","","null","","","","FIX","","<div class='trialBorder'><div class='vertical-center'><img style='vertical-align:center; align:center' src=img/fixation3.jpg></div></div>","null","","","","","","",""
"html-keyboard-response","74","152479","0.0-5.0-2.23","628419137c4c3ded72e4874d","bdp_td","Mon Mar 27 2023 15:33:26 GMT-0700 (Pacific Daylight Time)","161805","","2091","","","","offer","","<div class='trialBorder'><div class='vertical-center'><img style='vertical-align:center; align:center' src=img/fixation3.jpg></div><div class='cl'><div class='vertical-center'>$41<br><br>now</div></div><div class='cr'><div class='vertical-center'>$75<br>in<br>3 weeks</div></div><div class='respDivL'><div class='vertical-center'>(E)</div></div><div class='respDivR'><div class='vertical-center'>(I)</div></div></div>","E","$41<br><br>now","$75<br>in<br>3 weeks","0","41","75","3","NOW"
"html-keyboard-response","75","152732","0.0-5.0-3.23","628419137c4c3ded72e4874d","bdp_td","Mon Mar 27 2023 15:33:26 GMT-0700 (Pacific Daylight Time)","161805","","null","","","","offerFB","","<div class='trialBorder'><div class='vertical-center'><img style='vertical-align:center; align:center' src=img/fixation3.jpg></div><div class='cl'><div class='vertical-center'><font style='color:orange'>$41<br><br>now</font></div></div><div class='cr'><div class='vertical-center'>$75<br>in<br>3 weeks</div></div><div class='respDivL'><div class='vertical-center'><font style='color:orange'>(E)</font></div></div><div class='respDivR'><div class='vertical-center'>(I)</div></div></div>","null","$41<br><br>now","$75<br>in<br>3 weeks","0","41","75","3",""
"html-keyboard-response","76","153233","0.0-5.0-1.24","628419137c4c3ded72e4874d","bdp_td","Mon Mar 27 2023 15:33:26 GMT-0700 (Pacific Daylight Time)","161805","","null","","","","FIX","","<div class='trialBorder'><div class='vertical-center'><img style='vertical-align:center; align:center' src=img/fixation3.jpg></div></div>","null","","","","","","",""
"html-keyboard-response","77","154784","0.0-5.0-2.24","628419137c4c3ded72e4874d","bdp_td","Mon Mar 27 2023 15:33:26 GMT-0700 (Pacific Daylight Time)","161805","","1550","","","","offer","","<div class='trialBorder'><div class='vertical-center'><img style='vertical-align:center; align:center' src=img/fixation3.jpg></div><div class='cl'><div class='vertical-center'>$80<br>in<br>12 weeks</div></div><div class='cr'><div class='vertical-center'>$78<br><br>now</div></div><div class='respDivL'><div class='vertical-center'>(E)</div></div><div class='respDivR'><div class='vertical-center'>(I)</div></div></div>","I","$78<br><br>now","$80<br>in<br>12 weeks","1","78","80","12","NOW"
"html-keyboard-response","78","155037","0.0-5.0-3.24","628419137c4c3ded72e4874d","bdp_td","Mon Mar 27 2023 15:33:26 GMT-0700 (Pacific Daylight Time)","161805","","null","","","","offerFB","","<div class='trialBorder'><div class='vertical-center'><img style='vertical-align:center; align:center' src=img/fixation3.jpg></div><div class='cl'><div class='vertical-center'>$80<br>in<br>12 weeks</div></div><div class='cr'><div class='vertical-center'><font style='color:orange'>$78<br><br>now</font></div></div><div class='respDivL'><div class='vertical-center'>(E)</div></div><div class='respDivR'><div class='vertical-center'><font style='color:orange'>(I)</font></div></div></div>","null","$78<br><br>now","$80<br>in<br>12 weeks","1","78","80","12",""
"html-keyboard-response","79","155538","0.0-5.0-1.25","628419137c4c3ded72e4874d","bdp_td","Mon Mar 27 2023 15:33:26 GMT-0700 (Pacific Daylight Time)","161805","","null","","","","FIX","","<div class='trialBorder'><div class='vertical-center'><img style='vertical-align:center; align:center' src=img/fixation3.jpg></div></div>","null","","","","","","",""
"html-keyboard-response","80","157551","0.0-5.0-2.25","628419137c4c3ded72e4874d","bdp_td","Mon Mar 27 2023 15:33:26 GMT-0700 (Pacific Daylight Time)","161805","","2012","","","","offer","","<div class='trialBorder'><div class='vertical-center'><img style='vertical-align:center; align:center' src=img/fixation3.jpg></div><div class='cl'><div class='vertical-center'>$60<br>in<br>12 weeks</div></div><div class='cr'><div class='vertical-center'>$54<br><br>now</div></div><div class='respDivL'><div class='vertical-center'>(E)</div></div><div class='respDivR'><div class='vertical-center'>(I)</div></div></div>","I","$54<br><br>now","$60<br>in<br>12 weeks","1","54","60","12","NOW"
"html-keyboard-response","81","157803","0.0-5.0-3.25","628419137c4c3ded72e4874d","bdp_td","Mon Mar 27 2023 15:33:26 GMT-0700 (Pacific Daylight Time)","161805","","null","","","","offerFB","","<div class='trialBorder'><div class='vertical-center'><img style='vertical-align:center; align:center' src=img/fixation3.jpg></div><div class='cl'><div class='vertical-center'>$60<br>in<br>12 weeks</div></div><div class='cr'><div class='vertical-center'><font style='color:orange'>$54<br><br>now</font></div></div><div class='respDivL'><div class='vertical-center'>(E)</div></div><div class='respDivR'><div class='vertical-center'><font style='color:orange'>(I)</font></div></div></div>","null","$54<br><br>now","$60<br>in<br>12 weeks","1","54","60","12",""
"html-keyboard-response","82","158305","0.0-5.0-1.26","628419137c4c3ded72e4874d","bdp_td","Mon Mar 27 2023 15:33:26 GMT-0700 (Pacific Daylight Time)","161805","","null","","","","FIX","","<div class='trialBorder'><div class='vertical-center'><img style='vertical-align:center; align:center' src=img/fixation3.jpg></div></div>","null","","","","","","",""
"html-keyboard-response","83","160552","0.0-5.0-2.26","628419137c4c3ded72e4874d","bdp_td","Mon Mar 27 2023 15:33:26 GMT-0700 (Pacific Daylight Time)","161805","","2246","","","","offer","","<div class='trialBorder'><div class='vertical-center'><img style='vertical-align:center; align:center' src=img/fixation3.jpg></div><div class='cl'><div class='vertical-center'>$49<br><br>now</div></div><div class='cr'><div class='vertical-center'>$60<br>in<br>6 weeks</div></div><div class='respDivL'><div class='vertical-center'>(E)</div></div><div class='respDivR'><div class='vertical-center'>(I)</div></div></div>","E","$49<br><br>now","$60<br>in<br>6 weeks","0","49","60","6","NOW"
"html-keyboard-response","84","160803","0.0-5.0-3.26","628419137c4c3ded72e4874d","bdp_td","Mon Mar 27 2023 15:33:26 GMT-0700 (Pacific Daylight Time)","161805","","null","","","","offerFB","","<div class='trialBorder'><div class='vertical-center'><img style='vertical-align:center; align:center' src=img/fixation3.jpg></div><div class='cl'><div class='vertical-center'><font style='color:orange'>$49<br><br>now</font></div></div><div class='cr'><div class='vertical-center'>$60<br>in<br>6 weeks</div></div><div class='respDivL'><div class='vertical-center'><font style='color:orange'>(E)</font></div></div><div class='respDivR'><div class='vertical-center'>(I)</div></div></div>","null","$49<br><br>now","$60<br>in<br>6 weeks","0","49","60","6",""
"","","","","628419137c4c3ded72e4874d","bdp_td","Mon Mar 27 2023 15:33:26 GMT-0700 (Pacific Daylight Time)","161805","","","fullscreenexit","85","160813","fullscreenexit","","","","","","","","","",""
"fullscreen","85","161805","0.0-6.0","628419137c4c3ded72e4874d","bdp_td","Mon Mar 27 2023 15:33:26 GMT-0700 (Pacific Daylight Time)","161805","","","","","","","true","","","","","","","","",""
"html-keyboard-response","86","162306","0.0-7.0","","","","","","null","","","","","","","null","","","","","","",""
