"trial_type","trial_index","time_elapsed","internal_node_id","subject_id","task","startTime","totalTime","view_history","rt","event","trial","time","trialtype","success","stimulus","key_press","nowOffer","thenOffer","thenLeft","nowAmt","thenAmt","thenWeeks","chosen"
"pavlovia","0","3","0.0-0.0","63f7eb4fd0c75f760998818c","bdp_td","Mon Mar 27 2023 15:13:29 GMT-0700 (Pacific Daylight Time)","149046","","","","","","","","","","","","","","","",""
"instructions","1","4821","0.0-1.0","63f7eb4fd0c75f760998818c","bdp_td","Mon Mar 27 2023 15:13:29 GMT-0700 (Pacific Daylight Time)","149046","[{""page_index"":0,""viewing_time"":4818}]","4818","","","","","","","","","","","","","",""
"","","","","63f7eb4fd0c75f760998818c","bdp_td","Mon Mar 27 2023 15:13:29 GMT-0700 (Pacific Daylight Time)","149046","","","fullscreenenter","2","7588","fullscreenenter","","","","","","","","","",""
"fullscreen","2","8584","0.0-2.0","63f7eb4fd0c75f760998818c","bdp_td","Mon Mar 27 2023 15:13:29 GMT-0700 (Pacific Daylight Time)","149046","","","","","","","true","","","","","","","","",""
"instructions","3","31879","0.0-4.0","63f7eb4fd0c75f760998818c","bdp_td","Mon Mar 27 2023 15:13:29 GMT-0700 (Pacific Daylight Time)","149046","[{""page_index"":0,""viewing_time"":11991},{""page_index"":1,""viewing_time"":8160},{""page_index"":2,""viewing_time"":3142}]","23293","","","","","","","","","","","","","",""
"html-keyboard-response","4","32382","0.0-5.0-1.0","63f7eb4fd0c75f760998818c","bdp_td","Mon Mar 27 2023 15:13:29 GMT-0700 (Pacific Daylight Time)","149046","","null","","","","FIX","","<div class='trialBorder'><div class='vertical-center'><img style='vertical-align:center; align:center' src=img/fixation3.jpg></div></div>","null","","","","","","",""
"html-keyboard-response","5","35265","0.0-5.0-2.0","63f7eb4fd0c75f760998818c","bdp_td","Mon Mar 27 2023 15:13:29 GMT-0700 (Pacific Daylight Time)","149046","","2878","","","","offer","","<div class='trialBorder'><div class='vertical-center'><img style='vertical-align:center; align:center' src=img/fixation3.jpg></div><div class='cl'><div class='vertical-center'>$25<br><br>now</div></div><div class='cr'><div class='vertical-center'>$30<br>in<br>6 weeks</div></div><div class='respDivL'><div class='vertical-center'>(E)</div></div><div class='respDivR'><div class='vertical-center'>(I)</div></div></div>","E","$25<br><br>now","$30<br>in<br>6 weeks","0","25","30","6","NOW"
"html-keyboard-response","6","35543","0.0-5.0-3.0","63f7eb4fd0c75f760998818c","bdp_td","Mon Mar 27 2023 15:13:29 GMT-0700 (Pacific Daylight Time)","149046","","null","","","","offerFB","","<div class='trialBorder'><div class='vertical-center'><img style='vertical-align:center; align:center' src=img/fixation3.jpg></div><div class='cl'><div class='vertical-center'><font style='color:orange'>$25<br><br>now</font></div></div><div class='cr'><div class='vertical-center'>$30<br>in<br>6 weeks</div></div><div class='respDivL'><div class='vertical-center'><font style='color:orange'>(E)</font></div></div><div class='respDivR'><div class='vertical-center'>(I)</div></div></div>","null","$25<br><br>now","$30<br>in<br>6 weeks","0","25","30","6",""
"html-keyboard-response","7","36048","0.0-5.0-1.1","63f7eb4fd0c75f760998818c","bdp_td","Mon Mar 27 2023 15:13:29 GMT-0700 (Pacific Daylight Time)","149046","","null","","","","FIX","","<div class='trialBorder'><div class='vertical-center'><img style='vertical-align:center; align:center' src=img/fixation3.jpg></div></div>","null","","","","","","",""
"html-keyboard-response","8","38128","0.0-5.0-2.1","63f7eb4fd0c75f760998818c","bdp_td","Mon Mar 27 2023 15:13:29 GMT-0700 (Pacific Daylight Time)","149046","","2078","","","","offer","","<div class='trialBorder'><div class='vertical-center'><img style='vertical-align:center; align:center' src=img/fixation3.jpg></div><div class='cl'><div class='vertical-center'>$33<br><br>now</div></div><div class='cr'><div class='vertical-center'>$80<br>in<br>2 weeks</div></div><div class='respDivL'><div class='vertical-center'>(E)</div></div><div class='respDivR'><div class='vertical-center'>(I)</div></div></div>","I","$33<br><br>now","$80<br>in<br>2 weeks","0","33","80","2","THEN"
"html-keyboard-response","9","38387","0.0-5.0-3.1","63f7eb4fd0c75f760998818c","bdp_td","Mon Mar 27 2023 15:13:29 GMT-0700 (Pacific Daylight Time)","149046","","null","","","","offerFB","","<div class='trialBorder'><div class='vertical-center'><img style='vertical-align:center; align:center' src=img/fixation3.jpg></div><div class='cl'><div class='vertical-center'>$33<br><br>now</div></div><div class='cr'><div class='vertical-center'><font style='color:orange'>$80<br>in<br>2 weeks</font></div></div><div class='respDivL'><div class='vertical-center'>(E)</div></div><div class='respDivR'><div class='vertical-center'><font style='color:orange'>(I)</font></div></div></div>","null","$33<br><br>now","$80<br>in<br>2 weeks","0","33","80","2",""
"html-keyboard-response","10","38905","0.0-5.0-1.2","63f7eb4fd0c75f760998818c","bdp_td","Mon Mar 27 2023 15:13:29 GMT-0700 (Pacific Daylight Time)","149046","","null","","","","FIX","","<div class='trialBorder'><div class='vertical-center'><img style='vertical-align:center; align:center' src=img/fixation3.jpg></div></div>","null","","","","","","",""
"html-keyboard-response","11","40551","0.0-5.0-2.2","63f7eb4fd0c75f760998818c","bdp_td","Mon Mar 27 2023 15:13:29 GMT-0700 (Pacific Daylight Time)","149046","","1645","","","","offer","","<div class='trialBorder'><div class='vertical-center'><img style='vertical-align:center; align:center' src=img/fixation3.jpg></div><div class='cl'><div class='vertical-center'>$54<br><br>now</div></div><div class='cr'><div class='vertical-center'>$60<br>in<br>12 weeks</div></div><div class='respDivL'><div class='vertical-center'>(E)</div></div><div class='respDivR'><div class='vertical-center'>(I)</div></div></div>","E","$54<br><br>now","$60<br>in<br>12 weeks","0","54","60","12","NOW"
"html-keyboard-response","12","40813","0.0-5.0-3.2","63f7eb4fd0c75f760998818c","bdp_td","Mon Mar 27 2023 15:13:29 GMT-0700 (Pacific Daylight Time)","149046","","null","","","","offerFB","","<div class='trialBorder'><div class='vertical-center'><img style='vertical-align:center; align:center' src=img/fixation3.jpg></div><div class='cl'><div class='vertical-center'><font style='color:orange'>$54<br><br>now</font></div></div><div class='cr'><div class='vertical-center'>$60<br>in<br>12 weeks</div></div><div class='respDivL'><div class='vertical-center'><font style='color:orange'>(E)</font></div></div><div class='respDivR'><div class='vertical-center'>(I)</div></div></div>","null","$54<br><br>now","$60<br>in<br>12 weeks","0","54","60","12",""
"html-keyboard-response","13","41322","0.0-5.0-1.3","63f7eb4fd0c75f760998818c","bdp_td","Mon Mar 27 2023 15:13:29 GMT-0700 (Pacific Daylight Time)","149046","","null","","","","FIX","","<div class='trialBorder'><div class='vertical-center'><img style='vertical-align:center; align:center' src=img/fixation3.jpg></div></div>","null","","","","","","",""
"html-keyboard-response","14","43839","0.0-5.0-2.3","63f7eb4fd0c75f760998818c","bdp_td","Mon Mar 27 2023 15:13:29 GMT-0700 (Pacific Daylight Time)","149046","","2516","","","","offer","","<div class='trialBorder'><div class='vertical-center'><img style='vertical-align:center; align:center' src=img/fixation3.jpg></div><div class='cl'><div class='vertical-center'>$80<br>in<br>12 weeks</div></div><div class='cr'><div class='vertical-center'>$78<br><br>now</div></div><div class='respDivL'><div class='vertical-center'>(E)</div></div><div class='respDivR'><div class='vertical-center'>(I)</div></div></div>","I","$78<br><br>now","$80<br>in<br>12 weeks","1","78","80","12","NOW"
"html-keyboard-response","15","44087","0.0-5.0-3.3","63f7eb4fd0c75f760998818c","bdp_td","Mon Mar 27 2023 15:13:29 GMT-0700 (Pacific Daylight Time)","149046","","null","","","","offerFB","","<div class='trialBorder'><div class='vertical-center'><img style='vertical-align:center; align:center' src=img/fixation3.jpg></div><div class='cl'><div class='vertical-center'>$80<br>in<br>12 weeks</div></div><div class='cr'><div class='vertical-center'><font style='color:orange'>$78<br><br>now</font></div></div><div class='respDivL'><div class='vertical-center'>(E)</div></div><div class='respDivR'><div class='vertical-center'><font style='color:orange'>(I)</font></div></div></div>","null","$78<br><br>now","$80<br>in<br>12 weeks","1","78","80","12",""
"html-keyboard-response","16","44606","0.0-5.0-1.4","63f7eb4fd0c75f760998818c","bdp_td","Mon Mar 27 2023 15:13:29 GMT-0700 (Pacific Daylight Time)","149046","","null","","","","FIX","","<div class='trialBorder'><div class='vertical-center'><img style='vertical-align:center; align:center' src=img/fixation3.jpg></div></div>","null","","","","","","",""
"html-keyboard-response","17","47303","0.0-5.0-2.4","63f7eb4fd0c75f760998818c","bdp_td","Mon Mar 27 2023 15:13:29 GMT-0700 (Pacific Daylight Time)","149046","","2696","","","","offer","","<div class='trialBorder'><div class='vertical-center'><img style='vertical-align:center; align:center' src=img/fixation3.jpg></div><div class='cl'><div class='vertical-center'>$55<br>in<br>6 weeks</div></div><div class='cr'><div class='vertical-center'>$40<br><br>now</div></div><div class='respDivL'><div class='vertical-center'>(E)</div></div><div class='respDivR'><div class='vertical-center'>(I)</div></div></div>","I","$40<br><br>now","$55<br>in<br>6 weeks","1","40","55","6","NOW"
"html-keyboard-response","18","47561","0.0-5.0-3.4","63f7eb4fd0c75f760998818c","bdp_td","Mon Mar 27 2023 15:13:29 GMT-0700 (Pacific Daylight Time)","149046","","null","","","","offerFB","","<div class='trialBorder'><div class='vertical-center'><img style='vertical-align:center; align:center' src=img/fixation3.jpg></div><div class='cl'><div class='vertical-center'>$55<br>in<br>6 weeks</div></div><div class='cr'><div class='vertical-center'><font style='color:orange'>$40<br><br>now</font></div></div><div class='respDivL'><div class='vertical-center'>(E)</div></div><div class='respDivR'><div class='vertical-center'><font style='color:orange'>(I)</font></div></div></div>","null","$40<br><br>now","$55<br>in<br>6 weeks","1","40","55","6",""
"html-keyboard-response","19","48070","0.0-5.0-1.5","63f7eb4fd0c75f760998818c","bdp_td","Mon Mar 27 2023 15:13:29 GMT-0700 (Pacific Daylight Time)","149046","","null","","","","FIX","","<div class='trialBorder'><div class='vertical-center'><img style='vertical-align:center; align:center' src=img/fixation3.jpg></div></div>","null","","","","","","",""
"html-keyboard-response","20","49783","0.0-5.0-2.5","63f7eb4fd0c75f760998818c","bdp_td","Mon Mar 27 2023 15:13:29 GMT-0700 (Pacific Daylight Time)","149046","","1712","","","","offer","","<div class='trialBorder'><div class='vertical-center'><img style='vertical-align:center; align:center' src=img/fixation3.jpg></div><div class='cl'><div class='vertical-center'>$35<br>in<br>12 weeks</div></div><div class='cr'><div class='vertical-center'>$34<br><br>now</div></div><div class='respDivL'><div class='vertical-center'>(E)</div></div><div class='respDivR'><div class='vertical-center'>(I)</div></div></div>","I","$34<br><br>now","$35<br>in<br>12 weeks","1","34","35","12","NOW"
"html-keyboard-response","21","50037","0.0-5.0-3.5","63f7eb4fd0c75f760998818c","bdp_td","Mon Mar 27 2023 15:13:29 GMT-0700 (Pacific Daylight Time)","149046","","null","","","","offerFB","","<div class='trialBorder'><div class='vertical-center'><img style='vertical-align:center; align:center' src=img/fixation3.jpg></div><div class='cl'><div class='vertical-center'>$35<br>in<br>12 weeks</div></div><div class='cr'><div class='vertical-center'><font style='color:orange'>$34<br><br>now</font></div></div><div class='respDivL'><div class='vertical-center'>(E)</div></div><div class='respDivR'><div class='vertical-center'><font style='color:orange'>(I)</font></div></div></div>","null","$34<br><br>now","$35<br>in<br>12 weeks","1","34","35","12",""
"html-keyboard-response","22","50546","0.0-5.0-1.6","63f7eb4fd0c75f760998818c","bdp_td","Mon Mar 27 2023 15:13:29 GMT-0700 (Pacific Daylight Time)","149046","","null","","","","FIX","","<div class='trialBorder'><div class='vertical-center'><img style='vertical-align:center; align:center' src=img/fixation3.jpg></div></div>","null","","","","","","",""
"html-keyboard-response","23","51937","0.0-5.0-2.6","63f7eb4fd0c75f760998818c","bdp_td","Mon Mar 27 2023 15:13:29 GMT-0700 (Pacific Daylight Time)","149046","","1390","","","","offer","","<div class='trialBorder'><div class='vertical-center'><img style='vertical-align:center; align:center' src=img/fixation3.jpg></div><div class='cl'><div class='vertical-center'>$55<br>in<br>1 week</div></div><div class='cr'><div class='vertical-center'>$20<br><br>now</div></div><div class='respDivL'><div class='vertical-center'>(E)</div></div><div class='respDivR'><div class='vertical-center'>(I)</div></div></div>","E","$20<br><br>now","$55<br>in<br>1 week","1","20","55","1","THEN"
"html-keyboard-response","24","52188","0.0-5.0-3.6","63f7eb4fd0c75f760998818c","bdp_td","Mon Mar 27 2023 15:13:29 GMT-0700 (Pacific Daylight Time)","149046","","null","","","","offerFB","","<div class='trialBorder'><div class='vertical-center'><img style='vertical-align:center; align:center' src=img/fixation3.jpg></div><div class='cl'><div class='vertical-center'><font style='color:orange'>$55<br>in<br>1 week</font></div></div><div class='cr'><div class='vertical-center'>$20<br><br>now</div></div><div class='respDivL'><div class='vertical-center'><font style='color:orange'>(E)</font></div></div><div class='respDivR'><div class='vertical-center'>(I)</div></div></div>","null","$20<br><br>now","$55<br>in<br>1 week","1","20","55","1",""
"html-keyboard-response","25","52701","0.0-5.0-1.7","63f7eb4fd0c75f760998818c","bdp_td","Mon Mar 27 2023 15:13:29 GMT-0700 (Pacific Daylight Time)","149046","","null","","","","FIX","","<div class='trialBorder'><div class='vertical-center'><img style='vertical-align:center; align:center' src=img/fixation3.jpg></div></div>","null","","","","","","",""
"html-keyboard-response","26","56412","0.0-5.0-2.7","63f7eb4fd0c75f760998818c","bdp_td","Mon Mar 27 2023 15:13:29 GMT-0700 (Pacific Daylight Time)","149046","","3708","","","","offer","","<div class='trialBorder'><div class='vertical-center'><img style='vertical-align:center; align:center' src=img/fixation3.jpg></div><div class='cl'><div class='vertical-center'>$25<br>in<br>3 weeks</div></div><div class='cr'><div class='vertical-center'>$14<br><br>now</div></div><div class='respDivL'><div class='vertical-center'>(E)</div></div><div class='respDivR'><div class='vertical-center'>(I)</div></div></div>","I","$14<br><br>now","$25<br>in<br>3 weeks","1","14","25","3","NOW"
"html-keyboard-response","27","56678","0.0-5.0-3.7","63f7eb4fd0c75f760998818c","bdp_td","Mon Mar 27 2023 15:13:29 GMT-0700 (Pacific Daylight Time)","149046","","null","","","","offerFB","","<div class='trialBorder'><div class='vertical-center'><img style='vertical-align:center; align:center' src=img/fixation3.jpg></div><div class='cl'><div class='vertical-center'>$25<br>in<br>3 weeks</div></div><div class='cr'><div class='vertical-center'><font style='color:orange'>$14<br><br>now</font></div></div><div class='respDivL'><div class='vertical-center'>(E)</div></div><div class='respDivR'><div class='vertical-center'><font style='color:orange'>(I)</font></div></div></div>","null","$14<br><br>now","$25<br>in<br>3 weeks","1","14","25","3",""
"html-keyboard-response","28","57192","0.0-5.0-1.8","63f7eb4fd0c75f760998818c","bdp_td","Mon Mar 27 2023 15:13:29 GMT-0700 (Pacific Daylight Time)","149046","","null","","","","FIX","","<div class='trialBorder'><div class='vertical-center'><img style='vertical-align:center; align:center' src=img/fixation3.jpg></div></div>","null","","","","","","",""
"html-keyboard-response","29","60732","0.0-5.0-2.8","63f7eb4fd0c75f760998818c","bdp_td","Mon Mar 27 2023 15:13:29 GMT-0700 (Pacific Daylight Time)","149046","","3536","","","","offer","","<div class='trialBorder'><div class='vertical-center'><img style='vertical-align:center; align:center' src=img/fixation3.jpg></div><div class='cl'><div class='vertical-center'>$11<br><br>now</div></div><div class='cr'><div class='vertical-center'>$30<br>in<br>2 weeks</div></div><div class='respDivL'><div class='vertical-center'>(E)</div></div><div class='respDivR'><div class='vertical-center'>(I)</div></div></div>","I","$11<br><br>now","$30<br>in<br>2 weeks","0","11","30","2","THEN"
"html-keyboard-response","30","60992","0.0-5.0-3.8","63f7eb4fd0c75f760998818c","bdp_td","Mon Mar 27 2023 15:13:29 GMT-0700 (Pacific Daylight Time)","149046","","null","","","","offerFB","","<div class='trialBorder'><div class='vertical-center'><img style='vertical-align:center; align:center' src=img/fixation3.jpg></div><div class='cl'><div class='vertical-center'>$11<br><br>now</div></div><div class='cr'><div class='vertical-center'><font style='color:orange'>$30<br>in<br>2 weeks</font></div></div><div class='respDivL'><div class='vertical-center'>(E)</div></div><div class='respDivR'><div class='vertical-center'><font style='color:orange'>(I)</font></div></div></div>","null","$11<br><br>now","$30<br>in<br>2 weeks","0","11","30","2",""
"html-keyboard-response","31","61526","0.0-5.0-1.9","63f7eb4fd0c75f760998818c","bdp_td","Mon Mar 27 2023 15:13:29 GMT-0700 (Pacific Daylight Time)","149046","","null","","","","FIX","","<div class='trialBorder'><div class='vertical-center'><img style='vertical-align:center; align:center' src=img/fixation3.jpg></div></div>","null","","","","","","",""
"html-keyboard-response","32","81722","0.0-5.0-2.9","63f7eb4fd0c75f760998818c","bdp_td","Mon Mar 27 2023 15:13:29 GMT-0700 (Pacific Daylight Time)","149046","","20193","","","","offer","","<div class='trialBorder'><div class='vertical-center'><img style='vertical-align:center; align:center' src=img/fixation3.jpg></div><div class='cl'><div class='vertical-center'>$41<br><br>now</div></div><div class='cr'><div class='vertical-center'>$75<br>in<br>3 weeks</div></div><div class='respDivL'><div class='vertical-center'>(E)</div></div><div class='respDivR'><div class='vertical-center'>(I)</div></div></div>","I","$41<br><br>now","$75<br>in<br>3 weeks","0","41","75","3","THEN"
"html-keyboard-response","33","81971","0.0-5.0-3.9","63f7eb4fd0c75f760998818c","bdp_td","Mon Mar 27 2023 15:13:29 GMT-0700 (Pacific Daylight Time)","149046","","null","","","","offerFB","","<div class='trialBorder'><div class='vertical-center'><img style='vertical-align:center; align:center' src=img/fixation3.jpg></div><div class='cl'><div class='vertical-center'>$41<br><br>now</div></div><div class='cr'><div class='vertical-center'><font style='color:orange'>$75<br>in<br>3 weeks</font></div></div><div class='respDivL'><div class='vertical-center'>(E)</div></div><div class='respDivR'><div class='vertical-center'><font style='color:orange'>(I)</font></div></div></div>","null","$41<br><br>now","$75<br>in<br>3 weeks","0","41","75","3",""
"html-keyboard-response","34","82491","0.0-5.0-1.10","63f7eb4fd0c75f760998818c","bdp_td","Mon Mar 27 2023 15:13:29 GMT-0700 (Pacific Daylight Time)","149046","","null","","","","FIX","","<div class='trialBorder'><div class='vertical-center'><img style='vertical-align:center; align:center' src=img/fixation3.jpg></div></div>","null","","","","","","",""
"html-keyboard-response","35","87774","0.0-5.0-2.10","63f7eb4fd0c75f760998818c","bdp_td","Mon Mar 27 2023 15:13:29 GMT-0700 (Pacific Daylight Time)","149046","","5280","","","","offer","","<div class='trialBorder'><div class='vertical-center'><img style='vertical-align:center; align:center' src=img/fixation3.jpg></div><div class='cl'><div class='vertical-center'>$34<br><br>now</div></div><div class='cr'><div class='vertical-center'>$50<br>in<br>6 weeks</div></div><div class='respDivL'><div class='vertical-center'>(E)</div></div><div class='respDivR'><div class='vertical-center'>(I)</div></div></div>","E","$34<br><br>now","$50<br>in<br>6 weeks","0","34","50","6","NOW"
"html-keyboard-response","36","88032","0.0-5.0-3.10","63f7eb4fd0c75f760998818c","bdp_td","Mon Mar 27 2023 15:13:29 GMT-0700 (Pacific Daylight Time)","149046","","null","","","","offerFB","","<div class='trialBorder'><div class='vertical-center'><img style='vertical-align:center; align:center' src=img/fixation3.jpg></div><div class='cl'><div class='vertical-center'><font style='color:orange'>$34<br><br>now</font></div></div><div class='cr'><div class='vertical-center'>$50<br>in<br>6 weeks</div></div><div class='respDivL'><div class='vertical-center'><font style='color:orange'>(E)</font></div></div><div class='respDivR'><div class='vertical-center'>(I)</div></div></div>","null","$34<br><br>now","$50<br>in<br>6 weeks","0","34","50","6",""
"html-keyboard-response","37","88552","0.0-5.0-1.11","63f7eb4fd0c75f760998818c","bdp_td","Mon Mar 27 2023 15:13:29 GMT-0700 (Pacific Daylight Time)","149046","","null","","","","FIX","","<div class='trialBorder'><div class='vertical-center'><img style='vertical-align:center; align:center' src=img/fixation3.jpg></div></div>","null","","","","","","",""
"html-keyboard-response","38","91749","0.0-5.0-2.11","63f7eb4fd0c75f760998818c","bdp_td","Mon Mar 27 2023 15:13:29 GMT-0700 (Pacific Daylight Time)","149046","","3194","","","","offer","","<div class='trialBorder'><div class='vertical-center'><img style='vertical-align:center; align:center' src=img/fixation3.jpg></div><div class='cl'><div class='vertical-center'>$50<br>in<br>12 weeks</div></div><div class='cr'><div class='vertical-center'>$47<br><br>now</div></div><div class='respDivL'><div class='vertical-center'>(E)</div></div><div class='respDivR'><div class='vertical-center'>(I)</div></div></div>","I","$47<br><br>now","$50<br>in<br>12 weeks","1","47","50","12","NOW"
"html-keyboard-response","39","92008","0.0-5.0-3.11","63f7eb4fd0c75f760998818c","bdp_td","Mon Mar 27 2023 15:13:29 GMT-0700 (Pacific Daylight Time)","149046","","null","","","","offerFB","","<div class='trialBorder'><div class='vertical-center'><img style='vertical-align:center; align:center' src=img/fixation3.jpg></div><div class='cl'><div class='vertical-center'>$50<br>in<br>12 weeks</div></div><div class='cr'><div class='vertical-center'><font style='color:orange'>$47<br><br>now</font></div></div><div class='respDivL'><div class='vertical-center'>(E)</div></div><div class='respDivR'><div class='vertical-center'><font style='color:orange'>(I)</font></div></div></div>","null","$47<br><br>now","$50<br>in<br>12 weeks","1","47","50","12",""
"html-keyboard-response","40","92514","0.0-5.0-1.12","63f7eb4fd0c75f760998818c","bdp_td","Mon Mar 27 2023 15:13:29 GMT-0700 (Pacific Daylight Time)","149046","","null","","","","FIX","","<div class='trialBorder'><div class='vertical-center'><img style='vertical-align:center; align:center' src=img/fixation3.jpg></div></div>","null","","","","","","",""
"html-keyboard-response","41","96175","0.0-5.0-2.12","63f7eb4fd0c75f760998818c","bdp_td","Mon Mar 27 2023 15:13:29 GMT-0700 (Pacific Daylight Time)","149046","","3659","","","","offer","","<div class='trialBorder'><div class='vertical-center'><img style='vertical-align:center; align:center' src=img/fixation3.jpg></div><div class='cl'><div class='vertical-center'>$60<br>in<br>6 weeks</div></div><div class='cr'><div class='vertical-center'>$49<br><br>now</div></div><div class='respDivL'><div class='vertical-center'>(E)</div></div><div class='respDivR'><div class='vertical-center'>(I)</div></div></div>","I","$49<br><br>now","$60<br>in<br>6 weeks","1","49","60","6","NOW"
"html-keyboard-response","42","96434","0.0-5.0-3.12","63f7eb4fd0c75f760998818c","bdp_td","Mon Mar 27 2023 15:13:29 GMT-0700 (Pacific Daylight Time)","149046","","null","","","","offerFB","","<div class='trialBorder'><div class='vertical-center'><img style='vertical-align:center; align:center' src=img/fixation3.jpg></div><div class='cl'><div class='vertical-center'>$60<br>in<br>6 weeks</div></div><div class='cr'><div class='vertical-center'><font style='color:orange'>$49<br><br>now</font></div></div><div class='respDivL'><div class='vertical-center'>(E)</div></div><div class='respDivR'><div class='vertical-center'><font style='color:orange'>(I)</font></div></div></div>","null","$49<br><br>now","$60<br>in<br>6 weeks","1","49","60","6",""
"html-keyboard-response","43","96949","0.0-5.0-1.13","63f7eb4fd0c75f760998818c","bdp_td","Mon Mar 27 2023 15:13:29 GMT-0700 (Pacific Daylight Time)","149046","","null","","","","FIX","","<div class='trialBorder'><div class='vertical-center'><img style='vertical-align:center; align:center' src=img/fixation3.jpg></div></div>","null","","","","","","",""
"html-keyboard-response","44","99243","0.0-5.0-2.13","63f7eb4fd0c75f760998818c","bdp_td","Mon Mar 27 2023 15:13:29 GMT-0700 (Pacific Daylight Time)","149046","","2291","","","","offer","","<div class='trialBorder'><div class='vertical-center'><img style='vertical-align:center; align:center' src=img/fixation3.jpg></div><div class='cl'><div class='vertical-center'>$80<br><br>now</div></div><div class='cr'><div class='vertical-center'>$85<br>in<br>12 weeks</div></div><div class='respDivL'><div class='vertical-center'>(E)</div></div><div class='respDivR'><div class='vertical-center'>(I)</div></div></div>","E","$80<br><br>now","$85<br>in<br>12 weeks","0","80","85","12","NOW"
"html-keyboard-response","45","99504","0.0-5.0-3.13","63f7eb4fd0c75f760998818c","bdp_td","Mon Mar 27 2023 15:13:29 GMT-0700 (Pacific Daylight Time)","149046","","null","","","","offerFB","","<div class='trialBorder'><div class='vertical-center'><img style='vertical-align:center; align:center' src=img/fixation3.jpg></div><div class='cl'><div class='vertical-center'><font style='color:orange'>$80<br><br>now</font></div></div><div class='cr'><div class='vertical-center'>$85<br>in<br>12 weeks</div></div><div class='respDivL'><div class='vertical-center'><font style='color:orange'>(E)</font></div></div><div class='respDivR'><div class='vertical-center'>(I)</div></div></div>","null","$80<br><br>now","$85<br>in<br>12 weeks","0","80","85","12",""
"html-keyboard-response","46","100010","0.0-5.0-1.14","63f7eb4fd0c75f760998818c","bdp_td","Mon Mar 27 2023 15:13:29 GMT-0700 (Pacific Daylight Time)","149046","","null","","","","FIX","","<div class='trialBorder'><div class='vertical-center'><img style='vertical-align:center; align:center' src=img/fixation3.jpg></div></div>","null","","","","","","",""
"html-keyboard-response","47","101848","0.0-5.0-2.14","63f7eb4fd0c75f760998818c","bdp_td","Mon Mar 27 2023 15:13:29 GMT-0700 (Pacific Daylight Time)","149046","","1835","","","","offer","","<div class='trialBorder'><div class='vertical-center'><img style='vertical-align:center; align:center' src=img/fixation3.jpg></div><div class='cl'><div class='vertical-center'>$80<br>in<br>3 weeks</div></div><div class='cr'><div class='vertical-center'>$54<br><br>now</div></div><div class='respDivL'><div class='vertical-center'>(E)</div></div><div class='respDivR'><div class='vertical-center'>(I)</div></div></div>","I","$54<br><br>now","$80<br>in<br>3 weeks","1","54","80","3","NOW"
"html-keyboard-response","48","102109","0.0-5.0-3.14","63f7eb4fd0c75f760998818c","bdp_td","Mon Mar 27 2023 15:13:29 GMT-0700 (Pacific Daylight Time)","149046","","null","","","","offerFB","","<div class='trialBorder'><div class='vertical-center'><img style='vertical-align:center; align:center' src=img/fixation3.jpg></div><div class='cl'><div class='vertical-center'>$80<br>in<br>3 weeks</div></div><div class='cr'><div class='vertical-center'><font style='color:orange'>$54<br><br>now</font></div></div><div class='respDivL'><div class='vertical-center'>(E)</div></div><div class='respDivR'><div class='vertical-center'><font style='color:orange'>(I)</font></div></div></div>","null","$54<br><br>now","$80<br>in<br>3 weeks","1","54","80","3",""
"html-keyboard-response","49","102630","0.0-5.0-1.15","63f7eb4fd0c75f760998818c","bdp_td","Mon Mar 27 2023 15:13:29 GMT-0700 (Pacific Daylight Time)","149046","","null","","","","FIX","","<div class='trialBorder'><div class='vertical-center'><img style='vertical-align:center; align:center' src=img/fixation3.jpg></div></div>","null","","","","","","",""
"html-keyboard-response","50","104041","0.0-5.0-2.15","63f7eb4fd0c75f760998818c","bdp_td","Mon Mar 27 2023 15:13:29 GMT-0700 (Pacific Daylight Time)","149046","","1409","","","","offer","","<div class='trialBorder'><div class='vertical-center'><img style='vertical-align:center; align:center' src=img/fixation3.jpg></div><div class='cl'><div class='vertical-center'>$22<br><br>now</div></div><div class='cr'><div class='vertical-center'>$25<br>in<br>12 weeks</div></div><div class='respDivL'><div class='vertical-center'>(E)</div></div><div class='respDivR'><div class='vertical-center'>(I)</div></div></div>","E","$22<br><br>now","$25<br>in<br>12 weeks","0","22","25","12","NOW"
"html-keyboard-response","51","104295","0.0-5.0-3.15","63f7eb4fd0c75f760998818c","bdp_td","Mon Mar 27 2023 15:13:29 GMT-0700 (Pacific Daylight Time)","149046","","null","","","","offerFB","","<div class='trialBorder'><div class='vertical-center'><img style='vertical-align:center; align:center' src=img/fixation3.jpg></div><div class='cl'><div class='vertical-center'><font style='color:orange'>$22<br><br>now</font></div></div><div class='cr'><div class='vertical-center'>$25<br>in<br>12 weeks</div></div><div class='respDivL'><div class='vertical-center'><font style='color:orange'>(E)</font></div></div><div class='respDivR'><div class='vertical-center'>(I)</div></div></div>","null","$22<br><br>now","$25<br>in<br>12 weeks","0","22","25","12",""
"html-keyboard-response","52","104809","0.0-5.0-1.16","63f7eb4fd0c75f760998818c","bdp_td","Mon Mar 27 2023 15:13:29 GMT-0700 (Pacific Daylight Time)","149046","","null","","","","FIX","","<div class='trialBorder'><div class='vertical-center'><img style='vertical-align:center; align:center' src=img/fixation3.jpg></div></div>","null","","","","","","",""
"html-keyboard-response","53","106547","0.0-5.0-2.16","63f7eb4fd0c75f760998818c","bdp_td","Mon Mar 27 2023 15:13:29 GMT-0700 (Pacific Daylight Time)","149046","","1735","","","","offer","","<div class='trialBorder'><div class='vertical-center'><img style='vertical-align:center; align:center' src=img/fixation3.jpg></div><div class='cl'><div class='vertical-center'>$15<br><br>now</div></div><div class='cr'><div class='vertical-center'>$35<br>in<br>2 weeks</div></div><div class='respDivL'><div class='vertical-center'>(E)</div></div><div class='respDivR'><div class='vertical-center'>(I)</div></div></div>","E","$15<br><br>now","$35<br>in<br>2 weeks","0","15","35","2","NOW"
"html-keyboard-response","54","106810","0.0-5.0-3.16","63f7eb4fd0c75f760998818c","bdp_td","Mon Mar 27 2023 15:13:29 GMT-0700 (Pacific Daylight Time)","149046","","null","","","","offerFB","","<div class='trialBorder'><div class='vertical-center'><img style='vertical-align:center; align:center' src=img/fixation3.jpg></div><div class='cl'><div class='vertical-center'><font style='color:orange'>$15<br><br>now</font></div></div><div class='cr'><div class='vertical-center'>$35<br>in<br>2 weeks</div></div><div class='respDivL'><div class='vertical-center'><font style='color:orange'>(E)</font></div></div><div class='respDivR'><div class='vertical-center'>(I)</div></div></div>","null","$15<br><br>now","$35<br>in<br>2 weeks","0","15","35","2",""
"html-keyboard-response","55","107341","0.0-5.0-1.17","63f7eb4fd0c75f760998818c","bdp_td","Mon Mar 27 2023 15:13:29 GMT-0700 (Pacific Daylight Time)","149046","","null","","","","FIX","","<div class='trialBorder'><div class='vertical-center'><img style='vertical-align:center; align:center' src=img/fixation3.jpg></div></div>","null","","","","","","",""
"html-keyboard-response","56","114537","0.0-5.0-2.17","63f7eb4fd0c75f760998818c","bdp_td","Mon Mar 27 2023 15:13:29 GMT-0700 (Pacific Daylight Time)","149046","","7193","","","","offer","","<div class='trialBorder'><div class='vertical-center'><img style='vertical-align:center; align:center' src=img/fixation3.jpg></div><div class='cl'><div class='vertical-center'>$28<br><br>now</div></div><div class='cr'><div class='vertical-center'>$30<br>in<br>12 weeks</div></div><div class='respDivL'><div class='vertical-center'>(E)</div></div><div class='respDivR'><div class='vertical-center'>(I)</div></div></div>","E","$28<br><br>now","$30<br>in<br>12 weeks","0","28","30","12","NOW"
"html-keyboard-response","57","114806","0.0-5.0-3.17","63f7eb4fd0c75f760998818c","bdp_td","Mon Mar 27 2023 15:13:29 GMT-0700 (Pacific Daylight Time)","149046","","null","","","","offerFB","","<div class='trialBorder'><div class='vertical-center'><img style='vertical-align:center; align:center' src=img/fixation3.jpg></div><div class='cl'><div class='vertical-center'><font style='color:orange'>$28<br><br>now</font></div></div><div class='cr'><div class='vertical-center'>$30<br>in<br>12 weeks</div></div><div class='respDivL'><div class='vertical-center'><font style='color:orange'>(E)</font></div></div><div class='respDivR'><div class='vertical-center'>(I)</div></div></div>","null","$28<br><br>now","$30<br>in<br>12 weeks","0","28","30","12",""
"html-keyboard-response","58","115318","0.0-5.0-1.18","63f7eb4fd0c75f760998818c","bdp_td","Mon Mar 27 2023 15:13:29 GMT-0700 (Pacific Daylight Time)","149046","","null","","","","FIX","","<div class='trialBorder'><div class='vertical-center'><img style='vertical-align:center; align:center' src=img/fixation3.jpg></div></div>","null","","","","","","",""
"html-keyboard-response","59","117800","0.0-5.0-2.18","63f7eb4fd0c75f760998818c","bdp_td","Mon Mar 27 2023 15:13:29 GMT-0700 (Pacific Daylight Time)","149046","","2480","","","","offer","","<div class='trialBorder'><div class='vertical-center'><img style='vertical-align:center; align:center' src=img/fixation3.jpg></div><div class='cl'><div class='vertical-center'>$31<br><br>now</div></div><div class='cr'><div class='vertical-center'>$85<br>in<br>1 week</div></div><div class='respDivL'><div class='vertical-center'>(E)</div></div><div class='respDivR'><div class='vertical-center'>(I)</div></div></div>","I","$31<br><br>now","$85<br>in<br>1 week","0","31","85","1","THEN"
"html-keyboard-response","60","118050","0.0-5.0-3.18","63f7eb4fd0c75f760998818c","bdp_td","Mon Mar 27 2023 15:13:29 GMT-0700 (Pacific Daylight Time)","149046","","null","","","","offerFB","","<div class='trialBorder'><div class='vertical-center'><img style='vertical-align:center; align:center' src=img/fixation3.jpg></div><div class='cl'><div class='vertical-center'>$31<br><br>now</div></div><div class='cr'><div class='vertical-center'><font style='color:orange'>$85<br>in<br>1 week</font></div></div><div class='respDivL'><div class='vertical-center'>(E)</div></div><div class='respDivR'><div class='vertical-center'><font style='color:orange'>(I)</font></div></div></div>","null","$31<br><br>now","$85<br>in<br>1 week","0","31","85","1",""
"html-keyboard-response","61","118564","0.0-5.0-1.19","63f7eb4fd0c75f760998818c","bdp_td","Mon Mar 27 2023 15:13:29 GMT-0700 (Pacific Daylight Time)","149046","","null","","","","FIX","","<div class='trialBorder'><div class='vertical-center'><img style='vertical-align:center; align:center' src=img/fixation3.jpg></div></div>","null","","","","","","",""
"html-keyboard-response","62","120586","0.0-5.0-2.19","63f7eb4fd0c75f760998818c","bdp_td","Mon Mar 27 2023 15:13:29 GMT-0700 (Pacific Daylight Time)","149046","","2020","","","","offer","","<div class='trialBorder'><div class='vertical-center'><img style='vertical-align:center; align:center' src=img/fixation3.jpg></div><div class='cl'><div class='vertical-center'>$75<br>in<br>6 weeks</div></div><div class='cr'><div class='vertical-center'>$55<br><br>now</div></div><div class='respDivL'><div class='vertical-center'>(E)</div></div><div class='respDivR'><div class='vertical-center'>(I)</div></div></div>","I","$55<br><br>now","$75<br>in<br>6 weeks","1","55","75","6","NOW"
"html-keyboard-response","63","120843","0.0-5.0-3.19","63f7eb4fd0c75f760998818c","bdp_td","Mon Mar 27 2023 15:13:29 GMT-0700 (Pacific Daylight Time)","149046","","null","","","","offerFB","","<div class='trialBorder'><div class='vertical-center'><img style='vertical-align:center; align:center' src=img/fixation3.jpg></div><div class='cl'><div class='vertical-center'>$75<br>in<br>6 weeks</div></div><div class='cr'><div class='vertical-center'><font style='color:orange'>$55<br><br>now</font></div></div><div class='respDivL'><div class='vertical-center'>(E)</div></div><div class='respDivR'><div class='vertical-center'><font style='color:orange'>(I)</font></div></div></div>","null","$55<br><br>now","$75<br>in<br>6 weeks","1","55","75","6",""
"html-keyboard-response","64","121350","0.0-5.0-1.20","63f7eb4fd0c75f760998818c","bdp_td","Mon Mar 27 2023 15:13:29 GMT-0700 (Pacific Daylight Time)","149046","","null","","","","FIX","","<div class='trialBorder'><div class='vertical-center'><img style='vertical-align:center; align:center' src=img/fixation3.jpg></div></div>","null","","","","","","",""
"html-keyboard-response","65","123230","0.0-5.0-2.20","63f7eb4fd0c75f760998818c","bdp_td","Mon Mar 27 2023 15:13:29 GMT-0700 (Pacific Daylight Time)","149046","","1878","","","","offer","","<div class='trialBorder'><div class='vertical-center'><img style='vertical-align:center; align:center' src=img/fixation3.jpg></div><div class='cl'><div class='vertical-center'>$54<br><br>now</div></div><div class='cr'><div class='vertical-center'>$55<br>in<br>12 weeks</div></div><div class='respDivL'><div class='vertical-center'>(E)</div></div><div class='respDivR'><div class='vertical-center'>(I)</div></div></div>","E","$54<br><br>now","$55<br>in<br>12 weeks","0","54","55","12","NOW"
"html-keyboard-response","66","123492","0.0-5.0-3.20","63f7eb4fd0c75f760998818c","bdp_td","Mon Mar 27 2023 15:13:29 GMT-0700 (Pacific Daylight Time)","149046","","null","","","","offerFB","","<div class='trialBorder'><div class='vertical-center'><img style='vertical-align:center; align:center' src=img/fixation3.jpg></div><div class='cl'><div class='vertical-center'><font style='color:orange'>$54<br><br>now</font></div></div><div class='cr'><div class='vertical-center'>$55<br>in<br>12 weeks</div></div><div class='respDivL'><div class='vertical-center'><font style='color:orange'>(E)</font></div></div><div class='respDivR'><div class='vertical-center'>(I)</div></div></div>","null","$54<br><br>now","$55<br>in<br>12 weeks","0","54","55","12",""
"html-keyboard-response","67","124008","0.0-5.0-1.21","63f7eb4fd0c75f760998818c","bdp_td","Mon Mar 27 2023 15:13:29 GMT-0700 (Pacific Daylight Time)","149046","","null","","","","FIX","","<div class='trialBorder'><div class='vertical-center'><img style='vertical-align:center; align:center' src=img/fixation3.jpg></div></div>","null","","","","","","",""
"html-keyboard-response","68","127178","0.0-5.0-2.21","63f7eb4fd0c75f760998818c","bdp_td","Mon Mar 27 2023 15:13:29 GMT-0700 (Pacific Daylight Time)","149046","","3168","","","","offer","","<div class='trialBorder'><div class='vertical-center'><img style='vertical-align:center; align:center' src=img/fixation3.jpg></div><div class='cl'><div class='vertical-center'>$69<br><br>now</div></div><div class='cr'><div class='vertical-center'>$85<br>in<br>6 weeks</div></div><div class='respDivL'><div class='vertical-center'>(E)</div></div><div class='respDivR'><div class='vertical-center'>(I)</div></div></div>","E","$69<br><br>now","$85<br>in<br>6 weeks","0","69","85","6","NOW"
"html-keyboard-response","69","127434","0.0-5.0-3.21","63f7eb4fd0c75f760998818c","bdp_td","Mon Mar 27 2023 15:13:29 GMT-0700 (Pacific Daylight Time)","149046","","null","","","","offerFB","","<div class='trialBorder'><div class='vertical-center'><img style='vertical-align:center; align:center' src=img/fixation3.jpg></div><div class='cl'><div class='vertical-center'><font style='color:orange'>$69<br><br>now</font></div></div><div class='cr'><div class='vertical-center'>$85<br>in<br>6 weeks</div></div><div class='respDivL'><div class='vertical-center'><font style='color:orange'>(E)</font></div></div><div class='respDivR'><div class='vertical-center'>(I)</div></div></div>","null","$69<br><br>now","$85<br>in<br>6 weeks","0","69","85","6",""
"html-keyboard-response","70","127946","0.0-5.0-1.22","63f7eb4fd0c75f760998818c","bdp_td","Mon Mar 27 2023 15:13:29 GMT-0700 (Pacific Daylight Time)","149046","","null","","","","FIX","","<div class='trialBorder'><div class='vertical-center'><img style='vertical-align:center; align:center' src=img/fixation3.jpg></div></div>","null","","","","","","",""
"html-keyboard-response","71","129901","0.0-5.0-2.22","63f7eb4fd0c75f760998818c","bdp_td","Mon Mar 27 2023 15:13:29 GMT-0700 (Pacific Daylight Time)","149046","","1953","","","","offer","","<div class='trialBorder'><div class='vertical-center'><img style='vertical-align:center; align:center' src=img/fixation3.jpg></div><div class='cl'><div class='vertical-center'>$35<br>in<br>3 weeks</div></div><div class='cr'><div class='vertical-center'>$24<br><br>now</div></div><div class='respDivL'><div class='vertical-center'>(E)</div></div><div class='respDivR'><div class='vertical-center'>(I)</div></div></div>","I","$24<br><br>now","$35<br>in<br>3 weeks","1","24","35","3","NOW"
"html-keyboard-response","72","130156","0.0-5.0-3.22","63f7eb4fd0c75f760998818c","bdp_td","Mon Mar 27 2023 15:13:29 GMT-0700 (Pacific Daylight Time)","149046","","null","","","","offerFB","","<div class='trialBorder'><div class='vertical-center'><img style='vertical-align:center; align:center' src=img/fixation3.jpg></div><div class='cl'><div class='vertical-center'>$35<br>in<br>3 weeks</div></div><div class='cr'><div class='vertical-center'><font style='color:orange'>$24<br><br>now</font></div></div><div class='respDivL'><div class='vertical-center'>(E)</div></div><div class='respDivR'><div class='vertical-center'><font style='color:orange'>(I)</font></div></div></div>","null","$24<br><br>now","$35<br>in<br>3 weeks","1","24","35","3",""
"html-keyboard-response","73","130668","0.0-5.0-1.23","63f7eb4fd0c75f760998818c","bdp_td","Mon Mar 27 2023 15:13:29 GMT-0700 (Pacific Daylight Time)","149046","","null","","","","FIX","","<div class='trialBorder'><div class='vertical-center'><img style='vertical-align:center; align:center' src=img/fixation3.jpg></div></div>","null","","","","","","",""
"html-keyboard-response","74","135711","0.0-5.0-2.23","63f7eb4fd0c75f760998818c","bdp_td","Mon Mar 27 2023 15:13:29 GMT-0700 (Pacific Daylight Time)","149046","","5041","","","","offer","","<div class='trialBorder'><div class='vertical-center'><img style='vertical-align:center; align:center' src=img/fixation3.jpg></div><div class='cl'><div class='vertical-center'>$60<br>in<br>3 weeks</div></div><div class='cr'><div class='vertical-center'>$25<br><br>now</div></div><div class='respDivL'><div class='vertical-center'>(E)</div></div><div class='respDivR'><div class='vertical-center'>(I)</div></div></div>","E","$25<br><br>now","$60<br>in<br>3 weeks","1","25","60","3","THEN"
"html-keyboard-response","75","135974","0.0-5.0-3.23","63f7eb4fd0c75f760998818c","bdp_td","Mon Mar 27 2023 15:13:29 GMT-0700 (Pacific Daylight Time)","149046","","null","","","","offerFB","","<div class='trialBorder'><div class='vertical-center'><img style='vertical-align:center; align:center' src=img/fixation3.jpg></div><div class='cl'><div class='vertical-center'><font style='color:orange'>$60<br>in<br>3 weeks</font></div></div><div class='cr'><div class='vertical-center'>$25<br><br>now</div></div><div class='respDivL'><div class='vertical-center'><font style='color:orange'>(E)</font></div></div><div class='respDivR'><div class='vertical-center'>(I)</div></div></div>","null","$25<br><br>now","$60<br>in<br>3 weeks","1","25","60","3",""
"html-keyboard-response","76","136484","0.0-5.0-1.24","63f7eb4fd0c75f760998818c","bdp_td","Mon Mar 27 2023 15:13:29 GMT-0700 (Pacific Daylight Time)","149046","","null","","","","FIX","","<div class='trialBorder'><div class='vertical-center'><img style='vertical-align:center; align:center' src=img/fixation3.jpg></div></div>","null","","","","","","",""
"html-keyboard-response","77","138454","0.0-5.0-2.24","63f7eb4fd0c75f760998818c","bdp_td","Mon Mar 27 2023 15:13:29 GMT-0700 (Pacific Daylight Time)","149046","","1968","","","","offer","","<div class='trialBorder'><div class='vertical-center'><img style='vertical-align:center; align:center' src=img/fixation3.jpg></div><div class='cl'><div class='vertical-center'>$19<br><br>now</div></div><div class='cr'><div class='vertical-center'>$25<br>in<br>6 weeks</div></div><div class='respDivL'><div class='vertical-center'>(E)</div></div><div class='respDivR'><div class='vertical-center'>(I)</div></div></div>","E","$19<br><br>now","$25<br>in<br>6 weeks","0","19","25","6","NOW"
"html-keyboard-response","78","138705","0.0-5.0-3.24","63f7eb4fd0c75f760998818c","bdp_td","Mon Mar 27 2023 15:13:29 GMT-0700 (Pacific Daylight Time)","149046","","null","","","","offerFB","","<div class='trialBorder'><div class='vertical-center'><img style='vertical-align:center; align:center' src=img/fixation3.jpg></div><div class='cl'><div class='vertical-center'><font style='color:orange'>$19<br><br>now</font></div></div><div class='cr'><div class='vertical-center'>$25<br>in<br>6 weeks</div></div><div class='respDivL'><div class='vertical-center'><font style='color:orange'>(E)</font></div></div><div class='respDivR'><div class='vertical-center'>(I)</div></div></div>","null","$19<br><br>now","$25<br>in<br>6 weeks","0","19","25","6",""
"html-keyboard-response","79","139219","0.0-5.0-1.25","63f7eb4fd0c75f760998818c","bdp_td","Mon Mar 27 2023 15:13:29 GMT-0700 (Pacific Daylight Time)","149046","","null","","","","FIX","","<div class='trialBorder'><div class='vertical-center'><img style='vertical-align:center; align:center' src=img/fixation3.jpg></div></div>","null","","","","","","",""
"html-keyboard-response","80","140798","0.0-5.0-2.25","63f7eb4fd0c75f760998818c","bdp_td","Mon Mar 27 2023 15:13:29 GMT-0700 (Pacific Daylight Time)","149046","","1578","","","","offer","","<div class='trialBorder'><div class='vertical-center'><img style='vertical-align:center; align:center' src=img/fixation3.jpg></div><div class='cl'><div class='vertical-center'>$75<br>in<br>12 weeks</div></div><div class='cr'><div class='vertical-center'>$67<br><br>now</div></div><div class='respDivL'><div class='vertical-center'>(E)</div></div><div class='respDivR'><div class='vertical-center'>(I)</div></div></div>","I","$67<br><br>now","$75<br>in<br>12 weeks","1","67","75","12","NOW"
"html-keyboard-response","81","141063","0.0-5.0-3.25","63f7eb4fd0c75f760998818c","bdp_td","Mon Mar 27 2023 15:13:29 GMT-0700 (Pacific Daylight Time)","149046","","null","","","","offerFB","","<div class='trialBorder'><div class='vertical-center'><img style='vertical-align:center; align:center' src=img/fixation3.jpg></div><div class='cl'><div class='vertical-center'>$75<br>in<br>12 weeks</div></div><div class='cr'><div class='vertical-center'><font style='color:orange'>$67<br><br>now</font></div></div><div class='respDivL'><div class='vertical-center'>(E)</div></div><div class='respDivR'><div class='vertical-center'><font style='color:orange'>(I)</font></div></div></div>","null","$67<br><br>now","$75<br>in<br>12 weeks","1","67","75","12",""
"html-keyboard-response","82","141575","0.0-5.0-1.26","63f7eb4fd0c75f760998818c","bdp_td","Mon Mar 27 2023 15:13:29 GMT-0700 (Pacific Daylight Time)","149046","","null","","","","FIX","","<div class='trialBorder'><div class='vertical-center'><img style='vertical-align:center; align:center' src=img/fixation3.jpg></div></div>","null","","","","","","",""
"html-keyboard-response","83","147778","0.0-5.0-2.26","63f7eb4fd0c75f760998818c","bdp_td","Mon Mar 27 2023 15:13:29 GMT-0700 (Pacific Daylight Time)","149046","","6201","","","","offer","","<div class='trialBorder'><div class='vertical-center'><img style='vertical-align:center; align:center' src=img/fixation3.jpg></div><div class='cl'><div class='vertical-center'>$50<br>in<br>3 weeks</div></div><div class='cr'><div class='vertical-center'>$27<br><br>now</div></div><div class='respDivL'><div class='vertical-center'>(E)</div></div><div class='respDivR'><div class='vertical-center'>(I)</div></div></div>","E","$27<br><br>now","$50<br>in<br>3 weeks","1","27","50","3","THEN"
"html-keyboard-response","84","148038","0.0-5.0-3.26","63f7eb4fd0c75f760998818c","bdp_td","Mon Mar 27 2023 15:13:29 GMT-0700 (Pacific Daylight Time)","149046","","null","","","","offerFB","","<div class='trialBorder'><div class='vertical-center'><img style='vertical-align:center; align:center' src=img/fixation3.jpg></div><div class='cl'><div class='vertical-center'><font style='color:orange'>$50<br>in<br>3 weeks</font></div></div><div class='cr'><div class='vertical-center'>$27<br><br>now</div></div><div class='respDivL'><div class='vertical-center'><font style='color:orange'>(E)</font></div></div><div class='respDivR'><div class='vertical-center'>(I)</div></div></div>","null","$27<br><br>now","$50<br>in<br>3 weeks","1","27","50","3",""
"","","","","63f7eb4fd0c75f760998818c","bdp_td","Mon Mar 27 2023 15:13:29 GMT-0700 (Pacific Daylight Time)","149046","","","fullscreenexit","85","148083","fullscreenexit","","","","","","","","","",""
"fullscreen","85","149046","0.0-6.0","63f7eb4fd0c75f760998818c","bdp_td","Mon Mar 27 2023 15:13:29 GMT-0700 (Pacific Daylight Time)","149046","","","","","","","true","","","","","","","","",""
"html-keyboard-response","86","149548","0.0-7.0","","","","","","null","","","","","","","null","","","","","","",""
