"trial_type","trial_index","time_elapsed","internal_node_id","subject_id","task","startTime","totalTime","view_history","rt","event","trial","time","trialtype","success","stimulus","key_press","nowOffer","thenOffer","thenLeft","nowAmt","thenAmt","thenWeeks","chosen"
"pavlovia","0","3","0.0-0.0","63cedc8a97a0bb604736baea","bdp_td","Sun Mar 26 2023 10:42:19 GMT-0600 (Mountain Daylight Time)","86934","","","","","","","","","","","","","","","",""
"instructions","1","1614","0.0-1.0","63cedc8a97a0bb604736baea","bdp_td","Sun Mar 26 2023 10:42:19 GMT-0600 (Mountain Daylight Time)","86934","[{""page_index"":0,""viewing_time"":1610}]","1610","","","","","","","","","","","","","",""
"","","","","63cedc8a97a0bb604736baea","bdp_td","Sun Mar 26 2023 10:42:19 GMT-0600 (Mountain Daylight Time)","86934","","","fullscreenenter","2","3595","fullscreenenter","","","","","","","","","",""
"fullscreen","2","4586","0.0-2.0","63cedc8a97a0bb604736baea","bdp_td","Sun Mar 26 2023 10:42:19 GMT-0600 (Mountain Daylight Time)","86934","","","","","","","true","","","","","","","","",""
"instructions","3","18390","0.0-4.0","63cedc8a97a0bb604736baea","bdp_td","Sun Mar 26 2023 10:42:19 GMT-0600 (Mountain Daylight Time)","86934","[{""page_index"":0,""viewing_time"":10481},{""page_index"":1,""viewing_time"":210},{""page_index"":2,""viewing_time"":3112}]","13803","","","","","","","","","","","","","",""
"html-keyboard-response","4","18900","0.0-5.0-1.0","63cedc8a97a0bb604736baea","bdp_td","Sun Mar 26 2023 10:42:19 GMT-0600 (Mountain Daylight Time)","86934","","null","","","","FIX","","<div class='trialBorder'><div class='vertical-center'><img style='vertical-align:center; align:center' src=img/fixation3.jpg></div></div>","null","","","","","","",""
"html-keyboard-response","5","21146","0.0-5.0-2.0","63cedc8a97a0bb604736baea","bdp_td","Sun Mar 26 2023 10:42:19 GMT-0600 (Mountain Daylight Time)","86934","","2245","","","","offer","","<div class='trialBorder'><div class='vertical-center'><img style='vertical-align:center; align:center' src=img/fixation3.jpg></div><div class='cl'><div class='vertical-center'>$60<br>in<br>3 weeks</div></div><div class='cr'><div class='vertical-center'>$25<br><br>now</div></div><div class='respDivL'><div class='vertical-center'>(E)</div></div><div class='respDivR'><div class='vertical-center'>(I)</div></div></div>","E","$25<br><br>now","$60<br>in<br>3 weeks","1","25","60","3","THEN"
"html-keyboard-response","6","21402","0.0-5.0-3.0","63cedc8a97a0bb604736baea","bdp_td","Sun Mar 26 2023 10:42:19 GMT-0600 (Mountain Daylight Time)","86934","","null","","","","offerFB","","<div class='trialBorder'><div class='vertical-center'><img style='vertical-align:center; align:center' src=img/fixation3.jpg></div><div class='cl'><div class='vertical-center'><font style='color:orange'>$60<br>in<br>3 weeks</font></div></div><div class='cr'><div class='vertical-center'>$25<br><br>now</div></div><div class='respDivL'><div class='vertical-center'><font style='color:orange'>(E)</font></div></div><div class='respDivR'><div class='vertical-center'>(I)</div></div></div>","null","$25<br><br>now","$60<br>in<br>3 weeks","1","25","60","3",""
"html-keyboard-response","7","21907","0.0-5.0-1.1","63cedc8a97a0bb604736baea","bdp_td","Sun Mar 26 2023 10:42:19 GMT-0600 (Mountain Daylight Time)","86934","","null","","","","FIX","","<div class='trialBorder'><div class='vertical-center'><img style='vertical-align:center; align:center' src=img/fixation3.jpg></div></div>","null","","","","","","",""
"html-keyboard-response","8","23537","0.0-5.0-2.1","63cedc8a97a0bb604736baea","bdp_td","Sun Mar 26 2023 10:42:19 GMT-0600 (Mountain Daylight Time)","86934","","1630","","","","offer","","<div class='trialBorder'><div class='vertical-center'><img style='vertical-align:center; align:center' src=img/fixation3.jpg></div><div class='cl'><div class='vertical-center'>$34<br><br>now</div></div><div class='cr'><div class='vertical-center'>$35<br>in<br>12 weeks</div></div><div class='respDivL'><div class='vertical-center'>(E)</div></div><div class='respDivR'><div class='vertical-center'>(I)</div></div></div>","E","$34<br><br>now","$35<br>in<br>12 weeks","0","34","35","12","NOW"
"html-keyboard-response","9","23796","0.0-5.0-3.1","63cedc8a97a0bb604736baea","bdp_td","Sun Mar 26 2023 10:42:19 GMT-0600 (Mountain Daylight Time)","86934","","null","","","","offerFB","","<div class='trialBorder'><div class='vertical-center'><img style='vertical-align:center; align:center' src=img/fixation3.jpg></div><div class='cl'><div class='vertical-center'><font style='color:orange'>$34<br><br>now</font></div></div><div class='cr'><div class='vertical-center'>$35<br>in<br>12 weeks</div></div><div class='respDivL'><div class='vertical-center'><font style='color:orange'>(E)</font></div></div><div class='respDivR'><div class='vertical-center'>(I)</div></div></div>","null","$34<br><br>now","$35<br>in<br>12 weeks","0","34","35","12",""
"html-keyboard-response","10","24307","0.0-5.0-1.2","63cedc8a97a0bb604736baea","bdp_td","Sun Mar 26 2023 10:42:19 GMT-0600 (Mountain Daylight Time)","86934","","null","","","","FIX","","<div class='trialBorder'><div class='vertical-center'><img style='vertical-align:center; align:center' src=img/fixation3.jpg></div></div>","null","","","","","","",""
"html-keyboard-response","11","25670","0.0-5.0-2.2","63cedc8a97a0bb604736baea","bdp_td","Sun Mar 26 2023 10:42:19 GMT-0600 (Mountain Daylight Time)","86934","","1362","","","","offer","","<div class='trialBorder'><div class='vertical-center'><img style='vertical-align:center; align:center' src=img/fixation3.jpg></div><div class='cl'><div class='vertical-center'>$34<br><br>now</div></div><div class='cr'><div class='vertical-center'>$50<br>in<br>6 weeks</div></div><div class='respDivL'><div class='vertical-center'>(E)</div></div><div class='respDivR'><div class='vertical-center'>(I)</div></div></div>","I","$34<br><br>now","$50<br>in<br>6 weeks","0","34","50","6","THEN"
"html-keyboard-response","12","25924","0.0-5.0-3.2","63cedc8a97a0bb604736baea","bdp_td","Sun Mar 26 2023 10:42:19 GMT-0600 (Mountain Daylight Time)","86934","","null","","","","offerFB","","<div class='trialBorder'><div class='vertical-center'><img style='vertical-align:center; align:center' src=img/fixation3.jpg></div><div class='cl'><div class='vertical-center'>$34<br><br>now</div></div><div class='cr'><div class='vertical-center'><font style='color:orange'>$50<br>in<br>6 weeks</font></div></div><div class='respDivL'><div class='vertical-center'>(E)</div></div><div class='respDivR'><div class='vertical-center'><font style='color:orange'>(I)</font></div></div></div>","null","$34<br><br>now","$50<br>in<br>6 weeks","0","34","50","6",""
"html-keyboard-response","13","26426","0.0-5.0-1.3","63cedc8a97a0bb604736baea","bdp_td","Sun Mar 26 2023 10:42:19 GMT-0600 (Mountain Daylight Time)","86934","","null","","","","FIX","","<div class='trialBorder'><div class='vertical-center'><img style='vertical-align:center; align:center' src=img/fixation3.jpg></div></div>","null","","","","","","",""
"html-keyboard-response","14","27871","0.0-5.0-2.3","63cedc8a97a0bb604736baea","bdp_td","Sun Mar 26 2023 10:42:19 GMT-0600 (Mountain Daylight Time)","86934","","1444","","","","offer","","<div class='trialBorder'><div class='vertical-center'><img style='vertical-align:center; align:center' src=img/fixation3.jpg></div><div class='cl'><div class='vertical-center'>$35<br>in<br>2 weeks</div></div><div class='cr'><div class='vertical-center'>$15<br><br>now</div></div><div class='respDivL'><div class='vertical-center'>(E)</div></div><div class='respDivR'><div class='vertical-center'>(I)</div></div></div>","E","$15<br><br>now","$35<br>in<br>2 weeks","1","15","35","2","THEN"
"html-keyboard-response","15","28133","0.0-5.0-3.3","63cedc8a97a0bb604736baea","bdp_td","Sun Mar 26 2023 10:42:19 GMT-0600 (Mountain Daylight Time)","86934","","null","","","","offerFB","","<div class='trialBorder'><div class='vertical-center'><img style='vertical-align:center; align:center' src=img/fixation3.jpg></div><div class='cl'><div class='vertical-center'><font style='color:orange'>$35<br>in<br>2 weeks</font></div></div><div class='cr'><div class='vertical-center'>$15<br><br>now</div></div><div class='respDivL'><div class='vertical-center'><font style='color:orange'>(E)</font></div></div><div class='respDivR'><div class='vertical-center'>(I)</div></div></div>","null","$15<br><br>now","$35<br>in<br>2 weeks","1","15","35","2",""
"html-keyboard-response","16","28644","0.0-5.0-1.4","63cedc8a97a0bb604736baea","bdp_td","Sun Mar 26 2023 10:42:19 GMT-0600 (Mountain Daylight Time)","86934","","null","","","","FIX","","<div class='trialBorder'><div class='vertical-center'><img style='vertical-align:center; align:center' src=img/fixation3.jpg></div></div>","null","","","","","","",""
"html-keyboard-response","17","30128","0.0-5.0-2.4","63cedc8a97a0bb604736baea","bdp_td","Sun Mar 26 2023 10:42:19 GMT-0600 (Mountain Daylight Time)","86934","","1483","","","","offer","","<div class='trialBorder'><div class='vertical-center'><img style='vertical-align:center; align:center' src=img/fixation3.jpg></div><div class='cl'><div class='vertical-center'>$80<br><br>now</div></div><div class='cr'><div class='vertical-center'>$85<br>in<br>12 weeks</div></div><div class='respDivL'><div class='vertical-center'>(E)</div></div><div class='respDivR'><div class='vertical-center'>(I)</div></div></div>","E","$80<br><br>now","$85<br>in<br>12 weeks","0","80","85","12","NOW"
"html-keyboard-response","18","30388","0.0-5.0-3.4","63cedc8a97a0bb604736baea","bdp_td","Sun Mar 26 2023 10:42:19 GMT-0600 (Mountain Daylight Time)","86934","","null","","","","offerFB","","<div class='trialBorder'><div class='vertical-center'><img style='vertical-align:center; align:center' src=img/fixation3.jpg></div><div class='cl'><div class='vertical-center'><font style='color:orange'>$80<br><br>now</font></div></div><div class='cr'><div class='vertical-center'>$85<br>in<br>12 weeks</div></div><div class='respDivL'><div class='vertical-center'><font style='color:orange'>(E)</font></div></div><div class='respDivR'><div class='vertical-center'>(I)</div></div></div>","null","$80<br><br>now","$85<br>in<br>12 weeks","0","80","85","12",""
"html-keyboard-response","19","30890","0.0-5.0-1.5","63cedc8a97a0bb604736baea","bdp_td","Sun Mar 26 2023 10:42:19 GMT-0600 (Mountain Daylight Time)","86934","","null","","","","FIX","","<div class='trialBorder'><div class='vertical-center'><img style='vertical-align:center; align:center' src=img/fixation3.jpg></div></div>","null","","","","","","",""
"html-keyboard-response","20","32876","0.0-5.0-2.5","63cedc8a97a0bb604736baea","bdp_td","Sun Mar 26 2023 10:42:19 GMT-0600 (Mountain Daylight Time)","86934","","1985","","","","offer","","<div class='trialBorder'><div class='vertical-center'><img style='vertical-align:center; align:center' src=img/fixation3.jpg></div><div class='cl'><div class='vertical-center'>$49<br><br>now</div></div><div class='cr'><div class='vertical-center'>$60<br>in<br>6 weeks</div></div><div class='respDivL'><div class='vertical-center'>(E)</div></div><div class='respDivR'><div class='vertical-center'>(I)</div></div></div>","I","$49<br><br>now","$60<br>in<br>6 weeks","0","49","60","6","THEN"
"html-keyboard-response","21","33131","0.0-5.0-3.5","63cedc8a97a0bb604736baea","bdp_td","Sun Mar 26 2023 10:42:19 GMT-0600 (Mountain Daylight Time)","86934","","null","","","","offerFB","","<div class='trialBorder'><div class='vertical-center'><img style='vertical-align:center; align:center' src=img/fixation3.jpg></div><div class='cl'><div class='vertical-center'>$49<br><br>now</div></div><div class='cr'><div class='vertical-center'><font style='color:orange'>$60<br>in<br>6 weeks</font></div></div><div class='respDivL'><div class='vertical-center'>(E)</div></div><div class='respDivR'><div class='vertical-center'><font style='color:orange'>(I)</font></div></div></div>","null","$49<br><br>now","$60<br>in<br>6 weeks","0","49","60","6",""
"html-keyboard-response","22","33636","0.0-5.0-1.6","63cedc8a97a0bb604736baea","bdp_td","Sun Mar 26 2023 10:42:19 GMT-0600 (Mountain Daylight Time)","86934","","null","","","","FIX","","<div class='trialBorder'><div class='vertical-center'><img style='vertical-align:center; align:center' src=img/fixation3.jpg></div></div>","null","","","","","","",""
"html-keyboard-response","23","35715","0.0-5.0-2.6","63cedc8a97a0bb604736baea","bdp_td","Sun Mar 26 2023 10:42:19 GMT-0600 (Mountain Daylight Time)","86934","","2078","","","","offer","","<div class='trialBorder'><div class='vertical-center'><img style='vertical-align:center; align:center' src=img/fixation3.jpg></div><div class='cl'><div class='vertical-center'>$75<br>in<br>12 weeks</div></div><div class='cr'><div class='vertical-center'>$67<br><br>now</div></div><div class='respDivL'><div class='vertical-center'>(E)</div></div><div class='respDivR'><div class='vertical-center'>(I)</div></div></div>","E","$67<br><br>now","$75<br>in<br>12 weeks","1","67","75","12","THEN"
"html-keyboard-response","24","35973","0.0-5.0-3.6","63cedc8a97a0bb604736baea","bdp_td","Sun Mar 26 2023 10:42:19 GMT-0600 (Mountain Daylight Time)","86934","","null","","","","offerFB","","<div class='trialBorder'><div class='vertical-center'><img style='vertical-align:center; align:center' src=img/fixation3.jpg></div><div class='cl'><div class='vertical-center'><font style='color:orange'>$75<br>in<br>12 weeks</font></div></div><div class='cr'><div class='vertical-center'>$67<br><br>now</div></div><div class='respDivL'><div class='vertical-center'><font style='color:orange'>(E)</font></div></div><div class='respDivR'><div class='vertical-center'>(I)</div></div></div>","null","$67<br><br>now","$75<br>in<br>12 weeks","1","67","75","12",""
"html-keyboard-response","25","36483","0.0-5.0-1.7","63cedc8a97a0bb604736baea","bdp_td","Sun Mar 26 2023 10:42:19 GMT-0600 (Mountain Daylight Time)","86934","","null","","","","FIX","","<div class='trialBorder'><div class='vertical-center'><img style='vertical-align:center; align:center' src=img/fixation3.jpg></div></div>","null","","","","","","",""
"html-keyboard-response","26","40663","0.0-5.0-2.7","63cedc8a97a0bb604736baea","bdp_td","Sun Mar 26 2023 10:42:19 GMT-0600 (Mountain Daylight Time)","86934","","4179","","","","offer","","<div class='trialBorder'><div class='vertical-center'><img style='vertical-align:center; align:center' src=img/fixation3.jpg></div><div class='cl'><div class='vertical-center'>$55<br>in<br>1 week</div></div><div class='cr'><div class='vertical-center'>$20<br><br>now</div></div><div class='respDivL'><div class='vertical-center'>(E)</div></div><div class='respDivR'><div class='vertical-center'>(I)</div></div></div>","E","$20<br><br>now","$55<br>in<br>1 week","1","20","55","1","THEN"
"html-keyboard-response","27","40925","0.0-5.0-3.7","63cedc8a97a0bb604736baea","bdp_td","Sun Mar 26 2023 10:42:19 GMT-0600 (Mountain Daylight Time)","86934","","null","","","","offerFB","","<div class='trialBorder'><div class='vertical-center'><img style='vertical-align:center; align:center' src=img/fixation3.jpg></div><div class='cl'><div class='vertical-center'><font style='color:orange'>$55<br>in<br>1 week</font></div></div><div class='cr'><div class='vertical-center'>$20<br><br>now</div></div><div class='respDivL'><div class='vertical-center'><font style='color:orange'>(E)</font></div></div><div class='respDivR'><div class='vertical-center'>(I)</div></div></div>","null","$20<br><br>now","$55<br>in<br>1 week","1","20","55","1",""
"html-keyboard-response","28","41436","0.0-5.0-1.8","63cedc8a97a0bb604736baea","bdp_td","Sun Mar 26 2023 10:42:19 GMT-0600 (Mountain Daylight Time)","86934","","null","","","","FIX","","<div class='trialBorder'><div class='vertical-center'><img style='vertical-align:center; align:center' src=img/fixation3.jpg></div></div>","null","","","","","","",""
"html-keyboard-response","29","44187","0.0-5.0-2.8","63cedc8a97a0bb604736baea","bdp_td","Sun Mar 26 2023 10:42:19 GMT-0600 (Mountain Daylight Time)","86934","","2750","","","","offer","","<div class='trialBorder'><div class='vertical-center'><img style='vertical-align:center; align:center' src=img/fixation3.jpg></div><div class='cl'><div class='vertical-center'>$78<br><br>now</div></div><div class='cr'><div class='vertical-center'>$80<br>in<br>12 weeks</div></div><div class='respDivL'><div class='vertical-center'>(E)</div></div><div class='respDivR'><div class='vertical-center'>(I)</div></div></div>","E","$78<br><br>now","$80<br>in<br>12 weeks","0","78","80","12","NOW"
"html-keyboard-response","30","44443","0.0-5.0-3.8","63cedc8a97a0bb604736baea","bdp_td","Sun Mar 26 2023 10:42:19 GMT-0600 (Mountain Daylight Time)","86934","","null","","","","offerFB","","<div class='trialBorder'><div class='vertical-center'><img style='vertical-align:center; align:center' src=img/fixation3.jpg></div><div class='cl'><div class='vertical-center'><font style='color:orange'>$78<br><br>now</font></div></div><div class='cr'><div class='vertical-center'>$80<br>in<br>12 weeks</div></div><div class='respDivL'><div class='vertical-center'><font style='color:orange'>(E)</font></div></div><div class='respDivR'><div class='vertical-center'>(I)</div></div></div>","null","$78<br><br>now","$80<br>in<br>12 weeks","0","78","80","12",""
"html-keyboard-response","31","44947","0.0-5.0-1.9","63cedc8a97a0bb604736baea","bdp_td","Sun Mar 26 2023 10:42:19 GMT-0600 (Mountain Daylight Time)","86934","","null","","","","FIX","","<div class='trialBorder'><div class='vertical-center'><img style='vertical-align:center; align:center' src=img/fixation3.jpg></div></div>","null","","","","","","",""
"html-keyboard-response","32","47572","0.0-5.0-2.9","63cedc8a97a0bb604736baea","bdp_td","Sun Mar 26 2023 10:42:19 GMT-0600 (Mountain Daylight Time)","86934","","2624","","","","offer","","<div class='trialBorder'><div class='vertical-center'><img style='vertical-align:center; align:center' src=img/fixation3.jpg></div><div class='cl'><div class='vertical-center'>$30<br>in<br>2 weeks</div></div><div class='cr'><div class='vertical-center'>$11<br><br>now</div></div><div class='respDivL'><div class='vertical-center'>(E)</div></div><div class='respDivR'><div class='vertical-center'>(I)</div></div></div>","E","$11<br><br>now","$30<br>in<br>2 weeks","1","11","30","2","THEN"
"html-keyboard-response","33","47827","0.0-5.0-3.9","63cedc8a97a0bb604736baea","bdp_td","Sun Mar 26 2023 10:42:19 GMT-0600 (Mountain Daylight Time)","86934","","null","","","","offerFB","","<div class='trialBorder'><div class='vertical-center'><img style='vertical-align:center; align:center' src=img/fixation3.jpg></div><div class='cl'><div class='vertical-center'><font style='color:orange'>$30<br>in<br>2 weeks</font></div></div><div class='cr'><div class='vertical-center'>$11<br><br>now</div></div><div class='respDivL'><div class='vertical-center'><font style='color:orange'>(E)</font></div></div><div class='respDivR'><div class='vertical-center'>(I)</div></div></div>","null","$11<br><br>now","$30<br>in<br>2 weeks","1","11","30","2",""
"html-keyboard-response","34","48332","0.0-5.0-1.10","63cedc8a97a0bb604736baea","bdp_td","Sun Mar 26 2023 10:42:19 GMT-0600 (Mountain Daylight Time)","86934","","null","","","","FIX","","<div class='trialBorder'><div class='vertical-center'><img style='vertical-align:center; align:center' src=img/fixation3.jpg></div></div>","null","","","","","","",""
"html-keyboard-response","35","50232","0.0-5.0-2.10","63cedc8a97a0bb604736baea","bdp_td","Sun Mar 26 2023 10:42:19 GMT-0600 (Mountain Daylight Time)","86934","","1899","","","","offer","","<div class='trialBorder'><div class='vertical-center'><img style='vertical-align:center; align:center' src=img/fixation3.jpg></div><div class='cl'><div class='vertical-center'>$33<br><br>now</div></div><div class='cr'><div class='vertical-center'>$80<br>in<br>2 weeks</div></div><div class='respDivL'><div class='vertical-center'>(E)</div></div><div class='respDivR'><div class='vertical-center'>(I)</div></div></div>","I","$33<br><br>now","$80<br>in<br>2 weeks","0","33","80","2","THEN"
"html-keyboard-response","36","50492","0.0-5.0-3.10","63cedc8a97a0bb604736baea","bdp_td","Sun Mar 26 2023 10:42:19 GMT-0600 (Mountain Daylight Time)","86934","","null","","","","offerFB","","<div class='trialBorder'><div class='vertical-center'><img style='vertical-align:center; align:center' src=img/fixation3.jpg></div><div class='cl'><div class='vertical-center'>$33<br><br>now</div></div><div class='cr'><div class='vertical-center'><font style='color:orange'>$80<br>in<br>2 weeks</font></div></div><div class='respDivL'><div class='vertical-center'>(E)</div></div><div class='respDivR'><div class='vertical-center'><font style='color:orange'>(I)</font></div></div></div>","null","$33<br><br>now","$80<br>in<br>2 weeks","0","33","80","2",""
"html-keyboard-response","37","50997","0.0-5.0-1.11","63cedc8a97a0bb604736baea","bdp_td","Sun Mar 26 2023 10:42:19 GMT-0600 (Mountain Daylight Time)","86934","","null","","","","FIX","","<div class='trialBorder'><div class='vertical-center'><img style='vertical-align:center; align:center' src=img/fixation3.jpg></div></div>","null","","","","","","",""
"html-keyboard-response","38","51871","0.0-5.0-2.11","63cedc8a97a0bb604736baea","bdp_td","Sun Mar 26 2023 10:42:19 GMT-0600 (Mountain Daylight Time)","86934","","873","","","","offer","","<div class='trialBorder'><div class='vertical-center'><img style='vertical-align:center; align:center' src=img/fixation3.jpg></div><div class='cl'><div class='vertical-center'>$35<br>in<br>3 weeks</div></div><div class='cr'><div class='vertical-center'>$24<br><br>now</div></div><div class='respDivL'><div class='vertical-center'>(E)</div></div><div class='respDivR'><div class='vertical-center'>(I)</div></div></div>","E","$24<br><br>now","$35<br>in<br>3 weeks","1","24","35","3","THEN"
"html-keyboard-response","39","52123","0.0-5.0-3.11","63cedc8a97a0bb604736baea","bdp_td","Sun Mar 26 2023 10:42:19 GMT-0600 (Mountain Daylight Time)","86934","","null","","","","offerFB","","<div class='trialBorder'><div class='vertical-center'><img style='vertical-align:center; align:center' src=img/fixation3.jpg></div><div class='cl'><div class='vertical-center'><font style='color:orange'>$35<br>in<br>3 weeks</font></div></div><div class='cr'><div class='vertical-center'>$24<br><br>now</div></div><div class='respDivL'><div class='vertical-center'><font style='color:orange'>(E)</font></div></div><div class='respDivR'><div class='vertical-center'>(I)</div></div></div>","null","$24<br><br>now","$35<br>in<br>3 weeks","1","24","35","3",""
"html-keyboard-response","40","52628","0.0-5.0-1.12","63cedc8a97a0bb604736baea","bdp_td","Sun Mar 26 2023 10:42:19 GMT-0600 (Mountain Daylight Time)","86934","","null","","","","FIX","","<div class='trialBorder'><div class='vertical-center'><img style='vertical-align:center; align:center' src=img/fixation3.jpg></div></div>","null","","","","","","",""
"html-keyboard-response","41","53509","0.0-5.0-2.12","63cedc8a97a0bb604736baea","bdp_td","Sun Mar 26 2023 10:42:19 GMT-0600 (Mountain Daylight Time)","86934","","881","","","","offer","","<div class='trialBorder'><div class='vertical-center'><img style='vertical-align:center; align:center' src=img/fixation3.jpg></div><div class='cl'><div class='vertical-center'>$69<br><br>now</div></div><div class='cr'><div class='vertical-center'>$85<br>in<br>6 weeks</div></div><div class='respDivL'><div class='vertical-center'>(E)</div></div><div class='respDivR'><div class='vertical-center'>(I)</div></div></div>","I","$69<br><br>now","$85<br>in<br>6 weeks","0","69","85","6","THEN"
"html-keyboard-response","42","53765","0.0-5.0-3.12","63cedc8a97a0bb604736baea","bdp_td","Sun Mar 26 2023 10:42:19 GMT-0600 (Mountain Daylight Time)","86934","","null","","","","offerFB","","<div class='trialBorder'><div class='vertical-center'><img style='vertical-align:center; align:center' src=img/fixation3.jpg></div><div class='cl'><div class='vertical-center'>$69<br><br>now</div></div><div class='cr'><div class='vertical-center'><font style='color:orange'>$85<br>in<br>6 weeks</font></div></div><div class='respDivL'><div class='vertical-center'>(E)</div></div><div class='respDivR'><div class='vertical-center'><font style='color:orange'>(I)</font></div></div></div>","null","$69<br><br>now","$85<br>in<br>6 weeks","0","69","85","6",""
"html-keyboard-response","43","54268","0.0-5.0-1.13","63cedc8a97a0bb604736baea","bdp_td","Sun Mar 26 2023 10:42:19 GMT-0600 (Mountain Daylight Time)","86934","","null","","","","FIX","","<div class='trialBorder'><div class='vertical-center'><img style='vertical-align:center; align:center' src=img/fixation3.jpg></div></div>","null","","","","","","",""
"html-keyboard-response","44","55455","0.0-5.0-2.13","63cedc8a97a0bb604736baea","bdp_td","Sun Mar 26 2023 10:42:19 GMT-0600 (Mountain Daylight Time)","86934","","1187","","","","offer","","<div class='trialBorder'><div class='vertical-center'><img style='vertical-align:center; align:center' src=img/fixation3.jpg></div><div class='cl'><div class='vertical-center'>$25<br>in<br>6 weeks</div></div><div class='cr'><div class='vertical-center'>$19<br><br>now</div></div><div class='respDivL'><div class='vertical-center'>(E)</div></div><div class='respDivR'><div class='vertical-center'>(I)</div></div></div>","E","$19<br><br>now","$25<br>in<br>6 weeks","1","19","25","6","THEN"
"html-keyboard-response","45","55707","0.0-5.0-3.13","63cedc8a97a0bb604736baea","bdp_td","Sun Mar 26 2023 10:42:19 GMT-0600 (Mountain Daylight Time)","86934","","null","","","","offerFB","","<div class='trialBorder'><div class='vertical-center'><img style='vertical-align:center; align:center' src=img/fixation3.jpg></div><div class='cl'><div class='vertical-center'><font style='color:orange'>$25<br>in<br>6 weeks</font></div></div><div class='cr'><div class='vertical-center'>$19<br><br>now</div></div><div class='respDivL'><div class='vertical-center'><font style='color:orange'>(E)</font></div></div><div class='respDivR'><div class='vertical-center'>(I)</div></div></div>","null","$19<br><br>now","$25<br>in<br>6 weeks","1","19","25","6",""
"html-keyboard-response","46","56212","0.0-5.0-1.14","63cedc8a97a0bb604736baea","bdp_td","Sun Mar 26 2023 10:42:19 GMT-0600 (Mountain Daylight Time)","86934","","null","","","","FIX","","<div class='trialBorder'><div class='vertical-center'><img style='vertical-align:center; align:center' src=img/fixation3.jpg></div></div>","null","","","","","","",""
"html-keyboard-response","47","57119","0.0-5.0-2.14","63cedc8a97a0bb604736baea","bdp_td","Sun Mar 26 2023 10:42:19 GMT-0600 (Mountain Daylight Time)","86934","","906","","","","offer","","<div class='trialBorder'><div class='vertical-center'><img style='vertical-align:center; align:center' src=img/fixation3.jpg></div><div class='cl'><div class='vertical-center'>$40<br><br>now</div></div><div class='cr'><div class='vertical-center'>$55<br>in<br>6 weeks</div></div><div class='respDivL'><div class='vertical-center'>(E)</div></div><div class='respDivR'><div class='vertical-center'>(I)</div></div></div>","I","$40<br><br>now","$55<br>in<br>6 weeks","0","40","55","6","THEN"
"html-keyboard-response","48","57379","0.0-5.0-3.14","63cedc8a97a0bb604736baea","bdp_td","Sun Mar 26 2023 10:42:19 GMT-0600 (Mountain Daylight Time)","86934","","null","","","","offerFB","","<div class='trialBorder'><div class='vertical-center'><img style='vertical-align:center; align:center' src=img/fixation3.jpg></div><div class='cl'><div class='vertical-center'>$40<br><br>now</div></div><div class='cr'><div class='vertical-center'><font style='color:orange'>$55<br>in<br>6 weeks</font></div></div><div class='respDivL'><div class='vertical-center'>(E)</div></div><div class='respDivR'><div class='vertical-center'><font style='color:orange'>(I)</font></div></div></div>","null","$40<br><br>now","$55<br>in<br>6 weeks","0","40","55","6",""
"html-keyboard-response","49","57884","0.0-5.0-1.15","63cedc8a97a0bb604736baea","bdp_td","Sun Mar 26 2023 10:42:19 GMT-0600 (Mountain Daylight Time)","86934","","null","","","","FIX","","<div class='trialBorder'><div class='vertical-center'><img style='vertical-align:center; align:center' src=img/fixation3.jpg></div></div>","null","","","","","","",""
"html-keyboard-response","50","58821","0.0-5.0-2.15","63cedc8a97a0bb604736baea","bdp_td","Sun Mar 26 2023 10:42:19 GMT-0600 (Mountain Daylight Time)","86934","","936","","","","offer","","<div class='trialBorder'><div class='vertical-center'><img style='vertical-align:center; align:center' src=img/fixation3.jpg></div><div class='cl'><div class='vertical-center'>$55<br>in<br>12 weeks</div></div><div class='cr'><div class='vertical-center'>$54<br><br>now</div></div><div class='respDivL'><div class='vertical-center'>(E)</div></div><div class='respDivR'><div class='vertical-center'>(I)</div></div></div>","E","$54<br><br>now","$55<br>in<br>12 weeks","1","54","55","12","THEN"
"html-keyboard-response","51","59077","0.0-5.0-3.15","63cedc8a97a0bb604736baea","bdp_td","Sun Mar 26 2023 10:42:19 GMT-0600 (Mountain Daylight Time)","86934","","null","","","","offerFB","","<div class='trialBorder'><div class='vertical-center'><img style='vertical-align:center; align:center' src=img/fixation3.jpg></div><div class='cl'><div class='vertical-center'><font style='color:orange'>$55<br>in<br>12 weeks</font></div></div><div class='cr'><div class='vertical-center'>$54<br><br>now</div></div><div class='respDivL'><div class='vertical-center'><font style='color:orange'>(E)</font></div></div><div class='respDivR'><div class='vertical-center'>(I)</div></div></div>","null","$54<br><br>now","$55<br>in<br>12 weeks","1","54","55","12",""
"html-keyboard-response","52","59579","0.0-5.0-1.16","63cedc8a97a0bb604736baea","bdp_td","Sun Mar 26 2023 10:42:19 GMT-0600 (Mountain Daylight Time)","86934","","null","","","","FIX","","<div class='trialBorder'><div class='vertical-center'><img style='vertical-align:center; align:center' src=img/fixation3.jpg></div></div>","null","","","","","","",""
"html-keyboard-response","53","61422","0.0-5.0-2.16","63cedc8a97a0bb604736baea","bdp_td","Sun Mar 26 2023 10:42:19 GMT-0600 (Mountain Daylight Time)","86934","","1842","","","","offer","","<div class='trialBorder'><div class='vertical-center'><img style='vertical-align:center; align:center' src=img/fixation3.jpg></div><div class='cl'><div class='vertical-center'>$31<br><br>now</div></div><div class='cr'><div class='vertical-center'>$85<br>in<br>1 week</div></div><div class='respDivL'><div class='vertical-center'>(E)</div></div><div class='respDivR'><div class='vertical-center'>(I)</div></div></div>","I","$31<br><br>now","$85<br>in<br>1 week","0","31","85","1","THEN"
"html-keyboard-response","54","61675","0.0-5.0-3.16","63cedc8a97a0bb604736baea","bdp_td","Sun Mar 26 2023 10:42:19 GMT-0600 (Mountain Daylight Time)","86934","","null","","","","offerFB","","<div class='trialBorder'><div class='vertical-center'><img style='vertical-align:center; align:center' src=img/fixation3.jpg></div><div class='cl'><div class='vertical-center'>$31<br><br>now</div></div><div class='cr'><div class='vertical-center'><font style='color:orange'>$85<br>in<br>1 week</font></div></div><div class='respDivL'><div class='vertical-center'>(E)</div></div><div class='respDivR'><div class='vertical-center'><font style='color:orange'>(I)</font></div></div></div>","null","$31<br><br>now","$85<br>in<br>1 week","0","31","85","1",""
"html-keyboard-response","55","62180","0.0-5.0-1.17","63cedc8a97a0bb604736baea","bdp_td","Sun Mar 26 2023 10:42:19 GMT-0600 (Mountain Daylight Time)","86934","","null","","","","FIX","","<div class='trialBorder'><div class='vertical-center'><img style='vertical-align:center; align:center' src=img/fixation3.jpg></div></div>","null","","","","","","",""
"html-keyboard-response","56","63235","0.0-5.0-2.17","63cedc8a97a0bb604736baea","bdp_td","Sun Mar 26 2023 10:42:19 GMT-0600 (Mountain Daylight Time)","86934","","1055","","","","offer","","<div class='trialBorder'><div class='vertical-center'><img style='vertical-align:center; align:center' src=img/fixation3.jpg></div><div class='cl'><div class='vertical-center'>$30<br>in<br>12 weeks</div></div><div class='cr'><div class='vertical-center'>$28<br><br>now</div></div><div class='respDivL'><div class='vertical-center'>(E)</div></div><div class='respDivR'><div class='vertical-center'>(I)</div></div></div>","E","$28<br><br>now","$30<br>in<br>12 weeks","1","28","30","12","THEN"
"html-keyboard-response","57","63491","0.0-5.0-3.17","63cedc8a97a0bb604736baea","bdp_td","Sun Mar 26 2023 10:42:19 GMT-0600 (Mountain Daylight Time)","86934","","null","","","","offerFB","","<div class='trialBorder'><div class='vertical-center'><img style='vertical-align:center; align:center' src=img/fixation3.jpg></div><div class='cl'><div class='vertical-center'><font style='color:orange'>$30<br>in<br>12 weeks</font></div></div><div class='cr'><div class='vertical-center'>$28<br><br>now</div></div><div class='respDivL'><div class='vertical-center'><font style='color:orange'>(E)</font></div></div><div class='respDivR'><div class='vertical-center'>(I)</div></div></div>","null","$28<br><br>now","$30<br>in<br>12 weeks","1","28","30","12",""
"html-keyboard-response","58","63996","0.0-5.0-1.18","63cedc8a97a0bb604736baea","bdp_td","Sun Mar 26 2023 10:42:19 GMT-0600 (Mountain Daylight Time)","86934","","null","","","","FIX","","<div class='trialBorder'><div class='vertical-center'><img style='vertical-align:center; align:center' src=img/fixation3.jpg></div></div>","null","","","","","","",""
"html-keyboard-response","59","65740","0.0-5.0-2.18","63cedc8a97a0bb604736baea","bdp_td","Sun Mar 26 2023 10:42:19 GMT-0600 (Mountain Daylight Time)","86934","","1743","","","","offer","","<div class='trialBorder'><div class='vertical-center'><img style='vertical-align:center; align:center' src=img/fixation3.jpg></div><div class='cl'><div class='vertical-center'>$47<br><br>now</div></div><div class='cr'><div class='vertical-center'>$50<br>in<br>12 weeks</div></div><div class='respDivL'><div class='vertical-center'>(E)</div></div><div class='respDivR'><div class='vertical-center'>(I)</div></div></div>","E","$47<br><br>now","$50<br>in<br>12 weeks","0","47","50","12","NOW"
"html-keyboard-response","60","65997","0.0-5.0-3.18","63cedc8a97a0bb604736baea","bdp_td","Sun Mar 26 2023 10:42:19 GMT-0600 (Mountain Daylight Time)","86934","","null","","","","offerFB","","<div class='trialBorder'><div class='vertical-center'><img style='vertical-align:center; align:center' src=img/fixation3.jpg></div><div class='cl'><div class='vertical-center'><font style='color:orange'>$47<br><br>now</font></div></div><div class='cr'><div class='vertical-center'>$50<br>in<br>12 weeks</div></div><div class='respDivL'><div class='vertical-center'><font style='color:orange'>(E)</font></div></div><div class='respDivR'><div class='vertical-center'>(I)</div></div></div>","null","$47<br><br>now","$50<br>in<br>12 weeks","0","47","50","12",""
"html-keyboard-response","61","66499","0.0-5.0-1.19","63cedc8a97a0bb604736baea","bdp_td","Sun Mar 26 2023 10:42:19 GMT-0600 (Mountain Daylight Time)","86934","","null","","","","FIX","","<div class='trialBorder'><div class='vertical-center'><img style='vertical-align:center; align:center' src=img/fixation3.jpg></div></div>","null","","","","","","",""
"html-keyboard-response","62","69863","0.0-5.0-2.19","63cedc8a97a0bb604736baea","bdp_td","Sun Mar 26 2023 10:42:19 GMT-0600 (Mountain Daylight Time)","86934","","3362","","","","offer","","<div class='trialBorder'><div class='vertical-center'><img style='vertical-align:center; align:center' src=img/fixation3.jpg></div><div class='cl'><div class='vertical-center'>$30<br>in<br>6 weeks</div></div><div class='cr'><div class='vertical-center'>$25<br><br>now</div></div><div class='respDivL'><div class='vertical-center'>(E)</div></div><div class='respDivR'><div class='vertical-center'>(I)</div></div></div>","I","$25<br><br>now","$30<br>in<br>6 weeks","1","25","30","6","NOW"
"html-keyboard-response","63","70115","0.0-5.0-3.19","63cedc8a97a0bb604736baea","bdp_td","Sun Mar 26 2023 10:42:19 GMT-0600 (Mountain Daylight Time)","86934","","null","","","","offerFB","","<div class='trialBorder'><div class='vertical-center'><img style='vertical-align:center; align:center' src=img/fixation3.jpg></div><div class='cl'><div class='vertical-center'>$30<br>in<br>6 weeks</div></div><div class='cr'><div class='vertical-center'><font style='color:orange'>$25<br><br>now</font></div></div><div class='respDivL'><div class='vertical-center'>(E)</div></div><div class='respDivR'><div class='vertical-center'><font style='color:orange'>(I)</font></div></div></div>","null","$25<br><br>now","$30<br>in<br>6 weeks","1","25","30","6",""
"html-keyboard-response","64","70621","0.0-5.0-1.20","63cedc8a97a0bb604736baea","bdp_td","Sun Mar 26 2023 10:42:19 GMT-0600 (Mountain Daylight Time)","86934","","null","","","","FIX","","<div class='trialBorder'><div class='vertical-center'><img style='vertical-align:center; align:center' src=img/fixation3.jpg></div></div>","null","","","","","","",""
"html-keyboard-response","65","72031","0.0-5.0-2.20","63cedc8a97a0bb604736baea","bdp_td","Sun Mar 26 2023 10:42:19 GMT-0600 (Mountain Daylight Time)","86934","","1410","","","","offer","","<div class='trialBorder'><div class='vertical-center'><img style='vertical-align:center; align:center' src=img/fixation3.jpg></div><div class='cl'><div class='vertical-center'>$27<br><br>now</div></div><div class='cr'><div class='vertical-center'>$50<br>in<br>3 weeks</div></div><div class='respDivL'><div class='vertical-center'>(E)</div></div><div class='respDivR'><div class='vertical-center'>(I)</div></div></div>","E","$27<br><br>now","$50<br>in<br>3 weeks","0","27","50","3","NOW"
"html-keyboard-response","66","72284","0.0-5.0-3.20","63cedc8a97a0bb604736baea","bdp_td","Sun Mar 26 2023 10:42:19 GMT-0600 (Mountain Daylight Time)","86934","","null","","","","offerFB","","<div class='trialBorder'><div class='vertical-center'><img style='vertical-align:center; align:center' src=img/fixation3.jpg></div><div class='cl'><div class='vertical-center'><font style='color:orange'>$27<br><br>now</font></div></div><div class='cr'><div class='vertical-center'>$50<br>in<br>3 weeks</div></div><div class='respDivL'><div class='vertical-center'><font style='color:orange'>(E)</font></div></div><div class='respDivR'><div class='vertical-center'>(I)</div></div></div>","null","$27<br><br>now","$50<br>in<br>3 weeks","0","27","50","3",""
"html-keyboard-response","67","72789","0.0-5.0-1.21","63cedc8a97a0bb604736baea","bdp_td","Sun Mar 26 2023 10:42:19 GMT-0600 (Mountain Daylight Time)","86934","","null","","","","FIX","","<div class='trialBorder'><div class='vertical-center'><img style='vertical-align:center; align:center' src=img/fixation3.jpg></div></div>","null","","","","","","",""
"html-keyboard-response","68","74555","0.0-5.0-2.21","63cedc8a97a0bb604736baea","bdp_td","Sun Mar 26 2023 10:42:19 GMT-0600 (Mountain Daylight Time)","86934","","1764","","","","offer","","<div class='trialBorder'><div class='vertical-center'><img style='vertical-align:center; align:center' src=img/fixation3.jpg></div><div class='cl'><div class='vertical-center'>$80<br>in<br>3 weeks</div></div><div class='cr'><div class='vertical-center'>$54<br><br>now</div></div><div class='respDivL'><div class='vertical-center'>(E)</div></div><div class='respDivR'><div class='vertical-center'>(I)</div></div></div>","E","$54<br><br>now","$80<br>in<br>3 weeks","1","54","80","3","THEN"
"html-keyboard-response","69","74812","0.0-5.0-3.21","63cedc8a97a0bb604736baea","bdp_td","Sun Mar 26 2023 10:42:19 GMT-0600 (Mountain Daylight Time)","86934","","null","","","","offerFB","","<div class='trialBorder'><div class='vertical-center'><img style='vertical-align:center; align:center' src=img/fixation3.jpg></div><div class='cl'><div class='vertical-center'><font style='color:orange'>$80<br>in<br>3 weeks</font></div></div><div class='cr'><div class='vertical-center'>$54<br><br>now</div></div><div class='respDivL'><div class='vertical-center'><font style='color:orange'>(E)</font></div></div><div class='respDivR'><div class='vertical-center'>(I)</div></div></div>","null","$54<br><br>now","$80<br>in<br>3 weeks","1","54","80","3",""
"html-keyboard-response","70","75317","0.0-5.0-1.22","63cedc8a97a0bb604736baea","bdp_td","Sun Mar 26 2023 10:42:19 GMT-0600 (Mountain Daylight Time)","86934","","null","","","","FIX","","<div class='trialBorder'><div class='vertical-center'><img style='vertical-align:center; align:center' src=img/fixation3.jpg></div></div>","null","","","","","","",""
"html-keyboard-response","71","77220","0.0-5.0-2.22","63cedc8a97a0bb604736baea","bdp_td","Sun Mar 26 2023 10:42:19 GMT-0600 (Mountain Daylight Time)","86934","","1903","","","","offer","","<div class='trialBorder'><div class='vertical-center'><img style='vertical-align:center; align:center' src=img/fixation3.jpg></div><div class='cl'><div class='vertical-center'>$25<br>in<br>12 weeks</div></div><div class='cr'><div class='vertical-center'>$22<br><br>now</div></div><div class='respDivL'><div class='vertical-center'>(E)</div></div><div class='respDivR'><div class='vertical-center'>(I)</div></div></div>","I","$22<br><br>now","$25<br>in<br>12 weeks","1","22","25","12","NOW"
"html-keyboard-response","72","77477","0.0-5.0-3.22","63cedc8a97a0bb604736baea","bdp_td","Sun Mar 26 2023 10:42:19 GMT-0600 (Mountain Daylight Time)","86934","","null","","","","offerFB","","<div class='trialBorder'><div class='vertical-center'><img style='vertical-align:center; align:center' src=img/fixation3.jpg></div><div class='cl'><div class='vertical-center'>$25<br>in<br>12 weeks</div></div><div class='cr'><div class='vertical-center'><font style='color:orange'>$22<br><br>now</font></div></div><div class='respDivL'><div class='vertical-center'>(E)</div></div><div class='respDivR'><div class='vertical-center'><font style='color:orange'>(I)</font></div></div></div>","null","$22<br><br>now","$25<br>in<br>12 weeks","1","22","25","12",""
"html-keyboard-response","73","77979","0.0-5.0-1.23","63cedc8a97a0bb604736baea","bdp_td","Sun Mar 26 2023 10:42:19 GMT-0600 (Mountain Daylight Time)","86934","","null","","","","FIX","","<div class='trialBorder'><div class='vertical-center'><img style='vertical-align:center; align:center' src=img/fixation3.jpg></div></div>","null","","","","","","",""
"html-keyboard-response","74","79172","0.0-5.0-2.23","63cedc8a97a0bb604736baea","bdp_td","Sun Mar 26 2023 10:42:19 GMT-0600 (Mountain Daylight Time)","86934","","1192","","","","offer","","<div class='trialBorder'><div class='vertical-center'><img style='vertical-align:center; align:center' src=img/fixation3.jpg></div><div class='cl'><div class='vertical-center'>$75<br>in<br>6 weeks</div></div><div class='cr'><div class='vertical-center'>$55<br><br>now</div></div><div class='respDivL'><div class='vertical-center'>(E)</div></div><div class='respDivR'><div class='vertical-center'>(I)</div></div></div>","E","$55<br><br>now","$75<br>in<br>6 weeks","1","55","75","6","THEN"
"html-keyboard-response","75","79427","0.0-5.0-3.23","63cedc8a97a0bb604736baea","bdp_td","Sun Mar 26 2023 10:42:19 GMT-0600 (Mountain Daylight Time)","86934","","null","","","","offerFB","","<div class='trialBorder'><div class='vertical-center'><img style='vertical-align:center; align:center' src=img/fixation3.jpg></div><div class='cl'><div class='vertical-center'><font style='color:orange'>$75<br>in<br>6 weeks</font></div></div><div class='cr'><div class='vertical-center'>$55<br><br>now</div></div><div class='respDivL'><div class='vertical-center'><font style='color:orange'>(E)</font></div></div><div class='respDivR'><div class='vertical-center'>(I)</div></div></div>","null","$55<br><br>now","$75<br>in<br>6 weeks","1","55","75","6",""
"html-keyboard-response","76","79935","0.0-5.0-1.24","63cedc8a97a0bb604736baea","bdp_td","Sun Mar 26 2023 10:42:19 GMT-0600 (Mountain Daylight Time)","86934","","null","","","","FIX","","<div class='trialBorder'><div class='vertical-center'><img style='vertical-align:center; align:center' src=img/fixation3.jpg></div></div>","null","","","","","","",""
"html-keyboard-response","77","81342","0.0-5.0-2.24","63cedc8a97a0bb604736baea","bdp_td","Sun Mar 26 2023 10:42:19 GMT-0600 (Mountain Daylight Time)","86934","","1406","","","","offer","","<div class='trialBorder'><div class='vertical-center'><img style='vertical-align:center; align:center' src=img/fixation3.jpg></div><div class='cl'><div class='vertical-center'>$54<br><br>now</div></div><div class='cr'><div class='vertical-center'>$60<br>in<br>12 weeks</div></div><div class='respDivL'><div class='vertical-center'>(E)</div></div><div class='respDivR'><div class='vertical-center'>(I)</div></div></div>","I","$54<br><br>now","$60<br>in<br>12 weeks","0","54","60","12","THEN"
"html-keyboard-response","78","81596","0.0-5.0-3.24","63cedc8a97a0bb604736baea","bdp_td","Sun Mar 26 2023 10:42:19 GMT-0600 (Mountain Daylight Time)","86934","","null","","","","offerFB","","<div class='trialBorder'><div class='vertical-center'><img style='vertical-align:center; align:center' src=img/fixation3.jpg></div><div class='cl'><div class='vertical-center'>$54<br><br>now</div></div><div class='cr'><div class='vertical-center'><font style='color:orange'>$60<br>in<br>12 weeks</font></div></div><div class='respDivL'><div class='vertical-center'>(E)</div></div><div class='respDivR'><div class='vertical-center'><font style='color:orange'>(I)</font></div></div></div>","null","$54<br><br>now","$60<br>in<br>12 weeks","0","54","60","12",""
"html-keyboard-response","79","82101","0.0-5.0-1.25","63cedc8a97a0bb604736baea","bdp_td","Sun Mar 26 2023 10:42:19 GMT-0600 (Mountain Daylight Time)","86934","","null","","","","FIX","","<div class='trialBorder'><div class='vertical-center'><img style='vertical-align:center; align:center' src=img/fixation3.jpg></div></div>","null","","","","","","",""
"html-keyboard-response","80","83469","0.0-5.0-2.25","63cedc8a97a0bb604736baea","bdp_td","Sun Mar 26 2023 10:42:19 GMT-0600 (Mountain Daylight Time)","86934","","1366","","","","offer","","<div class='trialBorder'><div class='vertical-center'><img style='vertical-align:center; align:center' src=img/fixation3.jpg></div><div class='cl'><div class='vertical-center'>$41<br><br>now</div></div><div class='cr'><div class='vertical-center'>$75<br>in<br>3 weeks</div></div><div class='respDivL'><div class='vertical-center'>(E)</div></div><div class='respDivR'><div class='vertical-center'>(I)</div></div></div>","I","$41<br><br>now","$75<br>in<br>3 weeks","0","41","75","3","THEN"
"html-keyboard-response","81","83726","0.0-5.0-3.25","63cedc8a97a0bb604736baea","bdp_td","Sun Mar 26 2023 10:42:19 GMT-0600 (Mountain Daylight Time)","86934","","null","","","","offerFB","","<div class='trialBorder'><div class='vertical-center'><img style='vertical-align:center; align:center' src=img/fixation3.jpg></div><div class='cl'><div class='vertical-center'>$41<br><br>now</div></div><div class='cr'><div class='vertical-center'><font style='color:orange'>$75<br>in<br>3 weeks</font></div></div><div class='respDivL'><div class='vertical-center'>(E)</div></div><div class='respDivR'><div class='vertical-center'><font style='color:orange'>(I)</font></div></div></div>","null","$41<br><br>now","$75<br>in<br>3 weeks","0","41","75","3",""
"html-keyboard-response","82","84228","0.0-5.0-1.26","63cedc8a97a0bb604736baea","bdp_td","Sun Mar 26 2023 10:42:19 GMT-0600 (Mountain Daylight Time)","86934","","null","","","","FIX","","<div class='trialBorder'><div class='vertical-center'><img style='vertical-align:center; align:center' src=img/fixation3.jpg></div></div>","null","","","","","","",""
"html-keyboard-response","83","85672","0.0-5.0-2.26","63cedc8a97a0bb604736baea","bdp_td","Sun Mar 26 2023 10:42:19 GMT-0600 (Mountain Daylight Time)","86934","","1443","","","","offer","","<div class='trialBorder'><div class='vertical-center'><img style='vertical-align:center; align:center' src=img/fixation3.jpg></div><div class='cl'><div class='vertical-center'>$14<br><br>now</div></div><div class='cr'><div class='vertical-center'>$25<br>in<br>3 weeks</div></div><div class='respDivL'><div class='vertical-center'>(E)</div></div><div class='respDivR'><div class='vertical-center'>(I)</div></div></div>","I","$14<br><br>now","$25<br>in<br>3 weeks","0","14","25","3","THEN"
"html-keyboard-response","84","85927","0.0-5.0-3.26","63cedc8a97a0bb604736baea","bdp_td","Sun Mar 26 2023 10:42:19 GMT-0600 (Mountain Daylight Time)","86934","","null","","","","offerFB","","<div class='trialBorder'><div class='vertical-center'><img style='vertical-align:center; align:center' src=img/fixation3.jpg></div><div class='cl'><div class='vertical-center'>$14<br><br>now</div></div><div class='cr'><div class='vertical-center'><font style='color:orange'>$25<br>in<br>3 weeks</font></div></div><div class='respDivL'><div class='vertical-center'>(E)</div></div><div class='respDivR'><div class='vertical-center'><font style='color:orange'>(I)</font></div></div></div>","null","$14<br><br>now","$25<br>in<br>3 weeks","0","14","25","3",""
"","","","","63cedc8a97a0bb604736baea","bdp_td","Sun Mar 26 2023 10:42:19 GMT-0600 (Mountain Daylight Time)","86934","","","fullscreenexit","85","85931","fullscreenexit","","","","","","","","","",""
"fullscreen","85","86933","0.0-6.0","63cedc8a97a0bb604736baea","bdp_td","Sun Mar 26 2023 10:42:19 GMT-0600 (Mountain Daylight Time)","86934","","","","","","","true","","","","","","","","",""
"html-keyboard-response","86","87436","0.0-7.0","","","","","","null","","","","","","","null","","","","","","",""
