"trial_type","trial_index","time_elapsed","internal_node_id","subject_id","task","startTime","totalTime","view_history","rt","event","trial","time","trialtype","success","response","stimulus","group","fraction","maxAmt","sliderStart","key_press"
"pavlovia","0","10","0.0-0.0","6400ed09421b2727c2f7c553","bdp_bc","Sat Mar 25 2023 22:24:51 GMT-0400 (Eastern Daylight Time)","458741","","","","","","","","","","","","","",""
"instructions","1","4612","0.0-1.0","6400ed09421b2727c2f7c553","bdp_bc","Sat Mar 25 2023 22:24:51 GMT-0400 (Eastern Daylight Time)","458741","[{""page_index"":0,""viewing_time"":4601}]","4601","","","","","","","","","","","",""
"","","","","6400ed09421b2727c2f7c553","bdp_bc","Sat Mar 25 2023 22:24:51 GMT-0400 (Eastern Daylight Time)","458741","","","fullscreenenter","2","6695","fullscreenenter","","","","","","","",""
"fullscreen","2","7659","0.0-2.0","6400ed09421b2727c2f7c553","bdp_bc","Sat Mar 25 2023 22:24:51 GMT-0400 (Eastern Daylight Time)","458741","","","","","","","true","","","","","","",""
"instructions","3","287144","0.0-4.0","6400ed09421b2727c2f7c553","bdp_bc","Sat Mar 25 2023 22:24:51 GMT-0400 (Eastern Daylight Time)","458741","[{""page_index"":0,""viewing_time"":70512},{""page_index"":1,""viewing_time"":57953},{""page_index"":2,""viewing_time"":96174},{""page_index"":3,""viewing_time"":9406},{""page_index"":4,""viewing_time"":4775},{""page_index"":5,""viewing_time"":14312},{""page_index"":6,""viewing_time"":5859},{""page_index"":7,""viewing_time"":20492}]","279483","","","","","","","","","","","",""
"html-slider-response","4","319214","0.0-5.0-1.0","6400ed09421b2727c2f7c553","bdp_bc","Sat Mar 25 2023 22:24:51 GMT-0400 (Eastern Daylight Time)","458741","","32063","","","","decision","","11","<div class='trialBorder'><div class='vertical-center'><p>On this round, please imagine that you are playing with a group of:<br><strong>complete strangers</strong>.<p>The target value for this round is:<br><strong>1/3 or 33%</strong>.<p><p>Please adjust the slider below to enter the value between 0 and 100 that you think would be equal to <strong>1/3 or 33%</strong> of the average of what a group of <strong>complete strangers</strong> would guess.</div></div>","complete strangers","1/3 or 33%","","50",""
"html-slider-response","5","339987","0.0-5.0-1.1","6400ed09421b2727c2f7c553","bdp_bc","Sat Mar 25 2023 22:24:51 GMT-0400 (Eastern Daylight Time)","458741","","20766","","","","decision","","8","<div class='trialBorder'><div class='vertical-center'><p>On this round, please imagine that you are playing with a group of:<br><strong>your closest friends</strong>.<p>The target value for this round is:<br><strong>1/4 or 25%</strong>.<p><p>Please adjust the slider below to enter the value between 0 and 100 that you think would be equal to <strong>1/4 or 25%</strong> of the average of what a group of <strong>your closest friends</strong> would guess.</div></div>","your closest friends","1/4 or 25%","","50",""
"html-slider-response","6","348321","0.0-5.0-1.2","6400ed09421b2727c2f7c553","bdp_bc","Sat Mar 25 2023 22:24:51 GMT-0400 (Eastern Daylight Time)","458741","","8331","","","","decision","","43","<div class='trialBorder'><div class='vertical-center'><p>On this round, please imagine that you are playing with a group of:<br><strong>your acquaintances</strong>.<p>The target value for this round is:<br><strong>3/4 or 75%</strong>.<p><p>Please adjust the slider below to enter the value between 0 and 100 that you think would be equal to <strong>3/4 or 75%</strong> of the average of what a group of <strong>your acquaintances</strong> would guess.</div></div>","your acquaintances","3/4 or 75%","","50",""
"html-slider-response","7","353272","0.0-5.0-1.3","6400ed09421b2727c2f7c553","bdp_bc","Sat Mar 25 2023 22:24:51 GMT-0400 (Eastern Daylight Time)","458741","","4947","","","","decision","","36","<div class='trialBorder'><div class='vertical-center'><p>On this round, please imagine that you are playing with a group of:<br><strong>your high school classmates</strong>.<p>The target value for this round is:<br><strong>2/3 or 67%</strong>.<p><p>Please adjust the slider below to enter the value between 0 and 100 that you think would be equal to <strong>2/3 or 67%</strong> of the average of what a group of <strong>your high school classmates</strong> would guess.</div></div>","your high school classmates","2/3 or 67%","","50",""
"html-slider-response","8","366624","0.0-5.0-1.4","6400ed09421b2727c2f7c553","bdp_bc","Sat Mar 25 2023 22:24:51 GMT-0400 (Eastern Daylight Time)","458741","","13348","","","","decision","","21","<div class='trialBorder'><div class='vertical-center'><p>On this round, please imagine that you are playing with a group of:<br><strong>other prolific workers</strong>.<p>The target value for this round is:<br><strong>1/2 or 50%</strong>.<p><p>Please adjust the slider below to enter the value between 0 and 100 that you think would be equal to <strong>1/2 or 50%</strong> of the average of what a group of <strong>other prolific workers</strong> would guess.</div></div>","other prolific workers","1/2 or 50%","","50",""
"instructions","9","380845","0.0-6.0","6400ed09421b2727c2f7c553","bdp_bc","Sat Mar 25 2023 22:24:51 GMT-0400 (Eastern Daylight Time)","458741","[{""page_index"":0,""viewing_time"":14220}]","14220","","","","","","","","","","","",""
"html-slider-response","10","396581","0.0-7.0-1.0","6400ed09421b2727c2f7c553","bdp_bc","Sat Mar 25 2023 22:24:51 GMT-0400 (Eastern Daylight Time)","458741","","15732","","","","simRating","","8","<div class='trialBorder'><div class='vertical-center'><p>Think about the group of <strong>your closest friends</strong> that you imagined earlier.<p><p>Using the slider below, <strong>please rate how likely <br>(1=Not-at-all likely, 9=Very likely)<br>they would be to think like you</strong>.</div></div>","your closest friends","","","",""
"html-slider-response","11","409120","0.0-7.0-1.1","6400ed09421b2727c2f7c553","bdp_bc","Sat Mar 25 2023 22:24:51 GMT-0400 (Eastern Daylight Time)","458741","","12536","","","","simRating","","6","<div class='trialBorder'><div class='vertical-center'><p>Think about the group of <strong>other prolific workers</strong> that you imagined earlier.<p><p>Using the slider below, <strong>please rate how likely <br>(1=Not-at-all likely, 9=Very likely)<br>they would be to think like you</strong>.</div></div>","other prolific workers","","","",""
"html-slider-response","12","414085","0.0-7.0-1.2","6400ed09421b2727c2f7c553","bdp_bc","Sat Mar 25 2023 22:24:51 GMT-0400 (Eastern Daylight Time)","458741","","4962","","","","simRating","","7","<div class='trialBorder'><div class='vertical-center'><p>Think about the group of <strong>your high school classmates</strong> that you imagined earlier.<p><p>Using the slider below, <strong>please rate how likely <br>(1=Not-at-all likely, 9=Very likely)<br>they would be to think like you</strong>.</div></div>","your high school classmates","","","",""
"html-slider-response","13","419203","0.0-7.0-1.3","6400ed09421b2727c2f7c553","bdp_bc","Sat Mar 25 2023 22:24:51 GMT-0400 (Eastern Daylight Time)","458741","","5115","","","","simRating","","5","<div class='trialBorder'><div class='vertical-center'><p>Think about the group of <strong>complete strangers</strong> that you imagined earlier.<p><p>Using the slider below, <strong>please rate how likely <br>(1=Not-at-all likely, 9=Very likely)<br>they would be to think like you</strong>.</div></div>","complete strangers","","","",""
"html-slider-response","14","424622","0.0-7.0-1.4","6400ed09421b2727c2f7c553","bdp_bc","Sat Mar 25 2023 22:24:51 GMT-0400 (Eastern Daylight Time)","458741","","5415","","","","simRating","","7","<div class='trialBorder'><div class='vertical-center'><p>Think about the group of <strong>your acquaintances</strong> that you imagined earlier.<p><p>Using the slider below, <strong>please rate how likely <br>(1=Not-at-all likely, 9=Very likely)<br>they would be to think like you</strong>.</div></div>","your acquaintances","","","",""
"instructions","15","431355","0.0-8.0","6400ed09421b2727c2f7c553","bdp_bc","Sat Mar 25 2023 22:24:51 GMT-0400 (Eastern Daylight Time)","458741","[{""page_index"":0,""viewing_time"":6732}]","6732","","","","","","","","","","","",""
"html-slider-response","16","440690","0.0-9.0-1.0","6400ed09421b2727c2f7c553","bdp_bc","Sat Mar 25 2023 22:24:51 GMT-0400 (Eastern Daylight Time)","458741","","9332","","","","abilRating","","7","<div class='trialBorder'><div class='vertical-center'><p>Think about the group of <strong>your acquaintances</strong> that you imagined earlier.<p><p>Using the slider below, <strong>please rate how well <br>(1=Not-at-all well, 9=Very well)<br>you think they would perform in this game</strong>.</div></div>","your acquaintances","","","",""
"html-slider-response","17","445637","0.0-9.0-1.1","6400ed09421b2727c2f7c553","bdp_bc","Sat Mar 25 2023 22:24:51 GMT-0400 (Eastern Daylight Time)","458741","","4941","","","","abilRating","","7","<div class='trialBorder'><div class='vertical-center'><p>Think about the group of <strong>your closest friends</strong> that you imagined earlier.<p><p>Using the slider below, <strong>please rate how well <br>(1=Not-at-all well, 9=Very well)<br>you think they would perform in this game</strong>.</div></div>","your closest friends","","","",""
"html-slider-response","18","449602","0.0-9.0-1.2","6400ed09421b2727c2f7c553","bdp_bc","Sat Mar 25 2023 22:24:51 GMT-0400 (Eastern Daylight Time)","458741","","3962","","","","abilRating","","6","<div class='trialBorder'><div class='vertical-center'><p>Think about the group of <strong>complete strangers</strong> that you imagined earlier.<p><p>Using the slider below, <strong>please rate how well <br>(1=Not-at-all well, 9=Very well)<br>you think they would perform in this game</strong>.</div></div>","complete strangers","","","",""
"html-slider-response","19","453474","0.0-9.0-1.3","6400ed09421b2727c2f7c553","bdp_bc","Sat Mar 25 2023 22:24:51 GMT-0400 (Eastern Daylight Time)","458741","","3868","","","","abilRating","","6","<div class='trialBorder'><div class='vertical-center'><p>Think about the group of <strong>your high school classmates</strong> that you imagined earlier.<p><p>Using the slider below, <strong>please rate how well <br>(1=Not-at-all well, 9=Very well)<br>you think they would perform in this game</strong>.</div></div>","your high school classmates","","","",""
"html-slider-response","20","457737","0.0-9.0-1.4","6400ed09421b2727c2f7c553","bdp_bc","Sat Mar 25 2023 22:24:51 GMT-0400 (Eastern Daylight Time)","458741","","4254","","","","abilRating","","7","<div class='trialBorder'><div class='vertical-center'><p>Think about the group of <strong>other prolific workers</strong> that you imagined earlier.<p><p>Using the slider below, <strong>please rate how well <br>(1=Not-at-all well, 9=Very well)<br>you think they would perform in this game</strong>.</div></div>","other prolific workers","","","",""
"","","","","6400ed09421b2727c2f7c553","bdp_bc","Sat Mar 25 2023 22:24:51 GMT-0400 (Eastern Daylight Time)","458741","","","fullscreenexit","21","457778","fullscreenexit","","","","","","","",""
"fullscreen","21","458740","0.0-10.0","6400ed09421b2727c2f7c553","bdp_bc","Sat Mar 25 2023 22:24:51 GMT-0400 (Eastern Daylight Time)","458741","","","","","","","true","","","","","","",""
"html-keyboard-response","22","459243","0.0-11.0","","","","","","null","","","","","","","","","","","","null"
