"trial_type","trial_index","time_elapsed","internal_node_id","subject_id","task","startTime","totalTime","view_history","rt","event","trial","time","trialtype","success","response","stimulus","group","fraction","maxAmt","sliderStart","key_press"
"pavlovia","0","10","0.0-0.0","63fffd232a889b722046523c","bdp_bc","Mon Mar 27 2023 23:39:58 GMT-0700 (Mountain Standard Time)","481442","","","","","","","","","","","","","",""
"instructions","1","3069","0.0-1.0","63fffd232a889b722046523c","bdp_bc","Mon Mar 27 2023 23:39:58 GMT-0700 (Mountain Standard Time)","481442","[{""page_index"":0,""viewing_time"":3057}]","3058","","","","","","","","","","","",""
"","","","","63fffd232a889b722046523c","bdp_bc","Mon Mar 27 2023 23:39:58 GMT-0700 (Mountain Standard Time)","481442","","","fullscreenenter","2","5285","fullscreenenter","","","","","","","",""
"fullscreen","2","6235","0.0-2.0","63fffd232a889b722046523c","bdp_bc","Mon Mar 27 2023 23:39:58 GMT-0700 (Mountain Standard Time)","481442","","","","","","","true","","","","","","",""
"instructions","3","246948","0.0-4.0","63fffd232a889b722046523c","bdp_bc","Mon Mar 27 2023 23:39:58 GMT-0700 (Mountain Standard Time)","481442","[{""page_index"":0,""viewing_time"":59739},{""page_index"":1,""viewing_time"":64042},{""page_index"":2,""viewing_time"":24842},{""page_index"":3,""viewing_time"":26467},{""page_index"":4,""viewing_time"":31407},{""page_index"":5,""viewing_time"":3432},{""page_index"":6,""viewing_time"":3678},{""page_index"":7,""viewing_time"":27104}]","240712","","","","","","","","","","","",""
"html-slider-response","4","306157","0.0-5.0-1.0","63fffd232a889b722046523c","bdp_bc","Mon Mar 27 2023 23:39:58 GMT-0700 (Mountain Standard Time)","481442","","59202","","","","decision","","19","<div class='trialBorder'><div class='vertical-center'><p>On this round, please imagine that you are playing with a group of:<br><strong>your acquaintances</strong>.<p>The target value for this round is:<br><strong>1/3 or 33%</strong>.<p><p>Please adjust the slider below to enter the value between 0 and 100 that you think would be equal to <strong>1/3 or 33%</strong> of the average of what a group of <strong>your acquaintances</strong> would guess.</div></div>","your acquaintances","1/3 or 33%","","50",""
"html-slider-response","5","325147","0.0-5.0-1.1","63fffd232a889b722046523c","bdp_bc","Mon Mar 27 2023 23:39:58 GMT-0700 (Mountain Standard Time)","481442","","18985","","","","decision","","50","<div class='trialBorder'><div class='vertical-center'><p>On this round, please imagine that you are playing with a group of:<br><strong>your closest friends</strong>.<p>The target value for this round is:<br><strong>1/2 or 50%</strong>.<p><p>Please adjust the slider below to enter the value between 0 and 100 that you think would be equal to <strong>1/2 or 50%</strong> of the average of what a group of <strong>your closest friends</strong> would guess.</div></div>","your closest friends","1/2 or 50%","","50",""
"html-slider-response","6","365925","0.0-5.0-1.2","63fffd232a889b722046523c","bdp_bc","Mon Mar 27 2023 23:39:58 GMT-0700 (Mountain Standard Time)","481442","","40773","","","","decision","","100","<div class='trialBorder'><div class='vertical-center'><p>On this round, please imagine that you are playing with a group of:<br><strong>your high school classmates</strong>.<p>The target value for this round is:<br><strong>1/4 or 25%</strong>.<p><p>Please adjust the slider below to enter the value between 0 and 100 that you think would be equal to <strong>1/4 or 25%</strong> of the average of what a group of <strong>your high school classmates</strong> would guess.</div></div>","your high school classmates","1/4 or 25%","","50",""
"html-slider-response","7","395255","0.0-5.0-1.3","63fffd232a889b722046523c","bdp_bc","Mon Mar 27 2023 23:39:58 GMT-0700 (Mountain Standard Time)","481442","","29325","","","","decision","","29","<div class='trialBorder'><div class='vertical-center'><p>On this round, please imagine that you are playing with a group of:<br><strong>other prolific workers</strong>.<p>The target value for this round is:<br><strong>2/3 or 67%</strong>.<p><p>Please adjust the slider below to enter the value between 0 and 100 that you think would be equal to <strong>2/3 or 67%</strong> of the average of what a group of <strong>other prolific workers</strong> would guess.</div></div>","other prolific workers","2/3 or 67%","","50",""
"html-slider-response","8","409705","0.0-5.0-1.4","63fffd232a889b722046523c","bdp_bc","Mon Mar 27 2023 23:39:58 GMT-0700 (Mountain Standard Time)","481442","","14445","","","","decision","","70","<div class='trialBorder'><div class='vertical-center'><p>On this round, please imagine that you are playing with a group of:<br><strong>complete strangers</strong>.<p>The target value for this round is:<br><strong>3/4 or 75%</strong>.<p><p>Please adjust the slider below to enter the value between 0 and 100 that you think would be equal to <strong>3/4 or 75%</strong> of the average of what a group of <strong>complete strangers</strong> would guess.</div></div>","complete strangers","3/4 or 75%","","50",""
"instructions","9","421680","0.0-6.0","63fffd232a889b722046523c","bdp_bc","Mon Mar 27 2023 23:39:58 GMT-0700 (Mountain Standard Time)","481442","[{""page_index"":0,""viewing_time"":11973}]","11973","","","","","","","","","","","",""
"html-slider-response","10","432935","0.0-7.0-1.0","63fffd232a889b722046523c","bdp_bc","Mon Mar 27 2023 23:39:58 GMT-0700 (Mountain Standard Time)","481442","","11252","","","","simRating","","2","<div class='trialBorder'><div class='vertical-center'><p>Think about the group of <strong>complete strangers</strong> that you imagined earlier.<p><p>Using the slider below, <strong>please rate how likely <br>(1=Not-at-all likely, 9=Very likely)<br>they would be to think like you</strong>.</div></div>","complete strangers","","","",""
"html-slider-response","11","438454","0.0-7.0-1.1","63fffd232a889b722046523c","bdp_bc","Mon Mar 27 2023 23:39:58 GMT-0700 (Mountain Standard Time)","481442","","5513","","","","simRating","","8","<div class='trialBorder'><div class='vertical-center'><p>Think about the group of <strong>your high school classmates</strong> that you imagined earlier.<p><p>Using the slider below, <strong>please rate how likely <br>(1=Not-at-all likely, 9=Very likely)<br>they would be to think like you</strong>.</div></div>","your high school classmates","","","",""
"html-slider-response","12","443479","0.0-7.0-1.2","63fffd232a889b722046523c","bdp_bc","Mon Mar 27 2023 23:39:58 GMT-0700 (Mountain Standard Time)","481442","","5022","","","","simRating","","6","<div class='trialBorder'><div class='vertical-center'><p>Think about the group of <strong>your acquaintances</strong> that you imagined earlier.<p><p>Using the slider below, <strong>please rate how likely <br>(1=Not-at-all likely, 9=Very likely)<br>they would be to think like you</strong>.</div></div>","your acquaintances","","","",""
"html-slider-response","13","446104","0.0-7.0-1.3","63fffd232a889b722046523c","bdp_bc","Mon Mar 27 2023 23:39:58 GMT-0700 (Mountain Standard Time)","481442","","2623","","","","simRating","","9","<div class='trialBorder'><div class='vertical-center'><p>Think about the group of <strong>your closest friends</strong> that you imagined earlier.<p><p>Using the slider below, <strong>please rate how likely <br>(1=Not-at-all likely, 9=Very likely)<br>they would be to think like you</strong>.</div></div>","your closest friends","","","",""
"html-slider-response","14","449704","0.0-7.0-1.4","63fffd232a889b722046523c","bdp_bc","Mon Mar 27 2023 23:39:58 GMT-0700 (Mountain Standard Time)","481442","","3597","","","","simRating","","3","<div class='trialBorder'><div class='vertical-center'><p>Think about the group of <strong>other prolific workers</strong> that you imagined earlier.<p><p>Using the slider below, <strong>please rate how likely <br>(1=Not-at-all likely, 9=Very likely)<br>they would be to think like you</strong>.</div></div>","other prolific workers","","","",""
"instructions","15","461448","0.0-8.0","63fffd232a889b722046523c","bdp_bc","Mon Mar 27 2023 23:39:58 GMT-0700 (Mountain Standard Time)","481442","[{""page_index"":0,""viewing_time"":11744}]","11744","","","","","","","","","","","",""
"html-slider-response","16","467020","0.0-9.0-1.0","63fffd232a889b722046523c","bdp_bc","Mon Mar 27 2023 23:39:58 GMT-0700 (Mountain Standard Time)","481442","","5568","","","","abilRating","","6","<div class='trialBorder'><div class='vertical-center'><p>Think about the group of <strong>other prolific workers</strong> that you imagined earlier.<p><p>Using the slider below, <strong>please rate how well <br>(1=Not-at-all well, 9=Very well)<br>you think they would perform in this game</strong>.</div></div>","other prolific workers","","","",""
"html-slider-response","17","470329","0.0-9.0-1.1","63fffd232a889b722046523c","bdp_bc","Mon Mar 27 2023 23:39:58 GMT-0700 (Mountain Standard Time)","481442","","3305","","","","abilRating","","7","<div class='trialBorder'><div class='vertical-center'><p>Think about the group of <strong>your acquaintances</strong> that you imagined earlier.<p><p>Using the slider below, <strong>please rate how well <br>(1=Not-at-all well, 9=Very well)<br>you think they would perform in this game</strong>.</div></div>","your acquaintances","","","",""
"html-slider-response","18","473375","0.0-9.0-1.2","63fffd232a889b722046523c","bdp_bc","Mon Mar 27 2023 23:39:58 GMT-0700 (Mountain Standard Time)","481442","","3042","","","","abilRating","","8","<div class='trialBorder'><div class='vertical-center'><p>Think about the group of <strong>your closest friends</strong> that you imagined earlier.<p><p>Using the slider below, <strong>please rate how well <br>(1=Not-at-all well, 9=Very well)<br>you think they would perform in this game</strong>.</div></div>","your closest friends","","","",""
"html-slider-response","19","476730","0.0-9.0-1.3","63fffd232a889b722046523c","bdp_bc","Mon Mar 27 2023 23:39:58 GMT-0700 (Mountain Standard Time)","481442","","3353","","","","abilRating","","4","<div class='trialBorder'><div class='vertical-center'><p>Think about the group of <strong>complete strangers</strong> that you imagined earlier.<p><p>Using the slider below, <strong>please rate how well <br>(1=Not-at-all well, 9=Very well)<br>you think they would perform in this game</strong>.</div></div>","complete strangers","","","",""
"html-slider-response","20","480438","0.0-9.0-1.4","63fffd232a889b722046523c","bdp_bc","Mon Mar 27 2023 23:39:58 GMT-0700 (Mountain Standard Time)","481442","","3705","","","","abilRating","","6","<div class='trialBorder'><div class='vertical-center'><p>Think about the group of <strong>your high school classmates</strong> that you imagined earlier.<p><p>Using the slider below, <strong>please rate how well <br>(1=Not-at-all well, 9=Very well)<br>you think they would perform in this game</strong>.</div></div>","your high school classmates","","","",""
"","","","","63fffd232a889b722046523c","bdp_bc","Mon Mar 27 2023 23:39:58 GMT-0700 (Mountain Standard Time)","481442","","","fullscreenexit","21","480515","fullscreenexit","","","","","","","",""
"fullscreen","21","481442","0.0-10.0","63fffd232a889b722046523c","bdp_bc","Mon Mar 27 2023 23:39:58 GMT-0700 (Mountain Standard Time)","481442","","","","","","","true","","","","","","",""
"html-keyboard-response","22","481945","0.0-11.0","","","","","","null","","","","","","","","","","","","null"
