"trial_type","trial_index","time_elapsed","internal_node_id","subject_id","task","startTime","totalTime","view_history","rt","event","trial","time","trialtype","success","response","stimulus","group","fraction","maxAmt","sliderStart","key_press"
"pavlovia","0","3","0.0-0.0","63f791692fa22034babcdda1","bdp_bc","Sat Mar 25 2023 20:08:52 GMT-0400 (Eastern Daylight Time)","312634","","","","","","","","","","","","","",""
"instructions","1","1550","0.0-1.0","63f791692fa22034babcdda1","bdp_bc","Sat Mar 25 2023 20:08:52 GMT-0400 (Eastern Daylight Time)","312634","[{""page_index"":0,""viewing_time"":1547}]","1547","","","","","","","","","","","",""
"","","","","63f791692fa22034babcdda1","bdp_bc","Sat Mar 25 2023 20:08:52 GMT-0400 (Eastern Daylight Time)","312634","","","fullscreenenter","2","4532","fullscreenenter","","","","","","","",""
"fullscreen","2","5512","0.0-2.0","63f791692fa22034babcdda1","bdp_bc","Sat Mar 25 2023 20:08:52 GMT-0400 (Eastern Daylight Time)","312634","","","","","","","true","","","","","","",""
"instructions","3","210770","0.0-4.0","63f791692fa22034babcdda1","bdp_bc","Sat Mar 25 2023 20:08:52 GMT-0400 (Eastern Daylight Time)","312634","[{""page_index"":0,""viewing_time"":38481},{""page_index"":1,""viewing_time"":71225},{""page_index"":2,""viewing_time"":39568},{""page_index"":3,""viewing_time"":7971},{""page_index"":4,""viewing_time"":18122},{""page_index"":5,""viewing_time"":11363},{""page_index"":6,""viewing_time"":4844},{""page_index"":7,""viewing_time"":13684}]","205258","","","","","","","","","","","",""
"html-slider-response","4","220927","0.0-5.0-1.0","63f791692fa22034babcdda1","bdp_bc","Sat Mar 25 2023 20:08:52 GMT-0400 (Eastern Daylight Time)","312634","","10151","","","","decision","","44","<div class='trialBorder'><div class='vertical-center'><p>On this round, please imagine that you are playing with a group of:<br><strong>your closest friends</strong>.<p>The target value for this round is:<br><strong>2/3 or 67%</strong>.<p><p>Please adjust the slider below to enter the value between 0 and 100 that you think would be equal to <strong>2/3 or 67%</strong> of the average of what a group of <strong>your closest friends</strong> would guess.</div></div>","your closest friends","2/3 or 67%","","50",""
"html-slider-response","5","228334","0.0-5.0-1.1","63f791692fa22034babcdda1","bdp_bc","Sat Mar 25 2023 20:08:52 GMT-0400 (Eastern Daylight Time)","312634","","7406","","","","decision","","13","<div class='trialBorder'><div class='vertical-center'><p>On this round, please imagine that you are playing with a group of:<br><strong>your high school classmates</strong>.<p>The target value for this round is:<br><strong>1/3 or 33%</strong>.<p><p>Please adjust the slider below to enter the value between 0 and 100 that you think would be equal to <strong>1/3 or 33%</strong> of the average of what a group of <strong>your high school classmates</strong> would guess.</div></div>","your high school classmates","1/3 or 33%","","50",""
"html-slider-response","6","231974","0.0-5.0-1.2","63f791692fa22034babcdda1","bdp_bc","Sat Mar 25 2023 20:08:52 GMT-0400 (Eastern Daylight Time)","312634","","3639","","","","decision","","20","<div class='trialBorder'><div class='vertical-center'><p>On this round, please imagine that you are playing with a group of:<br><strong>other prolific workers</strong>.<p>The target value for this round is:<br><strong>1/4 or 25%</strong>.<p><p>Please adjust the slider below to enter the value between 0 and 100 that you think would be equal to <strong>1/4 or 25%</strong> of the average of what a group of <strong>other prolific workers</strong> would guess.</div></div>","other prolific workers","1/4 or 25%","","50",""
"html-slider-response","7","236158","0.0-5.0-1.3","63f791692fa22034babcdda1","bdp_bc","Sat Mar 25 2023 20:08:52 GMT-0400 (Eastern Daylight Time)","312634","","4183","","","","decision","","47","<div class='trialBorder'><div class='vertical-center'><p>On this round, please imagine that you are playing with a group of:<br><strong>your acquaintances</strong>.<p>The target value for this round is:<br><strong>3/4 or 75%</strong>.<p><p>Please adjust the slider below to enter the value between 0 and 100 that you think would be equal to <strong>3/4 or 75%</strong> of the average of what a group of <strong>your acquaintances</strong> would guess.</div></div>","your acquaintances","3/4 or 75%","","50",""
"html-slider-response","8","239374","0.0-5.0-1.4","63f791692fa22034babcdda1","bdp_bc","Sat Mar 25 2023 20:08:52 GMT-0400 (Eastern Daylight Time)","312634","","3215","","","","decision","","41","<div class='trialBorder'><div class='vertical-center'><p>On this round, please imagine that you are playing with a group of:<br><strong>complete strangers</strong>.<p>The target value for this round is:<br><strong>1/2 or 50%</strong>.<p><p>Please adjust the slider below to enter the value between 0 and 100 that you think would be equal to <strong>1/2 or 50%</strong> of the average of what a group of <strong>complete strangers</strong> would guess.</div></div>","complete strangers","1/2 or 50%","","50",""
"instructions","9","241939","0.0-6.0","63f791692fa22034babcdda1","bdp_bc","Sat Mar 25 2023 20:08:52 GMT-0400 (Eastern Daylight Time)","312634","[{""page_index"":0,""viewing_time"":2564}]","2565","","","","","","","","","","","",""
"html-slider-response","10","263718","0.0-7.0-1.0","63f791692fa22034babcdda1","bdp_bc","Sat Mar 25 2023 20:08:52 GMT-0400 (Eastern Daylight Time)","312634","","21779","","","","simRating","","7","<div class='trialBorder'><div class='vertical-center'><p>Think about the group of <strong>your high school classmates</strong> that you imagined earlier.<p><p>Using the slider below, <strong>please rate how likely <br>(1=Not-at-all likely, 9=Very likely)<br>they would be to think like you</strong>.</div></div>","your high school classmates","","","",""
"html-slider-response","11","273206","0.0-7.0-1.1","63f791692fa22034babcdda1","bdp_bc","Sat Mar 25 2023 20:08:52 GMT-0400 (Eastern Daylight Time)","312634","","9485","","","","simRating","","7","<div class='trialBorder'><div class='vertical-center'><p>Think about the group of <strong>your closest friends</strong> that you imagined earlier.<p><p>Using the slider below, <strong>please rate how likely <br>(1=Not-at-all likely, 9=Very likely)<br>they would be to think like you</strong>.</div></div>","your closest friends","","","",""
"html-slider-response","12","282830","0.0-7.0-1.2","63f791692fa22034babcdda1","bdp_bc","Sat Mar 25 2023 20:08:52 GMT-0400 (Eastern Daylight Time)","312634","","9623","","","","simRating","","4","<div class='trialBorder'><div class='vertical-center'><p>Think about the group of <strong>your acquaintances</strong> that you imagined earlier.<p><p>Using the slider below, <strong>please rate how likely <br>(1=Not-at-all likely, 9=Very likely)<br>they would be to think like you</strong>.</div></div>","your acquaintances","","","",""
"html-slider-response","13","285374","0.0-7.0-1.3","63f791692fa22034babcdda1","bdp_bc","Sat Mar 25 2023 20:08:52 GMT-0400 (Eastern Daylight Time)","312634","","2543","","","","simRating","","2","<div class='trialBorder'><div class='vertical-center'><p>Think about the group of <strong>complete strangers</strong> that you imagined earlier.<p><p>Using the slider below, <strong>please rate how likely <br>(1=Not-at-all likely, 9=Very likely)<br>they would be to think like you</strong>.</div></div>","complete strangers","","","",""
"html-slider-response","14","288566","0.0-7.0-1.4","63f791692fa22034babcdda1","bdp_bc","Sat Mar 25 2023 20:08:52 GMT-0400 (Eastern Daylight Time)","312634","","3190","","","","simRating","","3","<div class='trialBorder'><div class='vertical-center'><p>Think about the group of <strong>other prolific workers</strong> that you imagined earlier.<p><p>Using the slider below, <strong>please rate how likely <br>(1=Not-at-all likely, 9=Very likely)<br>they would be to think like you</strong>.</div></div>","other prolific workers","","","",""
"instructions","15","290887","0.0-8.0","63f791692fa22034babcdda1","bdp_bc","Sat Mar 25 2023 20:08:52 GMT-0400 (Eastern Daylight Time)","312634","[{""page_index"":0,""viewing_time"":2320}]","2321","","","","","","","","","","","",""
"html-slider-response","16","295950","0.0-9.0-1.0","63f791692fa22034babcdda1","bdp_bc","Sat Mar 25 2023 20:08:52 GMT-0400 (Eastern Daylight Time)","312634","","5060","","","","abilRating","","4","<div class='trialBorder'><div class='vertical-center'><p>Think about the group of <strong>other prolific workers</strong> that you imagined earlier.<p><p>Using the slider below, <strong>please rate how well <br>(1=Not-at-all well, 9=Very well)<br>you think they would perform in this game</strong>.</div></div>","other prolific workers","","","",""
"html-slider-response","17","301423","0.0-9.0-1.1","63f791692fa22034babcdda1","bdp_bc","Sat Mar 25 2023 20:08:52 GMT-0400 (Eastern Daylight Time)","312634","","5471","","","","abilRating","","8","<div class='trialBorder'><div class='vertical-center'><p>Think about the group of <strong>your closest friends</strong> that you imagined earlier.<p><p>Using the slider below, <strong>please rate how well <br>(1=Not-at-all well, 9=Very well)<br>you think they would perform in this game</strong>.</div></div>","your closest friends","","","",""
"html-slider-response","18","304063","0.0-9.0-1.2","63f791692fa22034babcdda1","bdp_bc","Sat Mar 25 2023 20:08:52 GMT-0400 (Eastern Daylight Time)","312634","","2638","","","","abilRating","","1","<div class='trialBorder'><div class='vertical-center'><p>Think about the group of <strong>complete strangers</strong> that you imagined earlier.<p><p>Using the slider below, <strong>please rate how well <br>(1=Not-at-all well, 9=Very well)<br>you think they would perform in this game</strong>.</div></div>","complete strangers","","","",""
"html-slider-response","19","308159","0.0-9.0-1.3","63f791692fa22034babcdda1","bdp_bc","Sat Mar 25 2023 20:08:52 GMT-0400 (Eastern Daylight Time)","312634","","4095","","","","abilRating","","6","<div class='trialBorder'><div class='vertical-center'><p>Think about the group of <strong>your acquaintances</strong> that you imagined earlier.<p><p>Using the slider below, <strong>please rate how well <br>(1=Not-at-all well, 9=Very well)<br>you think they would perform in this game</strong>.</div></div>","your acquaintances","","","",""
"html-slider-response","20","311630","0.0-9.0-1.4","63f791692fa22034babcdda1","bdp_bc","Sat Mar 25 2023 20:08:52 GMT-0400 (Eastern Daylight Time)","312634","","3470","","","","abilRating","","7","<div class='trialBorder'><div class='vertical-center'><p>Think about the group of <strong>your high school classmates</strong> that you imagined earlier.<p><p>Using the slider below, <strong>please rate how well <br>(1=Not-at-all well, 9=Very well)<br>you think they would perform in this game</strong>.</div></div>","your high school classmates","","","",""
"","","","","63f791692fa22034babcdda1","bdp_bc","Sat Mar 25 2023 20:08:52 GMT-0400 (Eastern Daylight Time)","312634","","","fullscreenexit","21","311655","fullscreenexit","","","","","","","",""
"fullscreen","21","312632","0.0-10.0","63f791692fa22034babcdda1","bdp_bc","Sat Mar 25 2023 20:08:52 GMT-0400 (Eastern Daylight Time)","312634","","","","","","","true","","","","","","",""
"html-keyboard-response","22","313136","0.0-11.0","","","","","","null","","","","","","","","","","","","null"
