"trial_type","trial_index","time_elapsed","internal_node_id","subject_id","task","startTime","totalTime","view_history","rt","event","trial","time","trialtype","success","response","stimulus","group","fraction","maxAmt","sliderStart","key_press"
"pavlovia","0","3","0.0-0.0","63614ad63aec6bcf8a045124","bdp_bc","Sun Mar 26 2023 15:30:12 GMT-0400 (Eastern Daylight Time)","169470","","","","","","","","","","","","","",""
"instructions","1","2592","0.0-1.0","63614ad63aec6bcf8a045124","bdp_bc","Sun Mar 26 2023 15:30:12 GMT-0400 (Eastern Daylight Time)","169470","[{""page_index"":0,""viewing_time"":2589}]","2589","","","","","","","","","","","",""
"","","","","63614ad63aec6bcf8a045124","bdp_bc","Sun Mar 26 2023 15:30:12 GMT-0400 (Eastern Daylight Time)","169470","","","fullscreenenter","2","5323","fullscreenenter","","","","","","","",""
"fullscreen","2","6313","0.0-2.0","63614ad63aec6bcf8a045124","bdp_bc","Sun Mar 26 2023 15:30:12 GMT-0400 (Eastern Daylight Time)","169470","","","","","","","true","","","","","","",""
"instructions","3","88977","0.0-4.0","63614ad63aec6bcf8a045124","bdp_bc","Sun Mar 26 2023 15:30:12 GMT-0400 (Eastern Daylight Time)","169470","[{""page_index"":0,""viewing_time"":30182},{""page_index"":1,""viewing_time"":20338},{""page_index"":2,""viewing_time"":15551},{""page_index"":3,""viewing_time"":3297},{""page_index"":4,""viewing_time"":3854},{""page_index"":5,""viewing_time"":2521},{""page_index"":6,""viewing_time"":1783},{""page_index"":7,""viewing_time"":5137}]","82664","","","","","","","","","","","",""
"html-slider-response","4","104955","0.0-5.0-1.0","63614ad63aec6bcf8a045124","bdp_bc","Sun Mar 26 2023 15:30:12 GMT-0400 (Eastern Daylight Time)","169470","","15973","","","","decision","","66","<div class='trialBorder'><div class='vertical-center'><p>On this round, please imagine that you are playing with a group of:<br><strong>your high school classmates</strong>.<p>The target value for this round is:<br><strong>2/3 or 67%</strong>.<p><p>Please adjust the slider below to enter the value between 0 and 100 that you think would be equal to <strong>2/3 or 67%</strong> of the average of what a group of <strong>your high school classmates</strong> would guess.</div></div>","your high school classmates","2/3 or 67%","","50",""
"html-slider-response","5","111942","0.0-5.0-1.1","63614ad63aec6bcf8a045124","bdp_bc","Sun Mar 26 2023 15:30:12 GMT-0400 (Eastern Daylight Time)","169470","","6986","","","","decision","","24","<div class='trialBorder'><div class='vertical-center'><p>On this round, please imagine that you are playing with a group of:<br><strong>your acquaintances</strong>.<p>The target value for this round is:<br><strong>1/4 or 25%</strong>.<p><p>Please adjust the slider below to enter the value between 0 and 100 that you think would be equal to <strong>1/4 or 25%</strong> of the average of what a group of <strong>your acquaintances</strong> would guess.</div></div>","your acquaintances","1/4 or 25%","","50",""
"html-slider-response","6","114726","0.0-5.0-1.2","63614ad63aec6bcf8a045124","bdp_bc","Sun Mar 26 2023 15:30:12 GMT-0400 (Eastern Daylight Time)","169470","","2783","","","","decision","","77","<div class='trialBorder'><div class='vertical-center'><p>On this round, please imagine that you are playing with a group of:<br><strong>complete strangers</strong>.<p>The target value for this round is:<br><strong>1/3 or 33%</strong>.<p><p>Please adjust the slider below to enter the value between 0 and 100 that you think would be equal to <strong>1/3 or 33%</strong> of the average of what a group of <strong>complete strangers</strong> would guess.</div></div>","complete strangers","1/3 or 33%","","50",""
"html-slider-response","7","117718","0.0-5.0-1.3","63614ad63aec6bcf8a045124","bdp_bc","Sun Mar 26 2023 15:30:12 GMT-0400 (Eastern Daylight Time)","169470","","2991","","","","decision","","34","<div class='trialBorder'><div class='vertical-center'><p>On this round, please imagine that you are playing with a group of:<br><strong>your closest friends</strong>.<p>The target value for this round is:<br><strong>1/2 or 50%</strong>.<p><p>Please adjust the slider below to enter the value between 0 and 100 that you think would be equal to <strong>1/2 or 50%</strong> of the average of what a group of <strong>your closest friends</strong> would guess.</div></div>","your closest friends","1/2 or 50%","","50",""
"html-slider-response","8","120382","0.0-5.0-1.4","63614ad63aec6bcf8a045124","bdp_bc","Sun Mar 26 2023 15:30:12 GMT-0400 (Eastern Daylight Time)","169470","","2663","","","","decision","","75","<div class='trialBorder'><div class='vertical-center'><p>On this round, please imagine that you are playing with a group of:<br><strong>other prolific workers</strong>.<p>The target value for this round is:<br><strong>3/4 or 75%</strong>.<p><p>Please adjust the slider below to enter the value between 0 and 100 that you think would be equal to <strong>3/4 or 75%</strong> of the average of what a group of <strong>other prolific workers</strong> would guess.</div></div>","other prolific workers","3/4 or 75%","","50",""
"instructions","9","126417","0.0-6.0","63614ad63aec6bcf8a045124","bdp_bc","Sun Mar 26 2023 15:30:12 GMT-0400 (Eastern Daylight Time)","169470","[{""page_index"":0,""viewing_time"":6034}]","6034","","","","","","","","","","","",""
"html-slider-response","10","136937","0.0-7.0-1.0","63614ad63aec6bcf8a045124","bdp_bc","Sun Mar 26 2023 15:30:12 GMT-0400 (Eastern Daylight Time)","169470","","10516","","","","simRating","","6","<div class='trialBorder'><div class='vertical-center'><p>Think about the group of <strong>your high school classmates</strong> that you imagined earlier.<p><p>Using the slider below, <strong>please rate how likely <br>(1=Not-at-all likely, 9=Very likely)<br>they would be to think like you</strong>.</div></div>","your high school classmates","","","",""
"html-slider-response","11","139353","0.0-7.0-1.1","63614ad63aec6bcf8a045124","bdp_bc","Sun Mar 26 2023 15:30:12 GMT-0400 (Eastern Daylight Time)","169470","","2415","","","","simRating","","5","<div class='trialBorder'><div class='vertical-center'><p>Think about the group of <strong>complete strangers</strong> that you imagined earlier.<p><p>Using the slider below, <strong>please rate how likely <br>(1=Not-at-all likely, 9=Very likely)<br>they would be to think like you</strong>.</div></div>","complete strangers","","","",""
"html-slider-response","12","143456","0.0-7.0-1.2","63614ad63aec6bcf8a045124","bdp_bc","Sun Mar 26 2023 15:30:12 GMT-0400 (Eastern Daylight Time)","169470","","4101","","","","simRating","","7","<div class='trialBorder'><div class='vertical-center'><p>Think about the group of <strong>your closest friends</strong> that you imagined earlier.<p><p>Using the slider below, <strong>please rate how likely <br>(1=Not-at-all likely, 9=Very likely)<br>they would be to think like you</strong>.</div></div>","your closest friends","","","",""
"html-slider-response","13","146091","0.0-7.0-1.3","63614ad63aec6bcf8a045124","bdp_bc","Sun Mar 26 2023 15:30:12 GMT-0400 (Eastern Daylight Time)","169470","","2634","","","","simRating","","5","<div class='trialBorder'><div class='vertical-center'><p>Think about the group of <strong>other prolific workers</strong> that you imagined earlier.<p><p>Using the slider below, <strong>please rate how likely <br>(1=Not-at-all likely, 9=Very likely)<br>they would be to think like you</strong>.</div></div>","other prolific workers","","","",""
"html-slider-response","14","147456","0.0-7.0-1.4","63614ad63aec6bcf8a045124","bdp_bc","Sun Mar 26 2023 15:30:12 GMT-0400 (Eastern Daylight Time)","169470","","1364","","","","simRating","","5","<div class='trialBorder'><div class='vertical-center'><p>Think about the group of <strong>your acquaintances</strong> that you imagined earlier.<p><p>Using the slider below, <strong>please rate how likely <br>(1=Not-at-all likely, 9=Very likely)<br>they would be to think like you</strong>.</div></div>","your acquaintances","","","",""
"instructions","15","151758","0.0-8.0","63614ad63aec6bcf8a045124","bdp_bc","Sun Mar 26 2023 15:30:12 GMT-0400 (Eastern Daylight Time)","169470","[{""page_index"":0,""viewing_time"":4302}]","4302","","","","","","","","","","","",""
"html-slider-response","16","157958","0.0-9.0-1.0","63614ad63aec6bcf8a045124","bdp_bc","Sun Mar 26 2023 15:30:12 GMT-0400 (Eastern Daylight Time)","169470","","6199","","","","abilRating","","5","<div class='trialBorder'><div class='vertical-center'><p>Think about the group of <strong>other prolific workers</strong> that you imagined earlier.<p><p>Using the slider below, <strong>please rate how well <br>(1=Not-at-all well, 9=Very well)<br>you think they would perform in this game</strong>.</div></div>","other prolific workers","","","",""
"html-slider-response","17","160090","0.0-9.0-1.1","63614ad63aec6bcf8a045124","bdp_bc","Sun Mar 26 2023 15:30:12 GMT-0400 (Eastern Daylight Time)","169470","","2131","","","","abilRating","","5","<div class='trialBorder'><div class='vertical-center'><p>Think about the group of <strong>complete strangers</strong> that you imagined earlier.<p><p>Using the slider below, <strong>please rate how well <br>(1=Not-at-all well, 9=Very well)<br>you think they would perform in this game</strong>.</div></div>","complete strangers","","","",""
"html-slider-response","18","163320","0.0-9.0-1.2","63614ad63aec6bcf8a045124","bdp_bc","Sun Mar 26 2023 15:30:12 GMT-0400 (Eastern Daylight Time)","169470","","3229","","","","abilRating","","4","<div class='trialBorder'><div class='vertical-center'><p>Think about the group of <strong>your acquaintances</strong> that you imagined earlier.<p><p>Using the slider below, <strong>please rate how well <br>(1=Not-at-all well, 9=Very well)<br>you think they would perform in this game</strong>.</div></div>","your acquaintances","","","",""
"html-slider-response","19","165283","0.0-9.0-1.3","63614ad63aec6bcf8a045124","bdp_bc","Sun Mar 26 2023 15:30:12 GMT-0400 (Eastern Daylight Time)","169470","","1962","","","","abilRating","","4","<div class='trialBorder'><div class='vertical-center'><p>Think about the group of <strong>your high school classmates</strong> that you imagined earlier.<p><p>Using the slider below, <strong>please rate how well <br>(1=Not-at-all well, 9=Very well)<br>you think they would perform in this game</strong>.</div></div>","your high school classmates","","","",""
"html-slider-response","20","168467","0.0-9.0-1.4","63614ad63aec6bcf8a045124","bdp_bc","Sun Mar 26 2023 15:30:12 GMT-0400 (Eastern Daylight Time)","169470","","3183","","","","abilRating","","3","<div class='trialBorder'><div class='vertical-center'><p>Think about the group of <strong>your closest friends</strong> that you imagined earlier.<p><p>Using the slider below, <strong>please rate how well <br>(1=Not-at-all well, 9=Very well)<br>you think they would perform in this game</strong>.</div></div>","your closest friends","","","",""
"","","","","63614ad63aec6bcf8a045124","bdp_bc","Sun Mar 26 2023 15:30:12 GMT-0400 (Eastern Daylight Time)","169470","","","fullscreenexit","21","168482","fullscreenexit","","","","","","","",""
"fullscreen","21","169469","0.0-10.0","63614ad63aec6bcf8a045124","bdp_bc","Sun Mar 26 2023 15:30:12 GMT-0400 (Eastern Daylight Time)","169470","","","","","","","true","","","","","","",""
"html-keyboard-response","22","169972","0.0-11.0","","","","","","null","","","","","","","","","","","","null"
