"event","trial","time","trialtype","subject_id","task","startTime","totalTime","labels","trial_type","trial_index","time_elapsed","internal_node_id","view_history","rt","success","stimulus","key_press","aground","name","face","outcome","agenttype","agentswpt","agentcurrpshare","point_total","round"
"focus","0","0","focusevent","testing","bdp_trlrn","Sun Dec 13 2020 15:09:22 GMT-0500 (Eastern Standard Time)","1081774","Untrustworthy,Trustworthy","","","","","","","","","","","","","","","","","",""
"","","","","testing","bdp_trlrn","Sun Dec 13 2020 15:09:22 GMT-0500 (Eastern Standard Time)","1081774","Untrustworthy,Trustworthy","pavlovia","0","4","0.0-0.0","","","","","","","","","","","","","",""
"","","","","testing","bdp_trlrn","Sun Dec 13 2020 15:09:22 GMT-0500 (Eastern Standard Time)","1081774","Untrustworthy,Trustworthy","instructions","1","3551","0.0-1.0","[{""page_index"":0,""viewing_time"":3545}]","3545","","","","","","","","","","","",""
"fullscreenexit","2","6413","fullscreenexit","testing","bdp_trlrn","Sun Dec 13 2020 15:09:22 GMT-0500 (Eastern Standard Time)","1081774","Untrustworthy,Trustworthy","","","","","","","","","","","","","","","","","",""
"","","","","testing","bdp_trlrn","Sun Dec 13 2020 15:09:22 GMT-0500 (Eastern Standard Time)","1081774","Untrustworthy,Trustworthy","fullscreen","2","7399","0.0-2.0","","","true","","","","","","","","","","",""
"","","","fullscreenfail","testing","bdp_trlrn","Sun Dec 13 2020 15:09:22 GMT-0500 (Eastern Standard Time)","1081774","Untrustworthy,Trustworthy","image-keyboard-response","3","9686","0.0-3.0-0.0","","2284","","","32","","","","","","","","",""
"","","","","testing","bdp_trlrn","Sun Dec 13 2020 15:09:22 GMT-0500 (Eastern Standard Time)","1081774","Untrustworthy,Trustworthy","instructions","4","50536","0.0-4.0","[{""page_index"":0,""viewing_time"":12138},{""page_index"":1,""viewing_time"":28456}]","40595","","","","","","","","","","","",""
"","","","","testing","bdp_trlrn","Sun Dec 13 2020 15:09:22 GMT-0500 (Eastern Standard Time)","1081774","Untrustworthy,Trustworthy","instructions","5","51813","0.0-5.0","[{""page_index"":0,""viewing_time"":1276}]","1276","","","","","","","","","","","",""
"","","","rating","testing","bdp_trlrn","Sun Dec 13 2020 15:09:22 GMT-0500 (Eastern Standard Time)","1081774","Untrustworthy,Trustworthy","image-keyboard-response","6","70180","0.0-6.0-1.0","","18260","","trustrating_stim/white_mw058.bmp","5","","","","","","","","",""
"","","","ratingFB","testing","bdp_trlrn","Sun Dec 13 2020 15:09:22 GMT-0500 (Eastern Standard Time)","1081774","Untrustworthy,Trustworthy","image-keyboard-response","7","70383","0.0-6.0-2.0","","null","","trustrating_stim/white_mw058.bmp","null","","","","","","","","",""
"","","","rating","testing","bdp_trlrn","Sun Dec 13 2020 15:09:22 GMT-0500 (Eastern Standard Time)","1081774","Untrustworthy,Trustworthy","image-keyboard-response","8","75045","0.0-6.0-1.1","","4560","","trustrating_stim/white_00807_941205_fb_edt.bmp","3","","","","","","","","",""
"","","","ratingFB","testing","bdp_trlrn","Sun Dec 13 2020 15:09:22 GMT-0500 (Eastern Standard Time)","1081774","Untrustworthy,Trustworthy","image-keyboard-response","9","75247","0.0-6.0-2.1","","null","","trustrating_stim/white_00807_941205_fb_edt.bmp","null","","","","","","","","",""
"","","","rating","testing","bdp_trlrn","Sun Dec 13 2020 15:09:22 GMT-0500 (Eastern Standard Time)","1081774","Untrustworthy,Trustworthy","image-keyboard-response","10","80461","0.0-6.0-1.2","","5107","","trustrating_stim/white_00109_931230_fa_edt.bmp","7","","","","","","","","",""
"","","","ratingFB","testing","bdp_trlrn","Sun Dec 13 2020 15:09:22 GMT-0500 (Eastern Standard Time)","1081774","Untrustworthy,Trustworthy","image-keyboard-response","11","80663","0.0-6.0-2.2","","null","","trustrating_stim/white_00109_931230_fa_edt.bmp","null","","","","","","","","",""
"","","","rating","testing","bdp_trlrn","Sun Dec 13 2020 15:09:22 GMT-0500 (Eastern Standard Time)","1081774","Untrustworthy,Trustworthy","image-keyboard-response","12","82766","0.0-6.0-1.3","","1995","","trustrating_stim/white_00785_941205_fb_edt.bmp","4","","","","","","","","",""
"","","","ratingFB","testing","bdp_trlrn","Sun Dec 13 2020 15:09:22 GMT-0500 (Eastern Standard Time)","1081774","Untrustworthy,Trustworthy","image-keyboard-response","13","82969","0.0-6.0-2.3","","null","","trustrating_stim/white_00785_941205_fb_edt.bmp","null","","","","","","","","",""
"","","","rating","testing","bdp_trlrn","Sun Dec 13 2020 15:09:22 GMT-0500 (Eastern Standard Time)","1081774","Untrustworthy,Trustworthy","image-keyboard-response","14","85280","0.0-6.0-1.4","","2205","","trustrating_stim/white_mw071.bmp","5","","","","","","","","",""
"","","","ratingFB","testing","bdp_trlrn","Sun Dec 13 2020 15:09:22 GMT-0500 (Eastern Standard Time)","1081774","Untrustworthy,Trustworthy","image-keyboard-response","15","85481","0.0-6.0-2.4","","null","","trustrating_stim/white_mw071.bmp","null","","","","","","","","",""
"","","","rating","testing","bdp_trlrn","Sun Dec 13 2020 15:09:22 GMT-0500 (Eastern Standard Time)","1081774","Untrustworthy,Trustworthy","image-keyboard-response","16","87798","0.0-6.0-1.5","","2212","","trustrating_stim/white_00658_941121_fb_edt.bmp","4","","","","","","","","",""
"","","","ratingFB","testing","bdp_trlrn","Sun Dec 13 2020 15:09:22 GMT-0500 (Eastern Standard Time)","1081774","Untrustworthy,Trustworthy","image-keyboard-response","17","88001","0.0-6.0-2.5","","null","","trustrating_stim/white_00658_941121_fb_edt.bmp","null","","","","","","","","",""
"","","","rating","testing","bdp_trlrn","Sun Dec 13 2020 15:09:22 GMT-0500 (Eastern Standard Time)","1081774","Untrustworthy,Trustworthy","image-keyboard-response","18","91893","0.0-6.0-1.6","","3787","","trustrating_stim/white_mw051.bmp","4","","","","","","","","",""
"","","","ratingFB","testing","bdp_trlrn","Sun Dec 13 2020 15:09:22 GMT-0500 (Eastern Standard Time)","1081774","Untrustworthy,Trustworthy","image-keyboard-response","19","92100","0.0-6.0-2.6","","null","","trustrating_stim/white_mw051.bmp","null","","","","","","","","",""
"","","","rating","testing","bdp_trlrn","Sun Dec 13 2020 15:09:22 GMT-0500 (Eastern Standard Time)","1081774","Untrustworthy,Trustworthy","image-keyboard-response","20","95992","0.0-6.0-1.7","","3786","","trustrating_stim/white_mw012.bmp","5","","","","","","","","",""
"","","","ratingFB","testing","bdp_trlrn","Sun Dec 13 2020 15:09:22 GMT-0500 (Eastern Standard Time)","1081774","Untrustworthy,Trustworthy","image-keyboard-response","21","96198","0.0-6.0-2.7","","null","","trustrating_stim/white_mw012.bmp","null","","","","","","","","",""
"","","","rating","testing","bdp_trlrn","Sun Dec 13 2020 15:09:22 GMT-0500 (Eastern Standard Time)","1081774","Untrustworthy,Trustworthy","image-keyboard-response","22","98765","0.0-6.0-1.8","","2462","","trustrating_stim/white_mw013.bmp","3","","","","","","","","",""
"","","","ratingFB","testing","bdp_trlrn","Sun Dec 13 2020 15:09:22 GMT-0500 (Eastern Standard Time)","1081774","Untrustworthy,Trustworthy","image-keyboard-response","23","98971","0.0-6.0-2.8","","null","","trustrating_stim/white_mw013.bmp","null","","","","","","","","",""
"","","","rating","testing","bdp_trlrn","Sun Dec 13 2020 15:09:22 GMT-0500 (Eastern Standard Time)","1081774","Untrustworthy,Trustworthy","image-keyboard-response","24","102841","0.0-6.0-1.9","","3764","","trustrating_stim/white_mw082.bmp","4","","","","","","","","",""
"","","","ratingFB","testing","bdp_trlrn","Sun Dec 13 2020 15:09:22 GMT-0500 (Eastern Standard Time)","1081774","Untrustworthy,Trustworthy","image-keyboard-response","25","103048","0.0-6.0-2.9","","null","","trustrating_stim/white_mw082.bmp","null","","","","","","","","",""
"","","","rating","testing","bdp_trlrn","Sun Dec 13 2020 15:09:22 GMT-0500 (Eastern Standard Time)","1081774","Untrustworthy,Trustworthy","image-keyboard-response","26","105183","0.0-6.0-1.10","","2030","","trustrating_stim/white_mw016.bmp","3","","","","","","","","",""
"","","","ratingFB","testing","bdp_trlrn","Sun Dec 13 2020 15:09:22 GMT-0500 (Eastern Standard Time)","1081774","Untrustworthy,Trustworthy","image-keyboard-response","27","105390","0.0-6.0-2.10","","null","","trustrating_stim/white_mw016.bmp","null","","","","","","","","",""
"","","","rating","testing","bdp_trlrn","Sun Dec 13 2020 15:09:22 GMT-0500 (Eastern Standard Time)","1081774","Untrustworthy,Trustworthy","image-keyboard-response","28","107506","0.0-6.0-1.11","","2011","","trustrating_stim/white_00223_940128_fb_edt.bmp","3","","","","","","","","",""
"","","","ratingFB","testing","bdp_trlrn","Sun Dec 13 2020 15:09:22 GMT-0500 (Eastern Standard Time)","1081774","Untrustworthy,Trustworthy","image-keyboard-response","29","107710","0.0-6.0-2.11","","null","","trustrating_stim/white_00223_940128_fb_edt.bmp","null","","","","","","","","",""
"","","","rating","testing","bdp_trlrn","Sun Dec 13 2020 15:09:22 GMT-0500 (Eastern Standard Time)","1081774","Untrustworthy,Trustworthy","image-keyboard-response","30","110761","0.0-6.0-1.12","","2948","","trustrating_stim/white_mw066.bmp","5","","","","","","","","",""
"","","","ratingFB","testing","bdp_trlrn","Sun Dec 13 2020 15:09:22 GMT-0500 (Eastern Standard Time)","1081774","Untrustworthy,Trustworthy","image-keyboard-response","31","110966","0.0-6.0-2.12","","null","","trustrating_stim/white_mw066.bmp","null","","","","","","","","",""
"","","","rating","testing","bdp_trlrn","Sun Dec 13 2020 15:09:22 GMT-0500 (Eastern Standard Time)","1081774","Untrustworthy,Trustworthy","image-keyboard-response","32","112999","0.0-6.0-1.13","","1931","","trustrating_stim/white_mw025.bmp","4","","","","","","","","",""
"","","","ratingFB","testing","bdp_trlrn","Sun Dec 13 2020 15:09:22 GMT-0500 (Eastern Standard Time)","1081774","Untrustworthy,Trustworthy","image-keyboard-response","33","113203","0.0-6.0-2.13","","null","","trustrating_stim/white_mw025.bmp","null","","","","","","","","",""
"","","","rating","testing","bdp_trlrn","Sun Dec 13 2020 15:09:22 GMT-0500 (Eastern Standard Time)","1081774","Untrustworthy,Trustworthy","image-keyboard-response","34","141286","0.0-6.0-1.14","","27976","","trustrating_stim/white_00761_941201_fb_edt.bmp","6","","","","","","","","",""
"","","","ratingFB","testing","bdp_trlrn","Sun Dec 13 2020 15:09:22 GMT-0500 (Eastern Standard Time)","1081774","Untrustworthy,Trustworthy","image-keyboard-response","35","141489","0.0-6.0-2.14","","null","","trustrating_stim/white_00761_941201_fb_edt.bmp","null","","","","","","","","",""
"","","","rating","testing","bdp_trlrn","Sun Dec 13 2020 15:09:22 GMT-0500 (Eastern Standard Time)","1081774","Untrustworthy,Trustworthy","image-keyboard-response","36","145907","0.0-6.0-1.15","","4314","","trustrating_stim/white_mw046.bmp","3","","","","","","","","",""
"","","","ratingFB","testing","bdp_trlrn","Sun Dec 13 2020 15:09:22 GMT-0500 (Eastern Standard Time)","1081774","Untrustworthy,Trustworthy","image-keyboard-response","37","146113","0.0-6.0-2.15","","null","","trustrating_stim/white_mw046.bmp","null","","","","","","","","",""
"","","","rating","testing","bdp_trlrn","Sun Dec 13 2020 15:09:22 GMT-0500 (Eastern Standard Time)","1081774","Untrustworthy,Trustworthy","image-keyboard-response","38","149072","0.0-6.0-1.16","","2856","","trustrating_stim/white_mw084.bmp","5","","","","","","","","",""
"","","","ratingFB","testing","bdp_trlrn","Sun Dec 13 2020 15:09:22 GMT-0500 (Eastern Standard Time)","1081774","Untrustworthy,Trustworthy","image-keyboard-response","39","149275","0.0-6.0-2.16","","null","","trustrating_stim/white_mw084.bmp","null","","","","","","","","",""
"","","","rating","testing","bdp_trlrn","Sun Dec 13 2020 15:09:22 GMT-0500 (Eastern Standard Time)","1081774","Untrustworthy,Trustworthy","image-keyboard-response","40","155887","0.0-6.0-1.17","","6507","","trustrating_stim/white_00253_940128_fa_edt.bmp","4","","","","","","","","",""
"","","","ratingFB","testing","bdp_trlrn","Sun Dec 13 2020 15:09:22 GMT-0500 (Eastern Standard Time)","1081774","Untrustworthy,Trustworthy","image-keyboard-response","41","156093","0.0-6.0-2.17","","null","","trustrating_stim/white_00253_940128_fa_edt.bmp","null","","","","","","","","",""
"","","","rating","testing","bdp_trlrn","Sun Dec 13 2020 15:09:22 GMT-0500 (Eastern Standard Time)","1081774","Untrustworthy,Trustworthy","image-keyboard-response","42","184463","0.0-6.0-1.18","","28268","","trustrating_stim/white_mw085.bmp","4","","","","","","","","",""
"","","","ratingFB","testing","bdp_trlrn","Sun Dec 13 2020 15:09:22 GMT-0500 (Eastern Standard Time)","1081774","Untrustworthy,Trustworthy","image-keyboard-response","43","184667","0.0-6.0-2.18","","null","","trustrating_stim/white_mw085.bmp","null","","","","","","","","",""
"","","","rating","testing","bdp_trlrn","Sun Dec 13 2020 15:09:22 GMT-0500 (Eastern Standard Time)","1081774","Untrustworthy,Trustworthy","image-keyboard-response","44","186777","0.0-6.0-1.19","","2005","","trustrating_stim/white_00120_931230_fa_edt.bmp","5","","","","","","","","",""
"","","","ratingFB","testing","bdp_trlrn","Sun Dec 13 2020 15:09:22 GMT-0500 (Eastern Standard Time)","1081774","Untrustworthy,Trustworthy","image-keyboard-response","45","186977","0.0-6.0-2.19","","null","","trustrating_stim/white_00120_931230_fa_edt.bmp","null","","","","","","","","",""
"","","","rating","testing","bdp_trlrn","Sun Dec 13 2020 15:09:22 GMT-0500 (Eastern Standard Time)","1081774","Untrustworthy,Trustworthy","image-keyboard-response","46","188964","0.0-6.0-1.20","","1882","","trustrating_stim/white_mw099.bmp","4","","","","","","","","",""
"","","","ratingFB","testing","bdp_trlrn","Sun Dec 13 2020 15:09:22 GMT-0500 (Eastern Standard Time)","1081774","Untrustworthy,Trustworthy","image-keyboard-response","47","189170","0.0-6.0-2.20","","null","","trustrating_stim/white_mw099.bmp","null","","","","","","","","",""
"","","","rating","testing","bdp_trlrn","Sun Dec 13 2020 15:09:22 GMT-0500 (Eastern Standard Time)","1081774","Untrustworthy,Trustworthy","image-keyboard-response","48","191295","0.0-6.0-1.21","","2023","","trustrating_stim/white_mw057.bmp","3","","","","","","","","",""
"","","","ratingFB","testing","bdp_trlrn","Sun Dec 13 2020 15:09:22 GMT-0500 (Eastern Standard Time)","1081774","Untrustworthy,Trustworthy","image-keyboard-response","49","191501","0.0-6.0-2.21","","null","","trustrating_stim/white_mw057.bmp","null","","","","","","","","",""
"","","","rating","testing","bdp_trlrn","Sun Dec 13 2020 15:09:22 GMT-0500 (Eastern Standard Time)","1081774","Untrustworthy,Trustworthy","image-keyboard-response","50","194070","0.0-6.0-1.22","","2468","","trustrating_stim/white_mw044.bmp","4","","","","","","","","",""
"","","","ratingFB","testing","bdp_trlrn","Sun Dec 13 2020 15:09:22 GMT-0500 (Eastern Standard Time)","1081774","Untrustworthy,Trustworthy","image-keyboard-response","51","194276","0.0-6.0-2.22","","null","","trustrating_stim/white_mw044.bmp","null","","","","","","","","",""
"","","","rating","testing","bdp_trlrn","Sun Dec 13 2020 15:09:22 GMT-0500 (Eastern Standard Time)","1081774","Untrustworthy,Trustworthy","image-keyboard-response","52","202230","0.0-6.0-1.23","","7848","","trustrating_stim/white_mw040.bmp","3","","","","","","","","",""
"","","","ratingFB","testing","bdp_trlrn","Sun Dec 13 2020 15:09:22 GMT-0500 (Eastern Standard Time)","1081774","Untrustworthy,Trustworthy","image-keyboard-response","53","202431","0.0-6.0-2.23","","null","","trustrating_stim/white_mw040.bmp","null","","","","","","","","",""
"","","","rating","testing","bdp_trlrn","Sun Dec 13 2020 15:09:22 GMT-0500 (Eastern Standard Time)","1081774","Untrustworthy,Trustworthy","image-keyboard-response","54","205447","0.0-6.0-1.24","","2911","","trustrating_stim/white_mw035.bmp","5","","","","","","","","",""
"","","","ratingFB","testing","bdp_trlrn","Sun Dec 13 2020 15:09:22 GMT-0500 (Eastern Standard Time)","1081774","Untrustworthy,Trustworthy","image-keyboard-response","55","205653","0.0-6.0-2.24","","null","","trustrating_stim/white_mw035.bmp","null","","","","","","","","",""
"","","","rating","testing","bdp_trlrn","Sun Dec 13 2020 15:09:22 GMT-0500 (Eastern Standard Time)","1081774","Untrustworthy,Trustworthy","image-keyboard-response","56","210362","0.0-6.0-1.25","","4606","","trustrating_stim/white_00602_940928_fb_edt.bmp","5","","","","","","","","",""
"","","","ratingFB","testing","bdp_trlrn","Sun Dec 13 2020 15:09:22 GMT-0500 (Eastern Standard Time)","1081774","Untrustworthy,Trustworthy","image-keyboard-response","57","210568","0.0-6.0-2.25","","null","","trustrating_stim/white_00602_940928_fb_edt.bmp","null","","","","","","","","",""
"","","","rating","testing","bdp_trlrn","Sun Dec 13 2020 15:09:22 GMT-0500 (Eastern Standard Time)","1081774","Untrustworthy,Trustworthy","image-keyboard-response","58","212613","0.0-6.0-1.26","","1940","","trustrating_stim/white_mw054.bmp","4","","","","","","","","",""
"","","","ratingFB","testing","bdp_trlrn","Sun Dec 13 2020 15:09:22 GMT-0500 (Eastern Standard Time)","1081774","Untrustworthy,Trustworthy","image-keyboard-response","59","212815","0.0-6.0-2.26","","null","","trustrating_stim/white_mw054.bmp","null","","","","","","","","",""
"","","","rating","testing","bdp_trlrn","Sun Dec 13 2020 15:09:22 GMT-0500 (Eastern Standard Time)","1081774","Untrustworthy,Trustworthy","image-keyboard-response","60","214955","0.0-6.0-1.27","","2038","","trustrating_stim/white_mw072.bmp","5","","","","","","","","",""
"","","","ratingFB","testing","bdp_trlrn","Sun Dec 13 2020 15:09:22 GMT-0500 (Eastern Standard Time)","1081774","Untrustworthy,Trustworthy","image-keyboard-response","61","215161","0.0-6.0-2.27","","null","","trustrating_stim/white_mw072.bmp","null","","","","","","","","",""
"","","","rating","testing","bdp_trlrn","Sun Dec 13 2020 15:09:22 GMT-0500 (Eastern Standard Time)","1081774","Untrustworthy,Trustworthy","image-keyboard-response","62","217481","0.0-6.0-1.28","","2217","","trustrating_stim/white_mw019.bmp","5","","","","","","","","",""
"","","","ratingFB","testing","bdp_trlrn","Sun Dec 13 2020 15:09:22 GMT-0500 (Eastern Standard Time)","1081774","Untrustworthy,Trustworthy","image-keyboard-response","63","217683","0.0-6.0-2.28","","null","","trustrating_stim/white_mw019.bmp","null","","","","","","","","",""
"","","","rating","testing","bdp_trlrn","Sun Dec 13 2020 15:09:22 GMT-0500 (Eastern Standard Time)","1081774","Untrustworthy,Trustworthy","image-keyboard-response","64","219066","0.0-6.0-1.29","","1277","","trustrating_stim/white_mw006.bmp","4","","","","","","","","",""
"","","","ratingFB","testing","bdp_trlrn","Sun Dec 13 2020 15:09:22 GMT-0500 (Eastern Standard Time)","1081774","Untrustworthy,Trustworthy","image-keyboard-response","65","219272","0.0-6.0-2.29","","null","","trustrating_stim/white_mw006.bmp","null","","","","","","","","",""
"","","","rating","testing","bdp_trlrn","Sun Dec 13 2020 15:09:22 GMT-0500 (Eastern Standard Time)","1081774","Untrustworthy,Trustworthy","image-keyboard-response","66","220775","0.0-6.0-1.30","","1402","","trustrating_stim/white_00657_941121_fa_edt.bmp","4","","","","","","","","",""
"","","","ratingFB","testing","bdp_trlrn","Sun Dec 13 2020 15:09:22 GMT-0500 (Eastern Standard Time)","1081774","Untrustworthy,Trustworthy","image-keyboard-response","67","220977","0.0-6.0-2.30","","null","","trustrating_stim/white_00657_941121_fa_edt.bmp","null","","","","","","","","",""
"","","","rating","testing","bdp_trlrn","Sun Dec 13 2020 15:09:22 GMT-0500 (Eastern Standard Time)","1081774","Untrustworthy,Trustworthy","image-keyboard-response","68","224029","0.0-6.0-1.31","","2949","","trustrating_stim/white_00960_960627_fb_edt.bmp","3","","","","","","","","",""
"","","","ratingFB","testing","bdp_trlrn","Sun Dec 13 2020 15:09:22 GMT-0500 (Eastern Standard Time)","1081774","Untrustworthy,Trustworthy","image-keyboard-response","69","224235","0.0-6.0-2.31","","null","","trustrating_stim/white_00960_960627_fb_edt.bmp","null","","","","","","","","",""
"","","","rating","testing","bdp_trlrn","Sun Dec 13 2020 15:09:22 GMT-0500 (Eastern Standard Time)","1081774","Untrustworthy,Trustworthy","image-keyboard-response","70","227157","0.0-6.0-1.32","","2817","","trustrating_stim/white_00897_960530_fb_edt.bmp","3","","","","","","","","",""
"","","","ratingFB","testing","bdp_trlrn","Sun Dec 13 2020 15:09:22 GMT-0500 (Eastern Standard Time)","1081774","Untrustworthy,Trustworthy","image-keyboard-response","71","227361","0.0-6.0-2.32","","null","","trustrating_stim/white_00897_960530_fb_edt.bmp","null","","","","","","","","",""
"","","","rating","testing","bdp_trlrn","Sun Dec 13 2020 15:09:22 GMT-0500 (Eastern Standard Time)","1081774","Untrustworthy,Trustworthy","image-keyboard-response","72","229633","0.0-6.0-1.33","","2170","","trustrating_stim/white_mw004.bmp","4","","","","","","","","",""
"","","","ratingFB","testing","bdp_trlrn","Sun Dec 13 2020 15:09:22 GMT-0500 (Eastern Standard Time)","1081774","Untrustworthy,Trustworthy","image-keyboard-response","73","229835","0.0-6.0-2.33","","null","","trustrating_stim/white_mw004.bmp","null","","","","","","","","",""
"","","","rating","testing","bdp_trlrn","Sun Dec 13 2020 15:09:22 GMT-0500 (Eastern Standard Time)","1081774","Untrustworthy,Trustworthy","image-keyboard-response","74","231967","0.0-6.0-1.34","","2032","","trustrating_stim/white_mw080.bmp","3","","","","","","","","",""
"","","","ratingFB","testing","bdp_trlrn","Sun Dec 13 2020 15:09:22 GMT-0500 (Eastern Standard Time)","1081774","Untrustworthy,Trustworthy","image-keyboard-response","75","232171","0.0-6.0-2.34","","null","","trustrating_stim/white_mw080.bmp","null","","","","","","","","",""
"","","","rating","testing","bdp_trlrn","Sun Dec 13 2020 15:09:22 GMT-0500 (Eastern Standard Time)","1081774","Untrustworthy,Trustworthy","image-keyboard-response","76","233634","0.0-6.0-1.35","","1361","","trustrating_stim/white_00757_941201_fa_edt.bmp","3","","","","","","","","",""
"","","","ratingFB","testing","bdp_trlrn","Sun Dec 13 2020 15:09:22 GMT-0500 (Eastern Standard Time)","1081774","Untrustworthy,Trustworthy","image-keyboard-response","77","233836","0.0-6.0-2.35","","null","","trustrating_stim/white_00757_941201_fa_edt.bmp","null","","","","","","","","",""
"","","","rating","testing","bdp_trlrn","Sun Dec 13 2020 15:09:22 GMT-0500 (Eastern Standard Time)","1081774","Untrustworthy,Trustworthy","image-keyboard-response","78","238517","0.0-6.0-1.36","","4576","","trustrating_stim/white_mw097.bmp","3","","","","","","","","",""
"","","","ratingFB","testing","bdp_trlrn","Sun Dec 13 2020 15:09:22 GMT-0500 (Eastern Standard Time)","1081774","Untrustworthy,Trustworthy","image-keyboard-response","79","238720","0.0-6.0-2.36","","null","","trustrating_stim/white_mw097.bmp","null","","","","","","","","",""
"","","","rating","testing","bdp_trlrn","Sun Dec 13 2020 15:09:22 GMT-0500 (Eastern Standard Time)","1081774","Untrustworthy,Trustworthy","image-keyboard-response","80","244042","0.0-6.0-1.37","","5221","","trustrating_stim/white_mw043.bmp","4","","","","","","","","",""
"","","","ratingFB","testing","bdp_trlrn","Sun Dec 13 2020 15:09:22 GMT-0500 (Eastern Standard Time)","1081774","Untrustworthy,Trustworthy","image-keyboard-response","81","244248","0.0-6.0-2.37","","null","","trustrating_stim/white_mw043.bmp","null","","","","","","","","",""
"","","","rating","testing","bdp_trlrn","Sun Dec 13 2020 15:09:22 GMT-0500 (Eastern Standard Time)","1081774","Untrustworthy,Trustworthy","image-keyboard-response","82","252097","0.0-6.0-1.38","","7744","","trustrating_stim/white_mw089.bmp","1","","","","","","","","",""
"","","","ratingFB","testing","bdp_trlrn","Sun Dec 13 2020 15:09:22 GMT-0500 (Eastern Standard Time)","1081774","Untrustworthy,Trustworthy","image-keyboard-response","83","252300","0.0-6.0-2.38","","null","","trustrating_stim/white_mw089.bmp","null","","","","","","","","",""
"","","","rating","testing","bdp_trlrn","Sun Dec 13 2020 15:09:22 GMT-0500 (Eastern Standard Time)","1081774","Untrustworthy,Trustworthy","image-keyboard-response","84","256656","0.0-6.0-1.39","","4251","","trustrating_stim/white_mw022.bmp","4","","","","","","","","",""
"","","","ratingFB","testing","bdp_trlrn","Sun Dec 13 2020 15:09:22 GMT-0500 (Eastern Standard Time)","1081774","Untrustworthy,Trustworthy","image-keyboard-response","85","256859","0.0-6.0-2.39","","null","","trustrating_stim/white_mw022.bmp","null","","","","","","","","",""
"","","","","testing","bdp_trlrn","Sun Dec 13 2020 15:09:22 GMT-0500 (Eastern Standard Time)","1081774","Untrustworthy,Trustworthy","instructions","86","258464","0.0-7.0","[{""page_index"":0,""viewing_time"":1500}]","1500","","","","","","","","","","","",""
"","","","","testing","bdp_trlrn","Sun Dec 13 2020 15:09:22 GMT-0500 (Eastern Standard Time)","1081774","Untrustworthy,Trustworthy","instructions","87","418956","0.0-8.0","[{""page_index"":0,""viewing_time"":65803},{""page_index"":1,""viewing_time"":16522},{""page_index"":2,""viewing_time"":4986},{""page_index"":3,""viewing_time"":27541},{""page_index"":4,""viewing_time"":10944},{""page_index"":5,""viewing_time"":26514},{""page_index"":6,""viewing_time"":8080}]","160390","","","","","","","","","","","",""
"","","","","testing","bdp_trlrn","Sun Dec 13 2020 15:09:22 GMT-0500 (Eastern Standard Time)","1081774","Untrustworthy,Trustworthy","html-keyboard-response","88","428735","0.0-9.0","","9778","","<div class='header' style='text-align:left; position: absolute; top: 5%; left: 5%;'><small>Task 3 of 4</small></div><div style='text-align:left; position: absolute; top: 10%; left: 20%; width: 60%'><p><strong>1) What is the minimum number of points you can choose to send to your partner?</strong></p><p>a) 0</p><p>b) 1</p><p>c) 5</p>","A","","","","","","","","",""
"","","","","testing","bdp_trlrn","Sun Dec 13 2020 15:09:22 GMT-0500 (Eastern Standard Time)","1081774","Untrustworthy,Trustworthy","html-keyboard-response","89","433166","0.0-10.0","","4325","","<div class='header' style='text-align:left; position: absolute; top: 5%; left: 5%;'><small>Task 3 of 4</small></div><div style='text-align:left; position: absolute; top: 10%; left: 20%; width: 60%'><p><strong>1) What is the minimum number of points you can choose to send to your partner?</strong></p><p style='color:#FF0000'>a) 0</p><p>b) 1</p><p>c) 5</p><h3 style='color:#FF0000'>Incorrect!</h3><h3 class='center-content'>The correct response is b).</h3><h3 class='center-content'>The minimum number of points you can choose to send to your partner is 1 point.</h3><p><em>Press SPACEBAR to continue</em></p></div>"," ","","","","","","","","",""
"","","","","testing","bdp_trlrn","Sun Dec 13 2020 15:09:22 GMT-0500 (Eastern Standard Time)","1081774","Untrustworthy,Trustworthy","html-keyboard-response","90","439035","0.0-11.0","","5762","","<div class='header' style='text-align:left; position: absolute; top: 5%; left: 5%;'><small>Task 3 of 4</small></div><div style='text-align:left; position: absolute; top: 10%; left: 20%; width: 60%'><p><strong>2) What is the maximum number of points you can choose to send to your partner?</strong></p><p>a) 8</p><p>b) 5</p><p>c) 3</p>","B","","","","","","","","",""
"","","","","testing","bdp_trlrn","Sun Dec 13 2020 15:09:22 GMT-0500 (Eastern Standard Time)","1081774","Untrustworthy,Trustworthy","html-keyboard-response","91","441643","0.0-12.0","","2505","","<div class='header' style='text-align:left; position: absolute; top: 5%; left: 5%;'><small>Task 3 of 4</small></div><div style='text-align:left; position: absolute; top: 10%; left: 20%; width: 60%'><p><strong>2) What is the maximum number of points you can choose to send to your partner?</strong></p><p>a) 8</p><p style='color:#00FF00'>b) 5</p><p>c) 3</p><h3 style='color:#00FF00'>Correct!</h3><h3 class='center-content'>The correct response is b).</h3><h3 class='center-content'>The maximum number of points you can choose to send to your partner is 5 points.</h3><p><em>Press SPACEBAR to continue</em></p></div>"," ","","","","","","","","",""
"","","","","testing","bdp_trlrn","Sun Dec 13 2020 15:09:22 GMT-0500 (Eastern Standard Time)","1081774","Untrustworthy,Trustworthy","html-keyboard-response","92","445199","0.0-13.0","","3450","","<div class='header' style='text-align:left; position: absolute; top: 5%; left: 5%;'><small>Task 3 of 4</small></div><div style='text-align:left; position: absolute; top: 10%; left: 20%; width: 60%'><p><strong>3) What happens to the amount of points you send to your partner?</strong></p><p>a) Nothing</p><p>b) It doubles</p><p>c) It quadruples</p>","C","","","","","","","","",""
"","","","","testing","bdp_trlrn","Sun Dec 13 2020 15:09:22 GMT-0500 (Eastern Standard Time)","1081774","Untrustworthy,Trustworthy","html-keyboard-response","93","446635","0.0-14.0","","1330","","<div class='header' style='text-align:left; position: absolute; top: 5%; left: 5%;'><small>Task 3 of 4</small></div><div style='text-align:left; position: absolute; top: 10%; left: 20%; width: 60%'><p><strong>3) What happens to the amount of points you send to your partner?</strong></p><p>a) Nothing</p><p>b) It doubles</p><p style='color:#00FF00'>c) It quadruples</p><h3 style='color:#00FF00'>Correct!</h3><h3 class='center-content'>The correct response is c).</h3><h3 class='center-content'>The amount of points you send to your partner quadruples.</h3><p><em>Press SPACEBAR to continue</em></p></div>"," ","","","","","","","","",""
"","","","","testing","bdp_trlrn","Sun Dec 13 2020 15:09:22 GMT-0500 (Eastern Standard Time)","1081774","Untrustworthy,Trustworthy","html-keyboard-response","94","506163","0.0-15.0","","59423","","<div class='header' style='text-align:left; position: absolute; top: 5%; left: 5%;'><small>Task 3 of 4</small></div><div style='text-align:left; position: absolute; top: 10%; left: 20%; width: 60%'><p><strong>4) If you decide to share 4 out of 5 points with your partner, and he decided to share half of what he received, how many points would you end up with in this round?</strong></p><p>a) 16</p><p>b) 0</p><p>c) 9</p>","C","","","","","","","","",""
"","","","","testing","bdp_trlrn","Sun Dec 13 2020 15:09:22 GMT-0500 (Eastern Standard Time)","1081774","Untrustworthy,Trustworthy","html-keyboard-response","95","508738","0.0-16.0","","2472","","<div class='header' style='text-align:left; position: absolute; top: 5%; left: 5%;'><small>Task 3 of 4</small></div><div style='text-align:left; position: absolute; top: 10%; left: 20%; width: 60%'><p><strong>4) If you decide to share 4 points with your partner, and he decided to share half of what he received, how many points would you end up with in this round?</strong></p><p>a) 16</p><p>b) 0</p><p style='color:#00FF00'>c) 9</p><h3 style='color:#00FF00'>Correct!</h3><h3 class='center-content'>The correct response is c).</h3><h3 class='center-content'>If you share 4 out of 5 points with your partner and he decided to share half with you, you would receive 8 points back (i.e. (4 x 4)/2 = 8), totaling to 9 points altogether.</h3><p><em>Press SPACEBAR to continue</em></p></div>"," ","","","","","","","","",""
"","","","","testing","bdp_trlrn","Sun Dec 13 2020 15:09:22 GMT-0500 (Eastern Standard Time)","1081774","Untrustworthy,Trustworthy","instructions","96","512028","0.0-17.0","[{""page_index"":0,""viewing_time"":3184}]","3184","","","","","","","","","","","",""
"","","","decision","testing","bdp_trlrn","Sun Dec 13 2020 15:09:22 GMT-0500 (Eastern Standard Time)","1081774","Untrustworthy,Trustworthy","html-keyboard-response","97","518500","0.0-18.0-1.0","","6366","","<div class='pointsDiv'><table width=550px><tr><td>Current Point Total: 5</td><td style='text-align:right'>Round #: 1</td></tr></table></div><div class='trialDiv'><img src='trustrating_stim/white_mw084.bmp'><br><font class='baseline'><strong>Daniel</strong><p>Choose number of points to send.</font><p><img src='img/responseButtonOffersNo0L.png' class='respPic'></p></div>","2","1","Daniel","trustrating_stim/white_mw084.bmp","Kept","0.2,0.6","9","0.2","5","1"
"","","","decisionFB","testing","bdp_trlrn","Sun Dec 13 2020 15:09:22 GMT-0500 (Eastern Standard Time)","1081774","Untrustworthy,Trustworthy","html-keyboard-response","98","519504","0.0-18.0-2.0","","null","","<div class='pointsDiv'><table width=550px><tr><td>Current Point Total: 3</td><td style='text-align:right'>Round #: 1</td></tr></table></div><div class='trialDiv'><img src='trustrating_stim/white_mw084.bmp'><br><font class='baseline'><strong>Daniel</strong><p>Choose number of points to send.</font><p><img src='img/responseButtonOffersNo0L2.png' class='respPic'></p></div>","null","1","Daniel","trustrating_stim/white_mw084.bmp","Kept","0.2,0.6","9","0.2","3","1"
"","","","feedback","testing","bdp_trlrn","Sun Dec 13 2020 15:09:22 GMT-0500 (Eastern Standard Time)","1081774","Untrustworthy,Trustworthy","html-keyboard-response","99","521509","0.0-18.0-3.0","","null","","<div class='pointsDiv'><table width=550px><tr><td>Current Point Total: 3</td><td style='text-align:right'>Round #: 1</td></tr></table></div><div class='trialDiv'><img src='trustrating_stim/white_mw084.bmp'><br><font class='baseline'><strong>Daniel</strong><p>Received: <strong>8</strong></font> &nbsp; &nbsp; &nbsp; &nbsp; &nbsp; &nbsp;<font class='negOutcome'>Shared back: <strong>0</strong></font><p><img src='img/responseButtonOffersNo0_wht.png' class='respPic'></p></font></div>","null","1","Daniel","trustrating_stim/white_mw084.bmp","Kept","0.2,0.6","9","0.2","3","1"
"","","","decision","testing","bdp_trlrn","Sun Dec 13 2020 15:09:22 GMT-0500 (Eastern Standard Time)","1081774","Untrustworthy,Trustworthy","html-keyboard-response","100","526113","0.0-18.0-1.1","","4602","","<div class='pointsDiv'><table width=550px><tr><td>Current Point Total: 8</td><td style='text-align:right'>Round #: 2</td></tr></table></div><div class='trialDiv'><img src='trustrating_stim/white_00761_941201_fb_edt.bmp'><br><font class='baseline'><strong>Tyler</strong><p>Choose number of points to send.</font><p><img src='img/responseButtonOffersNo0L.png' class='respPic'></p></div>","2","1","Tyler","trustrating_stim/white_00761_941201_fb_edt.bmp","Shared","0.6,0.2","8","0.6","8","2"
"","","","decisionFB","testing","bdp_trlrn","Sun Dec 13 2020 15:09:22 GMT-0500 (Eastern Standard Time)","1081774","Untrustworthy,Trustworthy","html-keyboard-response","101","527119","0.0-18.0-2.1","","null","","<div class='pointsDiv'><table width=550px><tr><td>Current Point Total: 6</td><td style='text-align:right'>Round #: 2</td></tr></table></div><div class='trialDiv'><img src='trustrating_stim/white_00761_941201_fb_edt.bmp'><br><font class='baseline'><strong>Tyler</strong><p>Choose number of points to send.</font><p><img src='img/responseButtonOffersNo0L2.png' class='respPic'></p></div>","null","1","Tyler","trustrating_stim/white_00761_941201_fb_edt.bmp","Shared","0.6,0.2","8","0.6","6","2"
"","","","feedback","testing","bdp_trlrn","Sun Dec 13 2020 15:09:22 GMT-0500 (Eastern Standard Time)","1081774","Untrustworthy,Trustworthy","html-keyboard-response","102","529121","0.0-18.0-3.1","","null","","<div class='pointsDiv'><table width=550px><tr><td>Current Point Total: 10</td><td style='text-align:right'>Round #: 2</td></tr></table></div><div class='trialDiv'><img src='trustrating_stim/white_00761_941201_fb_edt.bmp'><br><font class='baseline'><strong>Tyler</strong><p>Received: <strong>8</strong></font> &nbsp; &nbsp; &nbsp; &nbsp; &nbsp; &nbsp;<font class='posOutcome'>Shared back: <strong>4</strong></font><p><img src='img/responseButtonOffersNo0_wht.png' class='respPic'></p></font></div>","null","1","Tyler","trustrating_stim/white_00761_941201_fb_edt.bmp","Shared","0.6,0.2","8","0.6","10","2"
"","","","decision","testing","bdp_trlrn","Sun Dec 13 2020 15:09:22 GMT-0500 (Eastern Standard Time)","1081774","Untrustworthy,Trustworthy","html-keyboard-response","103","532129","0.0-18.0-1.2","","3006","","<div class='pointsDiv'><table width=550px><tr><td>Current Point Total: 15</td><td style='text-align:right'>Round #: 3</td></tr></table></div><div class='trialDiv'><img src='trustrating_stim/white_00785_941205_fb_edt.bmp'><br><font class='baseline'><strong>Chris</strong><p>Choose number of points to send.</font><p><img src='img/responseButtonOffersNo0L.png' class='respPic'></p></div>","2","1","Chris","trustrating_stim/white_00785_941205_fb_edt.bmp","Kept","0.4,0.8","10","0.4","15","3"
"","","","decisionFB","testing","bdp_trlrn","Sun Dec 13 2020 15:09:22 GMT-0500 (Eastern Standard Time)","1081774","Untrustworthy,Trustworthy","html-keyboard-response","104","533132","0.0-18.0-2.2","","null","","<div class='pointsDiv'><table width=550px><tr><td>Current Point Total: 13</td><td style='text-align:right'>Round #: 3</td></tr></table></div><div class='trialDiv'><img src='trustrating_stim/white_00785_941205_fb_edt.bmp'><br><font class='baseline'><strong>Chris</strong><p>Choose number of points to send.</font><p><img src='img/responseButtonOffersNo0L2.png' class='respPic'></p></div>","null","1","Chris","trustrating_stim/white_00785_941205_fb_edt.bmp","Kept","0.4,0.8","10","0.4","13","3"
"","","","feedback","testing","bdp_trlrn","Sun Dec 13 2020 15:09:22 GMT-0500 (Eastern Standard Time)","1081774","Untrustworthy,Trustworthy","html-keyboard-response","105","535138","0.0-18.0-3.2","","null","","<div class='pointsDiv'><table width=550px><tr><td>Current Point Total: 13</td><td style='text-align:right'>Round #: 3</td></tr></table></div><div class='trialDiv'><img src='trustrating_stim/white_00785_941205_fb_edt.bmp'><br><font class='baseline'><strong>Chris</strong><p>Received: <strong>8</strong></font> &nbsp; &nbsp; &nbsp; &nbsp; &nbsp; &nbsp;<font class='negOutcome'>Shared back: <strong>0</strong></font><p><img src='img/responseButtonOffersNo0_wht.png' class='respPic'></p></font></div>","null","1","Chris","trustrating_stim/white_00785_941205_fb_edt.bmp","Kept","0.4,0.8","10","0.4","13","3"
"","","","decision","testing","bdp_trlrn","Sun Dec 13 2020 15:09:22 GMT-0500 (Eastern Standard Time)","1081774","Untrustworthy,Trustworthy","html-keyboard-response","106","537019","0.0-18.0-1.3","","1879","","<div class='pointsDiv'><table width=550px><tr><td>Current Point Total: 18</td><td style='text-align:right'>Round #: 4</td></tr></table></div><div class='trialDiv'><img src='trustrating_stim/white_mw089.bmp'><br><font class='baseline'><strong>Nathan</strong><p>Choose number of points to send.</font><p><img src='img/responseButtonOffersNo0L.png' class='respPic'></p></div>","2","1","Nathan","trustrating_stim/white_mw089.bmp","Shared","0.8,0.4","15","0.8","18","4"
"","","","decisionFB","testing","bdp_trlrn","Sun Dec 13 2020 15:09:22 GMT-0500 (Eastern Standard Time)","1081774","Untrustworthy,Trustworthy","html-keyboard-response","107","538022","0.0-18.0-2.3","","null","","<div class='pointsDiv'><table width=550px><tr><td>Current Point Total: 16</td><td style='text-align:right'>Round #: 4</td></tr></table></div><div class='trialDiv'><img src='trustrating_stim/white_mw089.bmp'><br><font class='baseline'><strong>Nathan</strong><p>Choose number of points to send.</font><p><img src='img/responseButtonOffersNo0L2.png' class='respPic'></p></div>","null","1","Nathan","trustrating_stim/white_mw089.bmp","Shared","0.8,0.4","15","0.8","16","4"
"","","","feedback","testing","bdp_trlrn","Sun Dec 13 2020 15:09:22 GMT-0500 (Eastern Standard Time)","1081774","Untrustworthy,Trustworthy","html-keyboard-response","108","540024","0.0-18.0-3.3","","null","","<div class='pointsDiv'><table width=550px><tr><td>Current Point Total: 20</td><td style='text-align:right'>Round #: 4</td></tr></table></div><div class='trialDiv'><img src='trustrating_stim/white_mw089.bmp'><br><font class='baseline'><strong>Nathan</strong><p>Received: <strong>8</strong></font> &nbsp; &nbsp; &nbsp; &nbsp; &nbsp; &nbsp;<font class='posOutcome'>Shared back: <strong>4</strong></font><p><img src='img/responseButtonOffersNo0_wht.png' class='respPic'></p></font></div>","null","1","Nathan","trustrating_stim/white_mw089.bmp","Shared","0.8,0.4","15","0.8","20","4"
"","","","decision","testing","bdp_trlrn","Sun Dec 13 2020 15:09:22 GMT-0500 (Eastern Standard Time)","1081774","Untrustworthy,Trustworthy","html-keyboard-response","109","554411","0.0-18.0-1.4","","14386","","<div class='pointsDiv'><table width=550px><tr><td>Current Point Total: 25</td><td style='text-align:right'>Round #: 5</td></tr></table></div><div class='trialDiv'><img src='trustrating_stim/white_00761_941201_fb_edt.bmp'><br><font class='baseline'><strong>Tyler</strong><p>Choose number of points to send.</font><p><img src='img/responseButtonOffersNo0L.png' class='respPic'></p></div>","2","2","Tyler","trustrating_stim/white_00761_941201_fb_edt.bmp","Shared","0.6,0.2","8","0.6","25","5"
"","","","decisionFB","testing","bdp_trlrn","Sun Dec 13 2020 15:09:22 GMT-0500 (Eastern Standard Time)","1081774","Untrustworthy,Trustworthy","html-keyboard-response","110","555415","0.0-18.0-2.4","","null","","<div class='pointsDiv'><table width=550px><tr><td>Current Point Total: 23</td><td style='text-align:right'>Round #: 5</td></tr></table></div><div class='trialDiv'><img src='trustrating_stim/white_00761_941201_fb_edt.bmp'><br><font class='baseline'><strong>Tyler</strong><p>Choose number of points to send.</font><p><img src='img/responseButtonOffersNo0L2.png' class='respPic'></p></div>","null","2","Tyler","trustrating_stim/white_00761_941201_fb_edt.bmp","Shared","0.6,0.2","8","0.6","23","5"
"","","","feedback","testing","bdp_trlrn","Sun Dec 13 2020 15:09:22 GMT-0500 (Eastern Standard Time)","1081774","Untrustworthy,Trustworthy","html-keyboard-response","111","557416","0.0-18.0-3.4","","null","","<div class='pointsDiv'><table width=550px><tr><td>Current Point Total: 27</td><td style='text-align:right'>Round #: 5</td></tr></table></div><div class='trialDiv'><img src='trustrating_stim/white_00761_941201_fb_edt.bmp'><br><font class='baseline'><strong>Tyler</strong><p>Received: <strong>8</strong></font> &nbsp; &nbsp; &nbsp; &nbsp; &nbsp; &nbsp;<font class='posOutcome'>Shared back: <strong>4</strong></font><p><img src='img/responseButtonOffersNo0_wht.png' class='respPic'></p></font></div>","null","2","Tyler","trustrating_stim/white_00761_941201_fb_edt.bmp","Shared","0.6,0.2","8","0.6","27","5"
"","","","decision","testing","bdp_trlrn","Sun Dec 13 2020 15:09:22 GMT-0500 (Eastern Standard Time)","1081774","Untrustworthy,Trustworthy","html-keyboard-response","112","560763","0.0-18.0-1.5","","3345","","<div class='pointsDiv'><table width=550px><tr><td>Current Point Total: 32</td><td style='text-align:right'>Round #: 6</td></tr></table></div><div class='trialDiv'><img src='trustrating_stim/white_00785_941205_fb_edt.bmp'><br><font class='baseline'><strong>Chris</strong><p>Choose number of points to send.</font><p><img src='img/responseButtonOffersNo0L.png' class='respPic'></p></div>","2","2","Chris","trustrating_stim/white_00785_941205_fb_edt.bmp","Kept","0.4,0.8","10","0.4","32","6"
"","","","decisionFB","testing","bdp_trlrn","Sun Dec 13 2020 15:09:22 GMT-0500 (Eastern Standard Time)","1081774","Untrustworthy,Trustworthy","html-keyboard-response","113","561764","0.0-18.0-2.5","","null","","<div class='pointsDiv'><table width=550px><tr><td>Current Point Total: 30</td><td style='text-align:right'>Round #: 6</td></tr></table></div><div class='trialDiv'><img src='trustrating_stim/white_00785_941205_fb_edt.bmp'><br><font class='baseline'><strong>Chris</strong><p>Choose number of points to send.</font><p><img src='img/responseButtonOffersNo0L2.png' class='respPic'></p></div>","null","2","Chris","trustrating_stim/white_00785_941205_fb_edt.bmp","Kept","0.4,0.8","10","0.4","30","6"
"","","","feedback","testing","bdp_trlrn","Sun Dec 13 2020 15:09:22 GMT-0500 (Eastern Standard Time)","1081774","Untrustworthy,Trustworthy","html-keyboard-response","114","563769","0.0-18.0-3.5","","null","","<div class='pointsDiv'><table width=550px><tr><td>Current Point Total: 30</td><td style='text-align:right'>Round #: 6</td></tr></table></div><div class='trialDiv'><img src='trustrating_stim/white_00785_941205_fb_edt.bmp'><br><font class='baseline'><strong>Chris</strong><p>Received: <strong>8</strong></font> &nbsp; &nbsp; &nbsp; &nbsp; &nbsp; &nbsp;<font class='negOutcome'>Shared back: <strong>0</strong></font><p><img src='img/responseButtonOffersNo0_wht.png' class='respPic'></p></font></div>","null","2","Chris","trustrating_stim/white_00785_941205_fb_edt.bmp","Kept","0.4,0.8","10","0.4","30","6"
"","","","decision","testing","bdp_trlrn","Sun Dec 13 2020 15:09:22 GMT-0500 (Eastern Standard Time)","1081774","Untrustworthy,Trustworthy","html-keyboard-response","115","565267","0.0-18.0-1.6","","1497","","<div class='pointsDiv'><table width=550px><tr><td>Current Point Total: 35</td><td style='text-align:right'>Round #: 7</td></tr></table></div><div class='trialDiv'><img src='trustrating_stim/white_mw089.bmp'><br><font class='baseline'><strong>Nathan</strong><p>Choose number of points to send.</font><p><img src='img/responseButtonOffersNo0L.png' class='respPic'></p></div>","2","2","Nathan","trustrating_stim/white_mw089.bmp","Shared","0.8,0.4","15","0.8","35","7"
"","","","decisionFB","testing","bdp_trlrn","Sun Dec 13 2020 15:09:22 GMT-0500 (Eastern Standard Time)","1081774","Untrustworthy,Trustworthy","html-keyboard-response","116","566271","0.0-18.0-2.6","","null","","<div class='pointsDiv'><table width=550px><tr><td>Current Point Total: 33</td><td style='text-align:right'>Round #: 7</td></tr></table></div><div class='trialDiv'><img src='trustrating_stim/white_mw089.bmp'><br><font class='baseline'><strong>Nathan</strong><p>Choose number of points to send.</font><p><img src='img/responseButtonOffersNo0L2.png' class='respPic'></p></div>","null","2","Nathan","trustrating_stim/white_mw089.bmp","Shared","0.8,0.4","15","0.8","33","7"
"","","","feedback","testing","bdp_trlrn","Sun Dec 13 2020 15:09:22 GMT-0500 (Eastern Standard Time)","1081774","Untrustworthy,Trustworthy","html-keyboard-response","117","568272","0.0-18.0-3.6","","null","","<div class='pointsDiv'><table width=550px><tr><td>Current Point Total: 37</td><td style='text-align:right'>Round #: 7</td></tr></table></div><div class='trialDiv'><img src='trustrating_stim/white_mw089.bmp'><br><font class='baseline'><strong>Nathan</strong><p>Received: <strong>8</strong></font> &nbsp; &nbsp; &nbsp; &nbsp; &nbsp; &nbsp;<font class='posOutcome'>Shared back: <strong>4</strong></font><p><img src='img/responseButtonOffersNo0_wht.png' class='respPic'></p></font></div>","null","2","Nathan","trustrating_stim/white_mw089.bmp","Shared","0.8,0.4","15","0.8","37","7"
"","","","decision","testing","bdp_trlrn","Sun Dec 13 2020 15:09:22 GMT-0500 (Eastern Standard Time)","1081774","Untrustworthy,Trustworthy","html-keyboard-response","118","571465","0.0-18.0-1.7","","3191","","<div class='pointsDiv'><table width=550px><tr><td>Current Point Total: 42</td><td style='text-align:right'>Round #: 8</td></tr></table></div><div class='trialDiv'><img src='trustrating_stim/white_mw084.bmp'><br><font class='baseline'><strong>Daniel</strong><p>Choose number of points to send.</font><p><img src='img/responseButtonOffersNo0L.png' class='respPic'></p></div>","1","2","Daniel","trustrating_stim/white_mw084.bmp","Shared","0.2,0.6","9","0.2","42","8"
"","","","decisionFB","testing","bdp_trlrn","Sun Dec 13 2020 15:09:22 GMT-0500 (Eastern Standard Time)","1081774","Untrustworthy,Trustworthy","html-keyboard-response","119","572470","0.0-18.0-2.7","","null","","<div class='pointsDiv'><table width=550px><tr><td>Current Point Total: 41</td><td style='text-align:right'>Round #: 8</td></tr></table></div><div class='trialDiv'><img src='trustrating_stim/white_mw084.bmp'><br><font class='baseline'><strong>Daniel</strong><p>Choose number of points to send.</font><p><img src='img/responseButtonOffersNo0L1.png' class='respPic'></p></div>","null","2","Daniel","trustrating_stim/white_mw084.bmp","Shared","0.2,0.6","9","0.2","41","8"
"","","","feedback","testing","bdp_trlrn","Sun Dec 13 2020 15:09:22 GMT-0500 (Eastern Standard Time)","1081774","Untrustworthy,Trustworthy","html-keyboard-response","120","574476","0.0-18.0-3.7","","null","","<div class='pointsDiv'><table width=550px><tr><td>Current Point Total: 43</td><td style='text-align:right'>Round #: 8</td></tr></table></div><div class='trialDiv'><img src='trustrating_stim/white_mw084.bmp'><br><font class='baseline'><strong>Daniel</strong><p>Received: <strong>4</strong></font> &nbsp; &nbsp; &nbsp; &nbsp; &nbsp; &nbsp;<font class='posOutcome'>Shared back: <strong>2</strong></font><p><img src='img/responseButtonOffersNo0_wht.png' class='respPic'></p></font></div>","null","2","Daniel","trustrating_stim/white_mw084.bmp","Shared","0.2,0.6","9","0.2","43","8"
"","","","decision","testing","bdp_trlrn","Sun Dec 13 2020 15:09:22 GMT-0500 (Eastern Standard Time)","1081774","Untrustworthy,Trustworthy","html-keyboard-response","121","576391","0.0-18.0-1.8","","1914","","<div class='pointsDiv'><table width=550px><tr><td>Current Point Total: 48</td><td style='text-align:right'>Round #: 9</td></tr></table></div><div class='trialDiv'><img src='trustrating_stim/white_mw089.bmp'><br><font class='baseline'><strong>Nathan</strong><p>Choose number of points to send.</font><p><img src='img/responseButtonOffersNo0L.png' class='respPic'></p></div>","2","3","Nathan","trustrating_stim/white_mw089.bmp","Shared","0.8,0.4","15","0.8","48","9"
"","","","decisionFB","testing","bdp_trlrn","Sun Dec 13 2020 15:09:22 GMT-0500 (Eastern Standard Time)","1081774","Untrustworthy,Trustworthy","html-keyboard-response","122","577393","0.0-18.0-2.8","","null","","<div class='pointsDiv'><table width=550px><tr><td>Current Point Total: 46</td><td style='text-align:right'>Round #: 9</td></tr></table></div><div class='trialDiv'><img src='trustrating_stim/white_mw089.bmp'><br><font class='baseline'><strong>Nathan</strong><p>Choose number of points to send.</font><p><img src='img/responseButtonOffersNo0L2.png' class='respPic'></p></div>","null","3","Nathan","trustrating_stim/white_mw089.bmp","Shared","0.8,0.4","15","0.8","46","9"
"","","","feedback","testing","bdp_trlrn","Sun Dec 13 2020 15:09:22 GMT-0500 (Eastern Standard Time)","1081774","Untrustworthy,Trustworthy","html-keyboard-response","123","579399","0.0-18.0-3.8","","null","","<div class='pointsDiv'><table width=550px><tr><td>Current Point Total: 50</td><td style='text-align:right'>Round #: 9</td></tr></table></div><div class='trialDiv'><img src='trustrating_stim/white_mw089.bmp'><br><font class='baseline'><strong>Nathan</strong><p>Received: <strong>8</strong></font> &nbsp; &nbsp; &nbsp; &nbsp; &nbsp; &nbsp;<font class='posOutcome'>Shared back: <strong>4</strong></font><p><img src='img/responseButtonOffersNo0_wht.png' class='respPic'></p></font></div>","null","3","Nathan","trustrating_stim/white_mw089.bmp","Shared","0.8,0.4","15","0.8","50","9"
"","","","decision","testing","bdp_trlrn","Sun Dec 13 2020 15:09:22 GMT-0500 (Eastern Standard Time)","1081774","Untrustworthy,Trustworthy","html-keyboard-response","124","581019","0.0-18.0-1.9","","1618","","<div class='pointsDiv'><table width=550px><tr><td>Current Point Total: 55</td><td style='text-align:right'>Round #: 10</td></tr></table></div><div class='trialDiv'><img src='trustrating_stim/white_00761_941201_fb_edt.bmp'><br><font class='baseline'><strong>Tyler</strong><p>Choose number of points to send.</font><p><img src='img/responseButtonOffersNo0L.png' class='respPic'></p></div>","3","3","Tyler","trustrating_stim/white_00761_941201_fb_edt.bmp","Kept","0.6,0.2","8","0.6","55","10"
"","","","decisionFB","testing","bdp_trlrn","Sun Dec 13 2020 15:09:22 GMT-0500 (Eastern Standard Time)","1081774","Untrustworthy,Trustworthy","html-keyboard-response","125","582024","0.0-18.0-2.9","","null","","<div class='pointsDiv'><table width=550px><tr><td>Current Point Total: 52</td><td style='text-align:right'>Round #: 10</td></tr></table></div><div class='trialDiv'><img src='trustrating_stim/white_00761_941201_fb_edt.bmp'><br><font class='baseline'><strong>Tyler</strong><p>Choose number of points to send.</font><p><img src='img/responseButtonOffersNo0L3.png' class='respPic'></p></div>","null","3","Tyler","trustrating_stim/white_00761_941201_fb_edt.bmp","Kept","0.6,0.2","8","0.6","52","10"
"","","","feedback","testing","bdp_trlrn","Sun Dec 13 2020 15:09:22 GMT-0500 (Eastern Standard Time)","1081774","Untrustworthy,Trustworthy","html-keyboard-response","126","584030","0.0-18.0-3.9","","null","","<div class='pointsDiv'><table width=550px><tr><td>Current Point Total: 52</td><td style='text-align:right'>Round #: 10</td></tr></table></div><div class='trialDiv'><img src='trustrating_stim/white_00761_941201_fb_edt.bmp'><br><font class='baseline'><strong>Tyler</strong><p>Received: <strong>12</strong></font> &nbsp; &nbsp; &nbsp; &nbsp; &nbsp; &nbsp;<font class='negOutcome'>Shared back: <strong>0</strong></font><p><img src='img/responseButtonOffersNo0_wht.png' class='respPic'></p></font></div>","null","3","Tyler","trustrating_stim/white_00761_941201_fb_edt.bmp","Kept","0.6,0.2","8","0.6","52","10"
"","","","decision","testing","bdp_trlrn","Sun Dec 13 2020 15:09:22 GMT-0500 (Eastern Standard Time)","1081774","Untrustworthy,Trustworthy","html-keyboard-response","127","589010","0.0-18.0-1.10","","4978","","<div class='pointsDiv'><table width=550px><tr><td>Current Point Total: 57</td><td style='text-align:right'>Round #: 11</td></tr></table></div><div class='trialDiv'><img src='trustrating_stim/white_mw084.bmp'><br><font class='baseline'><strong>Daniel</strong><p>Choose number of points to send.</font><p><img src='img/responseButtonOffersNo0L.png' class='respPic'></p></div>","2","3","Daniel","trustrating_stim/white_mw084.bmp","Kept","0.2,0.6","9","0.2","57","11"
"","","","decisionFB","testing","bdp_trlrn","Sun Dec 13 2020 15:09:22 GMT-0500 (Eastern Standard Time)","1081774","Untrustworthy,Trustworthy","html-keyboard-response","128","590013","0.0-18.0-2.10","","null","","<div class='pointsDiv'><table width=550px><tr><td>Current Point Total: 55</td><td style='text-align:right'>Round #: 11</td></tr></table></div><div class='trialDiv'><img src='trustrating_stim/white_mw084.bmp'><br><font class='baseline'><strong>Daniel</strong><p>Choose number of points to send.</font><p><img src='img/responseButtonOffersNo0L2.png' class='respPic'></p></div>","null","3","Daniel","trustrating_stim/white_mw084.bmp","Kept","0.2,0.6","9","0.2","55","11"
"","","","feedback","testing","bdp_trlrn","Sun Dec 13 2020 15:09:22 GMT-0500 (Eastern Standard Time)","1081774","Untrustworthy,Trustworthy","html-keyboard-response","129","592014","0.0-18.0-3.10","","null","","<div class='pointsDiv'><table width=550px><tr><td>Current Point Total: 55</td><td style='text-align:right'>Round #: 11</td></tr></table></div><div class='trialDiv'><img src='trustrating_stim/white_mw084.bmp'><br><font class='baseline'><strong>Daniel</strong><p>Received: <strong>8</strong></font> &nbsp; &nbsp; &nbsp; &nbsp; &nbsp; &nbsp;<font class='negOutcome'>Shared back: <strong>0</strong></font><p><img src='img/responseButtonOffersNo0_wht.png' class='respPic'></p></font></div>","null","3","Daniel","trustrating_stim/white_mw084.bmp","Kept","0.2,0.6","9","0.2","55","11"
"","","","decision","testing","bdp_trlrn","Sun Dec 13 2020 15:09:22 GMT-0500 (Eastern Standard Time)","1081774","Untrustworthy,Trustworthy","html-keyboard-response","130","597275","0.0-18.0-1.11","","5259","","<div class='pointsDiv'><table width=550px><tr><td>Current Point Total: 60</td><td style='text-align:right'>Round #: 12</td></tr></table></div><div class='trialDiv'><img src='trustrating_stim/white_00785_941205_fb_edt.bmp'><br><font class='baseline'><strong>Chris</strong><p>Choose number of points to send.</font><p><img src='img/responseButtonOffersNo0L.png' class='respPic'></p></div>","1","3","Chris","trustrating_stim/white_00785_941205_fb_edt.bmp","Kept","0.4,0.8","10","0.4","60","12"
"","","","decisionFB","testing","bdp_trlrn","Sun Dec 13 2020 15:09:22 GMT-0500 (Eastern Standard Time)","1081774","Untrustworthy,Trustworthy","html-keyboard-response","131","598279","0.0-18.0-2.11","","null","","<div class='pointsDiv'><table width=550px><tr><td>Current Point Total: 59</td><td style='text-align:right'>Round #: 12</td></tr></table></div><div class='trialDiv'><img src='trustrating_stim/white_00785_941205_fb_edt.bmp'><br><font class='baseline'><strong>Chris</strong><p>Choose number of points to send.</font><p><img src='img/responseButtonOffersNo0L1.png' class='respPic'></p></div>","null","3","Chris","trustrating_stim/white_00785_941205_fb_edt.bmp","Kept","0.4,0.8","10","0.4","59","12"
"","","","feedback","testing","bdp_trlrn","Sun Dec 13 2020 15:09:22 GMT-0500 (Eastern Standard Time)","1081774","Untrustworthy,Trustworthy","html-keyboard-response","132","600285","0.0-18.0-3.11","","null","","<div class='pointsDiv'><table width=550px><tr><td>Current Point Total: 59</td><td style='text-align:right'>Round #: 12</td></tr></table></div><div class='trialDiv'><img src='trustrating_stim/white_00785_941205_fb_edt.bmp'><br><font class='baseline'><strong>Chris</strong><p>Received: <strong>4</strong></font> &nbsp; &nbsp; &nbsp; &nbsp; &nbsp; &nbsp;<font class='negOutcome'>Shared back: <strong>0</strong></font><p><img src='img/responseButtonOffersNo0_wht.png' class='respPic'></p></font></div>","null","3","Chris","trustrating_stim/white_00785_941205_fb_edt.bmp","Kept","0.4,0.8","10","0.4","59","12"
"","","","decision","testing","bdp_trlrn","Sun Dec 13 2020 15:09:22 GMT-0500 (Eastern Standard Time)","1081774","Untrustworthy,Trustworthy","html-keyboard-response","133","602660","0.0-18.0-1.12","","2374","","<div class='pointsDiv'><table width=550px><tr><td>Current Point Total: 64</td><td style='text-align:right'>Round #: 13</td></tr></table></div><div class='trialDiv'><img src='trustrating_stim/white_mw089.bmp'><br><font class='baseline'><strong>Nathan</strong><p>Choose number of points to send.</font><p><img src='img/responseButtonOffersNo0L.png' class='respPic'></p></div>","3","4","Nathan","trustrating_stim/white_mw089.bmp","Shared","0.8,0.4","15","0.8","64","13"
"","","","decisionFB","testing","bdp_trlrn","Sun Dec 13 2020 15:09:22 GMT-0500 (Eastern Standard Time)","1081774","Untrustworthy,Trustworthy","html-keyboard-response","134","603665","0.0-18.0-2.12","","null","","<div class='pointsDiv'><table width=550px><tr><td>Current Point Total: 61</td><td style='text-align:right'>Round #: 13</td></tr></table></div><div class='trialDiv'><img src='trustrating_stim/white_mw089.bmp'><br><font class='baseline'><strong>Nathan</strong><p>Choose number of points to send.</font><p><img src='img/responseButtonOffersNo0L3.png' class='respPic'></p></div>","null","4","Nathan","trustrating_stim/white_mw089.bmp","Shared","0.8,0.4","15","0.8","61","13"
"","","","feedback","testing","bdp_trlrn","Sun Dec 13 2020 15:09:22 GMT-0500 (Eastern Standard Time)","1081774","Untrustworthy,Trustworthy","html-keyboard-response","135","605671","0.0-18.0-3.12","","null","","<div class='pointsDiv'><table width=550px><tr><td>Current Point Total: 67</td><td style='text-align:right'>Round #: 13</td></tr></table></div><div class='trialDiv'><img src='trustrating_stim/white_mw089.bmp'><br><font class='baseline'><strong>Nathan</strong><p>Received: <strong>12</strong></font> &nbsp; &nbsp; &nbsp; &nbsp; &nbsp; &nbsp;<font class='posOutcome'>Shared back: <strong>6</strong></font><p><img src='img/responseButtonOffersNo0_wht.png' class='respPic'></p></font></div>","null","4","Nathan","trustrating_stim/white_mw089.bmp","Shared","0.8,0.4","15","0.8","67","13"
"","","","decision","testing","bdp_trlrn","Sun Dec 13 2020 15:09:22 GMT-0500 (Eastern Standard Time)","1081774","Untrustworthy,Trustworthy","html-keyboard-response","136","608021","0.0-18.0-1.13","","2348","","<div class='pointsDiv'><table width=550px><tr><td>Current Point Total: 72</td><td style='text-align:right'>Round #: 14</td></tr></table></div><div class='trialDiv'><img src='trustrating_stim/white_mw084.bmp'><br><font class='baseline'><strong>Daniel</strong><p>Choose number of points to send.</font><p><img src='img/responseButtonOffersNo0L.png' class='respPic'></p></div>","2","4","Daniel","trustrating_stim/white_mw084.bmp","Kept","0.2,0.6","9","0.2","72","14"
"","","","decisionFB","testing","bdp_trlrn","Sun Dec 13 2020 15:09:22 GMT-0500 (Eastern Standard Time)","1081774","Untrustworthy,Trustworthy","html-keyboard-response","137","609026","0.0-18.0-2.13","","null","","<div class='pointsDiv'><table width=550px><tr><td>Current Point Total: 70</td><td style='text-align:right'>Round #: 14</td></tr></table></div><div class='trialDiv'><img src='trustrating_stim/white_mw084.bmp'><br><font class='baseline'><strong>Daniel</strong><p>Choose number of points to send.</font><p><img src='img/responseButtonOffersNo0L2.png' class='respPic'></p></div>","null","4","Daniel","trustrating_stim/white_mw084.bmp","Kept","0.2,0.6","9","0.2","70","14"
"","","","feedback","testing","bdp_trlrn","Sun Dec 13 2020 15:09:22 GMT-0500 (Eastern Standard Time)","1081774","Untrustworthy,Trustworthy","html-keyboard-response","138","611028","0.0-18.0-3.13","","null","","<div class='pointsDiv'><table width=550px><tr><td>Current Point Total: 70</td><td style='text-align:right'>Round #: 14</td></tr></table></div><div class='trialDiv'><img src='trustrating_stim/white_mw084.bmp'><br><font class='baseline'><strong>Daniel</strong><p>Received: <strong>8</strong></font> &nbsp; &nbsp; &nbsp; &nbsp; &nbsp; &nbsp;<font class='negOutcome'>Shared back: <strong>0</strong></font><p><img src='img/responseButtonOffersNo0_wht.png' class='respPic'></p></font></div>","null","4","Daniel","trustrating_stim/white_mw084.bmp","Kept","0.2,0.6","9","0.2","70","14"
"","","","decision","testing","bdp_trlrn","Sun Dec 13 2020 15:09:22 GMT-0500 (Eastern Standard Time)","1081774","Untrustworthy,Trustworthy","html-keyboard-response","139","613479","0.0-18.0-1.14","","2449","","<div class='pointsDiv'><table width=550px><tr><td>Current Point Total: 75</td><td style='text-align:right'>Round #: 15</td></tr></table></div><div class='trialDiv'><img src='trustrating_stim/white_00785_941205_fb_edt.bmp'><br><font class='baseline'><strong>Chris</strong><p>Choose number of points to send.</font><p><img src='img/responseButtonOffersNo0L.png' class='respPic'></p></div>","1","4","Chris","trustrating_stim/white_00785_941205_fb_edt.bmp","Kept","0.4,0.8","10","0.4","75","15"
"","","","decisionFB","testing","bdp_trlrn","Sun Dec 13 2020 15:09:22 GMT-0500 (Eastern Standard Time)","1081774","Untrustworthy,Trustworthy","html-keyboard-response","140","614484","0.0-18.0-2.14","","null","","<div class='pointsDiv'><table width=550px><tr><td>Current Point Total: 74</td><td style='text-align:right'>Round #: 15</td></tr></table></div><div class='trialDiv'><img src='trustrating_stim/white_00785_941205_fb_edt.bmp'><br><font class='baseline'><strong>Chris</strong><p>Choose number of points to send.</font><p><img src='img/responseButtonOffersNo0L1.png' class='respPic'></p></div>","null","4","Chris","trustrating_stim/white_00785_941205_fb_edt.bmp","Kept","0.4,0.8","10","0.4","74","15"
"","","","feedback","testing","bdp_trlrn","Sun Dec 13 2020 15:09:22 GMT-0500 (Eastern Standard Time)","1081774","Untrustworthy,Trustworthy","html-keyboard-response","141","616491","0.0-18.0-3.14","","null","","<div class='pointsDiv'><table width=550px><tr><td>Current Point Total: 74</td><td style='text-align:right'>Round #: 15</td></tr></table></div><div class='trialDiv'><img src='trustrating_stim/white_00785_941205_fb_edt.bmp'><br><font class='baseline'><strong>Chris</strong><p>Received: <strong>4</strong></font> &nbsp; &nbsp; &nbsp; &nbsp; &nbsp; &nbsp;<font class='negOutcome'>Shared back: <strong>0</strong></font><p><img src='img/responseButtonOffersNo0_wht.png' class='respPic'></p></font></div>","null","4","Chris","trustrating_stim/white_00785_941205_fb_edt.bmp","Kept","0.4,0.8","10","0.4","74","15"
"","","","decision","testing","bdp_trlrn","Sun Dec 13 2020 15:09:22 GMT-0500 (Eastern Standard Time)","1081774","Untrustworthy,Trustworthy","html-keyboard-response","142","618825","0.0-18.0-1.15","","2334","","<div class='pointsDiv'><table width=550px><tr><td>Current Point Total: 79</td><td style='text-align:right'>Round #: 16</td></tr></table></div><div class='trialDiv'><img src='trustrating_stim/white_00761_941201_fb_edt.bmp'><br><font class='baseline'><strong>Tyler</strong><p>Choose number of points to send.</font><p><img src='img/responseButtonOffersNo0L.png' class='respPic'></p></div>","2","4","Tyler","trustrating_stim/white_00761_941201_fb_edt.bmp","Shared","0.6,0.2","8","0.6","79","16"
"","","","decisionFB","testing","bdp_trlrn","Sun Dec 13 2020 15:09:22 GMT-0500 (Eastern Standard Time)","1081774","Untrustworthy,Trustworthy","html-keyboard-response","143","619828","0.0-18.0-2.15","","null","","<div class='pointsDiv'><table width=550px><tr><td>Current Point Total: 77</td><td style='text-align:right'>Round #: 16</td></tr></table></div><div class='trialDiv'><img src='trustrating_stim/white_00761_941201_fb_edt.bmp'><br><font class='baseline'><strong>Tyler</strong><p>Choose number of points to send.</font><p><img src='img/responseButtonOffersNo0L2.png' class='respPic'></p></div>","null","4","Tyler","trustrating_stim/white_00761_941201_fb_edt.bmp","Shared","0.6,0.2","8","0.6","77","16"
"","","","feedback","testing","bdp_trlrn","Sun Dec 13 2020 15:09:22 GMT-0500 (Eastern Standard Time)","1081774","Untrustworthy,Trustworthy","html-keyboard-response","144","621835","0.0-18.0-3.15","","null","","<div class='pointsDiv'><table width=550px><tr><td>Current Point Total: 81</td><td style='text-align:right'>Round #: 16</td></tr></table></div><div class='trialDiv'><img src='trustrating_stim/white_00761_941201_fb_edt.bmp'><br><font class='baseline'><strong>Tyler</strong><p>Received: <strong>8</strong></font> &nbsp; &nbsp; &nbsp; &nbsp; &nbsp; &nbsp;<font class='posOutcome'>Shared back: <strong>4</strong></font><p><img src='img/responseButtonOffersNo0_wht.png' class='respPic'></p></font></div>","null","4","Tyler","trustrating_stim/white_00761_941201_fb_edt.bmp","Shared","0.6,0.2","8","0.6","81","16"
"","","","decision","testing","bdp_trlrn","Sun Dec 13 2020 15:09:22 GMT-0500 (Eastern Standard Time)","1081774","Untrustworthy,Trustworthy","html-keyboard-response","145","623111","0.0-18.0-1.16","","1275","","<div class='pointsDiv'><table width=550px><tr><td>Current Point Total: 86</td><td style='text-align:right'>Round #: 17</td></tr></table></div><div class='trialDiv'><img src='trustrating_stim/white_mw084.bmp'><br><font class='baseline'><strong>Daniel</strong><p>Choose number of points to send.</font><p><img src='img/responseButtonOffersNo0L.png' class='respPic'></p></div>","1","5","Daniel","trustrating_stim/white_mw084.bmp","Kept","0.2,0.6","9","0.2","86","17"
"","","","decisionFB","testing","bdp_trlrn","Sun Dec 13 2020 15:09:22 GMT-0500 (Eastern Standard Time)","1081774","Untrustworthy,Trustworthy","html-keyboard-response","146","624112","0.0-18.0-2.16","","null","","<div class='pointsDiv'><table width=550px><tr><td>Current Point Total: 85</td><td style='text-align:right'>Round #: 17</td></tr></table></div><div class='trialDiv'><img src='trustrating_stim/white_mw084.bmp'><br><font class='baseline'><strong>Daniel</strong><p>Choose number of points to send.</font><p><img src='img/responseButtonOffersNo0L1.png' class='respPic'></p></div>","null","5","Daniel","trustrating_stim/white_mw084.bmp","Kept","0.2,0.6","9","0.2","85","17"
"","","","feedback","testing","bdp_trlrn","Sun Dec 13 2020 15:09:22 GMT-0500 (Eastern Standard Time)","1081774","Untrustworthy,Trustworthy","html-keyboard-response","147","626118","0.0-18.0-3.16","","null","","<div class='pointsDiv'><table width=550px><tr><td>Current Point Total: 85</td><td style='text-align:right'>Round #: 17</td></tr></table></div><div class='trialDiv'><img src='trustrating_stim/white_mw084.bmp'><br><font class='baseline'><strong>Daniel</strong><p>Received: <strong>4</strong></font> &nbsp; &nbsp; &nbsp; &nbsp; &nbsp; &nbsp;<font class='negOutcome'>Shared back: <strong>0</strong></font><p><img src='img/responseButtonOffersNo0_wht.png' class='respPic'></p></font></div>","null","5","Daniel","trustrating_stim/white_mw084.bmp","Kept","0.2,0.6","9","0.2","85","17"
"","","","decision","testing","bdp_trlrn","Sun Dec 13 2020 15:09:22 GMT-0500 (Eastern Standard Time)","1081774","Untrustworthy,Trustworthy","html-keyboard-response","148","627774","0.0-18.0-1.17","","1654","","<div class='pointsDiv'><table width=550px><tr><td>Current Point Total: 90</td><td style='text-align:right'>Round #: 18</td></tr></table></div><div class='trialDiv'><img src='trustrating_stim/white_00785_941205_fb_edt.bmp'><br><font class='baseline'><strong>Chris</strong><p>Choose number of points to send.</font><p><img src='img/responseButtonOffersNo0L.png' class='respPic'></p></div>","1","5","Chris","trustrating_stim/white_00785_941205_fb_edt.bmp","Kept","0.4,0.8","10","0.4","90","18"
"","","","decisionFB","testing","bdp_trlrn","Sun Dec 13 2020 15:09:22 GMT-0500 (Eastern Standard Time)","1081774","Untrustworthy,Trustworthy","html-keyboard-response","149","628779","0.0-18.0-2.17","","null","","<div class='pointsDiv'><table width=550px><tr><td>Current Point Total: 89</td><td style='text-align:right'>Round #: 18</td></tr></table></div><div class='trialDiv'><img src='trustrating_stim/white_00785_941205_fb_edt.bmp'><br><font class='baseline'><strong>Chris</strong><p>Choose number of points to send.</font><p><img src='img/responseButtonOffersNo0L1.png' class='respPic'></p></div>","null","5","Chris","trustrating_stim/white_00785_941205_fb_edt.bmp","Kept","0.4,0.8","10","0.4","89","18"
"","","","feedback","testing","bdp_trlrn","Sun Dec 13 2020 15:09:22 GMT-0500 (Eastern Standard Time)","1081774","Untrustworthy,Trustworthy","html-keyboard-response","150","630783","0.0-18.0-3.17","","null","","<div class='pointsDiv'><table width=550px><tr><td>Current Point Total: 89</td><td style='text-align:right'>Round #: 18</td></tr></table></div><div class='trialDiv'><img src='trustrating_stim/white_00785_941205_fb_edt.bmp'><br><font class='baseline'><strong>Chris</strong><p>Received: <strong>4</strong></font> &nbsp; &nbsp; &nbsp; &nbsp; &nbsp; &nbsp;<font class='negOutcome'>Shared back: <strong>0</strong></font><p><img src='img/responseButtonOffersNo0_wht.png' class='respPic'></p></font></div>","null","5","Chris","trustrating_stim/white_00785_941205_fb_edt.bmp","Kept","0.4,0.8","10","0.4","89","18"
"","","","decision","testing","bdp_trlrn","Sun Dec 13 2020 15:09:22 GMT-0500 (Eastern Standard Time)","1081774","Untrustworthy,Trustworthy","html-keyboard-response","151","634993","0.0-18.0-1.18","","4209","","<div class='pointsDiv'><table width=550px><tr><td>Current Point Total: 94</td><td style='text-align:right'>Round #: 19</td></tr></table></div><div class='trialDiv'><img src='trustrating_stim/white_00761_941201_fb_edt.bmp'><br><font class='baseline'><strong>Tyler</strong><p>Choose number of points to send.</font><p><img src='img/responseButtonOffersNo0L.png' class='respPic'></p></div>","3","5","Tyler","trustrating_stim/white_00761_941201_fb_edt.bmp","Kept","0.6,0.2","8","0.6","94","19"
"","","","decisionFB","testing","bdp_trlrn","Sun Dec 13 2020 15:09:22 GMT-0500 (Eastern Standard Time)","1081774","Untrustworthy,Trustworthy","html-keyboard-response","152","635999","0.0-18.0-2.18","","null","","<div class='pointsDiv'><table width=550px><tr><td>Current Point Total: 91</td><td style='text-align:right'>Round #: 19</td></tr></table></div><div class='trialDiv'><img src='trustrating_stim/white_00761_941201_fb_edt.bmp'><br><font class='baseline'><strong>Tyler</strong><p>Choose number of points to send.</font><p><img src='img/responseButtonOffersNo0L3.png' class='respPic'></p></div>","null","5","Tyler","trustrating_stim/white_00761_941201_fb_edt.bmp","Kept","0.6,0.2","8","0.6","91","19"
"","","","feedback","testing","bdp_trlrn","Sun Dec 13 2020 15:09:22 GMT-0500 (Eastern Standard Time)","1081774","Untrustworthy,Trustworthy","html-keyboard-response","153","638003","0.0-18.0-3.18","","null","","<div class='pointsDiv'><table width=550px><tr><td>Current Point Total: 91</td><td style='text-align:right'>Round #: 19</td></tr></table></div><div class='trialDiv'><img src='trustrating_stim/white_00761_941201_fb_edt.bmp'><br><font class='baseline'><strong>Tyler</strong><p>Received: <strong>12</strong></font> &nbsp; &nbsp; &nbsp; &nbsp; &nbsp; &nbsp;<font class='negOutcome'>Shared back: <strong>0</strong></font><p><img src='img/responseButtonOffersNo0_wht.png' class='respPic'></p></font></div>","null","5","Tyler","trustrating_stim/white_00761_941201_fb_edt.bmp","Kept","0.6,0.2","8","0.6","91","19"
"","","","decision","testing","bdp_trlrn","Sun Dec 13 2020 15:09:22 GMT-0500 (Eastern Standard Time)","1081774","Untrustworthy,Trustworthy","html-keyboard-response","154","641131","0.0-18.0-1.19","","3127","","<div class='pointsDiv'><table width=550px><tr><td>Current Point Total: 96</td><td style='text-align:right'>Round #: 20</td></tr></table></div><div class='trialDiv'><img src='trustrating_stim/white_mw089.bmp'><br><font class='baseline'><strong>Nathan</strong><p>Choose number of points to send.</font><p><img src='img/responseButtonOffersNo0L.png' class='respPic'></p></div>","3","5","Nathan","trustrating_stim/white_mw089.bmp","Shared","0.8,0.4","15","0.8","96","20"
"","","","decisionFB","testing","bdp_trlrn","Sun Dec 13 2020 15:09:22 GMT-0500 (Eastern Standard Time)","1081774","Untrustworthy,Trustworthy","html-keyboard-response","155","642133","0.0-18.0-2.19","","null","","<div class='pointsDiv'><table width=550px><tr><td>Current Point Total: 93</td><td style='text-align:right'>Round #: 20</td></tr></table></div><div class='trialDiv'><img src='trustrating_stim/white_mw089.bmp'><br><font class='baseline'><strong>Nathan</strong><p>Choose number of points to send.</font><p><img src='img/responseButtonOffersNo0L3.png' class='respPic'></p></div>","null","5","Nathan","trustrating_stim/white_mw089.bmp","Shared","0.8,0.4","15","0.8","93","20"
"","","","feedback","testing","bdp_trlrn","Sun Dec 13 2020 15:09:22 GMT-0500 (Eastern Standard Time)","1081774","Untrustworthy,Trustworthy","html-keyboard-response","156","644140","0.0-18.0-3.19","","null","","<div class='pointsDiv'><table width=550px><tr><td>Current Point Total: 99</td><td style='text-align:right'>Round #: 20</td></tr></table></div><div class='trialDiv'><img src='trustrating_stim/white_mw089.bmp'><br><font class='baseline'><strong>Nathan</strong><p>Received: <strong>12</strong></font> &nbsp; &nbsp; &nbsp; &nbsp; &nbsp; &nbsp;<font class='posOutcome'>Shared back: <strong>6</strong></font><p><img src='img/responseButtonOffersNo0_wht.png' class='respPic'></p></font></div>","null","5","Nathan","trustrating_stim/white_mw089.bmp","Shared","0.8,0.4","15","0.8","99","20"
"","","","decision","testing","bdp_trlrn","Sun Dec 13 2020 15:09:22 GMT-0500 (Eastern Standard Time)","1081774","Untrustworthy,Trustworthy","html-keyboard-response","157","647912","0.0-18.0-1.20","","3772","","<div class='pointsDiv'><table width=550px><tr><td>Current Point Total: 104</td><td style='text-align:right'>Round #: 21</td></tr></table></div><div class='trialDiv'><img src='trustrating_stim/white_00761_941201_fb_edt.bmp'><br><font class='baseline'><strong>Tyler</strong><p>Choose number of points to send.</font><p><img src='img/responseButtonOffersNo0L.png' class='respPic'></p></div>","2","6","Tyler","trustrating_stim/white_00761_941201_fb_edt.bmp","Kept","0.6,0.2","8","0.6","104","21"
"","","","decisionFB","testing","bdp_trlrn","Sun Dec 13 2020 15:09:22 GMT-0500 (Eastern Standard Time)","1081774","Untrustworthy,Trustworthy","html-keyboard-response","158","648917","0.0-18.0-2.20","","null","","<div class='pointsDiv'><table width=550px><tr><td>Current Point Total: 102</td><td style='text-align:right'>Round #: 21</td></tr></table></div><div class='trialDiv'><img src='trustrating_stim/white_00761_941201_fb_edt.bmp'><br><font class='baseline'><strong>Tyler</strong><p>Choose number of points to send.</font><p><img src='img/responseButtonOffersNo0L2.png' class='respPic'></p></div>","null","6","Tyler","trustrating_stim/white_00761_941201_fb_edt.bmp","Kept","0.6,0.2","8","0.6","102","21"
"","","","feedback","testing","bdp_trlrn","Sun Dec 13 2020 15:09:22 GMT-0500 (Eastern Standard Time)","1081774","Untrustworthy,Trustworthy","html-keyboard-response","159","650920","0.0-18.0-3.20","","null","","<div class='pointsDiv'><table width=550px><tr><td>Current Point Total: 102</td><td style='text-align:right'>Round #: 21</td></tr></table></div><div class='trialDiv'><img src='trustrating_stim/white_00761_941201_fb_edt.bmp'><br><font class='baseline'><strong>Tyler</strong><p>Received: <strong>8</strong></font> &nbsp; &nbsp; &nbsp; &nbsp; &nbsp; &nbsp;<font class='negOutcome'>Shared back: <strong>0</strong></font><p><img src='img/responseButtonOffersNo0_wht.png' class='respPic'></p></font></div>","null","6","Tyler","trustrating_stim/white_00761_941201_fb_edt.bmp","Kept","0.6,0.2","8","0.6","102","21"
"","","","decision","testing","bdp_trlrn","Sun Dec 13 2020 15:09:22 GMT-0500 (Eastern Standard Time)","1081774","Untrustworthy,Trustworthy","html-keyboard-response","160","655642","0.0-18.0-1.21","","4721","","<div class='pointsDiv'><table width=550px><tr><td>Current Point Total: 107</td><td style='text-align:right'>Round #: 22</td></tr></table></div><div class='trialDiv'><img src='trustrating_stim/white_mw084.bmp'><br><font class='baseline'><strong>Daniel</strong><p>Choose number of points to send.</font><p><img src='img/responseButtonOffersNo0L.png' class='respPic'></p></div>","1","6","Daniel","trustrating_stim/white_mw084.bmp","Kept","0.2,0.6","9","0.2","107","22"
"","","","decisionFB","testing","bdp_trlrn","Sun Dec 13 2020 15:09:22 GMT-0500 (Eastern Standard Time)","1081774","Untrustworthy,Trustworthy","html-keyboard-response","161","656644","0.0-18.0-2.21","","null","","<div class='pointsDiv'><table width=550px><tr><td>Current Point Total: 106</td><td style='text-align:right'>Round #: 22</td></tr></table></div><div class='trialDiv'><img src='trustrating_stim/white_mw084.bmp'><br><font class='baseline'><strong>Daniel</strong><p>Choose number of points to send.</font><p><img src='img/responseButtonOffersNo0L1.png' class='respPic'></p></div>","null","6","Daniel","trustrating_stim/white_mw084.bmp","Kept","0.2,0.6","9","0.2","106","22"
"","","","feedback","testing","bdp_trlrn","Sun Dec 13 2020 15:09:22 GMT-0500 (Eastern Standard Time)","1081774","Untrustworthy,Trustworthy","html-keyboard-response","162","658648","0.0-18.0-3.21","","null","","<div class='pointsDiv'><table width=550px><tr><td>Current Point Total: 106</td><td style='text-align:right'>Round #: 22</td></tr></table></div><div class='trialDiv'><img src='trustrating_stim/white_mw084.bmp'><br><font class='baseline'><strong>Daniel</strong><p>Received: <strong>4</strong></font> &nbsp; &nbsp; &nbsp; &nbsp; &nbsp; &nbsp;<font class='negOutcome'>Shared back: <strong>0</strong></font><p><img src='img/responseButtonOffersNo0_wht.png' class='respPic'></p></font></div>","null","6","Daniel","trustrating_stim/white_mw084.bmp","Kept","0.2,0.6","9","0.2","106","22"
"","","","decision","testing","bdp_trlrn","Sun Dec 13 2020 15:09:22 GMT-0500 (Eastern Standard Time)","1081774","Untrustworthy,Trustworthy","html-keyboard-response","163","660179","0.0-18.0-1.22","","1529","","<div class='pointsDiv'><table width=550px><tr><td>Current Point Total: 111</td><td style='text-align:right'>Round #: 23</td></tr></table></div><div class='trialDiv'><img src='trustrating_stim/white_mw089.bmp'><br><font class='baseline'><strong>Nathan</strong><p>Choose number of points to send.</font><p><img src='img/responseButtonOffersNo0L.png' class='respPic'></p></div>","3","6","Nathan","trustrating_stim/white_mw089.bmp","Kept","0.8,0.4","15","0.8","111","23"
"","","","decisionFB","testing","bdp_trlrn","Sun Dec 13 2020 15:09:22 GMT-0500 (Eastern Standard Time)","1081774","Untrustworthy,Trustworthy","html-keyboard-response","164","661182","0.0-18.0-2.22","","null","","<div class='pointsDiv'><table width=550px><tr><td>Current Point Total: 108</td><td style='text-align:right'>Round #: 23</td></tr></table></div><div class='trialDiv'><img src='trustrating_stim/white_mw089.bmp'><br><font class='baseline'><strong>Nathan</strong><p>Choose number of points to send.</font><p><img src='img/responseButtonOffersNo0L3.png' class='respPic'></p></div>","null","6","Nathan","trustrating_stim/white_mw089.bmp","Kept","0.8,0.4","15","0.8","108","23"
"","","","feedback","testing","bdp_trlrn","Sun Dec 13 2020 15:09:22 GMT-0500 (Eastern Standard Time)","1081774","Untrustworthy,Trustworthy","html-keyboard-response","165","663188","0.0-18.0-3.22","","null","","<div class='pointsDiv'><table width=550px><tr><td>Current Point Total: 108</td><td style='text-align:right'>Round #: 23</td></tr></table></div><div class='trialDiv'><img src='trustrating_stim/white_mw089.bmp'><br><font class='baseline'><strong>Nathan</strong><p>Received: <strong>12</strong></font> &nbsp; &nbsp; &nbsp; &nbsp; &nbsp; &nbsp;<font class='negOutcome'>Shared back: <strong>0</strong></font><p><img src='img/responseButtonOffersNo0_wht.png' class='respPic'></p></font></div>","null","6","Nathan","trustrating_stim/white_mw089.bmp","Kept","0.8,0.4","15","0.8","108","23"
"","","","decision","testing","bdp_trlrn","Sun Dec 13 2020 15:09:22 GMT-0500 (Eastern Standard Time)","1081774","Untrustworthy,Trustworthy","html-keyboard-response","166","664580","0.0-18.0-1.23","","1391","","<div class='pointsDiv'><table width=550px><tr><td>Current Point Total: 113</td><td style='text-align:right'>Round #: 24</td></tr></table></div><div class='trialDiv'><img src='trustrating_stim/white_00785_941205_fb_edt.bmp'><br><font class='baseline'><strong>Chris</strong><p>Choose number of points to send.</font><p><img src='img/responseButtonOffersNo0L.png' class='respPic'></p></div>","1","6","Chris","trustrating_stim/white_00785_941205_fb_edt.bmp","Kept","0.4,0.8","10","0.4","113","24"
"","","","decisionFB","testing","bdp_trlrn","Sun Dec 13 2020 15:09:22 GMT-0500 (Eastern Standard Time)","1081774","Untrustworthy,Trustworthy","html-keyboard-response","167","665583","0.0-18.0-2.23","","null","","<div class='pointsDiv'><table width=550px><tr><td>Current Point Total: 112</td><td style='text-align:right'>Round #: 24</td></tr></table></div><div class='trialDiv'><img src='trustrating_stim/white_00785_941205_fb_edt.bmp'><br><font class='baseline'><strong>Chris</strong><p>Choose number of points to send.</font><p><img src='img/responseButtonOffersNo0L1.png' class='respPic'></p></div>","null","6","Chris","trustrating_stim/white_00785_941205_fb_edt.bmp","Kept","0.4,0.8","10","0.4","112","24"
"","","","feedback","testing","bdp_trlrn","Sun Dec 13 2020 15:09:22 GMT-0500 (Eastern Standard Time)","1081774","Untrustworthy,Trustworthy","html-keyboard-response","168","667586","0.0-18.0-3.23","","null","","<div class='pointsDiv'><table width=550px><tr><td>Current Point Total: 112</td><td style='text-align:right'>Round #: 24</td></tr></table></div><div class='trialDiv'><img src='trustrating_stim/white_00785_941205_fb_edt.bmp'><br><font class='baseline'><strong>Chris</strong><p>Received: <strong>4</strong></font> &nbsp; &nbsp; &nbsp; &nbsp; &nbsp; &nbsp;<font class='negOutcome'>Shared back: <strong>0</strong></font><p><img src='img/responseButtonOffersNo0_wht.png' class='respPic'></p></font></div>","null","6","Chris","trustrating_stim/white_00785_941205_fb_edt.bmp","Kept","0.4,0.8","10","0.4","112","24"
"","","","decision","testing","bdp_trlrn","Sun Dec 13 2020 15:09:22 GMT-0500 (Eastern Standard Time)","1081774","Untrustworthy,Trustworthy","html-keyboard-response","169","670242","0.0-18.0-1.24","","2655","","<div class='pointsDiv'><table width=550px><tr><td>Current Point Total: 117</td><td style='text-align:right'>Round #: 25</td></tr></table></div><div class='trialDiv'><img src='trustrating_stim/white_mw089.bmp'><br><font class='baseline'><strong>Nathan</strong><p>Choose number of points to send.</font><p><img src='img/responseButtonOffersNo0L.png' class='respPic'></p></div>","3","7","Nathan","trustrating_stim/white_mw089.bmp","Kept","0.8,0.4","15","0.8","117","25"
"","","","decisionFB","testing","bdp_trlrn","Sun Dec 13 2020 15:09:22 GMT-0500 (Eastern Standard Time)","1081774","Untrustworthy,Trustworthy","html-keyboard-response","170","671247","0.0-18.0-2.24","","null","","<div class='pointsDiv'><table width=550px><tr><td>Current Point Total: 114</td><td style='text-align:right'>Round #: 25</td></tr></table></div><div class='trialDiv'><img src='trustrating_stim/white_mw089.bmp'><br><font class='baseline'><strong>Nathan</strong><p>Choose number of points to send.</font><p><img src='img/responseButtonOffersNo0L3.png' class='respPic'></p></div>","null","7","Nathan","trustrating_stim/white_mw089.bmp","Kept","0.8,0.4","15","0.8","114","25"
"","","","feedback","testing","bdp_trlrn","Sun Dec 13 2020 15:09:22 GMT-0500 (Eastern Standard Time)","1081774","Untrustworthy,Trustworthy","html-keyboard-response","171","673251","0.0-18.0-3.24","","null","","<div class='pointsDiv'><table width=550px><tr><td>Current Point Total: 114</td><td style='text-align:right'>Round #: 25</td></tr></table></div><div class='trialDiv'><img src='trustrating_stim/white_mw089.bmp'><br><font class='baseline'><strong>Nathan</strong><p>Received: <strong>12</strong></font> &nbsp; &nbsp; &nbsp; &nbsp; &nbsp; &nbsp;<font class='negOutcome'>Shared back: <strong>0</strong></font><p><img src='img/responseButtonOffersNo0_wht.png' class='respPic'></p></font></div>","null","7","Nathan","trustrating_stim/white_mw089.bmp","Kept","0.8,0.4","15","0.8","114","25"
"","","","decision","testing","bdp_trlrn","Sun Dec 13 2020 15:09:22 GMT-0500 (Eastern Standard Time)","1081774","Untrustworthy,Trustworthy","html-keyboard-response","172","674294","0.0-18.0-1.25","","1043","","<div class='pointsDiv'><table width=550px><tr><td>Current Point Total: 119</td><td style='text-align:right'>Round #: 26</td></tr></table></div><div class='trialDiv'><img src='trustrating_stim/white_00785_941205_fb_edt.bmp'><br><font class='baseline'><strong>Chris</strong><p>Choose number of points to send.</font><p><img src='img/responseButtonOffersNo0L.png' class='respPic'></p></div>","1","7","Chris","trustrating_stim/white_00785_941205_fb_edt.bmp","Shared","0.4,0.8","10","0.4","119","26"
"","","","decisionFB","testing","bdp_trlrn","Sun Dec 13 2020 15:09:22 GMT-0500 (Eastern Standard Time)","1081774","Untrustworthy,Trustworthy","html-keyboard-response","173","675297","0.0-18.0-2.25","","null","","<div class='pointsDiv'><table width=550px><tr><td>Current Point Total: 118</td><td style='text-align:right'>Round #: 26</td></tr></table></div><div class='trialDiv'><img src='trustrating_stim/white_00785_941205_fb_edt.bmp'><br><font class='baseline'><strong>Chris</strong><p>Choose number of points to send.</font><p><img src='img/responseButtonOffersNo0L1.png' class='respPic'></p></div>","null","7","Chris","trustrating_stim/white_00785_941205_fb_edt.bmp","Shared","0.4,0.8","10","0.4","118","26"
"","","","feedback","testing","bdp_trlrn","Sun Dec 13 2020 15:09:22 GMT-0500 (Eastern Standard Time)","1081774","Untrustworthy,Trustworthy","html-keyboard-response","174","677298","0.0-18.0-3.25","","null","","<div class='pointsDiv'><table width=550px><tr><td>Current Point Total: 120</td><td style='text-align:right'>Round #: 26</td></tr></table></div><div class='trialDiv'><img src='trustrating_stim/white_00785_941205_fb_edt.bmp'><br><font class='baseline'><strong>Chris</strong><p>Received: <strong>4</strong></font> &nbsp; &nbsp; &nbsp; &nbsp; &nbsp; &nbsp;<font class='posOutcome'>Shared back: <strong>2</strong></font><p><img src='img/responseButtonOffersNo0_wht.png' class='respPic'></p></font></div>","null","7","Chris","trustrating_stim/white_00785_941205_fb_edt.bmp","Shared","0.4,0.8","10","0.4","120","26"
"","","","decision","testing","bdp_trlrn","Sun Dec 13 2020 15:09:22 GMT-0500 (Eastern Standard Time)","1081774","Untrustworthy,Trustworthy","html-keyboard-response","175","679965","0.0-18.0-1.26","","2665","","<div class='pointsDiv'><table width=550px><tr><td>Current Point Total: 125</td><td style='text-align:right'>Round #: 27</td></tr></table></div><div class='trialDiv'><img src='trustrating_stim/white_00761_941201_fb_edt.bmp'><br><font class='baseline'><strong>Tyler</strong><p>Choose number of points to send.</font><p><img src='img/responseButtonOffersNo0L.png' class='respPic'></p></div>","2","7","Tyler","trustrating_stim/white_00761_941201_fb_edt.bmp","Shared","0.6,0.2","8","0.6","125","27"
"","","","decisionFB","testing","bdp_trlrn","Sun Dec 13 2020 15:09:22 GMT-0500 (Eastern Standard Time)","1081774","Untrustworthy,Trustworthy","html-keyboard-response","176","680966","0.0-18.0-2.26","","null","","<div class='pointsDiv'><table width=550px><tr><td>Current Point Total: 123</td><td style='text-align:right'>Round #: 27</td></tr></table></div><div class='trialDiv'><img src='trustrating_stim/white_00761_941201_fb_edt.bmp'><br><font class='baseline'><strong>Tyler</strong><p>Choose number of points to send.</font><p><img src='img/responseButtonOffersNo0L2.png' class='respPic'></p></div>","null","7","Tyler","trustrating_stim/white_00761_941201_fb_edt.bmp","Shared","0.6,0.2","8","0.6","123","27"
"","","","feedback","testing","bdp_trlrn","Sun Dec 13 2020 15:09:22 GMT-0500 (Eastern Standard Time)","1081774","Untrustworthy,Trustworthy","html-keyboard-response","177","682973","0.0-18.0-3.26","","null","","<div class='pointsDiv'><table width=550px><tr><td>Current Point Total: 127</td><td style='text-align:right'>Round #: 27</td></tr></table></div><div class='trialDiv'><img src='trustrating_stim/white_00761_941201_fb_edt.bmp'><br><font class='baseline'><strong>Tyler</strong><p>Received: <strong>8</strong></font> &nbsp; &nbsp; &nbsp; &nbsp; &nbsp; &nbsp;<font class='posOutcome'>Shared back: <strong>4</strong></font><p><img src='img/responseButtonOffersNo0_wht.png' class='respPic'></p></font></div>","null","7","Tyler","trustrating_stim/white_00761_941201_fb_edt.bmp","Shared","0.6,0.2","8","0.6","127","27"
"","","","decision","testing","bdp_trlrn","Sun Dec 13 2020 15:09:22 GMT-0500 (Eastern Standard Time)","1081774","Untrustworthy,Trustworthy","html-keyboard-response","178","684444","0.0-18.0-1.27","","1470","","<div class='pointsDiv'><table width=550px><tr><td>Current Point Total: 132</td><td style='text-align:right'>Round #: 28</td></tr></table></div><div class='trialDiv'><img src='trustrating_stim/white_mw084.bmp'><br><font class='baseline'><strong>Daniel</strong><p>Choose number of points to send.</font><p><img src='img/responseButtonOffersNo0L.png' class='respPic'></p></div>","1","7","Daniel","trustrating_stim/white_mw084.bmp","Shared","0.2,0.6","9","0.2","132","28"
"","","","decisionFB","testing","bdp_trlrn","Sun Dec 13 2020 15:09:22 GMT-0500 (Eastern Standard Time)","1081774","Untrustworthy,Trustworthy","html-keyboard-response","179","685448","0.0-18.0-2.27","","null","","<div class='pointsDiv'><table width=550px><tr><td>Current Point Total: 131</td><td style='text-align:right'>Round #: 28</td></tr></table></div><div class='trialDiv'><img src='trustrating_stim/white_mw084.bmp'><br><font class='baseline'><strong>Daniel</strong><p>Choose number of points to send.</font><p><img src='img/responseButtonOffersNo0L1.png' class='respPic'></p></div>","null","7","Daniel","trustrating_stim/white_mw084.bmp","Shared","0.2,0.6","9","0.2","131","28"
"","","","feedback","testing","bdp_trlrn","Sun Dec 13 2020 15:09:22 GMT-0500 (Eastern Standard Time)","1081774","Untrustworthy,Trustworthy","html-keyboard-response","180","687455","0.0-18.0-3.27","","null","","<div class='pointsDiv'><table width=550px><tr><td>Current Point Total: 133</td><td style='text-align:right'>Round #: 28</td></tr></table></div><div class='trialDiv'><img src='trustrating_stim/white_mw084.bmp'><br><font class='baseline'><strong>Daniel</strong><p>Received: <strong>4</strong></font> &nbsp; &nbsp; &nbsp; &nbsp; &nbsp; &nbsp;<font class='posOutcome'>Shared back: <strong>2</strong></font><p><img src='img/responseButtonOffersNo0_wht.png' class='respPic'></p></font></div>","null","7","Daniel","trustrating_stim/white_mw084.bmp","Shared","0.2,0.6","9","0.2","133","28"
"","","","decision","testing","bdp_trlrn","Sun Dec 13 2020 15:09:22 GMT-0500 (Eastern Standard Time)","1081774","Untrustworthy,Trustworthy","html-keyboard-response","181","701068","0.0-18.0-1.28","","13612","","<div class='pointsDiv'><table width=550px><tr><td>Current Point Total: 138</td><td style='text-align:right'>Round #: 29</td></tr></table></div><div class='trialDiv'><img src='trustrating_stim/white_00785_941205_fb_edt.bmp'><br><font class='baseline'><strong>Chris</strong><p>Choose number of points to send.</font><p><img src='img/responseButtonOffersNo0L.png' class='respPic'></p></div>","2","8","Chris","trustrating_stim/white_00785_941205_fb_edt.bmp","Kept","0.4,0.8","10","0.4","138","29"
"","","","decisionFB","testing","bdp_trlrn","Sun Dec 13 2020 15:09:22 GMT-0500 (Eastern Standard Time)","1081774","Untrustworthy,Trustworthy","html-keyboard-response","182","702071","0.0-18.0-2.28","","null","","<div class='pointsDiv'><table width=550px><tr><td>Current Point Total: 136</td><td style='text-align:right'>Round #: 29</td></tr></table></div><div class='trialDiv'><img src='trustrating_stim/white_00785_941205_fb_edt.bmp'><br><font class='baseline'><strong>Chris</strong><p>Choose number of points to send.</font><p><img src='img/responseButtonOffersNo0L2.png' class='respPic'></p></div>","null","8","Chris","trustrating_stim/white_00785_941205_fb_edt.bmp","Kept","0.4,0.8","10","0.4","136","29"
"","","","feedback","testing","bdp_trlrn","Sun Dec 13 2020 15:09:22 GMT-0500 (Eastern Standard Time)","1081774","Untrustworthy,Trustworthy","html-keyboard-response","183","704078","0.0-18.0-3.28","","null","","<div class='pointsDiv'><table width=550px><tr><td>Current Point Total: 136</td><td style='text-align:right'>Round #: 29</td></tr></table></div><div class='trialDiv'><img src='trustrating_stim/white_00785_941205_fb_edt.bmp'><br><font class='baseline'><strong>Chris</strong><p>Received: <strong>8</strong></font> &nbsp; &nbsp; &nbsp; &nbsp; &nbsp; &nbsp;<font class='negOutcome'>Shared back: <strong>0</strong></font><p><img src='img/responseButtonOffersNo0_wht.png' class='respPic'></p></font></div>","null","8","Chris","trustrating_stim/white_00785_941205_fb_edt.bmp","Kept","0.4,0.8","10","0.4","136","29"
"","","","decision","testing","bdp_trlrn","Sun Dec 13 2020 15:09:22 GMT-0500 (Eastern Standard Time)","1081774","Untrustworthy,Trustworthy","html-keyboard-response","184","709314","0.0-18.0-1.29","","5235","","<div class='pointsDiv'><table width=550px><tr><td>Current Point Total: 141</td><td style='text-align:right'>Round #: 30</td></tr></table></div><div class='trialDiv'><img src='trustrating_stim/white_mw089.bmp'><br><font class='baseline'><strong>Nathan</strong><p>Choose number of points to send.</font><p><img src='img/responseButtonOffersNo0L.png' class='respPic'></p></div>","2","8","Nathan","trustrating_stim/white_mw089.bmp","Kept","0.8,0.4","15","0.8","141","30"
"","","","decisionFB","testing","bdp_trlrn","Sun Dec 13 2020 15:09:22 GMT-0500 (Eastern Standard Time)","1081774","Untrustworthy,Trustworthy","html-keyboard-response","185","710317","0.0-18.0-2.29","","null","","<div class='pointsDiv'><table width=550px><tr><td>Current Point Total: 139</td><td style='text-align:right'>Round #: 30</td></tr></table></div><div class='trialDiv'><img src='trustrating_stim/white_mw089.bmp'><br><font class='baseline'><strong>Nathan</strong><p>Choose number of points to send.</font><p><img src='img/responseButtonOffersNo0L2.png' class='respPic'></p></div>","null","8","Nathan","trustrating_stim/white_mw089.bmp","Kept","0.8,0.4","15","0.8","139","30"
"","","","feedback","testing","bdp_trlrn","Sun Dec 13 2020 15:09:22 GMT-0500 (Eastern Standard Time)","1081774","Untrustworthy,Trustworthy","html-keyboard-response","186","712319","0.0-18.0-3.29","","null","","<div class='pointsDiv'><table width=550px><tr><td>Current Point Total: 139</td><td style='text-align:right'>Round #: 30</td></tr></table></div><div class='trialDiv'><img src='trustrating_stim/white_mw089.bmp'><br><font class='baseline'><strong>Nathan</strong><p>Received: <strong>8</strong></font> &nbsp; &nbsp; &nbsp; &nbsp; &nbsp; &nbsp;<font class='negOutcome'>Shared back: <strong>0</strong></font><p><img src='img/responseButtonOffersNo0_wht.png' class='respPic'></p></font></div>","null","8","Nathan","trustrating_stim/white_mw089.bmp","Kept","0.8,0.4","15","0.8","139","30"
"","","","decision","testing","bdp_trlrn","Sun Dec 13 2020 15:09:22 GMT-0500 (Eastern Standard Time)","1081774","Untrustworthy,Trustworthy","html-keyboard-response","187","714110","0.0-18.0-1.30","","1789","","<div class='pointsDiv'><table width=550px><tr><td>Current Point Total: 144</td><td style='text-align:right'>Round #: 31</td></tr></table></div><div class='trialDiv'><img src='trustrating_stim/white_00761_941201_fb_edt.bmp'><br><font class='baseline'><strong>Tyler</strong><p>Choose number of points to send.</font><p><img src='img/responseButtonOffersNo0L.png' class='respPic'></p></div>","2","8","Tyler","trustrating_stim/white_00761_941201_fb_edt.bmp","Shared","0.6,0.2","8","0.6","144","31"
"","","","decisionFB","testing","bdp_trlrn","Sun Dec 13 2020 15:09:22 GMT-0500 (Eastern Standard Time)","1081774","Untrustworthy,Trustworthy","html-keyboard-response","188","715112","0.0-18.0-2.30","","null","","<div class='pointsDiv'><table width=550px><tr><td>Current Point Total: 142</td><td style='text-align:right'>Round #: 31</td></tr></table></div><div class='trialDiv'><img src='trustrating_stim/white_00761_941201_fb_edt.bmp'><br><font class='baseline'><strong>Tyler</strong><p>Choose number of points to send.</font><p><img src='img/responseButtonOffersNo0L2.png' class='respPic'></p></div>","null","8","Tyler","trustrating_stim/white_00761_941201_fb_edt.bmp","Shared","0.6,0.2","8","0.6","142","31"
"","","","feedback","testing","bdp_trlrn","Sun Dec 13 2020 15:09:22 GMT-0500 (Eastern Standard Time)","1081774","Untrustworthy,Trustworthy","html-keyboard-response","189","717118","0.0-18.0-3.30","","null","","<div class='pointsDiv'><table width=550px><tr><td>Current Point Total: 146</td><td style='text-align:right'>Round #: 31</td></tr></table></div><div class='trialDiv'><img src='trustrating_stim/white_00761_941201_fb_edt.bmp'><br><font class='baseline'><strong>Tyler</strong><p>Received: <strong>8</strong></font> &nbsp; &nbsp; &nbsp; &nbsp; &nbsp; &nbsp;<font class='posOutcome'>Shared back: <strong>4</strong></font><p><img src='img/responseButtonOffersNo0_wht.png' class='respPic'></p></font></div>","null","8","Tyler","trustrating_stim/white_00761_941201_fb_edt.bmp","Shared","0.6,0.2","8","0.6","146","31"
"","","","decision","testing","bdp_trlrn","Sun Dec 13 2020 15:09:22 GMT-0500 (Eastern Standard Time)","1081774","Untrustworthy,Trustworthy","html-keyboard-response","190","718076","0.0-18.0-1.31","","957","","<div class='pointsDiv'><table width=550px><tr><td>Current Point Total: 151</td><td style='text-align:right'>Round #: 32</td></tr></table></div><div class='trialDiv'><img src='trustrating_stim/white_mw084.bmp'><br><font class='baseline'><strong>Daniel</strong><p>Choose number of points to send.</font><p><img src='img/responseButtonOffersNo0L.png' class='respPic'></p></div>","1","8","Daniel","trustrating_stim/white_mw084.bmp","Kept","0.2,0.6","9","0.2","151","32"
