"trial_type","trial_index","time_elapsed","internal_node_id","subject_id","task","startTime","totalTime","labels","view_history","rt","event","trial","time","trialtype","success","stimulus","key_press","aground","name","face","outcome","agenttype","agentswpt","agentcurrpshare","point_total","round"
"pavlovia","0","8","0.0-0.0","testing","bdp_trlrn","Wed Dec 09 2020 22:06:48 GMT-0500 (Eastern Standard Time)","792853","Untrustworthy,Trustworthy","","","","","","","","","","","","","","","","","",""
"instructions","1","2822","0.0-1.0","testing","bdp_trlrn","Wed Dec 09 2020 22:06:48 GMT-0500 (Eastern Standard Time)","792853","Untrustworthy,Trustworthy","[{""page_index"":0,""viewing_time"":2813}]","2813","","","","","","","","","","","","","","","",""
"","","","","testing","bdp_trlrn","Wed Dec 09 2020 22:06:48 GMT-0500 (Eastern Standard Time)","792853","Untrustworthy,Trustworthy","","","fullscreenenter","2","7871","fullscreenenter","","","","","","","","","","","",""
"fullscreen","2","8843","0.0-2.0","testing","bdp_trlrn","Wed Dec 09 2020 22:06:48 GMT-0500 (Eastern Standard Time)","792853","Untrustworthy,Trustworthy","","","","","","","true","","","","","","","","","","",""
"instructions","3","34641","0.0-4.0","testing","bdp_trlrn","Wed Dec 09 2020 22:06:48 GMT-0500 (Eastern Standard Time)","792853","Untrustworthy,Trustworthy","[{""page_index"":0,""viewing_time"":17998},{""page_index"":1,""viewing_time"":7798}]","25796","","","","","","","","","","","","","","","",""
"instructions","4","37080","0.0-5.0","testing","bdp_trlrn","Wed Dec 09 2020 22:06:48 GMT-0500 (Eastern Standard Time)","792853","Untrustworthy,Trustworthy","[{""page_index"":0,""viewing_time"":2438}]","2438","","","","","","","","","","","","","","","",""
"image-keyboard-response","5","41564","0.0-6.0-1.0","testing","bdp_trlrn","Wed Dec 09 2020 22:06:48 GMT-0500 (Eastern Standard Time)","792853","Untrustworthy,Trustworthy","","4375","","","","rating","","trustrating_stim/white_mw022.bmp","5","","","","","","","","",""
"image-keyboard-response","6","41767","0.0-6.0-2.0","testing","bdp_trlrn","Wed Dec 09 2020 22:06:48 GMT-0500 (Eastern Standard Time)","792853","Untrustworthy,Trustworthy","","null","","","","ratingFB","","trustrating_stim/white_mw022.bmp","null","","","","","","","","",""
"image-keyboard-response","7","43847","0.0-6.0-1.1","testing","bdp_trlrn","Wed Dec 09 2020 22:06:48 GMT-0500 (Eastern Standard Time)","792853","Untrustworthy,Trustworthy","","1977","","","","rating","","trustrating_stim/white_mw099.bmp","4","","","","","","","","",""
"image-keyboard-response","8","44053","0.0-6.0-2.1","testing","bdp_trlrn","Wed Dec 09 2020 22:06:48 GMT-0500 (Eastern Standard Time)","792853","Untrustworthy,Trustworthy","","null","","","","ratingFB","","trustrating_stim/white_mw099.bmp","null","","","","","","","","",""
"image-keyboard-response","9","45687","0.0-6.0-1.2","testing","bdp_trlrn","Wed Dec 09 2020 22:06:48 GMT-0500 (Eastern Standard Time)","792853","Untrustworthy,Trustworthy","","1527","","","","rating","","trustrating_stim/white_mw043.bmp","4","","","","","","","","",""
"image-keyboard-response","10","45890","0.0-6.0-2.2","testing","bdp_trlrn","Wed Dec 09 2020 22:06:48 GMT-0500 (Eastern Standard Time)","792853","Untrustworthy,Trustworthy","","null","","","","ratingFB","","trustrating_stim/white_mw043.bmp","null","","","","","","","","",""
"image-keyboard-response","11","47672","0.0-6.0-1.3","testing","bdp_trlrn","Wed Dec 09 2020 22:06:48 GMT-0500 (Eastern Standard Time)","792853","Untrustworthy,Trustworthy","","1678","","","","rating","","trustrating_stim/white_00761_941201_fb_edt.bmp","4","","","","","","","","",""
"image-keyboard-response","12","47873","0.0-6.0-2.3","testing","bdp_trlrn","Wed Dec 09 2020 22:06:48 GMT-0500 (Eastern Standard Time)","792853","Untrustworthy,Trustworthy","","null","","","","ratingFB","","trustrating_stim/white_00761_941201_fb_edt.bmp","null","","","","","","","","",""
"image-keyboard-response","13","49336","0.0-6.0-1.4","testing","bdp_trlrn","Wed Dec 09 2020 22:06:48 GMT-0500 (Eastern Standard Time)","792853","Untrustworthy,Trustworthy","","1359","","","","rating","","trustrating_stim/white_mw080.bmp","4","","","","","","","","",""
"image-keyboard-response","14","49541","0.0-6.0-2.4","testing","bdp_trlrn","Wed Dec 09 2020 22:06:48 GMT-0500 (Eastern Standard Time)","792853","Untrustworthy,Trustworthy","","null","","","","ratingFB","","trustrating_stim/white_mw080.bmp","null","","","","","","","","",""
"image-keyboard-response","15","51868","0.0-6.0-1.5","testing","bdp_trlrn","Wed Dec 09 2020 22:06:48 GMT-0500 (Eastern Standard Time)","792853","Untrustworthy,Trustworthy","","2222","","","","rating","","trustrating_stim/white_mw066.bmp","6","","","","","","","","",""
"image-keyboard-response","16","52069","0.0-6.0-2.5","testing","bdp_trlrn","Wed Dec 09 2020 22:06:48 GMT-0500 (Eastern Standard Time)","792853","Untrustworthy,Trustworthy","","null","","","","ratingFB","","trustrating_stim/white_mw066.bmp","null","","","","","","","","",""
"image-keyboard-response","17","54752","0.0-6.0-1.6","testing","bdp_trlrn","Wed Dec 09 2020 22:06:48 GMT-0500 (Eastern Standard Time)","792853","Untrustworthy,Trustworthy","","2582","","","","rating","","trustrating_stim/white_00658_941121_fb_edt.bmp","4","","","","","","","","",""
"image-keyboard-response","18","54956","0.0-6.0-2.6","testing","bdp_trlrn","Wed Dec 09 2020 22:06:48 GMT-0500 (Eastern Standard Time)","792853","Untrustworthy,Trustworthy","","null","","","","ratingFB","","trustrating_stim/white_00658_941121_fb_edt.bmp","null","","","","","","","","",""
"image-keyboard-response","19","60895","0.0-6.0-1.7","testing","bdp_trlrn","Wed Dec 09 2020 22:06:48 GMT-0500 (Eastern Standard Time)","792853","Untrustworthy,Trustworthy","","5837","","","","rating","","trustrating_stim/white_00807_941205_fb_edt.bmp","6","","","","","","","","",""
"image-keyboard-response","20","61098","0.0-6.0-2.7","testing","bdp_trlrn","Wed Dec 09 2020 22:06:48 GMT-0500 (Eastern Standard Time)","792853","Untrustworthy,Trustworthy","","null","","","","ratingFB","","trustrating_stim/white_00807_941205_fb_edt.bmp","null","","","","","","","","",""
"image-keyboard-response","21","63611","0.0-6.0-1.8","testing","bdp_trlrn","Wed Dec 09 2020 22:06:48 GMT-0500 (Eastern Standard Time)","792853","Untrustworthy,Trustworthy","","2408","","","","rating","","trustrating_stim/white_00657_941121_fa_edt.bmp","4","","","","","","","","",""
"image-keyboard-response","22","63817","0.0-6.0-2.8","testing","bdp_trlrn","Wed Dec 09 2020 22:06:48 GMT-0500 (Eastern Standard Time)","792853","Untrustworthy,Trustworthy","","null","","","","ratingFB","","trustrating_stim/white_00657_941121_fa_edt.bmp","null","","","","","","","","",""
"image-keyboard-response","23","65678","0.0-6.0-1.9","testing","bdp_trlrn","Wed Dec 09 2020 22:06:48 GMT-0500 (Eastern Standard Time)","792853","Untrustworthy,Trustworthy","","1759","","","","rating","","trustrating_stim/white_00253_940128_fa_edt.bmp","4","","","","","","","","",""
"image-keyboard-response","24","65881","0.0-6.0-2.9","testing","bdp_trlrn","Wed Dec 09 2020 22:06:48 GMT-0500 (Eastern Standard Time)","792853","Untrustworthy,Trustworthy","","null","","","","ratingFB","","trustrating_stim/white_00253_940128_fa_edt.bmp","null","","","","","","","","",""
"image-keyboard-response","25","67899","0.0-6.0-1.10","testing","bdp_trlrn","Wed Dec 09 2020 22:06:48 GMT-0500 (Eastern Standard Time)","792853","Untrustworthy,Trustworthy","","1913","","","","rating","","trustrating_stim/white_mw006.bmp","4","","","","","","","","",""
"image-keyboard-response","26","68104","0.0-6.0-2.10","testing","bdp_trlrn","Wed Dec 09 2020 22:06:48 GMT-0500 (Eastern Standard Time)","792853","Untrustworthy,Trustworthy","","null","","","","ratingFB","","trustrating_stim/white_mw006.bmp","null","","","","","","","","",""
"image-keyboard-response","27","70143","0.0-6.0-1.11","testing","bdp_trlrn","Wed Dec 09 2020 22:06:48 GMT-0500 (Eastern Standard Time)","792853","Untrustworthy,Trustworthy","","1934","","","","rating","","trustrating_stim/white_mw051.bmp","3","","","","","","","","",""
"image-keyboard-response","28","70348","0.0-6.0-2.11","testing","bdp_trlrn","Wed Dec 09 2020 22:06:48 GMT-0500 (Eastern Standard Time)","792853","Untrustworthy,Trustworthy","","null","","","","ratingFB","","trustrating_stim/white_mw051.bmp","null","","","","","","","","",""
"image-keyboard-response","29","71467","0.0-6.0-1.12","testing","bdp_trlrn","Wed Dec 09 2020 22:06:48 GMT-0500 (Eastern Standard Time)","792853","Untrustworthy,Trustworthy","","1014","","","","rating","","trustrating_stim/white_00897_960530_fb_edt.bmp","4","","","","","","","","",""
"image-keyboard-response","30","71671","0.0-6.0-2.12","testing","bdp_trlrn","Wed Dec 09 2020 22:06:48 GMT-0500 (Eastern Standard Time)","792853","Untrustworthy,Trustworthy","","null","","","","ratingFB","","trustrating_stim/white_00897_960530_fb_edt.bmp","null","","","","","","","","",""
"image-keyboard-response","31","74141","0.0-6.0-1.13","testing","bdp_trlrn","Wed Dec 09 2020 22:06:48 GMT-0500 (Eastern Standard Time)","792853","Untrustworthy,Trustworthy","","2366","","","","rating","","trustrating_stim/white_mw013.bmp","5","","","","","","","","",""
"image-keyboard-response","32","74346","0.0-6.0-2.13","testing","bdp_trlrn","Wed Dec 09 2020 22:06:48 GMT-0500 (Eastern Standard Time)","792853","Untrustworthy,Trustworthy","","null","","","","ratingFB","","trustrating_stim/white_mw013.bmp","null","","","","","","","","",""
"image-keyboard-response","33","75968","0.0-6.0-1.14","testing","bdp_trlrn","Wed Dec 09 2020 22:06:48 GMT-0500 (Eastern Standard Time)","792853","Untrustworthy,Trustworthy","","1520","","","","rating","","trustrating_stim/white_mw012.bmp","5","","","","","","","","",""
"image-keyboard-response","34","76173","0.0-6.0-2.14","testing","bdp_trlrn","Wed Dec 09 2020 22:06:48 GMT-0500 (Eastern Standard Time)","792853","Untrustworthy,Trustworthy","","null","","","","ratingFB","","trustrating_stim/white_mw012.bmp","null","","","","","","","","",""
"image-keyboard-response","35","78258","0.0-6.0-1.15","testing","bdp_trlrn","Wed Dec 09 2020 22:06:48 GMT-0500 (Eastern Standard Time)","792853","Untrustworthy,Trustworthy","","1980","","","","rating","","trustrating_stim/white_mw097.bmp","5","","","","","","","","",""
"image-keyboard-response","36","78464","0.0-6.0-2.15","testing","bdp_trlrn","Wed Dec 09 2020 22:06:48 GMT-0500 (Eastern Standard Time)","792853","Untrustworthy,Trustworthy","","null","","","","ratingFB","","trustrating_stim/white_mw097.bmp","null","","","","","","","","",""
"image-keyboard-response","37","79493","0.0-6.0-1.16","testing","bdp_trlrn","Wed Dec 09 2020 22:06:48 GMT-0500 (Eastern Standard Time)","792853","Untrustworthy,Trustworthy","","927","","","","rating","","trustrating_stim/white_mw054.bmp","5","","","","","","","","",""
"image-keyboard-response","38","79697","0.0-6.0-2.16","testing","bdp_trlrn","Wed Dec 09 2020 22:06:48 GMT-0500 (Eastern Standard Time)","792853","Untrustworthy,Trustworthy","","null","","","","ratingFB","","trustrating_stim/white_mw054.bmp","null","","","","","","","","",""
"image-keyboard-response","39","81192","0.0-6.0-1.17","testing","bdp_trlrn","Wed Dec 09 2020 22:06:48 GMT-0500 (Eastern Standard Time)","792853","Untrustworthy,Trustworthy","","1390","","","","rating","","trustrating_stim/white_mw084.bmp","4","","","","","","","","",""
"image-keyboard-response","40","81398","0.0-6.0-2.17","testing","bdp_trlrn","Wed Dec 09 2020 22:06:48 GMT-0500 (Eastern Standard Time)","792853","Untrustworthy,Trustworthy","","null","","","","ratingFB","","trustrating_stim/white_mw084.bmp","null","","","","","","","","",""
"image-keyboard-response","41","82509","0.0-6.0-1.18","testing","bdp_trlrn","Wed Dec 09 2020 22:06:48 GMT-0500 (Eastern Standard Time)","792853","Untrustworthy,Trustworthy","","1004","","","","rating","","trustrating_stim/white_mw004.bmp","3","","","","","","","","",""
"image-keyboard-response","42","82710","0.0-6.0-2.18","testing","bdp_trlrn","Wed Dec 09 2020 22:06:48 GMT-0500 (Eastern Standard Time)","792853","Untrustworthy,Trustworthy","","null","","","","ratingFB","","trustrating_stim/white_mw004.bmp","null","","","","","","","","",""
"image-keyboard-response","43","84640","0.0-6.0-1.19","testing","bdp_trlrn","Wed Dec 09 2020 22:06:48 GMT-0500 (Eastern Standard Time)","792853","Untrustworthy,Trustworthy","","1827","","","","rating","","trustrating_stim/white_mw044.bmp","2","","","","","","","","",""
"image-keyboard-response","44","84847","0.0-6.0-2.19","testing","bdp_trlrn","Wed Dec 09 2020 22:06:48 GMT-0500 (Eastern Standard Time)","792853","Untrustworthy,Trustworthy","","null","","","","ratingFB","","trustrating_stim/white_mw044.bmp","null","","","","","","","","",""
"image-keyboard-response","45","86296","0.0-6.0-1.20","testing","bdp_trlrn","Wed Dec 09 2020 22:06:48 GMT-0500 (Eastern Standard Time)","792853","Untrustworthy,Trustworthy","","1343","","","","rating","","trustrating_stim/white_mw046.bmp","3","","","","","","","","",""
"image-keyboard-response","46","86501","0.0-6.0-2.20","testing","bdp_trlrn","Wed Dec 09 2020 22:06:48 GMT-0500 (Eastern Standard Time)","792853","Untrustworthy,Trustworthy","","null","","","","ratingFB","","trustrating_stim/white_mw046.bmp","null","","","","","","","","",""
"image-keyboard-response","47","87873","0.0-6.0-1.21","testing","bdp_trlrn","Wed Dec 09 2020 22:06:48 GMT-0500 (Eastern Standard Time)","792853","Untrustworthy,Trustworthy","","1267","","","","rating","","trustrating_stim/white_mw025.bmp","3","","","","","","","","",""
"image-keyboard-response","48","88078","0.0-6.0-2.21","testing","bdp_trlrn","Wed Dec 09 2020 22:06:48 GMT-0500 (Eastern Standard Time)","792853","Untrustworthy,Trustworthy","","null","","","","ratingFB","","trustrating_stim/white_mw025.bmp","null","","","","","","","","",""
"image-keyboard-response","49","91264","0.0-6.0-1.22","testing","bdp_trlrn","Wed Dec 09 2020 22:06:48 GMT-0500 (Eastern Standard Time)","792853","Untrustworthy,Trustworthy","","3079","","","","rating","","trustrating_stim/white_00109_931230_fa_edt.bmp","4","","","","","","","","",""
"image-keyboard-response","50","91467","0.0-6.0-2.22","testing","bdp_trlrn","Wed Dec 09 2020 22:06:48 GMT-0500 (Eastern Standard Time)","792853","Untrustworthy,Trustworthy","","null","","","","ratingFB","","trustrating_stim/white_00109_931230_fa_edt.bmp","null","","","","","","","","",""
"image-keyboard-response","51","93242","0.0-6.0-1.23","testing","bdp_trlrn","Wed Dec 09 2020 22:06:48 GMT-0500 (Eastern Standard Time)","792853","Untrustworthy,Trustworthy","","1673","","","","rating","","trustrating_stim/white_mw089.bmp","4","","","","","","","","",""
"image-keyboard-response","52","93444","0.0-6.0-2.23","testing","bdp_trlrn","Wed Dec 09 2020 22:06:48 GMT-0500 (Eastern Standard Time)","792853","Untrustworthy,Trustworthy","","null","","","","ratingFB","","trustrating_stim/white_mw089.bmp","null","","","","","","","","",""
"image-keyboard-response","53","94980","0.0-6.0-1.24","testing","bdp_trlrn","Wed Dec 09 2020 22:06:48 GMT-0500 (Eastern Standard Time)","792853","Untrustworthy,Trustworthy","","1430","","","","rating","","trustrating_stim/white_mw057.bmp","5","","","","","","","","",""
"image-keyboard-response","54","95185","0.0-6.0-2.24","testing","bdp_trlrn","Wed Dec 09 2020 22:06:48 GMT-0500 (Eastern Standard Time)","792853","Untrustworthy,Trustworthy","","null","","","","ratingFB","","trustrating_stim/white_mw057.bmp","null","","","","","","","","",""
"image-keyboard-response","55","97112","0.0-6.0-1.25","testing","bdp_trlrn","Wed Dec 09 2020 22:06:48 GMT-0500 (Eastern Standard Time)","792853","Untrustworthy,Trustworthy","","1822","","","","rating","","trustrating_stim/white_mw040.bmp","5","","","","","","","","",""
"image-keyboard-response","56","97316","0.0-6.0-2.25","testing","bdp_trlrn","Wed Dec 09 2020 22:06:48 GMT-0500 (Eastern Standard Time)","792853","Untrustworthy,Trustworthy","","null","","","","ratingFB","","trustrating_stim/white_mw040.bmp","null","","","","","","","","",""
"image-keyboard-response","57","100334","0.0-6.0-1.26","testing","bdp_trlrn","Wed Dec 09 2020 22:06:48 GMT-0500 (Eastern Standard Time)","792853","Untrustworthy,Trustworthy","","2912","","","","rating","","trustrating_stim/white_00120_931230_fa_edt.bmp","6","","","","","","","","",""
"image-keyboard-response","58","100539","0.0-6.0-2.26","testing","bdp_trlrn","Wed Dec 09 2020 22:06:48 GMT-0500 (Eastern Standard Time)","792853","Untrustworthy,Trustworthy","","null","","","","ratingFB","","trustrating_stim/white_00120_931230_fa_edt.bmp","null","","","","","","","","",""
"image-keyboard-response","59","102011","0.0-6.0-1.27","testing","bdp_trlrn","Wed Dec 09 2020 22:06:48 GMT-0500 (Eastern Standard Time)","792853","Untrustworthy,Trustworthy","","1367","","","","rating","","trustrating_stim/white_mw058.bmp","5","","","","","","","","",""
"image-keyboard-response","60","102216","0.0-6.0-2.27","testing","bdp_trlrn","Wed Dec 09 2020 22:06:48 GMT-0500 (Eastern Standard Time)","792853","Untrustworthy,Trustworthy","","null","","","","ratingFB","","trustrating_stim/white_mw058.bmp","null","","","","","","","","",""
"image-keyboard-response","61","103363","0.0-6.0-1.28","testing","bdp_trlrn","Wed Dec 09 2020 22:06:48 GMT-0500 (Eastern Standard Time)","792853","Untrustworthy,Trustworthy","","1043","","","","rating","","trustrating_stim/white_mw071.bmp","5","","","","","","","","",""
"image-keyboard-response","62","103568","0.0-6.0-2.28","testing","bdp_trlrn","Wed Dec 09 2020 22:06:48 GMT-0500 (Eastern Standard Time)","792853","Untrustworthy,Trustworthy","","null","","","","ratingFB","","trustrating_stim/white_mw071.bmp","null","","","","","","","","",""
"image-keyboard-response","63","104400","0.0-6.0-1.29","testing","bdp_trlrn","Wed Dec 09 2020 22:06:48 GMT-0500 (Eastern Standard Time)","792853","Untrustworthy,Trustworthy","","727","","","","rating","","trustrating_stim/white_mw085.bmp","5","","","","","","","","",""
"image-keyboard-response","64","104602","0.0-6.0-2.29","testing","bdp_trlrn","Wed Dec 09 2020 22:06:48 GMT-0500 (Eastern Standard Time)","792853","Untrustworthy,Trustworthy","","null","","","","ratingFB","","trustrating_stim/white_mw085.bmp","null","","","","","","","","",""
"image-keyboard-response","65","105482","0.0-6.0-1.30","testing","bdp_trlrn","Wed Dec 09 2020 22:06:48 GMT-0500 (Eastern Standard Time)","792853","Untrustworthy,Trustworthy","","778","","","","rating","","trustrating_stim/white_00757_941201_fa_edt.bmp","5","","","","","","","","",""
"image-keyboard-response","66","105688","0.0-6.0-2.30","testing","bdp_trlrn","Wed Dec 09 2020 22:06:48 GMT-0500 (Eastern Standard Time)","792853","Untrustworthy,Trustworthy","","null","","","","ratingFB","","trustrating_stim/white_00757_941201_fa_edt.bmp","null","","","","","","","","",""
"image-keyboard-response","67","106735","0.0-6.0-1.31","testing","bdp_trlrn","Wed Dec 09 2020 22:06:48 GMT-0500 (Eastern Standard Time)","792853","Untrustworthy,Trustworthy","","944","","","","rating","","trustrating_stim/white_00223_940128_fb_edt.bmp","5","","","","","","","","",""
"image-keyboard-response","68","106940","0.0-6.0-2.31","testing","bdp_trlrn","Wed Dec 09 2020 22:06:48 GMT-0500 (Eastern Standard Time)","792853","Untrustworthy,Trustworthy","","null","","","","ratingFB","","trustrating_stim/white_00223_940128_fb_edt.bmp","null","","","","","","","","",""
"image-keyboard-response","69","109136","0.0-6.0-1.32","testing","bdp_trlrn","Wed Dec 09 2020 22:06:48 GMT-0500 (Eastern Standard Time)","792853","Untrustworthy,Trustworthy","","2091","","","","rating","","trustrating_stim/white_mw072.bmp","4","","","","","","","","",""
"image-keyboard-response","70","109342","0.0-6.0-2.32","testing","bdp_trlrn","Wed Dec 09 2020 22:06:48 GMT-0500 (Eastern Standard Time)","792853","Untrustworthy,Trustworthy","","null","","","","ratingFB","","trustrating_stim/white_mw072.bmp","null","","","","","","","","",""
"image-keyboard-response","71","111481","0.0-6.0-1.33","testing","bdp_trlrn","Wed Dec 09 2020 22:06:48 GMT-0500 (Eastern Standard Time)","792853","Untrustworthy,Trustworthy","","2038","","","","rating","","trustrating_stim/white_mw082.bmp","7","","","","","","","","",""
"image-keyboard-response","72","111684","0.0-6.0-2.33","testing","bdp_trlrn","Wed Dec 09 2020 22:06:48 GMT-0500 (Eastern Standard Time)","792853","Untrustworthy,Trustworthy","","null","","","","ratingFB","","trustrating_stim/white_mw082.bmp","null","","","","","","","","",""
"image-keyboard-response","73","116169","0.0-6.0-1.34","testing","bdp_trlrn","Wed Dec 09 2020 22:06:48 GMT-0500 (Eastern Standard Time)","792853","Untrustworthy,Trustworthy","","4383","","","","rating","","trustrating_stim/white_00960_960627_fb_edt.bmp","3","","","","","","","","",""
"image-keyboard-response","74","116376","0.0-6.0-2.34","testing","bdp_trlrn","Wed Dec 09 2020 22:06:48 GMT-0500 (Eastern Standard Time)","792853","Untrustworthy,Trustworthy","","null","","","","ratingFB","","trustrating_stim/white_00960_960627_fb_edt.bmp","null","","","","","","","","",""
"image-keyboard-response","75","117486","0.0-6.0-1.35","testing","bdp_trlrn","Wed Dec 09 2020 22:06:48 GMT-0500 (Eastern Standard Time)","792853","Untrustworthy,Trustworthy","","1007","","","","rating","","trustrating_stim/white_00785_941205_fb_edt.bmp","3","","","","","","","","",""
"image-keyboard-response","76","117690","0.0-6.0-2.35","testing","bdp_trlrn","Wed Dec 09 2020 22:06:48 GMT-0500 (Eastern Standard Time)","792853","Untrustworthy,Trustworthy","","null","","","","ratingFB","","trustrating_stim/white_00785_941205_fb_edt.bmp","null","","","","","","","","",""
"image-keyboard-response","77","118680","0.0-6.0-1.36","testing","bdp_trlrn","Wed Dec 09 2020 22:06:48 GMT-0500 (Eastern Standard Time)","792853","Untrustworthy,Trustworthy","","889","","","","rating","","trustrating_stim/white_mw016.bmp","3","","","","","","","","",""
"image-keyboard-response","78","118884","0.0-6.0-2.36","testing","bdp_trlrn","Wed Dec 09 2020 22:06:48 GMT-0500 (Eastern Standard Time)","792853","Untrustworthy,Trustworthy","","null","","","","ratingFB","","trustrating_stim/white_mw016.bmp","null","","","","","","","","",""
"image-keyboard-response","79","121982","0.0-6.0-1.37","testing","bdp_trlrn","Wed Dec 09 2020 22:06:48 GMT-0500 (Eastern Standard Time)","792853","Untrustworthy,Trustworthy","","2996","","","","rating","","trustrating_stim/white_00602_940928_fb_edt.bmp","5","","","","","","","","",""
"image-keyboard-response","80","122189","0.0-6.0-2.37","testing","bdp_trlrn","Wed Dec 09 2020 22:06:48 GMT-0500 (Eastern Standard Time)","792853","Untrustworthy,Trustworthy","","null","","","","ratingFB","","trustrating_stim/white_00602_940928_fb_edt.bmp","null","","","","","","","","",""
"image-keyboard-response","81","126137","0.0-6.0-1.38","testing","bdp_trlrn","Wed Dec 09 2020 22:06:48 GMT-0500 (Eastern Standard Time)","792853","Untrustworthy,Trustworthy","","3845","","","","rating","","trustrating_stim/white_mw019.bmp","3","","","","","","","","",""
"image-keyboard-response","82","126342","0.0-6.0-2.38","testing","bdp_trlrn","Wed Dec 09 2020 22:06:48 GMT-0500 (Eastern Standard Time)","792853","Untrustworthy,Trustworthy","","null","","","","ratingFB","","trustrating_stim/white_mw019.bmp","null","","","","","","","","",""
"image-keyboard-response","83","129607","0.0-6.0-1.39","testing","bdp_trlrn","Wed Dec 09 2020 22:06:48 GMT-0500 (Eastern Standard Time)","792853","Untrustworthy,Trustworthy","","3160","","","","rating","","trustrating_stim/white_mw035.bmp","5","","","","","","","","",""
"image-keyboard-response","84","129813","0.0-6.0-2.39","testing","bdp_trlrn","Wed Dec 09 2020 22:06:48 GMT-0500 (Eastern Standard Time)","792853","Untrustworthy,Trustworthy","","null","","","","ratingFB","","trustrating_stim/white_mw035.bmp","null","","","","","","","","",""
"instructions","85","131178","0.0-7.0","testing","bdp_trlrn","Wed Dec 09 2020 22:06:48 GMT-0500 (Eastern Standard Time)","792853","Untrustworthy,Trustworthy","[{""page_index"":0,""viewing_time"":1260}]","1260","","","","","","","","","","","","","","","",""
"instructions","86","264199","0.0-8.0","testing","bdp_trlrn","Wed Dec 09 2020 22:06:48 GMT-0500 (Eastern Standard Time)","792853","Untrustworthy,Trustworthy","[{""page_index"":0,""viewing_time"":9262},{""page_index"":1,""viewing_time"":50201},{""page_index"":2,""viewing_time"":4983},{""page_index"":3,""viewing_time"":38546},{""page_index"":4,""viewing_time"":5173},{""page_index"":5,""viewing_time"":23491},{""page_index"":6,""viewing_time"":1260}]","132916","","","","","","","","","","","","","","","",""
"html-keyboard-response","87","274152","0.0-9.0","testing","bdp_trlrn","Wed Dec 09 2020 22:06:48 GMT-0500 (Eastern Standard Time)","792853","Untrustworthy,Trustworthy","","9951","","","","","","<div class='header' style='text-align:left; position: absolute; top: 5%; left: 5%;'><small>Task 3 of 4</small></div><div style='text-align:left; position: absolute; top: 10%; left: 20%; width: 60%'><p><strong>1) What is the minimum number of points you can choose to send to your partner?</strong></p><p>a) 0</p><p>b) 1</p><p>c) 5</p>","A","","","","","","","","",""
"html-keyboard-response","88","278668","0.0-10.0","testing","bdp_trlrn","Wed Dec 09 2020 22:06:48 GMT-0500 (Eastern Standard Time)","792853","Untrustworthy,Trustworthy","","4409","","","","","","<div class='header' style='text-align:left; position: absolute; top: 5%; left: 5%;'><small>Task 3 of 4</small></div><div style='text-align:left; position: absolute; top: 10%; left: 20%; width: 60%'><p><strong>1) What is the minimum number of points you can choose to send to your partner?</strong></p><p style='color:#FF0000'>a) 0</p><p>b) 1</p><p>c) 5</p><h3 style='color:#FF0000'>Incorrect!</h3><h3 class='center-content'>The correct response is b).</h3><h3 class='center-content'>The minimum number of points you can choose to send to your partner is 1 point.</h3><p><em>Press SPACEBAR to continue</em></p></div>"," ","","","","","","","","",""
"html-keyboard-response","89","284586","0.0-11.0","testing","bdp_trlrn","Wed Dec 09 2020 22:06:48 GMT-0500 (Eastern Standard Time)","792853","Untrustworthy,Trustworthy","","5814","","","","","","<div class='header' style='text-align:left; position: absolute; top: 5%; left: 5%;'><small>Task 3 of 4</small></div><div style='text-align:left; position: absolute; top: 10%; left: 20%; width: 60%'><p><strong>2) What is the maximum number of points you can choose to send to your partner?</strong></p><p>a) 8</p><p>b) 5</p><p>c) 3</p>","A","","","","","","","","",""
"html-keyboard-response","90","287773","0.0-12.0","testing","bdp_trlrn","Wed Dec 09 2020 22:06:48 GMT-0500 (Eastern Standard Time)","792853","Untrustworthy,Trustworthy","","3083","","","","","","<div class='header' style='text-align:left; position: absolute; top: 5%; left: 5%;'><small>Task 3 of 4</small></div><div style='text-align:left; position: absolute; top: 10%; left: 20%; width: 60%'><p><strong>2) What is the maximum number of points you can choose to send to your partner?</strong></p><p style='color:#FF0000'>a) 8</p><p>b) 5</p><p>c) 3</p><h3 style='color:#FF0000'>Incorrect!</h3><h3 class='center-content'>The correct response is b).</h3><h3 class='center-content'>The maximum number of points you can choose to send to your partner is 5 points.</h3><p><em>Press SPACEBAR to continue</em></p></div>"," ","","","","","","","","",""
"html-keyboard-response","91","292202","0.0-13.0","testing","bdp_trlrn","Wed Dec 09 2020 22:06:48 GMT-0500 (Eastern Standard Time)","792853","Untrustworthy,Trustworthy","","4327","","","","","","<div class='header' style='text-align:left; position: absolute; top: 5%; left: 5%;'><small>Task 3 of 4</small></div><div style='text-align:left; position: absolute; top: 10%; left: 20%; width: 60%'><p><strong>3) What happens to the amount of points you send to your partner?</strong></p><p>a) Nothing</p><p>b) It doubles</p><p>c) It quadruples</p>","C","","","","","","","","",""
"html-keyboard-response","92","294185","0.0-14.0","testing","bdp_trlrn","Wed Dec 09 2020 22:06:48 GMT-0500 (Eastern Standard Time)","792853","Untrustworthy,Trustworthy","","1880","","","","","","<div class='header' style='text-align:left; position: absolute; top: 5%; left: 5%;'><small>Task 3 of 4</small></div><div style='text-align:left; position: absolute; top: 10%; left: 20%; width: 60%'><p><strong>3) What happens to the amount of points you send to your partner?</strong></p><p>a) Nothing</p><p>b) It doubles</p><p style='color:#00FF00'>c) It quadruples</p><h3 style='color:#00FF00'>Correct!</h3><h3 class='center-content'>The correct response is c).</h3><h3 class='center-content'>The amount of points you send to your partner quadruples.</h3><p><em>Press SPACEBAR to continue</em></p></div>"," ","","","","","","","","",""
"html-keyboard-response","93","308505","0.0-15.0","testing","bdp_trlrn","Wed Dec 09 2020 22:06:48 GMT-0500 (Eastern Standard Time)","792853","Untrustworthy,Trustworthy","","14215","","","","","","<div class='header' style='text-align:left; position: absolute; top: 5%; left: 5%;'><small>Task 3 of 4</small></div><div style='text-align:left; position: absolute; top: 10%; left: 20%; width: 60%'><p><strong>4) If you decide to share 4 out of 5 points with your partner, and he decided to share half of what he received, how many points would you end up with in this round?</strong></p><p>a) 16</p><p>b) 0</p><p>c) 9</p>","A","","","","","","","","",""
"html-keyboard-response","94","315926","0.0-16.0","testing","bdp_trlrn","Wed Dec 09 2020 22:06:48 GMT-0500 (Eastern Standard Time)","792853","Untrustworthy,Trustworthy","","7313","","","","","","<div class='header' style='text-align:left; position: absolute; top: 5%; left: 5%;'><small>Task 3 of 4</small></div><div style='text-align:left; position: absolute; top: 10%; left: 20%; width: 60%'><p><strong>4) If you decide to share 4 points with your partner, and he decided to share half of what he received, how many points would you end up with in this round?</strong></p><p style='color:#FF0000'>a) 16</p><p>b) 0</p><p>c) 9</p><h3 style='color:#FF0000'>Incorrect!</h3><h3 class='center-content'>The correct response is c).</h3><h3 class='center-content'>If you share 4 out of 5 points with your partner and he decided to share half with you, you would receive 8 points back (i.e. (4 x 4)/2 = 8), totaling to 9 points altogether.</h3><p><em>Press SPACEBAR to continue</em></p></div>"," ","","","","","","","","",""
"instructions","95","318997","0.0-17.0","testing","bdp_trlrn","Wed Dec 09 2020 22:06:48 GMT-0500 (Eastern Standard Time)","792853","Untrustworthy,Trustworthy","[{""page_index"":0,""viewing_time"":2969}]","2969","","","","","","","","","","","","","","","",""
"html-keyboard-response","96","331723","0.0-18.0-1.0","testing","bdp_trlrn","Wed Dec 09 2020 22:06:48 GMT-0500 (Eastern Standard Time)","792853","Untrustworthy,Trustworthy","","12620","","","","decision","","<div class='pointsDiv'><table width=550px><tr><td>Current Point Total: 5</td><td style='text-align:right'>Round #: 1</td></tr></table></div><div class='trialDiv'><img src='trustrating_stim/white_mw084.bmp'><br><font class='baseline'><strong>Nathan</strong><p>Choose number of points to send.</font><p><img src='img/responseButtonOffersNo0L.png' class='respPic'></p></div>","4","1","Nathan","trustrating_stim/white_mw084.bmp","Shared","0.6,0.2","10","0.6","5","1"
"html-keyboard-response","97","332726","0.0-18.0-2.0","testing","bdp_trlrn","Wed Dec 09 2020 22:06:48 GMT-0500 (Eastern Standard Time)","792853","Untrustworthy,Trustworthy","","null","","","","decisionFB","","<div class='pointsDiv'><table width=550px><tr><td>Current Point Total: 1</td><td style='text-align:right'>Round #: 1</td></tr></table></div><div class='trialDiv'><img src='trustrating_stim/white_mw084.bmp'><br><font class='baseline'><strong>Nathan</strong><p>Choose number of points to send.</font><p><img src='img/responseButtonOffersNo0L4.png' class='respPic'></p></div>","null","1","Nathan","trustrating_stim/white_mw084.bmp","Shared","0.6,0.2","10","0.6","1","1"
"html-keyboard-response","98","334730","0.0-18.0-3.0","testing","bdp_trlrn","Wed Dec 09 2020 22:06:48 GMT-0500 (Eastern Standard Time)","792853","Untrustworthy,Trustworthy","","null","","","","feedback","","<div class='pointsDiv'><table width=550px><tr><td>Current Point Total: 9</td><td style='text-align:right'>Round #: 1</td></tr></table></div><div class='trialDiv'><img src='trustrating_stim/white_mw084.bmp'><br><font class='baseline'><strong>Nathan</strong><p>Received: <strong>16</strong></font> &nbsp; &nbsp; &nbsp; &nbsp; &nbsp; &nbsp;<font class='posOutcome'>Shared back: <strong>8</strong></font><p><img src='img/responseButtonOffersNo0_wht.png' class='respPic'></p></font></div>","null","1","Nathan","trustrating_stim/white_mw084.bmp","Shared","0.6,0.2","10","0.6","9","1"
"html-keyboard-response","99","337315","0.0-18.0-1.1","testing","bdp_trlrn","Wed Dec 09 2020 22:06:48 GMT-0500 (Eastern Standard Time)","792853","Untrustworthy,Trustworthy","","2584","","","","decision","","<div class='pointsDiv'><table width=550px><tr><td>Current Point Total: 14</td><td style='text-align:right'>Round #: 2</td></tr></table></div><div class='trialDiv'><img src='trustrating_stim/white_mw089.bmp'><br><font class='baseline'><strong>David</strong><p>Choose number of points to send.</font><p><img src='img/responseButtonOffersNo0L.png' class='respPic'></p></div>","3","1","David","trustrating_stim/white_mw089.bmp","Kept","0.2,0.6","11","0.2","14","2"
"html-keyboard-response","100","338320","0.0-18.0-2.1","testing","bdp_trlrn","Wed Dec 09 2020 22:06:48 GMT-0500 (Eastern Standard Time)","792853","Untrustworthy,Trustworthy","","null","","","","decisionFB","","<div class='pointsDiv'><table width=550px><tr><td>Current Point Total: 11</td><td style='text-align:right'>Round #: 2</td></tr></table></div><div class='trialDiv'><img src='trustrating_stim/white_mw089.bmp'><br><font class='baseline'><strong>David</strong><p>Choose number of points to send.</font><p><img src='img/responseButtonOffersNo0L3.png' class='respPic'></p></div>","null","1","David","trustrating_stim/white_mw089.bmp","Kept","0.2,0.6","11","0.2","11","2"
"html-keyboard-response","101","340326","0.0-18.0-3.1","testing","bdp_trlrn","Wed Dec 09 2020 22:06:48 GMT-0500 (Eastern Standard Time)","792853","Untrustworthy,Trustworthy","","null","","","","feedback","","<div class='pointsDiv'><table width=550px><tr><td>Current Point Total: 11</td><td style='text-align:right'>Round #: 2</td></tr></table></div><div class='trialDiv'><img src='trustrating_stim/white_mw089.bmp'><br><font class='baseline'><strong>David</strong><p>Received: <strong>12</strong></font> &nbsp; &nbsp; &nbsp; &nbsp; &nbsp; &nbsp;<font class='negOutcome'>Shared back: <strong>0</strong></font><p><img src='img/responseButtonOffersNo0_wht.png' class='respPic'></p></font></div>","null","1","David","trustrating_stim/white_mw089.bmp","Kept","0.2,0.6","11","0.2","11","2"
"html-keyboard-response","102","342369","0.0-18.0-1.2","testing","bdp_trlrn","Wed Dec 09 2020 22:06:48 GMT-0500 (Eastern Standard Time)","792853","Untrustworthy,Trustworthy","","2042","","","","decision","","<div class='pointsDiv'><table width=550px><tr><td>Current Point Total: 16</td><td style='text-align:right'>Round #: 3</td></tr></table></div><div class='trialDiv'><img src='trustrating_stim/white_mw099.bmp'><br><font class='baseline'><strong>Brian</strong><p>Choose number of points to send.</font><p><img src='img/responseButtonOffersNo0L.png' class='respPic'></p></div>","3","1","Brian","trustrating_stim/white_mw099.bmp","Kept","0.4,0.8","14","0.4","16","3"
"html-keyboard-response","103","343373","0.0-18.0-2.2","testing","bdp_trlrn","Wed Dec 09 2020 22:06:48 GMT-0500 (Eastern Standard Time)","792853","Untrustworthy,Trustworthy","","null","","","","decisionFB","","<div class='pointsDiv'><table width=550px><tr><td>Current Point Total: 13</td><td style='text-align:right'>Round #: 3</td></tr></table></div><div class='trialDiv'><img src='trustrating_stim/white_mw099.bmp'><br><font class='baseline'><strong>Brian</strong><p>Choose number of points to send.</font><p><img src='img/responseButtonOffersNo0L3.png' class='respPic'></p></div>","null","1","Brian","trustrating_stim/white_mw099.bmp","Kept","0.4,0.8","14","0.4","13","3"
"html-keyboard-response","104","345376","0.0-18.0-3.2","testing","bdp_trlrn","Wed Dec 09 2020 22:06:48 GMT-0500 (Eastern Standard Time)","792853","Untrustworthy,Trustworthy","","null","","","","feedback","","<div class='pointsDiv'><table width=550px><tr><td>Current Point Total: 13</td><td style='text-align:right'>Round #: 3</td></tr></table></div><div class='trialDiv'><img src='trustrating_stim/white_mw099.bmp'><br><font class='baseline'><strong>Brian</strong><p>Received: <strong>12</strong></font> &nbsp; &nbsp; &nbsp; &nbsp; &nbsp; &nbsp;<font class='negOutcome'>Shared back: <strong>0</strong></font><p><img src='img/responseButtonOffersNo0_wht.png' class='respPic'></p></font></div>","null","1","Brian","trustrating_stim/white_mw099.bmp","Kept","0.4,0.8","14","0.4","13","3"
"html-keyboard-response","105","347570","0.0-18.0-1.3","testing","bdp_trlrn","Wed Dec 09 2020 22:06:48 GMT-0500 (Eastern Standard Time)","792853","Untrustworthy,Trustworthy","","2193","","","","decision","","<div class='pointsDiv'><table width=550px><tr><td>Current Point Total: 18</td><td style='text-align:right'>Round #: 4</td></tr></table></div><div class='trialDiv'><img src='trustrating_stim/white_mw046.bmp'><br><font class='baseline'><strong>Caleb</strong><p>Choose number of points to send.</font><p><img src='img/responseButtonOffersNo0L.png' class='respPic'></p></div>","3","1","Caleb","trustrating_stim/white_mw046.bmp","Kept","0.8,0.4","9","0.8","18","4"
"html-keyboard-response","106","348575","0.0-18.0-2.3","testing","bdp_trlrn","Wed Dec 09 2020 22:06:48 GMT-0500 (Eastern Standard Time)","792853","Untrustworthy,Trustworthy","","null","","","","decisionFB","","<div class='pointsDiv'><table width=550px><tr><td>Current Point Total: 15</td><td style='text-align:right'>Round #: 4</td></tr></table></div><div class='trialDiv'><img src='trustrating_stim/white_mw046.bmp'><br><font class='baseline'><strong>Caleb</strong><p>Choose number of points to send.</font><p><img src='img/responseButtonOffersNo0L3.png' class='respPic'></p></div>","null","1","Caleb","trustrating_stim/white_mw046.bmp","Kept","0.8,0.4","9","0.8","15","4"
"html-keyboard-response","107","350577","0.0-18.0-3.3","testing","bdp_trlrn","Wed Dec 09 2020 22:06:48 GMT-0500 (Eastern Standard Time)","792853","Untrustworthy,Trustworthy","","null","","","","feedback","","<div class='pointsDiv'><table width=550px><tr><td>Current Point Total: 15</td><td style='text-align:right'>Round #: 4</td></tr></table></div><div class='trialDiv'><img src='trustrating_stim/white_mw046.bmp'><br><font class='baseline'><strong>Caleb</strong><p>Received: <strong>12</strong></font> &nbsp; &nbsp; &nbsp; &nbsp; &nbsp; &nbsp;<font class='negOutcome'>Shared back: <strong>0</strong></font><p><img src='img/responseButtonOffersNo0_wht.png' class='respPic'></p></font></div>","null","1","Caleb","trustrating_stim/white_mw046.bmp","Kept","0.8,0.4","9","0.8","15","4"
"html-keyboard-response","108","352886","0.0-18.0-1.4","testing","bdp_trlrn","Wed Dec 09 2020 22:06:48 GMT-0500 (Eastern Standard Time)","792853","Untrustworthy,Trustworthy","","2306","","","","decision","","<div class='pointsDiv'><table width=550px><tr><td>Current Point Total: 20</td><td style='text-align:right'>Round #: 5</td></tr></table></div><div class='trialDiv'><img src='trustrating_stim/white_mw084.bmp'><br><font class='baseline'><strong>Nathan</strong><p>Choose number of points to send.</font><p><img src='img/responseButtonOffersNo0L.png' class='respPic'></p></div>","4","2","Nathan","trustrating_stim/white_mw084.bmp","Shared","0.6,0.2","10","0.6","20","5"
"html-keyboard-response","109","353888","0.0-18.0-2.4","testing","bdp_trlrn","Wed Dec 09 2020 22:06:48 GMT-0500 (Eastern Standard Time)","792853","Untrustworthy,Trustworthy","","null","","","","decisionFB","","<div class='pointsDiv'><table width=550px><tr><td>Current Point Total: 16</td><td style='text-align:right'>Round #: 5</td></tr></table></div><div class='trialDiv'><img src='trustrating_stim/white_mw084.bmp'><br><font class='baseline'><strong>Nathan</strong><p>Choose number of points to send.</font><p><img src='img/responseButtonOffersNo0L4.png' class='respPic'></p></div>","null","2","Nathan","trustrating_stim/white_mw084.bmp","Shared","0.6,0.2","10","0.6","16","5"
"html-keyboard-response","110","355892","0.0-18.0-3.4","testing","bdp_trlrn","Wed Dec 09 2020 22:06:48 GMT-0500 (Eastern Standard Time)","792853","Untrustworthy,Trustworthy","","null","","","","feedback","","<div class='pointsDiv'><table width=550px><tr><td>Current Point Total: 24</td><td style='text-align:right'>Round #: 5</td></tr></table></div><div class='trialDiv'><img src='trustrating_stim/white_mw084.bmp'><br><font class='baseline'><strong>Nathan</strong><p>Received: <strong>16</strong></font> &nbsp; &nbsp; &nbsp; &nbsp; &nbsp; &nbsp;<font class='posOutcome'>Shared back: <strong>8</strong></font><p><img src='img/responseButtonOffersNo0_wht.png' class='respPic'></p></font></div>","null","2","Nathan","trustrating_stim/white_mw084.bmp","Shared","0.6,0.2","10","0.6","24","5"
"html-keyboard-response","111","357503","0.0-18.0-1.5","testing","bdp_trlrn","Wed Dec 09 2020 22:06:48 GMT-0500 (Eastern Standard Time)","792853","Untrustworthy,Trustworthy","","1610","","","","decision","","<div class='pointsDiv'><table width=550px><tr><td>Current Point Total: 29</td><td style='text-align:right'>Round #: 6</td></tr></table></div><div class='trialDiv'><img src='trustrating_stim/white_mw089.bmp'><br><font class='baseline'><strong>David</strong><p>Choose number of points to send.</font><p><img src='img/responseButtonOffersNo0L.png' class='respPic'></p></div>","2","2","David","trustrating_stim/white_mw089.bmp","Kept","0.2,0.6","11","0.2","29","6"
"html-keyboard-response","112","358506","0.0-18.0-2.5","testing","bdp_trlrn","Wed Dec 09 2020 22:06:48 GMT-0500 (Eastern Standard Time)","792853","Untrustworthy,Trustworthy","","null","","","","decisionFB","","<div class='pointsDiv'><table width=550px><tr><td>Current Point Total: 27</td><td style='text-align:right'>Round #: 6</td></tr></table></div><div class='trialDiv'><img src='trustrating_stim/white_mw089.bmp'><br><font class='baseline'><strong>David</strong><p>Choose number of points to send.</font><p><img src='img/responseButtonOffersNo0L2.png' class='respPic'></p></div>","null","2","David","trustrating_stim/white_mw089.bmp","Kept","0.2,0.6","11","0.2","27","6"
"html-keyboard-response","113","360510","0.0-18.0-3.5","testing","bdp_trlrn","Wed Dec 09 2020 22:06:48 GMT-0500 (Eastern Standard Time)","792853","Untrustworthy,Trustworthy","","null","","","","feedback","","<div class='pointsDiv'><table width=550px><tr><td>Current Point Total: 27</td><td style='text-align:right'>Round #: 6</td></tr></table></div><div class='trialDiv'><img src='trustrating_stim/white_mw089.bmp'><br><font class='baseline'><strong>David</strong><p>Received: <strong>8</strong></font> &nbsp; &nbsp; &nbsp; &nbsp; &nbsp; &nbsp;<font class='negOutcome'>Shared back: <strong>0</strong></font><p><img src='img/responseButtonOffersNo0_wht.png' class='respPic'></p></font></div>","null","2","David","trustrating_stim/white_mw089.bmp","Kept","0.2,0.6","11","0.2","27","6"
"html-keyboard-response","114","361033","0.0-18.0-1.6","testing","bdp_trlrn","Wed Dec 09 2020 22:06:48 GMT-0500 (Eastern Standard Time)","792853","Untrustworthy,Trustworthy","","522","","","","decision","","<div class='pointsDiv'><table width=550px><tr><td>Current Point Total: 32</td><td style='text-align:right'>Round #: 7</td></tr></table></div><div class='trialDiv'><img src='trustrating_stim/white_mw046.bmp'><br><font class='baseline'><strong>Caleb</strong><p>Choose number of points to send.</font><p><img src='img/responseButtonOffersNo0L.png' class='respPic'></p></div>","2","2","Caleb","trustrating_stim/white_mw046.bmp","Kept","0.8,0.4","9","0.8","32","7"
"html-keyboard-response","115","362039","0.0-18.0-2.6","testing","bdp_trlrn","Wed Dec 09 2020 22:06:48 GMT-0500 (Eastern Standard Time)","792853","Untrustworthy,Trustworthy","","null","","","","decisionFB","","<div class='pointsDiv'><table width=550px><tr><td>Current Point Total: 30</td><td style='text-align:right'>Round #: 7</td></tr></table></div><div class='trialDiv'><img src='trustrating_stim/white_mw046.bmp'><br><font class='baseline'><strong>Caleb</strong><p>Choose number of points to send.</font><p><img src='img/responseButtonOffersNo0L2.png' class='respPic'></p></div>","null","2","Caleb","trustrating_stim/white_mw046.bmp","Kept","0.8,0.4","9","0.8","30","7"
"html-keyboard-response","116","364045","0.0-18.0-3.6","testing","bdp_trlrn","Wed Dec 09 2020 22:06:48 GMT-0500 (Eastern Standard Time)","792853","Untrustworthy,Trustworthy","","null","","","","feedback","","<div class='pointsDiv'><table width=550px><tr><td>Current Point Total: 30</td><td style='text-align:right'>Round #: 7</td></tr></table></div><div class='trialDiv'><img src='trustrating_stim/white_mw046.bmp'><br><font class='baseline'><strong>Caleb</strong><p>Received: <strong>8</strong></font> &nbsp; &nbsp; &nbsp; &nbsp; &nbsp; &nbsp;<font class='negOutcome'>Shared back: <strong>0</strong></font><p><img src='img/responseButtonOffersNo0_wht.png' class='respPic'></p></font></div>","null","2","Caleb","trustrating_stim/white_mw046.bmp","Kept","0.8,0.4","9","0.8","30","7"
"html-keyboard-response","117","364607","0.0-18.0-1.7","testing","bdp_trlrn","Wed Dec 09 2020 22:06:48 GMT-0500 (Eastern Standard Time)","792853","Untrustworthy,Trustworthy","","559","","","","decision","","<div class='pointsDiv'><table width=550px><tr><td>Current Point Total: 35</td><td style='text-align:right'>Round #: 8</td></tr></table></div><div class='trialDiv'><img src='trustrating_stim/white_mw099.bmp'><br><font class='baseline'><strong>Brian</strong><p>Choose number of points to send.</font><p><img src='img/responseButtonOffersNo0L.png' class='respPic'></p></div>","1","2","Brian","trustrating_stim/white_mw099.bmp","Shared","0.4,0.8","14","0.4","35","8"
"html-keyboard-response","118","365609","0.0-18.0-2.7","testing","bdp_trlrn","Wed Dec 09 2020 22:06:48 GMT-0500 (Eastern Standard Time)","792853","Untrustworthy,Trustworthy","","null","","","","decisionFB","","<div class='pointsDiv'><table width=550px><tr><td>Current Point Total: 34</td><td style='text-align:right'>Round #: 8</td></tr></table></div><div class='trialDiv'><img src='trustrating_stim/white_mw099.bmp'><br><font class='baseline'><strong>Brian</strong><p>Choose number of points to send.</font><p><img src='img/responseButtonOffersNo0L1.png' class='respPic'></p></div>","null","2","Brian","trustrating_stim/white_mw099.bmp","Shared","0.4,0.8","14","0.4","34","8"
"html-keyboard-response","119","367615","0.0-18.0-3.7","testing","bdp_trlrn","Wed Dec 09 2020 22:06:48 GMT-0500 (Eastern Standard Time)","792853","Untrustworthy,Trustworthy","","null","","","","feedback","","<div class='pointsDiv'><table width=550px><tr><td>Current Point Total: 36</td><td style='text-align:right'>Round #: 8</td></tr></table></div><div class='trialDiv'><img src='trustrating_stim/white_mw099.bmp'><br><font class='baseline'><strong>Brian</strong><p>Received: <strong>4</strong></font> &nbsp; &nbsp; &nbsp; &nbsp; &nbsp; &nbsp;<font class='posOutcome'>Shared back: <strong>2</strong></font><p><img src='img/responseButtonOffersNo0_wht.png' class='respPic'></p></font></div>","null","2","Brian","trustrating_stim/white_mw099.bmp","Shared","0.4,0.8","14","0.4","36","8"
"html-keyboard-response","120","374415","0.0-18.0-1.8","testing","bdp_trlrn","Wed Dec 09 2020 22:06:48 GMT-0500 (Eastern Standard Time)","792853","Untrustworthy,Trustworthy","","6798","","","","decision","","<div class='pointsDiv'><table width=550px><tr><td>Current Point Total: 41</td><td style='text-align:right'>Round #: 9</td></tr></table></div><div class='trialDiv'><img src='trustrating_stim/white_mw089.bmp'><br><font class='baseline'><strong>David</strong><p>Choose number of points to send.</font><p><img src='img/responseButtonOffersNo0L.png' class='respPic'></p></div>","3","3","David","trustrating_stim/white_mw089.bmp","Shared","0.2,0.6","11","0.2","41","9"
"html-keyboard-response","121","375419","0.0-18.0-2.8","testing","bdp_trlrn","Wed Dec 09 2020 22:06:48 GMT-0500 (Eastern Standard Time)","792853","Untrustworthy,Trustworthy","","null","","","","decisionFB","","<div class='pointsDiv'><table width=550px><tr><td>Current Point Total: 38</td><td style='text-align:right'>Round #: 9</td></tr></table></div><div class='trialDiv'><img src='trustrating_stim/white_mw089.bmp'><br><font class='baseline'><strong>David</strong><p>Choose number of points to send.</font><p><img src='img/responseButtonOffersNo0L3.png' class='respPic'></p></div>","null","3","David","trustrating_stim/white_mw089.bmp","Shared","0.2,0.6","11","0.2","38","9"
"html-keyboard-response","122","377426","0.0-18.0-3.8","testing","bdp_trlrn","Wed Dec 09 2020 22:06:48 GMT-0500 (Eastern Standard Time)","792853","Untrustworthy,Trustworthy","","null","","","","feedback","","<div class='pointsDiv'><table width=550px><tr><td>Current Point Total: 44</td><td style='text-align:right'>Round #: 9</td></tr></table></div><div class='trialDiv'><img src='trustrating_stim/white_mw089.bmp'><br><font class='baseline'><strong>David</strong><p>Received: <strong>12</strong></font> &nbsp; &nbsp; &nbsp; &nbsp; &nbsp; &nbsp;<font class='posOutcome'>Shared back: <strong>6</strong></font><p><img src='img/responseButtonOffersNo0_wht.png' class='respPic'></p></font></div>","null","3","David","trustrating_stim/white_mw089.bmp","Shared","0.2,0.6","11","0.2","44","9"
"html-keyboard-response","123","380349","0.0-18.0-1.9","testing","bdp_trlrn","Wed Dec 09 2020 22:06:48 GMT-0500 (Eastern Standard Time)","792853","Untrustworthy,Trustworthy","","2921","","","","decision","","<div class='pointsDiv'><table width=550px><tr><td>Current Point Total: 49</td><td style='text-align:right'>Round #: 10</td></tr></table></div><div class='trialDiv'><img src='trustrating_stim/white_mw046.bmp'><br><font class='baseline'><strong>Caleb</strong><p>Choose number of points to send.</font><p><img src='img/responseButtonOffersNo0L.png' class='respPic'></p></div>","1","3","Caleb","trustrating_stim/white_mw046.bmp","Shared","0.8,0.4","9","0.8","49","10"
"html-keyboard-response","124","381352","0.0-18.0-2.9","testing","bdp_trlrn","Wed Dec 09 2020 22:06:48 GMT-0500 (Eastern Standard Time)","792853","Untrustworthy,Trustworthy","","null","","","","decisionFB","","<div class='pointsDiv'><table width=550px><tr><td>Current Point Total: 48</td><td style='text-align:right'>Round #: 10</td></tr></table></div><div class='trialDiv'><img src='trustrating_stim/white_mw046.bmp'><br><font class='baseline'><strong>Caleb</strong><p>Choose number of points to send.</font><p><img src='img/responseButtonOffersNo0L1.png' class='respPic'></p></div>","null","3","Caleb","trustrating_stim/white_mw046.bmp","Shared","0.8,0.4","9","0.8","48","10"
"html-keyboard-response","125","383359","0.0-18.0-3.9","testing","bdp_trlrn","Wed Dec 09 2020 22:06:48 GMT-0500 (Eastern Standard Time)","792853","Untrustworthy,Trustworthy","","null","","","","feedback","","<div class='pointsDiv'><table width=550px><tr><td>Current Point Total: 50</td><td style='text-align:right'>Round #: 10</td></tr></table></div><div class='trialDiv'><img src='trustrating_stim/white_mw046.bmp'><br><font class='baseline'><strong>Caleb</strong><p>Received: <strong>4</strong></font> &nbsp; &nbsp; &nbsp; &nbsp; &nbsp; &nbsp;<font class='posOutcome'>Shared back: <strong>2</strong></font><p><img src='img/responseButtonOffersNo0_wht.png' class='respPic'></p></font></div>","null","3","Caleb","trustrating_stim/white_mw046.bmp","Shared","0.8,0.4","9","0.8","50","10"
"html-keyboard-response","126","385142","0.0-18.0-1.10","testing","bdp_trlrn","Wed Dec 09 2020 22:06:48 GMT-0500 (Eastern Standard Time)","792853","Untrustworthy,Trustworthy","","1782","","","","decision","","<div class='pointsDiv'><table width=550px><tr><td>Current Point Total: 55</td><td style='text-align:right'>Round #: 11</td></tr></table></div><div class='trialDiv'><img src='trustrating_stim/white_mw099.bmp'><br><font class='baseline'><strong>Brian</strong><p>Choose number of points to send.</font><p><img src='img/responseButtonOffersNo0L.png' class='respPic'></p></div>","3","3","Brian","trustrating_stim/white_mw099.bmp","Kept","0.4,0.8","14","0.4","55","11"
"html-keyboard-response","127","386145","0.0-18.0-2.10","testing","bdp_trlrn","Wed Dec 09 2020 22:06:48 GMT-0500 (Eastern Standard Time)","792853","Untrustworthy,Trustworthy","","null","","","","decisionFB","","<div class='pointsDiv'><table width=550px><tr><td>Current Point Total: 52</td><td style='text-align:right'>Round #: 11</td></tr></table></div><div class='trialDiv'><img src='trustrating_stim/white_mw099.bmp'><br><font class='baseline'><strong>Brian</strong><p>Choose number of points to send.</font><p><img src='img/responseButtonOffersNo0L3.png' class='respPic'></p></div>","null","3","Brian","trustrating_stim/white_mw099.bmp","Kept","0.4,0.8","14","0.4","52","11"
"html-keyboard-response","128","388150","0.0-18.0-3.10","testing","bdp_trlrn","Wed Dec 09 2020 22:06:48 GMT-0500 (Eastern Standard Time)","792853","Untrustworthy,Trustworthy","","null","","","","feedback","","<div class='pointsDiv'><table width=550px><tr><td>Current Point Total: 52</td><td style='text-align:right'>Round #: 11</td></tr></table></div><div class='trialDiv'><img src='trustrating_stim/white_mw099.bmp'><br><font class='baseline'><strong>Brian</strong><p>Received: <strong>12</strong></font> &nbsp; &nbsp; &nbsp; &nbsp; &nbsp; &nbsp;<font class='negOutcome'>Shared back: <strong>0</strong></font><p><img src='img/responseButtonOffersNo0_wht.png' class='respPic'></p></font></div>","null","3","Brian","trustrating_stim/white_mw099.bmp","Kept","0.4,0.8","14","0.4","52","11"
"html-keyboard-response","129","389960","0.0-18.0-1.11","testing","bdp_trlrn","Wed Dec 09 2020 22:06:48 GMT-0500 (Eastern Standard Time)","792853","Untrustworthy,Trustworthy","","1808","","","","decision","","<div class='pointsDiv'><table width=550px><tr><td>Current Point Total: 57</td><td style='text-align:right'>Round #: 12</td></tr></table></div><div class='trialDiv'><img src='trustrating_stim/white_mw084.bmp'><br><font class='baseline'><strong>Nathan</strong><p>Choose number of points to send.</font><p><img src='img/responseButtonOffersNo0L.png' class='respPic'></p></div>","4","3","Nathan","trustrating_stim/white_mw084.bmp","Shared","0.6,0.2","10","0.6","57","12"
"html-keyboard-response","130","390964","0.0-18.0-2.11","testing","bdp_trlrn","Wed Dec 09 2020 22:06:48 GMT-0500 (Eastern Standard Time)","792853","Untrustworthy,Trustworthy","","null","","","","decisionFB","","<div class='pointsDiv'><table width=550px><tr><td>Current Point Total: 53</td><td style='text-align:right'>Round #: 12</td></tr></table></div><div class='trialDiv'><img src='trustrating_stim/white_mw084.bmp'><br><font class='baseline'><strong>Nathan</strong><p>Choose number of points to send.</font><p><img src='img/responseButtonOffersNo0L4.png' class='respPic'></p></div>","null","3","Nathan","trustrating_stim/white_mw084.bmp","Shared","0.6,0.2","10","0.6","53","12"
"html-keyboard-response","131","392966","0.0-18.0-3.11","testing","bdp_trlrn","Wed Dec 09 2020 22:06:48 GMT-0500 (Eastern Standard Time)","792853","Untrustworthy,Trustworthy","","null","","","","feedback","","<div class='pointsDiv'><table width=550px><tr><td>Current Point Total: 61</td><td style='text-align:right'>Round #: 12</td></tr></table></div><div class='trialDiv'><img src='trustrating_stim/white_mw084.bmp'><br><font class='baseline'><strong>Nathan</strong><p>Received: <strong>16</strong></font> &nbsp; &nbsp; &nbsp; &nbsp; &nbsp; &nbsp;<font class='posOutcome'>Shared back: <strong>8</strong></font><p><img src='img/responseButtonOffersNo0_wht.png' class='respPic'></p></font></div>","null","3","Nathan","trustrating_stim/white_mw084.bmp","Shared","0.6,0.2","10","0.6","61","12"
"html-keyboard-response","132","394617","0.0-18.0-1.12","testing","bdp_trlrn","Wed Dec 09 2020 22:06:48 GMT-0500 (Eastern Standard Time)","792853","Untrustworthy,Trustworthy","","1648","","","","decision","","<div class='pointsDiv'><table width=550px><tr><td>Current Point Total: 66</td><td style='text-align:right'>Round #: 13</td></tr></table></div><div class='trialDiv'><img src='trustrating_stim/white_mw089.bmp'><br><font class='baseline'><strong>David</strong><p>Choose number of points to send.</font><p><img src='img/responseButtonOffersNo0L.png' class='respPic'></p></div>","4","4","David","trustrating_stim/white_mw089.bmp","Kept","0.2,0.6","11","0.2","66","13"
"html-keyboard-response","133","395620","0.0-18.0-2.12","testing","bdp_trlrn","Wed Dec 09 2020 22:06:48 GMT-0500 (Eastern Standard Time)","792853","Untrustworthy,Trustworthy","","null","","","","decisionFB","","<div class='pointsDiv'><table width=550px><tr><td>Current Point Total: 62</td><td style='text-align:right'>Round #: 13</td></tr></table></div><div class='trialDiv'><img src='trustrating_stim/white_mw089.bmp'><br><font class='baseline'><strong>David</strong><p>Choose number of points to send.</font><p><img src='img/responseButtonOffersNo0L4.png' class='respPic'></p></div>","null","4","David","trustrating_stim/white_mw089.bmp","Kept","0.2,0.6","11","0.2","62","13"
"html-keyboard-response","134","397622","0.0-18.0-3.12","testing","bdp_trlrn","Wed Dec 09 2020 22:06:48 GMT-0500 (Eastern Standard Time)","792853","Untrustworthy,Trustworthy","","null","","","","feedback","","<div class='pointsDiv'><table width=550px><tr><td>Current Point Total: 62</td><td style='text-align:right'>Round #: 13</td></tr></table></div><div class='trialDiv'><img src='trustrating_stim/white_mw089.bmp'><br><font class='baseline'><strong>David</strong><p>Received: <strong>16</strong></font> &nbsp; &nbsp; &nbsp; &nbsp; &nbsp; &nbsp;<font class='negOutcome'>Shared back: <strong>0</strong></font><p><img src='img/responseButtonOffersNo0_wht.png' class='respPic'></p></font></div>","null","4","David","trustrating_stim/white_mw089.bmp","Kept","0.2,0.6","11","0.2","62","13"
"html-keyboard-response","135","398669","0.0-18.0-1.13","testing","bdp_trlrn","Wed Dec 09 2020 22:06:48 GMT-0500 (Eastern Standard Time)","792853","Untrustworthy,Trustworthy","","1045","","","","decision","","<div class='pointsDiv'><table width=550px><tr><td>Current Point Total: 67</td><td style='text-align:right'>Round #: 14</td></tr></table></div><div class='trialDiv'><img src='trustrating_stim/white_mw099.bmp'><br><font class='baseline'><strong>Brian</strong><p>Choose number of points to send.</font><p><img src='img/responseButtonOffersNo0L.png' class='respPic'></p></div>","4","4","Brian","trustrating_stim/white_mw099.bmp","Shared","0.4,0.8","14","0.4","67","14"
"html-keyboard-response","136","399671","0.0-18.0-2.13","testing","bdp_trlrn","Wed Dec 09 2020 22:06:48 GMT-0500 (Eastern Standard Time)","792853","Untrustworthy,Trustworthy","","null","","","","decisionFB","","<div class='pointsDiv'><table width=550px><tr><td>Current Point Total: 63</td><td style='text-align:right'>Round #: 14</td></tr></table></div><div class='trialDiv'><img src='trustrating_stim/white_mw099.bmp'><br><font class='baseline'><strong>Brian</strong><p>Choose number of points to send.</font><p><img src='img/responseButtonOffersNo0L4.png' class='respPic'></p></div>","null","4","Brian","trustrating_stim/white_mw099.bmp","Shared","0.4,0.8","14","0.4","63","14"
"html-keyboard-response","137","401674","0.0-18.0-3.13","testing","bdp_trlrn","Wed Dec 09 2020 22:06:48 GMT-0500 (Eastern Standard Time)","792853","Untrustworthy,Trustworthy","","null","","","","feedback","","<div class='pointsDiv'><table width=550px><tr><td>Current Point Total: 71</td><td style='text-align:right'>Round #: 14</td></tr></table></div><div class='trialDiv'><img src='trustrating_stim/white_mw099.bmp'><br><font class='baseline'><strong>Brian</strong><p>Received: <strong>16</strong></font> &nbsp; &nbsp; &nbsp; &nbsp; &nbsp; &nbsp;<font class='posOutcome'>Shared back: <strong>8</strong></font><p><img src='img/responseButtonOffersNo0_wht.png' class='respPic'></p></font></div>","null","4","Brian","trustrating_stim/white_mw099.bmp","Shared","0.4,0.8","14","0.4","71","14"
"html-keyboard-response","138","404624","0.0-18.0-1.14","testing","bdp_trlrn","Wed Dec 09 2020 22:06:48 GMT-0500 (Eastern Standard Time)","792853","Untrustworthy,Trustworthy","","2948","","","","decision","","<div class='pointsDiv'><table width=550px><tr><td>Current Point Total: 76</td><td style='text-align:right'>Round #: 15</td></tr></table></div><div class='trialDiv'><img src='trustrating_stim/white_mw084.bmp'><br><font class='baseline'><strong>Nathan</strong><p>Choose number of points to send.</font><p><img src='img/responseButtonOffersNo0L.png' class='respPic'></p></div>","5","4","Nathan","trustrating_stim/white_mw084.bmp","Kept","0.6,0.2","10","0.6","76","15"
"html-keyboard-response","139","405628","0.0-18.0-2.14","testing","bdp_trlrn","Wed Dec 09 2020 22:06:48 GMT-0500 (Eastern Standard Time)","792853","Untrustworthy,Trustworthy","","null","","","","decisionFB","","<div class='pointsDiv'><table width=550px><tr><td>Current Point Total: 71</td><td style='text-align:right'>Round #: 15</td></tr></table></div><div class='trialDiv'><img src='trustrating_stim/white_mw084.bmp'><br><font class='baseline'><strong>Nathan</strong><p>Choose number of points to send.</font><p><img src='img/responseButtonOffersNo0L5.png' class='respPic'></p></div>","null","4","Nathan","trustrating_stim/white_mw084.bmp","Kept","0.6,0.2","10","0.6","71","15"
"html-keyboard-response","140","407634","0.0-18.0-3.14","testing","bdp_trlrn","Wed Dec 09 2020 22:06:48 GMT-0500 (Eastern Standard Time)","792853","Untrustworthy,Trustworthy","","null","","","","feedback","","<div class='pointsDiv'><table width=550px><tr><td>Current Point Total: 71</td><td style='text-align:right'>Round #: 15</td></tr></table></div><div class='trialDiv'><img src='trustrating_stim/white_mw084.bmp'><br><font class='baseline'><strong>Nathan</strong><p>Received: <strong>20</strong></font> &nbsp; &nbsp; &nbsp; &nbsp; &nbsp; &nbsp;<font class='negOutcome'>Shared back: <strong>0</strong></font><p><img src='img/responseButtonOffersNo0_wht.png' class='respPic'></p></font></div>","null","4","Nathan","trustrating_stim/white_mw084.bmp","Kept","0.6,0.2","10","0.6","71","15"
"html-keyboard-response","141","409357","0.0-18.0-1.15","testing","bdp_trlrn","Wed Dec 09 2020 22:06:48 GMT-0500 (Eastern Standard Time)","792853","Untrustworthy,Trustworthy","","1721","","","","decision","","<div class='pointsDiv'><table width=550px><tr><td>Current Point Total: 76</td><td style='text-align:right'>Round #: 16</td></tr></table></div><div class='trialDiv'><img src='trustrating_stim/white_mw046.bmp'><br><font class='baseline'><strong>Caleb</strong><p>Choose number of points to send.</font><p><img src='img/responseButtonOffersNo0L.png' class='respPic'></p></div>","1","4","Caleb","trustrating_stim/white_mw046.bmp","Kept","0.8,0.4","9","0.8","76","16"
"html-keyboard-response","142","410359","0.0-18.0-2.15","testing","bdp_trlrn","Wed Dec 09 2020 22:06:48 GMT-0500 (Eastern Standard Time)","792853","Untrustworthy,Trustworthy","","null","","","","decisionFB","","<div class='pointsDiv'><table width=550px><tr><td>Current Point Total: 75</td><td style='text-align:right'>Round #: 16</td></tr></table></div><div class='trialDiv'><img src='trustrating_stim/white_mw046.bmp'><br><font class='baseline'><strong>Caleb</strong><p>Choose number of points to send.</font><p><img src='img/responseButtonOffersNo0L1.png' class='respPic'></p></div>","null","4","Caleb","trustrating_stim/white_mw046.bmp","Kept","0.8,0.4","9","0.8","75","16"
"html-keyboard-response","143","412362","0.0-18.0-3.15","testing","bdp_trlrn","Wed Dec 09 2020 22:06:48 GMT-0500 (Eastern Standard Time)","792853","Untrustworthy,Trustworthy","","null","","","","feedback","","<div class='pointsDiv'><table width=550px><tr><td>Current Point Total: 75</td><td style='text-align:right'>Round #: 16</td></tr></table></div><div class='trialDiv'><img src='trustrating_stim/white_mw046.bmp'><br><font class='baseline'><strong>Caleb</strong><p>Received: <strong>4</strong></font> &nbsp; &nbsp; &nbsp; &nbsp; &nbsp; &nbsp;<font class='negOutcome'>Shared back: <strong>0</strong></font><p><img src='img/responseButtonOffersNo0_wht.png' class='respPic'></p></font></div>","null","4","Caleb","trustrating_stim/white_mw046.bmp","Kept","0.8,0.4","9","0.8","75","16"
"html-keyboard-response","144","413842","0.0-18.0-1.16","testing","bdp_trlrn","Wed Dec 09 2020 22:06:48 GMT-0500 (Eastern Standard Time)","792853","Untrustworthy,Trustworthy","","1479","","","","decision","","<div class='pointsDiv'><table width=550px><tr><td>Current Point Total: 80</td><td style='text-align:right'>Round #: 17</td></tr></table></div><div class='trialDiv'><img src='trustrating_stim/white_mw089.bmp'><br><font class='baseline'><strong>David</strong><p>Choose number of points to send.</font><p><img src='img/responseButtonOffersNo0L.png' class='respPic'></p></div>","3","5","David","trustrating_stim/white_mw089.bmp","Shared","0.2,0.6","11","0.2","80","17"
"html-keyboard-response","145","414846","0.0-18.0-2.16","testing","bdp_trlrn","Wed Dec 09 2020 22:06:48 GMT-0500 (Eastern Standard Time)","792853","Untrustworthy,Trustworthy","","null","","","","decisionFB","","<div class='pointsDiv'><table width=550px><tr><td>Current Point Total: 77</td><td style='text-align:right'>Round #: 17</td></tr></table></div><div class='trialDiv'><img src='trustrating_stim/white_mw089.bmp'><br><font class='baseline'><strong>David</strong><p>Choose number of points to send.</font><p><img src='img/responseButtonOffersNo0L3.png' class='respPic'></p></div>","null","5","David","trustrating_stim/white_mw089.bmp","Shared","0.2,0.6","11","0.2","77","17"
"html-keyboard-response","146","416849","0.0-18.0-3.16","testing","bdp_trlrn","Wed Dec 09 2020 22:06:48 GMT-0500 (Eastern Standard Time)","792853","Untrustworthy,Trustworthy","","null","","","","feedback","","<div class='pointsDiv'><table width=550px><tr><td>Current Point Total: 83</td><td style='text-align:right'>Round #: 17</td></tr></table></div><div class='trialDiv'><img src='trustrating_stim/white_mw089.bmp'><br><font class='baseline'><strong>David</strong><p>Received: <strong>12</strong></font> &nbsp; &nbsp; &nbsp; &nbsp; &nbsp; &nbsp;<font class='posOutcome'>Shared back: <strong>6</strong></font><p><img src='img/responseButtonOffersNo0_wht.png' class='respPic'></p></font></div>","null","5","David","trustrating_stim/white_mw089.bmp","Shared","0.2,0.6","11","0.2","83","17"
"html-keyboard-response","147","419816","0.0-18.0-1.17","testing","bdp_trlrn","Wed Dec 09 2020 22:06:48 GMT-0500 (Eastern Standard Time)","792853","Untrustworthy,Trustworthy","","2965","","","","decision","","<div class='pointsDiv'><table width=550px><tr><td>Current Point Total: 88</td><td style='text-align:right'>Round #: 18</td></tr></table></div><div class='trialDiv'><img src='trustrating_stim/white_mw084.bmp'><br><font class='baseline'><strong>Nathan</strong><p>Choose number of points to send.</font><p><img src='img/responseButtonOffersNo0L.png' class='respPic'></p></div>","5","5","Nathan","trustrating_stim/white_mw084.bmp","Shared","0.6,0.2","10","0.6","88","18"
"html-keyboard-response","148","420820","0.0-18.0-2.17","testing","bdp_trlrn","Wed Dec 09 2020 22:06:48 GMT-0500 (Eastern Standard Time)","792853","Untrustworthy,Trustworthy","","null","","","","decisionFB","","<div class='pointsDiv'><table width=550px><tr><td>Current Point Total: 83</td><td style='text-align:right'>Round #: 18</td></tr></table></div><div class='trialDiv'><img src='trustrating_stim/white_mw084.bmp'><br><font class='baseline'><strong>Nathan</strong><p>Choose number of points to send.</font><p><img src='img/responseButtonOffersNo0L5.png' class='respPic'></p></div>","null","5","Nathan","trustrating_stim/white_mw084.bmp","Shared","0.6,0.2","10","0.6","83","18"
"html-keyboard-response","149","422822","0.0-18.0-3.17","testing","bdp_trlrn","Wed Dec 09 2020 22:06:48 GMT-0500 (Eastern Standard Time)","792853","Untrustworthy,Trustworthy","","null","","","","feedback","","<div class='pointsDiv'><table width=550px><tr><td>Current Point Total: 93</td><td style='text-align:right'>Round #: 18</td></tr></table></div><div class='trialDiv'><img src='trustrating_stim/white_mw084.bmp'><br><font class='baseline'><strong>Nathan</strong><p>Received: <strong>20</strong></font> &nbsp; &nbsp; &nbsp; &nbsp; &nbsp; &nbsp;<font class='posOutcome'>Shared back: <strong>10</strong></font><p><img src='img/responseButtonOffersNo0_wht.png' class='respPic'></p></font></div>","null","5","Nathan","trustrating_stim/white_mw084.bmp","Shared","0.6,0.2","10","0.6","93","18"
"html-keyboard-response","150","425478","0.0-18.0-1.18","testing","bdp_trlrn","Wed Dec 09 2020 22:06:48 GMT-0500 (Eastern Standard Time)","792853","Untrustworthy,Trustworthy","","2654","","","","decision","","<div class='pointsDiv'><table width=550px><tr><td>Current Point Total: 98</td><td style='text-align:right'>Round #: 19</td></tr></table></div><div class='trialDiv'><img src='trustrating_stim/white_mw099.bmp'><br><font class='baseline'><strong>Brian</strong><p>Choose number of points to send.</font><p><img src='img/responseButtonOffersNo0L.png' class='respPic'></p></div>","3","5","Brian","trustrating_stim/white_mw099.bmp","Shared","0.4,0.8","14","0.4","98","19"
"html-keyboard-response","151","426480","0.0-18.0-2.18","testing","bdp_trlrn","Wed Dec 09 2020 22:06:48 GMT-0500 (Eastern Standard Time)","792853","Untrustworthy,Trustworthy","","null","","","","decisionFB","","<div class='pointsDiv'><table width=550px><tr><td>Current Point Total: 95</td><td style='text-align:right'>Round #: 19</td></tr></table></div><div class='trialDiv'><img src='trustrating_stim/white_mw099.bmp'><br><font class='baseline'><strong>Brian</strong><p>Choose number of points to send.</font><p><img src='img/responseButtonOffersNo0L3.png' class='respPic'></p></div>","null","5","Brian","trustrating_stim/white_mw099.bmp","Shared","0.4,0.8","14","0.4","95","19"
"html-keyboard-response","152","428482","0.0-18.0-3.18","testing","bdp_trlrn","Wed Dec 09 2020 22:06:48 GMT-0500 (Eastern Standard Time)","792853","Untrustworthy,Trustworthy","","null","","","","feedback","","<div class='pointsDiv'><table width=550px><tr><td>Current Point Total: 101</td><td style='text-align:right'>Round #: 19</td></tr></table></div><div class='trialDiv'><img src='trustrating_stim/white_mw099.bmp'><br><font class='baseline'><strong>Brian</strong><p>Received: <strong>12</strong></font> &nbsp; &nbsp; &nbsp; &nbsp; &nbsp; &nbsp;<font class='posOutcome'>Shared back: <strong>6</strong></font><p><img src='img/responseButtonOffersNo0_wht.png' class='respPic'></p></font></div>","null","5","Brian","trustrating_stim/white_mw099.bmp","Shared","0.4,0.8","14","0.4","101","19"
"html-keyboard-response","153","429537","0.0-18.0-1.19","testing","bdp_trlrn","Wed Dec 09 2020 22:06:48 GMT-0500 (Eastern Standard Time)","792853","Untrustworthy,Trustworthy","","1052","","","","decision","","<div class='pointsDiv'><table width=550px><tr><td>Current Point Total: 106</td><td style='text-align:right'>Round #: 20</td></tr></table></div><div class='trialDiv'><img src='trustrating_stim/white_mw046.bmp'><br><font class='baseline'><strong>Caleb</strong><p>Choose number of points to send.</font><p><img src='img/responseButtonOffersNo0L.png' class='respPic'></p></div>","1","5","Caleb","trustrating_stim/white_mw046.bmp","Shared","0.8,0.4","9","0.8","106","20"
"html-keyboard-response","154","430539","0.0-18.0-2.19","testing","bdp_trlrn","Wed Dec 09 2020 22:06:48 GMT-0500 (Eastern Standard Time)","792853","Untrustworthy,Trustworthy","","null","","","","decisionFB","","<div class='pointsDiv'><table width=550px><tr><td>Current Point Total: 105</td><td style='text-align:right'>Round #: 20</td></tr></table></div><div class='trialDiv'><img src='trustrating_stim/white_mw046.bmp'><br><font class='baseline'><strong>Caleb</strong><p>Choose number of points to send.</font><p><img src='img/responseButtonOffersNo0L1.png' class='respPic'></p></div>","null","5","Caleb","trustrating_stim/white_mw046.bmp","Shared","0.8,0.4","9","0.8","105","20"
"html-keyboard-response","155","432546","0.0-18.0-3.19","testing","bdp_trlrn","Wed Dec 09 2020 22:06:48 GMT-0500 (Eastern Standard Time)","792853","Untrustworthy,Trustworthy","","null","","","","feedback","","<div class='pointsDiv'><table width=550px><tr><td>Current Point Total: 107</td><td style='text-align:right'>Round #: 20</td></tr></table></div><div class='trialDiv'><img src='trustrating_stim/white_mw046.bmp'><br><font class='baseline'><strong>Caleb</strong><p>Received: <strong>4</strong></font> &nbsp; &nbsp; &nbsp; &nbsp; &nbsp; &nbsp;<font class='posOutcome'>Shared back: <strong>2</strong></font><p><img src='img/responseButtonOffersNo0_wht.png' class='respPic'></p></font></div>","null","5","Caleb","trustrating_stim/white_mw046.bmp","Shared","0.8,0.4","9","0.8","107","20"
"html-keyboard-response","156","434871","0.0-18.0-1.20","testing","bdp_trlrn","Wed Dec 09 2020 22:06:48 GMT-0500 (Eastern Standard Time)","792853","Untrustworthy,Trustworthy","","2324","","","","decision","","<div class='pointsDiv'><table width=550px><tr><td>Current Point Total: 112</td><td style='text-align:right'>Round #: 21</td></tr></table></div><div class='trialDiv'><img src='trustrating_stim/white_mw089.bmp'><br><font class='baseline'><strong>David</strong><p>Choose number of points to send.</font><p><img src='img/responseButtonOffersNo0L.png' class='respPic'></p></div>","4","6","David","trustrating_stim/white_mw089.bmp","Kept","0.2,0.6","11","0.2","112","21"
"html-keyboard-response","157","435873","0.0-18.0-2.20","testing","bdp_trlrn","Wed Dec 09 2020 22:06:48 GMT-0500 (Eastern Standard Time)","792853","Untrustworthy,Trustworthy","","null","","","","decisionFB","","<div class='pointsDiv'><table width=550px><tr><td>Current Point Total: 108</td><td style='text-align:right'>Round #: 21</td></tr></table></div><div class='trialDiv'><img src='trustrating_stim/white_mw089.bmp'><br><font class='baseline'><strong>David</strong><p>Choose number of points to send.</font><p><img src='img/responseButtonOffersNo0L4.png' class='respPic'></p></div>","null","6","David","trustrating_stim/white_mw089.bmp","Kept","0.2,0.6","11","0.2","108","21"
"html-keyboard-response","158","437875","0.0-18.0-3.20","testing","bdp_trlrn","Wed Dec 09 2020 22:06:48 GMT-0500 (Eastern Standard Time)","792853","Untrustworthy,Trustworthy","","null","","","","feedback","","<div class='pointsDiv'><table width=550px><tr><td>Current Point Total: 108</td><td style='text-align:right'>Round #: 21</td></tr></table></div><div class='trialDiv'><img src='trustrating_stim/white_mw089.bmp'><br><font class='baseline'><strong>David</strong><p>Received: <strong>16</strong></font> &nbsp; &nbsp; &nbsp; &nbsp; &nbsp; &nbsp;<font class='negOutcome'>Shared back: <strong>0</strong></font><p><img src='img/responseButtonOffersNo0_wht.png' class='respPic'></p></font></div>","null","6","David","trustrating_stim/white_mw089.bmp","Kept","0.2,0.6","11","0.2","108","21"
"html-keyboard-response","159","439475","0.0-18.0-1.21","testing","bdp_trlrn","Wed Dec 09 2020 22:06:48 GMT-0500 (Eastern Standard Time)","792853","Untrustworthy,Trustworthy","","1599","","","","decision","","<div class='pointsDiv'><table width=550px><tr><td>Current Point Total: 113</td><td style='text-align:right'>Round #: 22</td></tr></table></div><div class='trialDiv'><img src='trustrating_stim/white_mw046.bmp'><br><font class='baseline'><strong>Caleb</strong><p>Choose number of points to send.</font><p><img src='img/responseButtonOffersNo0L.png' class='respPic'></p></div>","2","6","Caleb","trustrating_stim/white_mw046.bmp","Shared","0.8,0.4","9","0.8","113","22"
"html-keyboard-response","160","440476","0.0-18.0-2.21","testing","bdp_trlrn","Wed Dec 09 2020 22:06:48 GMT-0500 (Eastern Standard Time)","792853","Untrustworthy,Trustworthy","","null","","","","decisionFB","","<div class='pointsDiv'><table width=550px><tr><td>Current Point Total: 111</td><td style='text-align:right'>Round #: 22</td></tr></table></div><div class='trialDiv'><img src='trustrating_stim/white_mw046.bmp'><br><font class='baseline'><strong>Caleb</strong><p>Choose number of points to send.</font><p><img src='img/responseButtonOffersNo0L2.png' class='respPic'></p></div>","null","6","Caleb","trustrating_stim/white_mw046.bmp","Shared","0.8,0.4","9","0.8","111","22"
"html-keyboard-response","161","442479","0.0-18.0-3.21","testing","bdp_trlrn","Wed Dec 09 2020 22:06:48 GMT-0500 (Eastern Standard Time)","792853","Untrustworthy,Trustworthy","","null","","","","feedback","","<div class='pointsDiv'><table width=550px><tr><td>Current Point Total: 115</td><td style='text-align:right'>Round #: 22</td></tr></table></div><div class='trialDiv'><img src='trustrating_stim/white_mw046.bmp'><br><font class='baseline'><strong>Caleb</strong><p>Received: <strong>8</strong></font> &nbsp; &nbsp; &nbsp; &nbsp; &nbsp; &nbsp;<font class='posOutcome'>Shared back: <strong>4</strong></font><p><img src='img/responseButtonOffersNo0_wht.png' class='respPic'></p></font></div>","null","6","Caleb","trustrating_stim/white_mw046.bmp","Shared","0.8,0.4","9","0.8","115","22"
"html-keyboard-response","162","444788","0.0-18.0-1.22","testing","bdp_trlrn","Wed Dec 09 2020 22:06:48 GMT-0500 (Eastern Standard Time)","792853","Untrustworthy,Trustworthy","","2308","","","","decision","","<div class='pointsDiv'><table width=550px><tr><td>Current Point Total: 120</td><td style='text-align:right'>Round #: 23</td></tr></table></div><div class='trialDiv'><img src='trustrating_stim/white_mw084.bmp'><br><font class='baseline'><strong>Nathan</strong><p>Choose number of points to send.</font><p><img src='img/responseButtonOffersNo0L.png' class='respPic'></p></div>","5","6","Nathan","trustrating_stim/white_mw084.bmp","Shared","0.6,0.2","10","0.6","120","23"
"html-keyboard-response","163","445793","0.0-18.0-2.22","testing","bdp_trlrn","Wed Dec 09 2020 22:06:48 GMT-0500 (Eastern Standard Time)","792853","Untrustworthy,Trustworthy","","null","","","","decisionFB","","<div class='pointsDiv'><table width=550px><tr><td>Current Point Total: 115</td><td style='text-align:right'>Round #: 23</td></tr></table></div><div class='trialDiv'><img src='trustrating_stim/white_mw084.bmp'><br><font class='baseline'><strong>Nathan</strong><p>Choose number of points to send.</font><p><img src='img/responseButtonOffersNo0L5.png' class='respPic'></p></div>","null","6","Nathan","trustrating_stim/white_mw084.bmp","Shared","0.6,0.2","10","0.6","115","23"
"html-keyboard-response","164","447796","0.0-18.0-3.22","testing","bdp_trlrn","Wed Dec 09 2020 22:06:48 GMT-0500 (Eastern Standard Time)","792853","Untrustworthy,Trustworthy","","null","","","","feedback","","<div class='pointsDiv'><table width=550px><tr><td>Current Point Total: 125</td><td style='text-align:right'>Round #: 23</td></tr></table></div><div class='trialDiv'><img src='trustrating_stim/white_mw084.bmp'><br><font class='baseline'><strong>Nathan</strong><p>Received: <strong>20</strong></font> &nbsp; &nbsp; &nbsp; &nbsp; &nbsp; &nbsp;<font class='posOutcome'>Shared back: <strong>10</strong></font><p><img src='img/responseButtonOffersNo0_wht.png' class='respPic'></p></font></div>","null","6","Nathan","trustrating_stim/white_mw084.bmp","Shared","0.6,0.2","10","0.6","125","23"
"html-keyboard-response","165","449551","0.0-18.0-1.23","testing","bdp_trlrn","Wed Dec 09 2020 22:06:48 GMT-0500 (Eastern Standard Time)","792853","Untrustworthy,Trustworthy","","1754","","","","decision","","<div class='pointsDiv'><table width=550px><tr><td>Current Point Total: 130</td><td style='text-align:right'>Round #: 24</td></tr></table></div><div class='trialDiv'><img src='trustrating_stim/white_mw099.bmp'><br><font class='baseline'><strong>Brian</strong><p>Choose number of points to send.</font><p><img src='img/responseButtonOffersNo0L.png' class='respPic'></p></div>","2","6","Brian","trustrating_stim/white_mw099.bmp","Kept","0.4,0.8","14","0.4","130","24"
"html-keyboard-response","166","450553","0.0-18.0-2.23","testing","bdp_trlrn","Wed Dec 09 2020 22:06:48 GMT-0500 (Eastern Standard Time)","792853","Untrustworthy,Trustworthy","","null","","","","decisionFB","","<div class='pointsDiv'><table width=550px><tr><td>Current Point Total: 128</td><td style='text-align:right'>Round #: 24</td></tr></table></div><div class='trialDiv'><img src='trustrating_stim/white_mw099.bmp'><br><font class='baseline'><strong>Brian</strong><p>Choose number of points to send.</font><p><img src='img/responseButtonOffersNo0L2.png' class='respPic'></p></div>","null","6","Brian","trustrating_stim/white_mw099.bmp","Kept","0.4,0.8","14","0.4","128","24"
"html-keyboard-response","167","452556","0.0-18.0-3.23","testing","bdp_trlrn","Wed Dec 09 2020 22:06:48 GMT-0500 (Eastern Standard Time)","792853","Untrustworthy,Trustworthy","","null","","","","feedback","","<div class='pointsDiv'><table width=550px><tr><td>Current Point Total: 128</td><td style='text-align:right'>Round #: 24</td></tr></table></div><div class='trialDiv'><img src='trustrating_stim/white_mw099.bmp'><br><font class='baseline'><strong>Brian</strong><p>Received: <strong>8</strong></font> &nbsp; &nbsp; &nbsp; &nbsp; &nbsp; &nbsp;<font class='negOutcome'>Shared back: <strong>0</strong></font><p><img src='img/responseButtonOffersNo0_wht.png' class='respPic'></p></font></div>","null","6","Brian","trustrating_stim/white_mw099.bmp","Kept","0.4,0.8","14","0.4","128","24"
"html-keyboard-response","168","454301","0.0-18.0-1.24","testing","bdp_trlrn","Wed Dec 09 2020 22:06:48 GMT-0500 (Eastern Standard Time)","792853","Untrustworthy,Trustworthy","","1743","","","","decision","","<div class='pointsDiv'><table width=550px><tr><td>Current Point Total: 133</td><td style='text-align:right'>Round #: 25</td></tr></table></div><div class='trialDiv'><img src='trustrating_stim/white_mw089.bmp'><br><font class='baseline'><strong>David</strong><p>Choose number of points to send.</font><p><img src='img/responseButtonOffersNo0L.png' class='respPic'></p></div>","3","7","David","trustrating_stim/white_mw089.bmp","Shared","0.2,0.6","11","0.2","133","25"
"html-keyboard-response","169","455303","0.0-18.0-2.24","testing","bdp_trlrn","Wed Dec 09 2020 22:06:48 GMT-0500 (Eastern Standard Time)","792853","Untrustworthy,Trustworthy","","null","","","","decisionFB","","<div class='pointsDiv'><table width=550px><tr><td>Current Point Total: 130</td><td style='text-align:right'>Round #: 25</td></tr></table></div><div class='trialDiv'><img src='trustrating_stim/white_mw089.bmp'><br><font class='baseline'><strong>David</strong><p>Choose number of points to send.</font><p><img src='img/responseButtonOffersNo0L3.png' class='respPic'></p></div>","null","7","David","trustrating_stim/white_mw089.bmp","Shared","0.2,0.6","11","0.2","130","25"
"html-keyboard-response","170","457305","0.0-18.0-3.24","testing","bdp_trlrn","Wed Dec 09 2020 22:06:48 GMT-0500 (Eastern Standard Time)","792853","Untrustworthy,Trustworthy","","null","","","","feedback","","<div class='pointsDiv'><table width=550px><tr><td>Current Point Total: 136</td><td style='text-align:right'>Round #: 25</td></tr></table></div><div class='trialDiv'><img src='trustrating_stim/white_mw089.bmp'><br><font class='baseline'><strong>David</strong><p>Received: <strong>12</strong></font> &nbsp; &nbsp; &nbsp; &nbsp; &nbsp; &nbsp;<font class='posOutcome'>Shared back: <strong>6</strong></font><p><img src='img/responseButtonOffersNo0_wht.png' class='respPic'></p></font></div>","null","7","David","trustrating_stim/white_mw089.bmp","Shared","0.2,0.6","11","0.2","136","25"
"html-keyboard-response","171","458962","0.0-18.0-1.25","testing","bdp_trlrn","Wed Dec 09 2020 22:06:48 GMT-0500 (Eastern Standard Time)","792853","Untrustworthy,Trustworthy","","1656","","","","decision","","<div class='pointsDiv'><table width=550px><tr><td>Current Point Total: 141</td><td style='text-align:right'>Round #: 26</td></tr></table></div><div class='trialDiv'><img src='trustrating_stim/white_mw099.bmp'><br><font class='baseline'><strong>Brian</strong><p>Choose number of points to send.</font><p><img src='img/responseButtonOffersNo0L.png' class='respPic'></p></div>","3","7","Brian","trustrating_stim/white_mw099.bmp","Shared","0.4,0.8","14","0.4","141","26"
"html-keyboard-response","172","459964","0.0-18.0-2.25","testing","bdp_trlrn","Wed Dec 09 2020 22:06:48 GMT-0500 (Eastern Standard Time)","792853","Untrustworthy,Trustworthy","","null","","","","decisionFB","","<div class='pointsDiv'><table width=550px><tr><td>Current Point Total: 138</td><td style='text-align:right'>Round #: 26</td></tr></table></div><div class='trialDiv'><img src='trustrating_stim/white_mw099.bmp'><br><font class='baseline'><strong>Brian</strong><p>Choose number of points to send.</font><p><img src='img/responseButtonOffersNo0L3.png' class='respPic'></p></div>","null","7","Brian","trustrating_stim/white_mw099.bmp","Shared","0.4,0.8","14","0.4","138","26"
"html-keyboard-response","173","461966","0.0-18.0-3.25","testing","bdp_trlrn","Wed Dec 09 2020 22:06:48 GMT-0500 (Eastern Standard Time)","792853","Untrustworthy,Trustworthy","","null","","","","feedback","","<div class='pointsDiv'><table width=550px><tr><td>Current Point Total: 144</td><td style='text-align:right'>Round #: 26</td></tr></table></div><div class='trialDiv'><img src='trustrating_stim/white_mw099.bmp'><br><font class='baseline'><strong>Brian</strong><p>Received: <strong>12</strong></font> &nbsp; &nbsp; &nbsp; &nbsp; &nbsp; &nbsp;<font class='posOutcome'>Shared back: <strong>6</strong></font><p><img src='img/responseButtonOffersNo0_wht.png' class='respPic'></p></font></div>","null","7","Brian","trustrating_stim/white_mw099.bmp","Shared","0.4,0.8","14","0.4","144","26"
"html-keyboard-response","174","463696","0.0-18.0-1.26","testing","bdp_trlrn","Wed Dec 09 2020 22:06:48 GMT-0500 (Eastern Standard Time)","792853","Untrustworthy,Trustworthy","","1727","","","","decision","","<div class='pointsDiv'><table width=550px><tr><td>Current Point Total: 149</td><td style='text-align:right'>Round #: 27</td></tr></table></div><div class='trialDiv'><img src='trustrating_stim/white_mw084.bmp'><br><font class='baseline'><strong>Nathan</strong><p>Choose number of points to send.</font><p><img src='img/responseButtonOffersNo0L.png' class='respPic'></p></div>","5","7","Nathan","trustrating_stim/white_mw084.bmp","Shared","0.6,0.2","10","0.6","149","27"
"html-keyboard-response","175","464701","0.0-18.0-2.26","testing","bdp_trlrn","Wed Dec 09 2020 22:06:48 GMT-0500 (Eastern Standard Time)","792853","Untrustworthy,Trustworthy","","null","","","","decisionFB","","<div class='pointsDiv'><table width=550px><tr><td>Current Point Total: 144</td><td style='text-align:right'>Round #: 27</td></tr></table></div><div class='trialDiv'><img src='trustrating_stim/white_mw084.bmp'><br><font class='baseline'><strong>Nathan</strong><p>Choose number of points to send.</font><p><img src='img/responseButtonOffersNo0L5.png' class='respPic'></p></div>","null","7","Nathan","trustrating_stim/white_mw084.bmp","Shared","0.6,0.2","10","0.6","144","27"
"html-keyboard-response","176","466703","0.0-18.0-3.26","testing","bdp_trlrn","Wed Dec 09 2020 22:06:48 GMT-0500 (Eastern Standard Time)","792853","Untrustworthy,Trustworthy","","null","","","","feedback","","<div class='pointsDiv'><table width=550px><tr><td>Current Point Total: 154</td><td style='text-align:right'>Round #: 27</td></tr></table></div><div class='trialDiv'><img src='trustrating_stim/white_mw084.bmp'><br><font class='baseline'><strong>Nathan</strong><p>Received: <strong>20</strong></font> &nbsp; &nbsp; &nbsp; &nbsp; &nbsp; &nbsp;<font class='posOutcome'>Shared back: <strong>10</strong></font><p><img src='img/responseButtonOffersNo0_wht.png' class='respPic'></p></font></div>","null","7","Nathan","trustrating_stim/white_mw084.bmp","Shared","0.6,0.2","10","0.6","154","27"
"html-keyboard-response","177","467749","0.0-18.0-1.27","testing","bdp_trlrn","Wed Dec 09 2020 22:06:48 GMT-0500 (Eastern Standard Time)","792853","Untrustworthy,Trustworthy","","1043","","","","decision","","<div class='pointsDiv'><table width=550px><tr><td>Current Point Total: 159</td><td style='text-align:right'>Round #: 28</td></tr></table></div><div class='trialDiv'><img src='trustrating_stim/white_mw046.bmp'><br><font class='baseline'><strong>Caleb</strong><p>Choose number of points to send.</font><p><img src='img/responseButtonOffersNo0L.png' class='respPic'></p></div>","2","7","Caleb","trustrating_stim/white_mw046.bmp","Shared","0.8,0.4","9","0.8","159","28"
"html-keyboard-response","178","468751","0.0-18.0-2.27","testing","bdp_trlrn","Wed Dec 09 2020 22:06:48 GMT-0500 (Eastern Standard Time)","792853","Untrustworthy,Trustworthy","","null","","","","decisionFB","","<div class='pointsDiv'><table width=550px><tr><td>Current Point Total: 157</td><td style='text-align:right'>Round #: 28</td></tr></table></div><div class='trialDiv'><img src='trustrating_stim/white_mw046.bmp'><br><font class='baseline'><strong>Caleb</strong><p>Choose number of points to send.</font><p><img src='img/responseButtonOffersNo0L2.png' class='respPic'></p></div>","null","7","Caleb","trustrating_stim/white_mw046.bmp","Shared","0.8,0.4","9","0.8","157","28"
"html-keyboard-response","179","470755","0.0-18.0-3.27","testing","bdp_trlrn","Wed Dec 09 2020 22:06:48 GMT-0500 (Eastern Standard Time)","792853","Untrustworthy,Trustworthy","","null","","","","feedback","","<div class='pointsDiv'><table width=550px><tr><td>Current Point Total: 161</td><td style='text-align:right'>Round #: 28</td></tr></table></div><div class='trialDiv'><img src='trustrating_stim/white_mw046.bmp'><br><font class='baseline'><strong>Caleb</strong><p>Received: <strong>8</strong></font> &nbsp; &nbsp; &nbsp; &nbsp; &nbsp; &nbsp;<font class='posOutcome'>Shared back: <strong>4</strong></font><p><img src='img/responseButtonOffersNo0_wht.png' class='respPic'></p></font></div>","null","7","Caleb","trustrating_stim/white_mw046.bmp","Shared","0.8,0.4","9","0.8","161","28"
"html-keyboard-response","180","472270","0.0-18.0-1.28","testing","bdp_trlrn","Wed Dec 09 2020 22:06:48 GMT-0500 (Eastern Standard Time)","792853","Untrustworthy,Trustworthy","","1512","","","","decision","","<div class='pointsDiv'><table width=550px><tr><td>Current Point Total: 166</td><td style='text-align:right'>Round #: 29</td></tr></table></div><div class='trialDiv'><img src='trustrating_stim/white_mw084.bmp'><br><font class='baseline'><strong>Nathan</strong><p>Choose number of points to send.</font><p><img src='img/responseButtonOffersNo0L.png' class='respPic'></p></div>","5","8","Nathan","trustrating_stim/white_mw084.bmp","Kept","0.6,0.2","10","0.6","166","29"
"html-keyboard-response","181","473275","0.0-18.0-2.28","testing","bdp_trlrn","Wed Dec 09 2020 22:06:48 GMT-0500 (Eastern Standard Time)","792853","Untrustworthy,Trustworthy","","null","","","","decisionFB","","<div class='pointsDiv'><table width=550px><tr><td>Current Point Total: 161</td><td style='text-align:right'>Round #: 29</td></tr></table></div><div class='trialDiv'><img src='trustrating_stim/white_mw084.bmp'><br><font class='baseline'><strong>Nathan</strong><p>Choose number of points to send.</font><p><img src='img/responseButtonOffersNo0L5.png' class='respPic'></p></div>","null","8","Nathan","trustrating_stim/white_mw084.bmp","Kept","0.6,0.2","10","0.6","161","29"
"html-keyboard-response","182","475278","0.0-18.0-3.28","testing","bdp_trlrn","Wed Dec 09 2020 22:06:48 GMT-0500 (Eastern Standard Time)","792853","Untrustworthy,Trustworthy","","null","","","","feedback","","<div class='pointsDiv'><table width=550px><tr><td>Current Point Total: 161</td><td style='text-align:right'>Round #: 29</td></tr></table></div><div class='trialDiv'><img src='trustrating_stim/white_mw084.bmp'><br><font class='baseline'><strong>Nathan</strong><p>Received: <strong>20</strong></font> &nbsp; &nbsp; &nbsp; &nbsp; &nbsp; &nbsp;<font class='negOutcome'>Shared back: <strong>0</strong></font><p><img src='img/responseButtonOffersNo0_wht.png' class='respPic'></p></font></div>","null","8","Nathan","trustrating_stim/white_mw084.bmp","Kept","0.6,0.2","10","0.6","161","29"
"html-keyboard-response","183","476713","0.0-18.0-1.29","testing","bdp_trlrn","Wed Dec 09 2020 22:06:48 GMT-0500 (Eastern Standard Time)","792853","Untrustworthy,Trustworthy","","1434","","","","decision","","<div class='pointsDiv'><table width=550px><tr><td>Current Point Total: 166</td><td style='text-align:right'>Round #: 30</td></tr></table></div><div class='trialDiv'><img src='trustrating_stim/white_mw089.bmp'><br><font class='baseline'><strong>David</strong><p>Choose number of points to send.</font><p><img src='img/responseButtonOffersNo0L.png' class='respPic'></p></div>","3","8","David","trustrating_stim/white_mw089.bmp","Kept","0.2,0.6","11","0.2","166","30"
"html-keyboard-response","184","477716","0.0-18.0-2.29","testing","bdp_trlrn","Wed Dec 09 2020 22:06:48 GMT-0500 (Eastern Standard Time)","792853","Untrustworthy,Trustworthy","","null","","","","decisionFB","","<div class='pointsDiv'><table width=550px><tr><td>Current Point Total: 163</td><td style='text-align:right'>Round #: 30</td></tr></table></div><div class='trialDiv'><img src='trustrating_stim/white_mw089.bmp'><br><font class='baseline'><strong>David</strong><p>Choose number of points to send.</font><p><img src='img/responseButtonOffersNo0L3.png' class='respPic'></p></div>","null","8","David","trustrating_stim/white_mw089.bmp","Kept","0.2,0.6","11","0.2","163","30"
"html-keyboard-response","185","479719","0.0-18.0-3.29","testing","bdp_trlrn","Wed Dec 09 2020 22:06:48 GMT-0500 (Eastern Standard Time)","792853","Untrustworthy,Trustworthy","","null","","","","feedback","","<div class='pointsDiv'><table width=550px><tr><td>Current Point Total: 163</td><td style='text-align:right'>Round #: 30</td></tr></table></div><div class='trialDiv'><img src='trustrating_stim/white_mw089.bmp'><br><font class='baseline'><strong>David</strong><p>Received: <strong>12</strong></font> &nbsp; &nbsp; &nbsp; &nbsp; &nbsp; &nbsp;<font class='negOutcome'>Shared back: <strong>0</strong></font><p><img src='img/responseButtonOffersNo0_wht.png' class='respPic'></p></font></div>","null","8","David","trustrating_stim/white_mw089.bmp","Kept","0.2,0.6","11","0.2","163","30"
"html-keyboard-response","186","480849","0.0-18.0-1.30","testing","bdp_trlrn","Wed Dec 09 2020 22:06:48 GMT-0500 (Eastern Standard Time)","792853","Untrustworthy,Trustworthy","","1129","","","","decision","","<div class='pointsDiv'><table width=550px><tr><td>Current Point Total: 168</td><td style='text-align:right'>Round #: 31</td></tr></table></div><div class='trialDiv'><img src='trustrating_stim/white_mw046.bmp'><br><font class='baseline'><strong>Caleb</strong><p>Choose number of points to send.</font><p><img src='img/responseButtonOffersNo0L.png' class='respPic'></p></div>","1","8","Caleb","trustrating_stim/white_mw046.bmp","Shared","0.8,0.4","9","0.8","168","31"
"html-keyboard-response","187","481851","0.0-18.0-2.30","testing","bdp_trlrn","Wed Dec 09 2020 22:06:48 GMT-0500 (Eastern Standard Time)","792853","Untrustworthy,Trustworthy","","null","","","","decisionFB","","<div class='pointsDiv'><table width=550px><tr><td>Current Point Total: 167</td><td style='text-align:right'>Round #: 31</td></tr></table></div><div class='trialDiv'><img src='trustrating_stim/white_mw046.bmp'><br><font class='baseline'><strong>Caleb</strong><p>Choose number of points to send.</font><p><img src='img/responseButtonOffersNo0L1.png' class='respPic'></p></div>","null","8","Caleb","trustrating_stim/white_mw046.bmp","Shared","0.8,0.4","9","0.8","167","31"
"html-keyboard-response","188","483858","0.0-18.0-3.30","testing","bdp_trlrn","Wed Dec 09 2020 22:06:48 GMT-0500 (Eastern Standard Time)","792853","Untrustworthy,Trustworthy","","null","","","","feedback","","<div class='pointsDiv'><table width=550px><tr><td>Current Point Total: 169</td><td style='text-align:right'>Round #: 31</td></tr></table></div><div class='trialDiv'><img src='trustrating_stim/white_mw046.bmp'><br><font class='baseline'><strong>Caleb</strong><p>Received: <strong>4</strong></font> &nbsp; &nbsp; &nbsp; &nbsp; &nbsp; &nbsp;<font class='posOutcome'>Shared back: <strong>2</strong></font><p><img src='img/responseButtonOffersNo0_wht.png' class='respPic'></p></font></div>","null","8","Caleb","trustrating_stim/white_mw046.bmp","Shared","0.8,0.4","9","0.8","169","31"
"html-keyboard-response","189","485346","0.0-18.0-1.31","testing","bdp_trlrn","Wed Dec 09 2020 22:06:48 GMT-0500 (Eastern Standard Time)","792853","Untrustworthy,Trustworthy","","1487","","","","decision","","<div class='pointsDiv'><table width=550px><tr><td>Current Point Total: 174</td><td style='text-align:right'>Round #: 32</td></tr></table></div><div class='trialDiv'><img src='trustrating_stim/white_mw099.bmp'><br><font class='baseline'><strong>Brian</strong><p>Choose number of points to send.</font><p><img src='img/responseButtonOffersNo0L.png' class='respPic'></p></div>","3","8","Brian","trustrating_stim/white_mw099.bmp","Kept","0.4,0.8","14","0.4","174","32"
"html-keyboard-response","190","486350","0.0-18.0-2.31","testing","bdp_trlrn","Wed Dec 09 2020 22:06:48 GMT-0500 (Eastern Standard Time)","792853","Untrustworthy,Trustworthy","","null","","","","decisionFB","","<div class='pointsDiv'><table width=550px><tr><td>Current Point Total: 171</td><td style='text-align:right'>Round #: 32</td></tr></table></div><div class='trialDiv'><img src='trustrating_stim/white_mw099.bmp'><br><font class='baseline'><strong>Brian</strong><p>Choose number of points to send.</font><p><img src='img/responseButtonOffersNo0L3.png' class='respPic'></p></div>","null","8","Brian","trustrating_stim/white_mw099.bmp","Kept","0.4,0.8","14","0.4","171","32"
"html-keyboard-response","191","488357","0.0-18.0-3.31","testing","bdp_trlrn","Wed Dec 09 2020 22:06:48 GMT-0500 (Eastern Standard Time)","792853","Untrustworthy,Trustworthy","","null","","","","feedback","","<div class='pointsDiv'><table width=550px><tr><td>Current Point Total: 171</td><td style='text-align:right'>Round #: 32</td></tr></table></div><div class='trialDiv'><img src='trustrating_stim/white_mw099.bmp'><br><font class='baseline'><strong>Brian</strong><p>Received: <strong>12</strong></font> &nbsp; &nbsp; &nbsp; &nbsp; &nbsp; &nbsp;<font class='negOutcome'>Shared back: <strong>0</strong></font><p><img src='img/responseButtonOffersNo0_wht.png' class='respPic'></p></font></div>","null","8","Brian","trustrating_stim/white_mw099.bmp","Kept","0.4,0.8","14","0.4","171","32"
"html-keyboard-response","192","489451","0.0-18.0-1.32","testing","bdp_trlrn","Wed Dec 09 2020 22:06:48 GMT-0500 (Eastern Standard Time)","792853","Untrustworthy,Trustworthy","","1093","","","","decision","","<div class='pointsDiv'><table width=550px><tr><td>Current Point Total: 176</td><td style='text-align:right'>Round #: 33</td></tr></table></div><div class='trialDiv'><img src='trustrating_stim/white_mw046.bmp'><br><font class='baseline'><strong>Caleb</strong><p>Choose number of points to send.</font><p><img src='img/responseButtonOffersNo0L.png' class='respPic'></p></div>","2","9","Caleb","trustrating_stim/white_mw046.bmp","Kept","0.8,0.4","9","0.8","176","33"
