"trial_type","trial_index","time_elapsed","internal_node_id","subject_id","task","startTime","totalTime","labels","view_history","rt","event","trial","time","trialtype","success","stimulus","key_press","aground","name","face","outcome","agenttype","agentswpt","agentcurrpshare","point_total","round"
"pavlovia","0","7","0.0-0.0","testing","bdp_trlrn","Fri Dec 11 2020 17:31:23 GMT-0500 (Eastern Standard Time)","787149","Untrustworthy,Trustworthy","","","","","","","","","","","","","","","","","",""
"instructions","1","1952","0.0-1.0","testing","bdp_trlrn","Fri Dec 11 2020 17:31:23 GMT-0500 (Eastern Standard Time)","787149","Untrustworthy,Trustworthy","[{""page_index"":0,""viewing_time"":1945}]","1945","","","","","","","","","","","","","","","",""
"","","","","testing","bdp_trlrn","Fri Dec 11 2020 17:31:23 GMT-0500 (Eastern Standard Time)","787149","Untrustworthy,Trustworthy","","","fullscreenenter","2","4398","fullscreenenter","","","","","","","","","","","",""
"fullscreen","2","5388","0.0-2.0","testing","bdp_trlrn","Fri Dec 11 2020 17:31:23 GMT-0500 (Eastern Standard Time)","787149","Untrustworthy,Trustworthy","","","","","","","true","","","","","","","","","","",""
"instructions","3","20586","0.0-4.0","testing","bdp_trlrn","Fri Dec 11 2020 17:31:23 GMT-0500 (Eastern Standard Time)","787149","Untrustworthy,Trustworthy","[{""page_index"":0,""viewing_time"":9507},{""page_index"":1,""viewing_time"":5689}]","15196","","","","","","","","","","","","","","","",""
"instructions","4","21616","0.0-5.0","testing","bdp_trlrn","Fri Dec 11 2020 17:31:23 GMT-0500 (Eastern Standard Time)","787149","Untrustworthy,Trustworthy","[{""page_index"":0,""viewing_time"":1029}]","1029","","","","","","","","","","","","","","","",""
"image-keyboard-response","5","27249","0.0-6.0-1.0","testing","bdp_trlrn","Fri Dec 11 2020 17:31:23 GMT-0500 (Eastern Standard Time)","787149","Untrustworthy,Trustworthy","","5528","","","","rating","","trustrating_stim/white_mw046.bmp","5","","","","","","","","",""
"image-keyboard-response","6","27455","0.0-6.0-2.0","testing","bdp_trlrn","Fri Dec 11 2020 17:31:23 GMT-0500 (Eastern Standard Time)","787149","Untrustworthy,Trustworthy","","null","","","","ratingFB","","trustrating_stim/white_mw046.bmp","null","","","","","","","","",""
"image-keyboard-response","7","31767","0.0-6.0-1.1","testing","bdp_trlrn","Fri Dec 11 2020 17:31:23 GMT-0500 (Eastern Standard Time)","787149","Untrustworthy,Trustworthy","","4208","","","","rating","","trustrating_stim/white_mw019.bmp","7","","","","","","","","",""
"image-keyboard-response","8","31971","0.0-6.0-2.1","testing","bdp_trlrn","Fri Dec 11 2020 17:31:23 GMT-0500 (Eastern Standard Time)","787149","Untrustworthy,Trustworthy","","null","","","","ratingFB","","trustrating_stim/white_mw019.bmp","null","","","","","","","","",""
"image-keyboard-response","9","34125","0.0-6.0-1.2","testing","bdp_trlrn","Fri Dec 11 2020 17:31:23 GMT-0500 (Eastern Standard Time)","787149","Untrustworthy,Trustworthy","","2052","","","","rating","","trustrating_stim/white_mw006.bmp","6","","","","","","","","",""
"image-keyboard-response","10","34329","0.0-6.0-2.2","testing","bdp_trlrn","Fri Dec 11 2020 17:31:23 GMT-0500 (Eastern Standard Time)","787149","Untrustworthy,Trustworthy","","null","","","","ratingFB","","trustrating_stim/white_mw006.bmp","null","","","","","","","","",""
"image-keyboard-response","11","36076","0.0-6.0-1.3","testing","bdp_trlrn","Fri Dec 11 2020 17:31:23 GMT-0500 (Eastern Standard Time)","787149","Untrustworthy,Trustworthy","","1645","","","","rating","","trustrating_stim/white_mw012.bmp","6","","","","","","","","",""
"image-keyboard-response","12","36277","0.0-6.0-2.3","testing","bdp_trlrn","Fri Dec 11 2020 17:31:23 GMT-0500 (Eastern Standard Time)","787149","Untrustworthy,Trustworthy","","null","","","","ratingFB","","trustrating_stim/white_mw012.bmp","null","","","","","","","","",""
"image-keyboard-response","13","39612","0.0-6.0-1.4","testing","bdp_trlrn","Fri Dec 11 2020 17:31:23 GMT-0500 (Eastern Standard Time)","787149","Untrustworthy,Trustworthy","","3230","","","","rating","","trustrating_stim/white_00109_931230_fa_edt.bmp","6","","","","","","","","",""
"image-keyboard-response","14","39818","0.0-6.0-2.4","testing","bdp_trlrn","Fri Dec 11 2020 17:31:23 GMT-0500 (Eastern Standard Time)","787149","Untrustworthy,Trustworthy","","null","","","","ratingFB","","trustrating_stim/white_00109_931230_fa_edt.bmp","null","","","","","","","","",""
"image-keyboard-response","15","42148","0.0-6.0-1.5","testing","bdp_trlrn","Fri Dec 11 2020 17:31:23 GMT-0500 (Eastern Standard Time)","787149","Untrustworthy,Trustworthy","","2226","","","","rating","","trustrating_stim/white_mw004.bmp","5","","","","","","","","",""
"image-keyboard-response","16","42349","0.0-6.0-2.5","testing","bdp_trlrn","Fri Dec 11 2020 17:31:23 GMT-0500 (Eastern Standard Time)","787149","Untrustworthy,Trustworthy","","null","","","","ratingFB","","trustrating_stim/white_mw004.bmp","null","","","","","","","","",""
"image-keyboard-response","17","43860","0.0-6.0-1.6","testing","bdp_trlrn","Fri Dec 11 2020 17:31:23 GMT-0500 (Eastern Standard Time)","787149","Untrustworthy,Trustworthy","","1408","","","","rating","","trustrating_stim/white_mw058.bmp","5","","","","","","","","",""
"image-keyboard-response","18","44061","0.0-6.0-2.6","testing","bdp_trlrn","Fri Dec 11 2020 17:31:23 GMT-0500 (Eastern Standard Time)","787149","Untrustworthy,Trustworthy","","null","","","","ratingFB","","trustrating_stim/white_mw058.bmp","null","","","","","","","","",""
"image-keyboard-response","19","45835","0.0-6.0-1.7","testing","bdp_trlrn","Fri Dec 11 2020 17:31:23 GMT-0500 (Eastern Standard Time)","787149","Untrustworthy,Trustworthy","","1672","","","","rating","","trustrating_stim/white_mw016.bmp","4","","","","","","","","",""
"image-keyboard-response","20","46037","0.0-6.0-2.7","testing","bdp_trlrn","Fri Dec 11 2020 17:31:23 GMT-0500 (Eastern Standard Time)","787149","Untrustworthy,Trustworthy","","null","","","","ratingFB","","trustrating_stim/white_mw016.bmp","null","","","","","","","","",""
"image-keyboard-response","21","48376","0.0-6.0-1.8","testing","bdp_trlrn","Fri Dec 11 2020 17:31:23 GMT-0500 (Eastern Standard Time)","787149","Untrustworthy,Trustworthy","","2238","","","","rating","","trustrating_stim/white_mw071.bmp","5","","","","","","","","",""
"image-keyboard-response","22","48580","0.0-6.0-2.8","testing","bdp_trlrn","Fri Dec 11 2020 17:31:23 GMT-0500 (Eastern Standard Time)","787149","Untrustworthy,Trustworthy","","null","","","","ratingFB","","trustrating_stim/white_mw071.bmp","null","","","","","","","","",""
"image-keyboard-response","23","50496","0.0-6.0-1.9","testing","bdp_trlrn","Fri Dec 11 2020 17:31:23 GMT-0500 (Eastern Standard Time)","787149","Untrustworthy,Trustworthy","","1814","","","","rating","","trustrating_stim/white_mw044.bmp","5","","","","","","","","",""
"image-keyboard-response","24","50701","0.0-6.0-2.9","testing","bdp_trlrn","Fri Dec 11 2020 17:31:23 GMT-0500 (Eastern Standard Time)","787149","Untrustworthy,Trustworthy","","null","","","","ratingFB","","trustrating_stim/white_mw044.bmp","null","","","","","","","","",""
"image-keyboard-response","25","52072","0.0-6.0-1.10","testing","bdp_trlrn","Fri Dec 11 2020 17:31:23 GMT-0500 (Eastern Standard Time)","787149","Untrustworthy,Trustworthy","","1267","","","","rating","","trustrating_stim/white_00120_931230_fa_edt.bmp","5","","","","","","","","",""
"image-keyboard-response","26","52276","0.0-6.0-2.10","testing","bdp_trlrn","Fri Dec 11 2020 17:31:23 GMT-0500 (Eastern Standard Time)","787149","Untrustworthy,Trustworthy","","null","","","","ratingFB","","trustrating_stim/white_00120_931230_fa_edt.bmp","null","","","","","","","","",""
"image-keyboard-response","27","53724","0.0-6.0-1.11","testing","bdp_trlrn","Fri Dec 11 2020 17:31:23 GMT-0500 (Eastern Standard Time)","787149","Untrustworthy,Trustworthy","","1344","","","","rating","","trustrating_stim/white_mw025.bmp","5","","","","","","","","",""
"image-keyboard-response","28","53926","0.0-6.0-2.11","testing","bdp_trlrn","Fri Dec 11 2020 17:31:23 GMT-0500 (Eastern Standard Time)","787149","Untrustworthy,Trustworthy","","null","","","","ratingFB","","trustrating_stim/white_mw025.bmp","null","","","","","","","","",""
"image-keyboard-response","29","55215","0.0-6.0-1.12","testing","bdp_trlrn","Fri Dec 11 2020 17:31:23 GMT-0500 (Eastern Standard Time)","787149","Untrustworthy,Trustworthy","","1187","","","","rating","","trustrating_stim/white_mw054.bmp","5","","","","","","","","",""
"image-keyboard-response","30","55417","0.0-6.0-2.12","testing","bdp_trlrn","Fri Dec 11 2020 17:31:23 GMT-0500 (Eastern Standard Time)","787149","Untrustworthy,Trustworthy","","null","","","","ratingFB","","trustrating_stim/white_mw054.bmp","null","","","","","","","","",""
"image-keyboard-response","31","57421","0.0-6.0-1.13","testing","bdp_trlrn","Fri Dec 11 2020 17:31:23 GMT-0500 (Eastern Standard Time)","787149","Untrustworthy,Trustworthy","","1900","","","","rating","","trustrating_stim/white_mw080.bmp","3","","","","","","","","",""
"image-keyboard-response","32","57624","0.0-6.0-2.13","testing","bdp_trlrn","Fri Dec 11 2020 17:31:23 GMT-0500 (Eastern Standard Time)","787149","Untrustworthy,Trustworthy","","null","","","","ratingFB","","trustrating_stim/white_mw080.bmp","null","","","","","","","","",""
"image-keyboard-response","33","59881","0.0-6.0-1.14","testing","bdp_trlrn","Fri Dec 11 2020 17:31:23 GMT-0500 (Eastern Standard Time)","787149","Untrustworthy,Trustworthy","","2155","","","","rating","","trustrating_stim/white_mw051.bmp","5","","","","","","","","",""
"image-keyboard-response","34","60083","0.0-6.0-2.14","testing","bdp_trlrn","Fri Dec 11 2020 17:31:23 GMT-0500 (Eastern Standard Time)","787149","Untrustworthy,Trustworthy","","null","","","","ratingFB","","trustrating_stim/white_mw051.bmp","null","","","","","","","","",""
"image-keyboard-response","35","62531","0.0-6.0-1.15","testing","bdp_trlrn","Fri Dec 11 2020 17:31:23 GMT-0500 (Eastern Standard Time)","787149","Untrustworthy,Trustworthy","","2346","","","","rating","","trustrating_stim/white_mw072.bmp","5","","","","","","","","",""
"image-keyboard-response","36","62734","0.0-6.0-2.15","testing","bdp_trlrn","Fri Dec 11 2020 17:31:23 GMT-0500 (Eastern Standard Time)","787149","Untrustworthy,Trustworthy","","null","","","","ratingFB","","trustrating_stim/white_mw072.bmp","null","","","","","","","","",""
"image-keyboard-response","37","65261","0.0-6.0-1.16","testing","bdp_trlrn","Fri Dec 11 2020 17:31:23 GMT-0500 (Eastern Standard Time)","787149","Untrustworthy,Trustworthy","","2423","","","","rating","","trustrating_stim/white_mw089.bmp","3","","","","","","","","",""
"image-keyboard-response","38","65465","0.0-6.0-2.16","testing","bdp_trlrn","Fri Dec 11 2020 17:31:23 GMT-0500 (Eastern Standard Time)","787149","Untrustworthy,Trustworthy","","null","","","","ratingFB","","trustrating_stim/white_mw089.bmp","null","","","","","","","","",""
"image-keyboard-response","39","67151","0.0-6.0-1.17","testing","bdp_trlrn","Fri Dec 11 2020 17:31:23 GMT-0500 (Eastern Standard Time)","787149","Untrustworthy,Trustworthy","","1581","","","","rating","","trustrating_stim/white_mw082.bmp","5","","","","","","","","",""
"image-keyboard-response","40","67353","0.0-6.0-2.17","testing","bdp_trlrn","Fri Dec 11 2020 17:31:23 GMT-0500 (Eastern Standard Time)","787149","Untrustworthy,Trustworthy","","null","","","","ratingFB","","trustrating_stim/white_mw082.bmp","null","","","","","","","","",""
"image-keyboard-response","41","69024","0.0-6.0-1.18","testing","bdp_trlrn","Fri Dec 11 2020 17:31:23 GMT-0500 (Eastern Standard Time)","787149","Untrustworthy,Trustworthy","","1569","","","","rating","","trustrating_stim/white_mw013.bmp","5","","","","","","","","",""
"image-keyboard-response","42","69226","0.0-6.0-2.18","testing","bdp_trlrn","Fri Dec 11 2020 17:31:23 GMT-0500 (Eastern Standard Time)","787149","Untrustworthy,Trustworthy","","null","","","","ratingFB","","trustrating_stim/white_mw013.bmp","null","","","","","","","","",""
"image-keyboard-response","43","71329","0.0-6.0-1.19","testing","bdp_trlrn","Fri Dec 11 2020 17:31:23 GMT-0500 (Eastern Standard Time)","787149","Untrustworthy,Trustworthy","","2001","","","","rating","","trustrating_stim/white_00897_960530_fb_edt.bmp","4","","","","","","","","",""
"image-keyboard-response","44","71531","0.0-6.0-2.19","testing","bdp_trlrn","Fri Dec 11 2020 17:31:23 GMT-0500 (Eastern Standard Time)","787149","Untrustworthy,Trustworthy","","null","","","","ratingFB","","trustrating_stim/white_00897_960530_fb_edt.bmp","null","","","","","","","","",""
"image-keyboard-response","45","73816","0.0-6.0-1.20","testing","bdp_trlrn","Fri Dec 11 2020 17:31:23 GMT-0500 (Eastern Standard Time)","787149","Untrustworthy,Trustworthy","","2181","","","","rating","","trustrating_stim/white_00253_940128_fa_edt.bmp","5","","","","","","","","",""
"image-keyboard-response","46","74022","0.0-6.0-2.20","testing","bdp_trlrn","Fri Dec 11 2020 17:31:23 GMT-0500 (Eastern Standard Time)","787149","Untrustworthy,Trustworthy","","null","","","","ratingFB","","trustrating_stim/white_00253_940128_fa_edt.bmp","null","","","","","","","","",""
"image-keyboard-response","47","75534","0.0-6.0-1.21","testing","bdp_trlrn","Fri Dec 11 2020 17:31:23 GMT-0500 (Eastern Standard Time)","787149","Untrustworthy,Trustworthy","","1410","","","","rating","","trustrating_stim/white_mw085.bmp","5","","","","","","","","",""
"image-keyboard-response","48","75738","0.0-6.0-2.21","testing","bdp_trlrn","Fri Dec 11 2020 17:31:23 GMT-0500 (Eastern Standard Time)","787149","Untrustworthy,Trustworthy","","null","","","","ratingFB","","trustrating_stim/white_mw085.bmp","null","","","","","","","","",""
"image-keyboard-response","49","76912","0.0-6.0-1.22","testing","bdp_trlrn","Fri Dec 11 2020 17:31:23 GMT-0500 (Eastern Standard Time)","787149","Untrustworthy,Trustworthy","","1071","","","","rating","","trustrating_stim/white_mw084.bmp","5","","","","","","","","",""
"image-keyboard-response","50","77113","0.0-6.0-2.22","testing","bdp_trlrn","Fri Dec 11 2020 17:31:23 GMT-0500 (Eastern Standard Time)","787149","Untrustworthy,Trustworthy","","null","","","","ratingFB","","trustrating_stim/white_mw084.bmp","null","","","","","","","","",""
"image-keyboard-response","51","78377","0.0-6.0-1.23","testing","bdp_trlrn","Fri Dec 11 2020 17:31:23 GMT-0500 (Eastern Standard Time)","787149","Untrustworthy,Trustworthy","","1160","","","","rating","","trustrating_stim/white_00960_960627_fb_edt.bmp","3","","","","","","","","",""
"image-keyboard-response","52","78580","0.0-6.0-2.23","testing","bdp_trlrn","Fri Dec 11 2020 17:31:23 GMT-0500 (Eastern Standard Time)","787149","Untrustworthy,Trustworthy","","null","","","","ratingFB","","trustrating_stim/white_00960_960627_fb_edt.bmp","null","","","","","","","","",""
"image-keyboard-response","53","79778","0.0-6.0-1.24","testing","bdp_trlrn","Fri Dec 11 2020 17:31:23 GMT-0500 (Eastern Standard Time)","787149","Untrustworthy,Trustworthy","","1095","","","","rating","","trustrating_stim/white_00785_941205_fb_edt.bmp","3","","","","","","","","",""
"image-keyboard-response","54","79980","0.0-6.0-2.24","testing","bdp_trlrn","Fri Dec 11 2020 17:31:23 GMT-0500 (Eastern Standard Time)","787149","Untrustworthy,Trustworthy","","null","","","","ratingFB","","trustrating_stim/white_00785_941205_fb_edt.bmp","null","","","","","","","","",""
"image-keyboard-response","55","82062","0.0-6.0-1.25","testing","bdp_trlrn","Fri Dec 11 2020 17:31:23 GMT-0500 (Eastern Standard Time)","787149","Untrustworthy,Trustworthy","","1977","","","","rating","","trustrating_stim/white_mw022.bmp","4","","","","","","","","",""
"image-keyboard-response","56","82265","0.0-6.0-2.25","testing","bdp_trlrn","Fri Dec 11 2020 17:31:23 GMT-0500 (Eastern Standard Time)","787149","Untrustworthy,Trustworthy","","null","","","","ratingFB","","trustrating_stim/white_mw022.bmp","null","","","","","","","","",""
"image-keyboard-response","57","83559","0.0-6.0-1.26","testing","bdp_trlrn","Fri Dec 11 2020 17:31:23 GMT-0500 (Eastern Standard Time)","787149","Untrustworthy,Trustworthy","","1192","","","","rating","","trustrating_stim/white_mw040.bmp","5","","","","","","","","",""
"image-keyboard-response","58","83765","0.0-6.0-2.26","testing","bdp_trlrn","Fri Dec 11 2020 17:31:23 GMT-0500 (Eastern Standard Time)","787149","Untrustworthy,Trustworthy","","null","","","","ratingFB","","trustrating_stim/white_mw040.bmp","null","","","","","","","","",""
"image-keyboard-response","59","85504","0.0-6.0-1.27","testing","bdp_trlrn","Fri Dec 11 2020 17:31:23 GMT-0500 (Eastern Standard Time)","787149","Untrustworthy,Trustworthy","","1632","","","","rating","","trustrating_stim/white_00757_941201_fa_edt.bmp","4","","","","","","","","",""
"image-keyboard-response","60","85709","0.0-6.0-2.27","testing","bdp_trlrn","Fri Dec 11 2020 17:31:23 GMT-0500 (Eastern Standard Time)","787149","Untrustworthy,Trustworthy","","null","","","","ratingFB","","trustrating_stim/white_00757_941201_fa_edt.bmp","null","","","","","","","","",""
"image-keyboard-response","61","88019","0.0-6.0-1.28","testing","bdp_trlrn","Fri Dec 11 2020 17:31:23 GMT-0500 (Eastern Standard Time)","787149","Untrustworthy,Trustworthy","","2204","","","","rating","","trustrating_stim/white_mw066.bmp","7","","","","","","","","",""
"image-keyboard-response","62","88225","0.0-6.0-2.28","testing","bdp_trlrn","Fri Dec 11 2020 17:31:23 GMT-0500 (Eastern Standard Time)","787149","Untrustworthy,Trustworthy","","null","","","","ratingFB","","trustrating_stim/white_mw066.bmp","null","","","","","","","","",""
"image-keyboard-response","63","89628","0.0-6.0-1.29","testing","bdp_trlrn","Fri Dec 11 2020 17:31:23 GMT-0500 (Eastern Standard Time)","787149","Untrustworthy,Trustworthy","","1300","","","","rating","","trustrating_stim/white_00602_940928_fb_edt.bmp","6","","","","","","","","",""
"image-keyboard-response","64","89830","0.0-6.0-2.29","testing","bdp_trlrn","Fri Dec 11 2020 17:31:23 GMT-0500 (Eastern Standard Time)","787149","Untrustworthy,Trustworthy","","null","","","","ratingFB","","trustrating_stim/white_00602_940928_fb_edt.bmp","null","","","","","","","","",""
"image-keyboard-response","65","91761","0.0-6.0-1.30","testing","bdp_trlrn","Fri Dec 11 2020 17:31:23 GMT-0500 (Eastern Standard Time)","787149","Untrustworthy,Trustworthy","","1825","","","","rating","","trustrating_stim/white_00658_941121_fb_edt.bmp","5","","","","","","","","",""
"image-keyboard-response","66","91964","0.0-6.0-2.30","testing","bdp_trlrn","Fri Dec 11 2020 17:31:23 GMT-0500 (Eastern Standard Time)","787149","Untrustworthy,Trustworthy","","null","","","","ratingFB","","trustrating_stim/white_00658_941121_fb_edt.bmp","null","","","","","","","","",""
"image-keyboard-response","67","93223","0.0-6.0-1.31","testing","bdp_trlrn","Fri Dec 11 2020 17:31:23 GMT-0500 (Eastern Standard Time)","787149","Untrustworthy,Trustworthy","","1157","","","","rating","","trustrating_stim/white_00223_940128_fb_edt.bmp","5","","","","","","","","",""
"image-keyboard-response","68","93426","0.0-6.0-2.31","testing","bdp_trlrn","Fri Dec 11 2020 17:31:23 GMT-0500 (Eastern Standard Time)","787149","Untrustworthy,Trustworthy","","null","","","","ratingFB","","trustrating_stim/white_00223_940128_fb_edt.bmp","null","","","","","","","","",""
"image-keyboard-response","69","96031","0.0-6.0-1.32","testing","bdp_trlrn","Fri Dec 11 2020 17:31:23 GMT-0500 (Eastern Standard Time)","787149","Untrustworthy,Trustworthy","","2500","","","","rating","","trustrating_stim/white_00807_941205_fb_edt.bmp","4","","","","","","","","",""
"image-keyboard-response","70","96233","0.0-6.0-2.32","testing","bdp_trlrn","Fri Dec 11 2020 17:31:23 GMT-0500 (Eastern Standard Time)","787149","Untrustworthy,Trustworthy","","null","","","","ratingFB","","trustrating_stim/white_00807_941205_fb_edt.bmp","null","","","","","","","","",""
"image-keyboard-response","71","98242","0.0-6.0-1.33","testing","bdp_trlrn","Fri Dec 11 2020 17:31:23 GMT-0500 (Eastern Standard Time)","787149","Untrustworthy,Trustworthy","","1907","","","","rating","","trustrating_stim/white_mw099.bmp","6","","","","","","","","",""
"image-keyboard-response","72","98444","0.0-6.0-2.33","testing","bdp_trlrn","Fri Dec 11 2020 17:31:23 GMT-0500 (Eastern Standard Time)","787149","Untrustworthy,Trustworthy","","null","","","","ratingFB","","trustrating_stim/white_mw099.bmp","null","","","","","","","","",""
"image-keyboard-response","73","99768","0.0-6.0-1.34","testing","bdp_trlrn","Fri Dec 11 2020 17:31:23 GMT-0500 (Eastern Standard Time)","787149","Untrustworthy,Trustworthy","","1220","","","","rating","","trustrating_stim/white_00657_941121_fa_edt.bmp","6","","","","","","","","",""
"image-keyboard-response","74","99971","0.0-6.0-2.34","testing","bdp_trlrn","Fri Dec 11 2020 17:31:23 GMT-0500 (Eastern Standard Time)","787149","Untrustworthy,Trustworthy","","null","","","","ratingFB","","trustrating_stim/white_00657_941121_fa_edt.bmp","null","","","","","","","","",""
"image-keyboard-response","75","101347","0.0-6.0-1.35","testing","bdp_trlrn","Fri Dec 11 2020 17:31:23 GMT-0500 (Eastern Standard Time)","787149","Untrustworthy,Trustworthy","","1275","","","","rating","","trustrating_stim/white_mw097.bmp","4","","","","","","","","",""
"image-keyboard-response","76","101550","0.0-6.0-2.35","testing","bdp_trlrn","Fri Dec 11 2020 17:31:23 GMT-0500 (Eastern Standard Time)","787149","Untrustworthy,Trustworthy","","null","","","","ratingFB","","trustrating_stim/white_mw097.bmp","null","","","","","","","","",""
"image-keyboard-response","77","103156","0.0-6.0-1.36","testing","bdp_trlrn","Fri Dec 11 2020 17:31:23 GMT-0500 (Eastern Standard Time)","787149","Untrustworthy,Trustworthy","","1503","","","","rating","","trustrating_stim/white_mw043.bmp","4","","","","","","","","",""
"image-keyboard-response","78","103358","0.0-6.0-2.36","testing","bdp_trlrn","Fri Dec 11 2020 17:31:23 GMT-0500 (Eastern Standard Time)","787149","Untrustworthy,Trustworthy","","null","","","","ratingFB","","trustrating_stim/white_mw043.bmp","null","","","","","","","","",""
"image-keyboard-response","79","104679","0.0-6.0-1.37","testing","bdp_trlrn","Fri Dec 11 2020 17:31:23 GMT-0500 (Eastern Standard Time)","787149","Untrustworthy,Trustworthy","","1218","","","","rating","","trustrating_stim/white_00761_941201_fb_edt.bmp","4","","","","","","","","",""
"image-keyboard-response","80","104882","0.0-6.0-2.37","testing","bdp_trlrn","Fri Dec 11 2020 17:31:23 GMT-0500 (Eastern Standard Time)","787149","Untrustworthy,Trustworthy","","null","","","","ratingFB","","trustrating_stim/white_00761_941201_fb_edt.bmp","null","","","","","","","","",""
"image-keyboard-response","81","107627","0.0-6.0-1.38","testing","bdp_trlrn","Fri Dec 11 2020 17:31:23 GMT-0500 (Eastern Standard Time)","787149","Untrustworthy,Trustworthy","","2643","","","","rating","","trustrating_stim/white_mw035.bmp","6","","","","","","","","",""
"image-keyboard-response","82","107832","0.0-6.0-2.38","testing","bdp_trlrn","Fri Dec 11 2020 17:31:23 GMT-0500 (Eastern Standard Time)","787149","Untrustworthy,Trustworthy","","null","","","","ratingFB","","trustrating_stim/white_mw035.bmp","null","","","","","","","","",""
"image-keyboard-response","83","109948","0.0-6.0-1.39","testing","bdp_trlrn","Fri Dec 11 2020 17:31:23 GMT-0500 (Eastern Standard Time)","787149","Untrustworthy,Trustworthy","","2015","","","","rating","","trustrating_stim/white_mw057.bmp","5","","","","","","","","",""
"image-keyboard-response","84","110150","0.0-6.0-2.39","testing","bdp_trlrn","Fri Dec 11 2020 17:31:23 GMT-0500 (Eastern Standard Time)","787149","Untrustworthy,Trustworthy","","null","","","","ratingFB","","trustrating_stim/white_mw057.bmp","null","","","","","","","","",""
"instructions","85","113246","0.0-7.0","testing","bdp_trlrn","Fri Dec 11 2020 17:31:23 GMT-0500 (Eastern Standard Time)","787149","Untrustworthy,Trustworthy","[{""page_index"":0,""viewing_time"":2991}]","2991","","","","","","","","","","","","","","","",""
"instructions","86","224144","0.0-8.0","testing","bdp_trlrn","Fri Dec 11 2020 17:31:23 GMT-0500 (Eastern Standard Time)","787149","Untrustworthy,Trustworthy","[{""page_index"":0,""viewing_time"":56211},{""page_index"":1,""viewing_time"":16630},{""page_index"":2,""viewing_time"":3797},{""page_index"":3,""viewing_time"":12956},{""page_index"":4,""viewing_time"":8244},{""page_index"":5,""viewing_time"":6405},{""page_index"":6,""viewing_time"":6548}]","110791","","","","","","","","","","","","","","","",""
"html-keyboard-response","87","235290","0.0-9.0","testing","bdp_trlrn","Fri Dec 11 2020 17:31:23 GMT-0500 (Eastern Standard Time)","787149","Untrustworthy,Trustworthy","","11145","","","","","","<div class='header' style='text-align:left; position: absolute; top: 5%; left: 5%;'><small>Task 3 of 4</small></div><div style='text-align:left; position: absolute; top: 10%; left: 20%; width: 60%'><p><strong>1) What is the minimum number of points you can choose to send to your partner?</strong></p><p>a) 0</p><p>b) 1</p><p>c) 5</p>","B","","","","","","","","",""
"html-keyboard-response","88","238132","0.0-10.0","testing","bdp_trlrn","Fri Dec 11 2020 17:31:23 GMT-0500 (Eastern Standard Time)","787149","Untrustworthy,Trustworthy","","2739","","","","","","<div class='header' style='text-align:left; position: absolute; top: 5%; left: 5%;'><small>Task 3 of 4</small></div><div style='text-align:left; position: absolute; top: 10%; left: 20%; width: 60%'><p><strong>1) What is the minimum number of points you can choose to send to your partner?</strong></p><p>a) 0</p><p style='color:#00FF00'>b) 1</p><p>c) 5</p><h3 style='color:#00FF00'>Correct!</h3><h3 class='center-content'>The correct response is b).</h3><h3 class='center-content'>The minimum number of points you can choose to send to your partner is 1 point.</h3><p><em>Press SPACEBAR to continue</em></p></div>"," ","","","","","","","","",""
"html-keyboard-response","89","242713","0.0-11.0","testing","bdp_trlrn","Fri Dec 11 2020 17:31:23 GMT-0500 (Eastern Standard Time)","787149","Untrustworthy,Trustworthy","","4477","","","","","","<div class='header' style='text-align:left; position: absolute; top: 5%; left: 5%;'><small>Task 3 of 4</small></div><div style='text-align:left; position: absolute; top: 10%; left: 20%; width: 60%'><p><strong>2) What is the maximum number of points you can choose to send to your partner?</strong></p><p>a) 8</p><p>b) 5</p><p>c) 3</p>","B","","","","","","","","",""
"html-keyboard-response","90","245306","0.0-12.0","testing","bdp_trlrn","Fri Dec 11 2020 17:31:23 GMT-0500 (Eastern Standard Time)","787149","Untrustworthy,Trustworthy","","2487","","","","","","<div class='header' style='text-align:left; position: absolute; top: 5%; left: 5%;'><small>Task 3 of 4</small></div><div style='text-align:left; position: absolute; top: 10%; left: 20%; width: 60%'><p><strong>2) What is the maximum number of points you can choose to send to your partner?</strong></p><p>a) 8</p><p style='color:#00FF00'>b) 5</p><p>c) 3</p><h3 style='color:#00FF00'>Correct!</h3><h3 class='center-content'>The correct response is b).</h3><h3 class='center-content'>The maximum number of points you can choose to send to your partner is 5 points.</h3><p><em>Press SPACEBAR to continue</em></p></div>"," ","","","","","","","","",""
"html-keyboard-response","91","253795","0.0-13.0","testing","bdp_trlrn","Fri Dec 11 2020 17:31:23 GMT-0500 (Eastern Standard Time)","787149","Untrustworthy,Trustworthy","","8385","","","","","","<div class='header' style='text-align:left; position: absolute; top: 5%; left: 5%;'><small>Task 3 of 4</small></div><div style='text-align:left; position: absolute; top: 10%; left: 20%; width: 60%'><p><strong>3) What happens to the amount of points you send to your partner?</strong></p><p>a) Nothing</p><p>b) It doubles</p><p>c) It quadruples</p>","C","","","","","","","","",""
"html-keyboard-response","92","255752","0.0-14.0","testing","bdp_trlrn","Fri Dec 11 2020 17:31:23 GMT-0500 (Eastern Standard Time)","787149","Untrustworthy,Trustworthy","","1855","","","","","","<div class='header' style='text-align:left; position: absolute; top: 5%; left: 5%;'><small>Task 3 of 4</small></div><div style='text-align:left; position: absolute; top: 10%; left: 20%; width: 60%'><p><strong>3) What happens to the amount of points you send to your partner?</strong></p><p>a) Nothing</p><p>b) It doubles</p><p style='color:#00FF00'>c) It quadruples</p><h3 style='color:#00FF00'>Correct!</h3><h3 class='center-content'>The correct response is c).</h3><h3 class='center-content'>The amount of points you send to your partner quadruples.</h3><p><em>Press SPACEBAR to continue</em></p></div>"," ","","","","","","","","",""
"html-keyboard-response","93","302437","0.0-15.0","testing","bdp_trlrn","Fri Dec 11 2020 17:31:23 GMT-0500 (Eastern Standard Time)","787149","Untrustworthy,Trustworthy","","46583","","","","","","<div class='header' style='text-align:left; position: absolute; top: 5%; left: 5%;'><small>Task 3 of 4</small></div><div style='text-align:left; position: absolute; top: 10%; left: 20%; width: 60%'><p><strong>4) If you decide to share 4 out of 5 points with your partner, and he decided to share half of what he received, how many points would you end up with in this round?</strong></p><p>a) 16</p><p>b) 0</p><p>c) 9</p>","C","","","","","","","","",""
"html-keyboard-response","94","303807","0.0-16.0","testing","bdp_trlrn","Fri Dec 11 2020 17:31:23 GMT-0500 (Eastern Standard Time)","787149","Untrustworthy,Trustworthy","","1265","","","","","","<div class='header' style='text-align:left; position: absolute; top: 5%; left: 5%;'><small>Task 3 of 4</small></div><div style='text-align:left; position: absolute; top: 10%; left: 20%; width: 60%'><p><strong>4) If you decide to share 4 points with your partner, and he decided to share half of what he received, how many points would you end up with in this round?</strong></p><p>a) 16</p><p>b) 0</p><p style='color:#00FF00'>c) 9</p><h3 style='color:#00FF00'>Correct!</h3><h3 class='center-content'>The correct response is c).</h3><h3 class='center-content'>If you share 4 out of 5 points with your partner and he decided to share half with you, you would receive 8 points back (i.e. (4 x 4)/2 = 8), totaling to 9 points altogether.</h3><p><em>Press SPACEBAR to continue</em></p></div>"," ","","","","","","","","",""
"instructions","95","305093","0.0-17.0","testing","bdp_trlrn","Fri Dec 11 2020 17:31:23 GMT-0500 (Eastern Standard Time)","787149","Untrustworthy,Trustworthy","[{""page_index"":0,""viewing_time"":1182}]","1182","","","","","","","","","","","","","","","",""
"html-keyboard-response","96","309249","0.0-18.0-1.0","testing","bdp_trlrn","Fri Dec 11 2020 17:31:23 GMT-0500 (Eastern Standard Time)","787149","Untrustworthy,Trustworthy","","4052","","","","decision","","<div class='pointsDiv'><table width=550px><tr><td>Current Point Total: 5</td><td style='text-align:right'>Round #: 1</td></tr></table></div><div class='trialDiv'><img src='trustrating_stim/white_mw099.bmp'><br><font class='baseline'><strong>Joseph</strong><p>Choose number of points to send.</font><p><img src='img/responseButtonOffersNo0L.png' class='respPic'></p></div>","3","1","Joseph","trustrating_stim/white_mw099.bmp","Shared","0.8,0.4","13","0.8","5","1"
"html-keyboard-response","97","310252","0.0-18.0-2.0","testing","bdp_trlrn","Fri Dec 11 2020 17:31:23 GMT-0500 (Eastern Standard Time)","787149","Untrustworthy,Trustworthy","","null","","","","decisionFB","","<div class='pointsDiv'><table width=550px><tr><td>Current Point Total: 2</td><td style='text-align:right'>Round #: 1</td></tr></table></div><div class='trialDiv'><img src='trustrating_stim/white_mw099.bmp'><br><font class='baseline'><strong>Joseph</strong><p>Choose number of points to send.</font><p><img src='img/responseButtonOffersNo0L3.png' class='respPic'></p></div>","null","1","Joseph","trustrating_stim/white_mw099.bmp","Shared","0.8,0.4","13","0.8","2","1"
"html-keyboard-response","98","312257","0.0-18.0-3.0","testing","bdp_trlrn","Fri Dec 11 2020 17:31:23 GMT-0500 (Eastern Standard Time)","787149","Untrustworthy,Trustworthy","","null","","","","feedback","","<div class='pointsDiv'><table width=550px><tr><td>Current Point Total: 8</td><td style='text-align:right'>Round #: 1</td></tr></table></div><div class='trialDiv'><img src='trustrating_stim/white_mw099.bmp'><br><font class='baseline'><strong>Joseph</strong><p>Received: <strong>12</strong></font> &nbsp; &nbsp; &nbsp; &nbsp; &nbsp; &nbsp;<font class='posOutcome'>Shared back: <strong>6</strong></font><p><img src='img/responseButtonOffersNo0_wht.png' class='respPic'></p></font></div>","null","1","Joseph","trustrating_stim/white_mw099.bmp","Shared","0.8,0.4","13","0.8","8","1"
"html-keyboard-response","99","315108","0.0-18.0-1.1","testing","bdp_trlrn","Fri Dec 11 2020 17:31:23 GMT-0500 (Eastern Standard Time)","787149","Untrustworthy,Trustworthy","","2848","","","","decision","","<div class='pointsDiv'><table width=550px><tr><td>Current Point Total: 13</td><td style='text-align:right'>Round #: 2</td></tr></table></div><div class='trialDiv'><img src='trustrating_stim/white_mw046.bmp'><br><font class='baseline'><strong>Benjamin</strong><p>Choose number of points to send.</font><p><img src='img/responseButtonOffersNo0L.png' class='respPic'></p></div>","2","1","Benjamin","trustrating_stim/white_mw046.bmp","Shared","0.2,0.6","10","0.2","13","2"
"html-keyboard-response","100","316114","0.0-18.0-2.1","testing","bdp_trlrn","Fri Dec 11 2020 17:31:23 GMT-0500 (Eastern Standard Time)","787149","Untrustworthy,Trustworthy","","null","","","","decisionFB","","<div class='pointsDiv'><table width=550px><tr><td>Current Point Total: 11</td><td style='text-align:right'>Round #: 2</td></tr></table></div><div class='trialDiv'><img src='trustrating_stim/white_mw046.bmp'><br><font class='baseline'><strong>Benjamin</strong><p>Choose number of points to send.</font><p><img src='img/responseButtonOffersNo0L2.png' class='respPic'></p></div>","null","1","Benjamin","trustrating_stim/white_mw046.bmp","Shared","0.2,0.6","10","0.2","11","2"
"html-keyboard-response","101","318117","0.0-18.0-3.1","testing","bdp_trlrn","Fri Dec 11 2020 17:31:23 GMT-0500 (Eastern Standard Time)","787149","Untrustworthy,Trustworthy","","null","","","","feedback","","<div class='pointsDiv'><table width=550px><tr><td>Current Point Total: 15</td><td style='text-align:right'>Round #: 2</td></tr></table></div><div class='trialDiv'><img src='trustrating_stim/white_mw046.bmp'><br><font class='baseline'><strong>Benjamin</strong><p>Received: <strong>8</strong></font> &nbsp; &nbsp; &nbsp; &nbsp; &nbsp; &nbsp;<font class='posOutcome'>Shared back: <strong>4</strong></font><p><img src='img/responseButtonOffersNo0_wht.png' class='respPic'></p></font></div>","null","1","Benjamin","trustrating_stim/white_mw046.bmp","Shared","0.2,0.6","10","0.2","15","2"
"html-keyboard-response","102","320855","0.0-18.0-1.2","testing","bdp_trlrn","Fri Dec 11 2020 17:31:23 GMT-0500 (Eastern Standard Time)","787149","Untrustworthy,Trustworthy","","2735","","","","decision","","<div class='pointsDiv'><table width=550px><tr><td>Current Point Total: 20</td><td style='text-align:right'>Round #: 3</td></tr></table></div><div class='trialDiv'><img src='trustrating_stim/white_00785_941205_fb_edt.bmp'><br><font class='baseline'><strong>Brian</strong><p>Choose number of points to send.</font><p><img src='img/responseButtonOffersNo0L.png' class='respPic'></p></div>","2","1","Brian","trustrating_stim/white_00785_941205_fb_edt.bmp","Shared","0.4,0.8","9","0.4","20","3"
"html-keyboard-response","103","321858","0.0-18.0-2.2","testing","bdp_trlrn","Fri Dec 11 2020 17:31:23 GMT-0500 (Eastern Standard Time)","787149","Untrustworthy,Trustworthy","","null","","","","decisionFB","","<div class='pointsDiv'><table width=550px><tr><td>Current Point Total: 18</td><td style='text-align:right'>Round #: 3</td></tr></table></div><div class='trialDiv'><img src='trustrating_stim/white_00785_941205_fb_edt.bmp'><br><font class='baseline'><strong>Brian</strong><p>Choose number of points to send.</font><p><img src='img/responseButtonOffersNo0L2.png' class='respPic'></p></div>","null","1","Brian","trustrating_stim/white_00785_941205_fb_edt.bmp","Shared","0.4,0.8","9","0.4","18","3"
"html-keyboard-response","104","323860","0.0-18.0-3.2","testing","bdp_trlrn","Fri Dec 11 2020 17:31:23 GMT-0500 (Eastern Standard Time)","787149","Untrustworthy,Trustworthy","","null","","","","feedback","","<div class='pointsDiv'><table width=550px><tr><td>Current Point Total: 22</td><td style='text-align:right'>Round #: 3</td></tr></table></div><div class='trialDiv'><img src='trustrating_stim/white_00785_941205_fb_edt.bmp'><br><font class='baseline'><strong>Brian</strong><p>Received: <strong>8</strong></font> &nbsp; &nbsp; &nbsp; &nbsp; &nbsp; &nbsp;<font class='posOutcome'>Shared back: <strong>4</strong></font><p><img src='img/responseButtonOffersNo0_wht.png' class='respPic'></p></font></div>","null","1","Brian","trustrating_stim/white_00785_941205_fb_edt.bmp","Shared","0.4,0.8","9","0.4","22","3"
"html-keyboard-response","105","324789","0.0-18.0-1.3","testing","bdp_trlrn","Fri Dec 11 2020 17:31:23 GMT-0500 (Eastern Standard Time)","787149","Untrustworthy,Trustworthy","","927","","","","decision","","<div class='pointsDiv'><table width=550px><tr><td>Current Point Total: 27</td><td style='text-align:right'>Round #: 4</td></tr></table></div><div class='trialDiv'><img src='trustrating_stim/white_mw035.bmp'><br><font class='baseline'><strong>Caleb</strong><p>Choose number of points to send.</font><p><img src='img/responseButtonOffersNo0L.png' class='respPic'></p></div>","3","1","Caleb","trustrating_stim/white_mw035.bmp","Shared","0.6,0.2","13","0.6","27","4"
"html-keyboard-response","106","325794","0.0-18.0-2.3","testing","bdp_trlrn","Fri Dec 11 2020 17:31:23 GMT-0500 (Eastern Standard Time)","787149","Untrustworthy,Trustworthy","","null","","","","decisionFB","","<div class='pointsDiv'><table width=550px><tr><td>Current Point Total: 24</td><td style='text-align:right'>Round #: 4</td></tr></table></div><div class='trialDiv'><img src='trustrating_stim/white_mw035.bmp'><br><font class='baseline'><strong>Caleb</strong><p>Choose number of points to send.</font><p><img src='img/responseButtonOffersNo0L3.png' class='respPic'></p></div>","null","1","Caleb","trustrating_stim/white_mw035.bmp","Shared","0.6,0.2","13","0.6","24","4"
"html-keyboard-response","107","327796","0.0-18.0-3.3","testing","bdp_trlrn","Fri Dec 11 2020 17:31:23 GMT-0500 (Eastern Standard Time)","787149","Untrustworthy,Trustworthy","","null","","","","feedback","","<div class='pointsDiv'><table width=550px><tr><td>Current Point Total: 30</td><td style='text-align:right'>Round #: 4</td></tr></table></div><div class='trialDiv'><img src='trustrating_stim/white_mw035.bmp'><br><font class='baseline'><strong>Caleb</strong><p>Received: <strong>12</strong></font> &nbsp; &nbsp; &nbsp; &nbsp; &nbsp; &nbsp;<font class='posOutcome'>Shared back: <strong>6</strong></font><p><img src='img/responseButtonOffersNo0_wht.png' class='respPic'></p></font></div>","null","1","Caleb","trustrating_stim/white_mw035.bmp","Shared","0.6,0.2","13","0.6","30","4"
"html-keyboard-response","108","329501","0.0-18.0-1.4","testing","bdp_trlrn","Fri Dec 11 2020 17:31:23 GMT-0500 (Eastern Standard Time)","787149","Untrustworthy,Trustworthy","","1702","","","","decision","","<div class='pointsDiv'><table width=550px><tr><td>Current Point Total: 35</td><td style='text-align:right'>Round #: 5</td></tr></table></div><div class='trialDiv'><img src='trustrating_stim/white_mw099.bmp'><br><font class='baseline'><strong>Joseph</strong><p>Choose number of points to send.</font><p><img src='img/responseButtonOffersNo0L.png' class='respPic'></p></div>","3","2","Joseph","trustrating_stim/white_mw099.bmp","Shared","0.8,0.4","13","0.8","35","5"
"html-keyboard-response","109","330504","0.0-18.0-2.4","testing","bdp_trlrn","Fri Dec 11 2020 17:31:23 GMT-0500 (Eastern Standard Time)","787149","Untrustworthy,Trustworthy","","null","","","","decisionFB","","<div class='pointsDiv'><table width=550px><tr><td>Current Point Total: 32</td><td style='text-align:right'>Round #: 5</td></tr></table></div><div class='trialDiv'><img src='trustrating_stim/white_mw099.bmp'><br><font class='baseline'><strong>Joseph</strong><p>Choose number of points to send.</font><p><img src='img/responseButtonOffersNo0L3.png' class='respPic'></p></div>","null","2","Joseph","trustrating_stim/white_mw099.bmp","Shared","0.8,0.4","13","0.8","32","5"
"html-keyboard-response","110","332508","0.0-18.0-3.4","testing","bdp_trlrn","Fri Dec 11 2020 17:31:23 GMT-0500 (Eastern Standard Time)","787149","Untrustworthy,Trustworthy","","null","","","","feedback","","<div class='pointsDiv'><table width=550px><tr><td>Current Point Total: 38</td><td style='text-align:right'>Round #: 5</td></tr></table></div><div class='trialDiv'><img src='trustrating_stim/white_mw099.bmp'><br><font class='baseline'><strong>Joseph</strong><p>Received: <strong>12</strong></font> &nbsp; &nbsp; &nbsp; &nbsp; &nbsp; &nbsp;<font class='posOutcome'>Shared back: <strong>6</strong></font><p><img src='img/responseButtonOffersNo0_wht.png' class='respPic'></p></font></div>","null","2","Joseph","trustrating_stim/white_mw099.bmp","Shared","0.8,0.4","13","0.8","38","5"
"html-keyboard-response","111","335154","0.0-18.0-1.5","testing","bdp_trlrn","Fri Dec 11 2020 17:31:23 GMT-0500 (Eastern Standard Time)","787149","Untrustworthy,Trustworthy","","2643","","","","decision","","<div class='pointsDiv'><table width=550px><tr><td>Current Point Total: 43</td><td style='text-align:right'>Round #: 6</td></tr></table></div><div class='trialDiv'><img src='trustrating_stim/white_mw035.bmp'><br><font class='baseline'><strong>Caleb</strong><p>Choose number of points to send.</font><p><img src='img/responseButtonOffersNo0L.png' class='respPic'></p></div>","3","2","Caleb","trustrating_stim/white_mw035.bmp","Kept","0.6,0.2","13","0.6","43","6"
"html-keyboard-response","112","336158","0.0-18.0-2.5","testing","bdp_trlrn","Fri Dec 11 2020 17:31:23 GMT-0500 (Eastern Standard Time)","787149","Untrustworthy,Trustworthy","","null","","","","decisionFB","","<div class='pointsDiv'><table width=550px><tr><td>Current Point Total: 40</td><td style='text-align:right'>Round #: 6</td></tr></table></div><div class='trialDiv'><img src='trustrating_stim/white_mw035.bmp'><br><font class='baseline'><strong>Caleb</strong><p>Choose number of points to send.</font><p><img src='img/responseButtonOffersNo0L3.png' class='respPic'></p></div>","null","2","Caleb","trustrating_stim/white_mw035.bmp","Kept","0.6,0.2","13","0.6","40","6"
"html-keyboard-response","113","338160","0.0-18.0-3.5","testing","bdp_trlrn","Fri Dec 11 2020 17:31:23 GMT-0500 (Eastern Standard Time)","787149","Untrustworthy,Trustworthy","","null","","","","feedback","","<div class='pointsDiv'><table width=550px><tr><td>Current Point Total: 40</td><td style='text-align:right'>Round #: 6</td></tr></table></div><div class='trialDiv'><img src='trustrating_stim/white_mw035.bmp'><br><font class='baseline'><strong>Caleb</strong><p>Received: <strong>12</strong></font> &nbsp; &nbsp; &nbsp; &nbsp; &nbsp; &nbsp;<font class='negOutcome'>Shared back: <strong>0</strong></font><p><img src='img/responseButtonOffersNo0_wht.png' class='respPic'></p></font></div>","null","2","Caleb","trustrating_stim/white_mw035.bmp","Kept","0.6,0.2","13","0.6","40","6"
"html-keyboard-response","114","341333","0.0-18.0-1.6","testing","bdp_trlrn","Fri Dec 11 2020 17:31:23 GMT-0500 (Eastern Standard Time)","787149","Untrustworthy,Trustworthy","","3171","","","","decision","","<div class='pointsDiv'><table width=550px><tr><td>Current Point Total: 45</td><td style='text-align:right'>Round #: 7</td></tr></table></div><div class='trialDiv'><img src='trustrating_stim/white_00785_941205_fb_edt.bmp'><br><font class='baseline'><strong>Brian</strong><p>Choose number of points to send.</font><p><img src='img/responseButtonOffersNo0L.png' class='respPic'></p></div>","2","2","Brian","trustrating_stim/white_00785_941205_fb_edt.bmp","Kept","0.4,0.8","9","0.4","45","7"
"html-keyboard-response","115","342335","0.0-18.0-2.6","testing","bdp_trlrn","Fri Dec 11 2020 17:31:23 GMT-0500 (Eastern Standard Time)","787149","Untrustworthy,Trustworthy","","null","","","","decisionFB","","<div class='pointsDiv'><table width=550px><tr><td>Current Point Total: 43</td><td style='text-align:right'>Round #: 7</td></tr></table></div><div class='trialDiv'><img src='trustrating_stim/white_00785_941205_fb_edt.bmp'><br><font class='baseline'><strong>Brian</strong><p>Choose number of points to send.</font><p><img src='img/responseButtonOffersNo0L2.png' class='respPic'></p></div>","null","2","Brian","trustrating_stim/white_00785_941205_fb_edt.bmp","Kept","0.4,0.8","9","0.4","43","7"
"html-keyboard-response","116","344337","0.0-18.0-3.6","testing","bdp_trlrn","Fri Dec 11 2020 17:31:23 GMT-0500 (Eastern Standard Time)","787149","Untrustworthy,Trustworthy","","null","","","","feedback","","<div class='pointsDiv'><table width=550px><tr><td>Current Point Total: 43</td><td style='text-align:right'>Round #: 7</td></tr></table></div><div class='trialDiv'><img src='trustrating_stim/white_00785_941205_fb_edt.bmp'><br><font class='baseline'><strong>Brian</strong><p>Received: <strong>8</strong></font> &nbsp; &nbsp; &nbsp; &nbsp; &nbsp; &nbsp;<font class='negOutcome'>Shared back: <strong>0</strong></font><p><img src='img/responseButtonOffersNo0_wht.png' class='respPic'></p></font></div>","null","2","Brian","trustrating_stim/white_00785_941205_fb_edt.bmp","Kept","0.4,0.8","9","0.4","43","7"
"html-keyboard-response","117","345635","0.0-18.0-1.7","testing","bdp_trlrn","Fri Dec 11 2020 17:31:23 GMT-0500 (Eastern Standard Time)","787149","Untrustworthy,Trustworthy","","1296","","","","decision","","<div class='pointsDiv'><table width=550px><tr><td>Current Point Total: 48</td><td style='text-align:right'>Round #: 8</td></tr></table></div><div class='trialDiv'><img src='trustrating_stim/white_mw046.bmp'><br><font class='baseline'><strong>Benjamin</strong><p>Choose number of points to send.</font><p><img src='img/responseButtonOffersNo0L.png' class='respPic'></p></div>","2","2","Benjamin","trustrating_stim/white_mw046.bmp","Kept","0.2,0.6","10","0.2","48","8"
"html-keyboard-response","118","346637","0.0-18.0-2.7","testing","bdp_trlrn","Fri Dec 11 2020 17:31:23 GMT-0500 (Eastern Standard Time)","787149","Untrustworthy,Trustworthy","","null","","","","decisionFB","","<div class='pointsDiv'><table width=550px><tr><td>Current Point Total: 46</td><td style='text-align:right'>Round #: 8</td></tr></table></div><div class='trialDiv'><img src='trustrating_stim/white_mw046.bmp'><br><font class='baseline'><strong>Benjamin</strong><p>Choose number of points to send.</font><p><img src='img/responseButtonOffersNo0L2.png' class='respPic'></p></div>","null","2","Benjamin","trustrating_stim/white_mw046.bmp","Kept","0.2,0.6","10","0.2","46","8"
"html-keyboard-response","119","348640","0.0-18.0-3.7","testing","bdp_trlrn","Fri Dec 11 2020 17:31:23 GMT-0500 (Eastern Standard Time)","787149","Untrustworthy,Trustworthy","","null","","","","feedback","","<div class='pointsDiv'><table width=550px><tr><td>Current Point Total: 46</td><td style='text-align:right'>Round #: 8</td></tr></table></div><div class='trialDiv'><img src='trustrating_stim/white_mw046.bmp'><br><font class='baseline'><strong>Benjamin</strong><p>Received: <strong>8</strong></font> &nbsp; &nbsp; &nbsp; &nbsp; &nbsp; &nbsp;<font class='negOutcome'>Shared back: <strong>0</strong></font><p><img src='img/responseButtonOffersNo0_wht.png' class='respPic'></p></font></div>","null","2","Benjamin","trustrating_stim/white_mw046.bmp","Kept","0.2,0.6","10","0.2","46","8"
"html-keyboard-response","120","350952","0.0-18.0-1.8","testing","bdp_trlrn","Fri Dec 11 2020 17:31:23 GMT-0500 (Eastern Standard Time)","787149","Untrustworthy,Trustworthy","","2311","","","","decision","","<div class='pointsDiv'><table width=550px><tr><td>Current Point Total: 51</td><td style='text-align:right'>Round #: 9</td></tr></table></div><div class='trialDiv'><img src='trustrating_stim/white_mw035.bmp'><br><font class='baseline'><strong>Caleb</strong><p>Choose number of points to send.</font><p><img src='img/responseButtonOffersNo0L.png' class='respPic'></p></div>","1","3","Caleb","trustrating_stim/white_mw035.bmp","Shared","0.6,0.2","13","0.6","51","9"
"html-keyboard-response","121","351955","0.0-18.0-2.8","testing","bdp_trlrn","Fri Dec 11 2020 17:31:23 GMT-0500 (Eastern Standard Time)","787149","Untrustworthy,Trustworthy","","null","","","","decisionFB","","<div class='pointsDiv'><table width=550px><tr><td>Current Point Total: 50</td><td style='text-align:right'>Round #: 9</td></tr></table></div><div class='trialDiv'><img src='trustrating_stim/white_mw035.bmp'><br><font class='baseline'><strong>Caleb</strong><p>Choose number of points to send.</font><p><img src='img/responseButtonOffersNo0L1.png' class='respPic'></p></div>","null","3","Caleb","trustrating_stim/white_mw035.bmp","Shared","0.6,0.2","13","0.6","50","9"
"html-keyboard-response","122","353960","0.0-18.0-3.8","testing","bdp_trlrn","Fri Dec 11 2020 17:31:23 GMT-0500 (Eastern Standard Time)","787149","Untrustworthy,Trustworthy","","null","","","","feedback","","<div class='pointsDiv'><table width=550px><tr><td>Current Point Total: 52</td><td style='text-align:right'>Round #: 9</td></tr></table></div><div class='trialDiv'><img src='trustrating_stim/white_mw035.bmp'><br><font class='baseline'><strong>Caleb</strong><p>Received: <strong>4</strong></font> &nbsp; &nbsp; &nbsp; &nbsp; &nbsp; &nbsp;<font class='posOutcome'>Shared back: <strong>2</strong></font><p><img src='img/responseButtonOffersNo0_wht.png' class='respPic'></p></font></div>","null","3","Caleb","trustrating_stim/white_mw035.bmp","Shared","0.6,0.2","13","0.6","52","9"
"html-keyboard-response","123","355817","0.0-18.0-1.9","testing","bdp_trlrn","Fri Dec 11 2020 17:31:23 GMT-0500 (Eastern Standard Time)","787149","Untrustworthy,Trustworthy","","1856","","","","decision","","<div class='pointsDiv'><table width=550px><tr><td>Current Point Total: 57</td><td style='text-align:right'>Round #: 10</td></tr></table></div><div class='trialDiv'><img src='trustrating_stim/white_mw099.bmp'><br><font class='baseline'><strong>Joseph</strong><p>Choose number of points to send.</font><p><img src='img/responseButtonOffersNo0L.png' class='respPic'></p></div>","3","3","Joseph","trustrating_stim/white_mw099.bmp","Kept","0.8,0.4","13","0.8","57","10"
"html-keyboard-response","124","356822","0.0-18.0-2.9","testing","bdp_trlrn","Fri Dec 11 2020 17:31:23 GMT-0500 (Eastern Standard Time)","787149","Untrustworthy,Trustworthy","","null","","","","decisionFB","","<div class='pointsDiv'><table width=550px><tr><td>Current Point Total: 54</td><td style='text-align:right'>Round #: 10</td></tr></table></div><div class='trialDiv'><img src='trustrating_stim/white_mw099.bmp'><br><font class='baseline'><strong>Joseph</strong><p>Choose number of points to send.</font><p><img src='img/responseButtonOffersNo0L3.png' class='respPic'></p></div>","null","3","Joseph","trustrating_stim/white_mw099.bmp","Kept","0.8,0.4","13","0.8","54","10"
"html-keyboard-response","125","358825","0.0-18.0-3.9","testing","bdp_trlrn","Fri Dec 11 2020 17:31:23 GMT-0500 (Eastern Standard Time)","787149","Untrustworthy,Trustworthy","","null","","","","feedback","","<div class='pointsDiv'><table width=550px><tr><td>Current Point Total: 54</td><td style='text-align:right'>Round #: 10</td></tr></table></div><div class='trialDiv'><img src='trustrating_stim/white_mw099.bmp'><br><font class='baseline'><strong>Joseph</strong><p>Received: <strong>12</strong></font> &nbsp; &nbsp; &nbsp; &nbsp; &nbsp; &nbsp;<font class='negOutcome'>Shared back: <strong>0</strong></font><p><img src='img/responseButtonOffersNo0_wht.png' class='respPic'></p></font></div>","null","3","Joseph","trustrating_stim/white_mw099.bmp","Kept","0.8,0.4","13","0.8","54","10"
"html-keyboard-response","126","361249","0.0-18.0-1.10","testing","bdp_trlrn","Fri Dec 11 2020 17:31:23 GMT-0500 (Eastern Standard Time)","787149","Untrustworthy,Trustworthy","","2423","","","","decision","","<div class='pointsDiv'><table width=550px><tr><td>Current Point Total: 59</td><td style='text-align:right'>Round #: 11</td></tr></table></div><div class='trialDiv'><img src='trustrating_stim/white_00785_941205_fb_edt.bmp'><br><font class='baseline'><strong>Brian</strong><p>Choose number of points to send.</font><p><img src='img/responseButtonOffersNo0L.png' class='respPic'></p></div>","1","3","Brian","trustrating_stim/white_00785_941205_fb_edt.bmp","Shared","0.4,0.8","9","0.4","59","11"
"html-keyboard-response","127","362253","0.0-18.0-2.10","testing","bdp_trlrn","Fri Dec 11 2020 17:31:23 GMT-0500 (Eastern Standard Time)","787149","Untrustworthy,Trustworthy","","null","","","","decisionFB","","<div class='pointsDiv'><table width=550px><tr><td>Current Point Total: 58</td><td style='text-align:right'>Round #: 11</td></tr></table></div><div class='trialDiv'><img src='trustrating_stim/white_00785_941205_fb_edt.bmp'><br><font class='baseline'><strong>Brian</strong><p>Choose number of points to send.</font><p><img src='img/responseButtonOffersNo0L1.png' class='respPic'></p></div>","null","3","Brian","trustrating_stim/white_00785_941205_fb_edt.bmp","Shared","0.4,0.8","9","0.4","58","11"
"html-keyboard-response","128","364258","0.0-18.0-3.10","testing","bdp_trlrn","Fri Dec 11 2020 17:31:23 GMT-0500 (Eastern Standard Time)","787149","Untrustworthy,Trustworthy","","null","","","","feedback","","<div class='pointsDiv'><table width=550px><tr><td>Current Point Total: 60</td><td style='text-align:right'>Round #: 11</td></tr></table></div><div class='trialDiv'><img src='trustrating_stim/white_00785_941205_fb_edt.bmp'><br><font class='baseline'><strong>Brian</strong><p>Received: <strong>4</strong></font> &nbsp; &nbsp; &nbsp; &nbsp; &nbsp; &nbsp;<font class='posOutcome'>Shared back: <strong>2</strong></font><p><img src='img/responseButtonOffersNo0_wht.png' class='respPic'></p></font></div>","null","3","Brian","trustrating_stim/white_00785_941205_fb_edt.bmp","Shared","0.4,0.8","9","0.4","60","11"
"html-keyboard-response","129","365187","0.0-18.0-1.11","testing","bdp_trlrn","Fri Dec 11 2020 17:31:23 GMT-0500 (Eastern Standard Time)","787149","Untrustworthy,Trustworthy","","928","","","","decision","","<div class='pointsDiv'><table width=550px><tr><td>Current Point Total: 65</td><td style='text-align:right'>Round #: 12</td></tr></table></div><div class='trialDiv'><img src='trustrating_stim/white_mw046.bmp'><br><font class='baseline'><strong>Benjamin</strong><p>Choose number of points to send.</font><p><img src='img/responseButtonOffersNo0L.png' class='respPic'></p></div>","1","3","Benjamin","trustrating_stim/white_mw046.bmp","Kept","0.2,0.6","10","0.2","65","12"
"html-keyboard-response","130","366189","0.0-18.0-2.11","testing","bdp_trlrn","Fri Dec 11 2020 17:31:23 GMT-0500 (Eastern Standard Time)","787149","Untrustworthy,Trustworthy","","null","","","","decisionFB","","<div class='pointsDiv'><table width=550px><tr><td>Current Point Total: 64</td><td style='text-align:right'>Round #: 12</td></tr></table></div><div class='trialDiv'><img src='trustrating_stim/white_mw046.bmp'><br><font class='baseline'><strong>Benjamin</strong><p>Choose number of points to send.</font><p><img src='img/responseButtonOffersNo0L1.png' class='respPic'></p></div>","null","3","Benjamin","trustrating_stim/white_mw046.bmp","Kept","0.2,0.6","10","0.2","64","12"
"html-keyboard-response","131","368194","0.0-18.0-3.11","testing","bdp_trlrn","Fri Dec 11 2020 17:31:23 GMT-0500 (Eastern Standard Time)","787149","Untrustworthy,Trustworthy","","null","","","","feedback","","<div class='pointsDiv'><table width=550px><tr><td>Current Point Total: 64</td><td style='text-align:right'>Round #: 12</td></tr></table></div><div class='trialDiv'><img src='trustrating_stim/white_mw046.bmp'><br><font class='baseline'><strong>Benjamin</strong><p>Received: <strong>4</strong></font> &nbsp; &nbsp; &nbsp; &nbsp; &nbsp; &nbsp;<font class='negOutcome'>Shared back: <strong>0</strong></font><p><img src='img/responseButtonOffersNo0_wht.png' class='respPic'></p></font></div>","null","3","Benjamin","trustrating_stim/white_mw046.bmp","Kept","0.2,0.6","10","0.2","64","12"
"html-keyboard-response","132","369112","0.0-18.0-1.12","testing","bdp_trlrn","Fri Dec 11 2020 17:31:23 GMT-0500 (Eastern Standard Time)","787149","Untrustworthy,Trustworthy","","916","","","","decision","","<div class='pointsDiv'><table width=550px><tr><td>Current Point Total: 69</td><td style='text-align:right'>Round #: 13</td></tr></table></div><div class='trialDiv'><img src='trustrating_stim/white_mw035.bmp'><br><font class='baseline'><strong>Caleb</strong><p>Choose number of points to send.</font><p><img src='img/responseButtonOffersNo0L.png' class='respPic'></p></div>","1","4","Caleb","trustrating_stim/white_mw035.bmp","Kept","0.6,0.2","13","0.6","69","13"
"html-keyboard-response","133","370114","0.0-18.0-2.12","testing","bdp_trlrn","Fri Dec 11 2020 17:31:23 GMT-0500 (Eastern Standard Time)","787149","Untrustworthy,Trustworthy","","null","","","","decisionFB","","<div class='pointsDiv'><table width=550px><tr><td>Current Point Total: 68</td><td style='text-align:right'>Round #: 13</td></tr></table></div><div class='trialDiv'><img src='trustrating_stim/white_mw035.bmp'><br><font class='baseline'><strong>Caleb</strong><p>Choose number of points to send.</font><p><img src='img/responseButtonOffersNo0L1.png' class='respPic'></p></div>","null","4","Caleb","trustrating_stim/white_mw035.bmp","Kept","0.6,0.2","13","0.6","68","13"
"html-keyboard-response","134","372115","0.0-18.0-3.12","testing","bdp_trlrn","Fri Dec 11 2020 17:31:23 GMT-0500 (Eastern Standard Time)","787149","Untrustworthy,Trustworthy","","null","","","","feedback","","<div class='pointsDiv'><table width=550px><tr><td>Current Point Total: 68</td><td style='text-align:right'>Round #: 13</td></tr></table></div><div class='trialDiv'><img src='trustrating_stim/white_mw035.bmp'><br><font class='baseline'><strong>Caleb</strong><p>Received: <strong>4</strong></font> &nbsp; &nbsp; &nbsp; &nbsp; &nbsp; &nbsp;<font class='negOutcome'>Shared back: <strong>0</strong></font><p><img src='img/responseButtonOffersNo0_wht.png' class='respPic'></p></font></div>","null","4","Caleb","trustrating_stim/white_mw035.bmp","Kept","0.6,0.2","13","0.6","68","13"
"html-keyboard-response","135","373242","0.0-18.0-1.13","testing","bdp_trlrn","Fri Dec 11 2020 17:31:23 GMT-0500 (Eastern Standard Time)","787149","Untrustworthy,Trustworthy","","1125","","","","decision","","<div class='pointsDiv'><table width=550px><tr><td>Current Point Total: 73</td><td style='text-align:right'>Round #: 14</td></tr></table></div><div class='trialDiv'><img src='trustrating_stim/white_00785_941205_fb_edt.bmp'><br><font class='baseline'><strong>Brian</strong><p>Choose number of points to send.</font><p><img src='img/responseButtonOffersNo0L.png' class='respPic'></p></div>","1","4","Brian","trustrating_stim/white_00785_941205_fb_edt.bmp","Kept","0.4,0.8","9","0.4","73","14"
"html-keyboard-response","136","374244","0.0-18.0-2.13","testing","bdp_trlrn","Fri Dec 11 2020 17:31:23 GMT-0500 (Eastern Standard Time)","787149","Untrustworthy,Trustworthy","","null","","","","decisionFB","","<div class='pointsDiv'><table width=550px><tr><td>Current Point Total: 72</td><td style='text-align:right'>Round #: 14</td></tr></table></div><div class='trialDiv'><img src='trustrating_stim/white_00785_941205_fb_edt.bmp'><br><font class='baseline'><strong>Brian</strong><p>Choose number of points to send.</font><p><img src='img/responseButtonOffersNo0L1.png' class='respPic'></p></div>","null","4","Brian","trustrating_stim/white_00785_941205_fb_edt.bmp","Kept","0.4,0.8","9","0.4","72","14"
"html-keyboard-response","137","376251","0.0-18.0-3.13","testing","bdp_trlrn","Fri Dec 11 2020 17:31:23 GMT-0500 (Eastern Standard Time)","787149","Untrustworthy,Trustworthy","","null","","","","feedback","","<div class='pointsDiv'><table width=550px><tr><td>Current Point Total: 72</td><td style='text-align:right'>Round #: 14</td></tr></table></div><div class='trialDiv'><img src='trustrating_stim/white_00785_941205_fb_edt.bmp'><br><font class='baseline'><strong>Brian</strong><p>Received: <strong>4</strong></font> &nbsp; &nbsp; &nbsp; &nbsp; &nbsp; &nbsp;<font class='negOutcome'>Shared back: <strong>0</strong></font><p><img src='img/responseButtonOffersNo0_wht.png' class='respPic'></p></font></div>","null","4","Brian","trustrating_stim/white_00785_941205_fb_edt.bmp","Kept","0.4,0.8","9","0.4","72","14"
"html-keyboard-response","138","379818","0.0-18.0-1.14","testing","bdp_trlrn","Fri Dec 11 2020 17:31:23 GMT-0500 (Eastern Standard Time)","787149","Untrustworthy,Trustworthy","","3566","","","","decision","","<div class='pointsDiv'><table width=550px><tr><td>Current Point Total: 77</td><td style='text-align:right'>Round #: 15</td></tr></table></div><div class='trialDiv'><img src='trustrating_stim/white_mw099.bmp'><br><font class='baseline'><strong>Joseph</strong><p>Choose number of points to send.</font><p><img src='img/responseButtonOffersNo0L.png' class='respPic'></p></div>","2","4","Joseph","trustrating_stim/white_mw099.bmp","Shared","0.8,0.4","13","0.8","77","15"
"html-keyboard-response","139","380820","0.0-18.0-2.14","testing","bdp_trlrn","Fri Dec 11 2020 17:31:23 GMT-0500 (Eastern Standard Time)","787149","Untrustworthy,Trustworthy","","null","","","","decisionFB","","<div class='pointsDiv'><table width=550px><tr><td>Current Point Total: 75</td><td style='text-align:right'>Round #: 15</td></tr></table></div><div class='trialDiv'><img src='trustrating_stim/white_mw099.bmp'><br><font class='baseline'><strong>Joseph</strong><p>Choose number of points to send.</font><p><img src='img/responseButtonOffersNo0L2.png' class='respPic'></p></div>","null","4","Joseph","trustrating_stim/white_mw099.bmp","Shared","0.8,0.4","13","0.8","75","15"
"html-keyboard-response","140","382823","0.0-18.0-3.14","testing","bdp_trlrn","Fri Dec 11 2020 17:31:23 GMT-0500 (Eastern Standard Time)","787149","Untrustworthy,Trustworthy","","null","","","","feedback","","<div class='pointsDiv'><table width=550px><tr><td>Current Point Total: 79</td><td style='text-align:right'>Round #: 15</td></tr></table></div><div class='trialDiv'><img src='trustrating_stim/white_mw099.bmp'><br><font class='baseline'><strong>Joseph</strong><p>Received: <strong>8</strong></font> &nbsp; &nbsp; &nbsp; &nbsp; &nbsp; &nbsp;<font class='posOutcome'>Shared back: <strong>4</strong></font><p><img src='img/responseButtonOffersNo0_wht.png' class='respPic'></p></font></div>","null","4","Joseph","trustrating_stim/white_mw099.bmp","Shared","0.8,0.4","13","0.8","79","15"
"html-keyboard-response","141","383686","0.0-18.0-1.15","testing","bdp_trlrn","Fri Dec 11 2020 17:31:23 GMT-0500 (Eastern Standard Time)","787149","Untrustworthy,Trustworthy","","859","","","","decision","","<div class='pointsDiv'><table width=550px><tr><td>Current Point Total: 84</td><td style='text-align:right'>Round #: 16</td></tr></table></div><div class='trialDiv'><img src='trustrating_stim/white_mw046.bmp'><br><font class='baseline'><strong>Benjamin</strong><p>Choose number of points to send.</font><p><img src='img/responseButtonOffersNo0L.png' class='respPic'></p></div>","1","4","Benjamin","trustrating_stim/white_mw046.bmp","Kept","0.2,0.6","10","0.2","84","16"
"html-keyboard-response","142","384692","0.0-18.0-2.15","testing","bdp_trlrn","Fri Dec 11 2020 17:31:23 GMT-0500 (Eastern Standard Time)","787149","Untrustworthy,Trustworthy","","null","","","","decisionFB","","<div class='pointsDiv'><table width=550px><tr><td>Current Point Total: 83</td><td style='text-align:right'>Round #: 16</td></tr></table></div><div class='trialDiv'><img src='trustrating_stim/white_mw046.bmp'><br><font class='baseline'><strong>Benjamin</strong><p>Choose number of points to send.</font><p><img src='img/responseButtonOffersNo0L1.png' class='respPic'></p></div>","null","4","Benjamin","trustrating_stim/white_mw046.bmp","Kept","0.2,0.6","10","0.2","83","16"
"html-keyboard-response","143","386697","0.0-18.0-3.15","testing","bdp_trlrn","Fri Dec 11 2020 17:31:23 GMT-0500 (Eastern Standard Time)","787149","Untrustworthy,Trustworthy","","null","","","","feedback","","<div class='pointsDiv'><table width=550px><tr><td>Current Point Total: 83</td><td style='text-align:right'>Round #: 16</td></tr></table></div><div class='trialDiv'><img src='trustrating_stim/white_mw046.bmp'><br><font class='baseline'><strong>Benjamin</strong><p>Received: <strong>4</strong></font> &nbsp; &nbsp; &nbsp; &nbsp; &nbsp; &nbsp;<font class='negOutcome'>Shared back: <strong>0</strong></font><p><img src='img/responseButtonOffersNo0_wht.png' class='respPic'></p></font></div>","null","4","Benjamin","trustrating_stim/white_mw046.bmp","Kept","0.2,0.6","10","0.2","83","16"
"html-keyboard-response","144","387223","0.0-18.0-1.16","testing","bdp_trlrn","Fri Dec 11 2020 17:31:23 GMT-0500 (Eastern Standard Time)","787149","Untrustworthy,Trustworthy","","523","","","","decision","","<div class='pointsDiv'><table width=550px><tr><td>Current Point Total: 88</td><td style='text-align:right'>Round #: 17</td></tr></table></div><div class='trialDiv'><img src='trustrating_stim/white_00785_941205_fb_edt.bmp'><br><font class='baseline'><strong>Brian</strong><p>Choose number of points to send.</font><p><img src='img/responseButtonOffersNo0L.png' class='respPic'></p></div>","1","5","Brian","trustrating_stim/white_00785_941205_fb_edt.bmp","Kept","0.4,0.8","9","0.4","88","17"
"html-keyboard-response","145","388225","0.0-18.0-2.16","testing","bdp_trlrn","Fri Dec 11 2020 17:31:23 GMT-0500 (Eastern Standard Time)","787149","Untrustworthy,Trustworthy","","null","","","","decisionFB","","<div class='pointsDiv'><table width=550px><tr><td>Current Point Total: 87</td><td style='text-align:right'>Round #: 17</td></tr></table></div><div class='trialDiv'><img src='trustrating_stim/white_00785_941205_fb_edt.bmp'><br><font class='baseline'><strong>Brian</strong><p>Choose number of points to send.</font><p><img src='img/responseButtonOffersNo0L1.png' class='respPic'></p></div>","null","5","Brian","trustrating_stim/white_00785_941205_fb_edt.bmp","Kept","0.4,0.8","9","0.4","87","17"
"html-keyboard-response","146","390227","0.0-18.0-3.16","testing","bdp_trlrn","Fri Dec 11 2020 17:31:23 GMT-0500 (Eastern Standard Time)","787149","Untrustworthy,Trustworthy","","null","","","","feedback","","<div class='pointsDiv'><table width=550px><tr><td>Current Point Total: 87</td><td style='text-align:right'>Round #: 17</td></tr></table></div><div class='trialDiv'><img src='trustrating_stim/white_00785_941205_fb_edt.bmp'><br><font class='baseline'><strong>Brian</strong><p>Received: <strong>4</strong></font> &nbsp; &nbsp; &nbsp; &nbsp; &nbsp; &nbsp;<font class='negOutcome'>Shared back: <strong>0</strong></font><p><img src='img/responseButtonOffersNo0_wht.png' class='respPic'></p></font></div>","null","5","Brian","trustrating_stim/white_00785_941205_fb_edt.bmp","Kept","0.4,0.8","9","0.4","87","17"
"html-keyboard-response","147","391092","0.0-18.0-1.17","testing","bdp_trlrn","Fri Dec 11 2020 17:31:23 GMT-0500 (Eastern Standard Time)","787149","Untrustworthy,Trustworthy","","864","","","","decision","","<div class='pointsDiv'><table width=550px><tr><td>Current Point Total: 92</td><td style='text-align:right'>Round #: 18</td></tr></table></div><div class='trialDiv'><img src='trustrating_stim/white_mw046.bmp'><br><font class='baseline'><strong>Benjamin</strong><p>Choose number of points to send.</font><p><img src='img/responseButtonOffersNo0L.png' class='respPic'></p></div>","1","5","Benjamin","trustrating_stim/white_mw046.bmp","Kept","0.2,0.6","10","0.2","92","18"
"html-keyboard-response","148","392096","0.0-18.0-2.17","testing","bdp_trlrn","Fri Dec 11 2020 17:31:23 GMT-0500 (Eastern Standard Time)","787149","Untrustworthy,Trustworthy","","null","","","","decisionFB","","<div class='pointsDiv'><table width=550px><tr><td>Current Point Total: 91</td><td style='text-align:right'>Round #: 18</td></tr></table></div><div class='trialDiv'><img src='trustrating_stim/white_mw046.bmp'><br><font class='baseline'><strong>Benjamin</strong><p>Choose number of points to send.</font><p><img src='img/responseButtonOffersNo0L1.png' class='respPic'></p></div>","null","5","Benjamin","trustrating_stim/white_mw046.bmp","Kept","0.2,0.6","10","0.2","91","18"
"html-keyboard-response","149","394101","0.0-18.0-3.17","testing","bdp_trlrn","Fri Dec 11 2020 17:31:23 GMT-0500 (Eastern Standard Time)","787149","Untrustworthy,Trustworthy","","null","","","","feedback","","<div class='pointsDiv'><table width=550px><tr><td>Current Point Total: 91</td><td style='text-align:right'>Round #: 18</td></tr></table></div><div class='trialDiv'><img src='trustrating_stim/white_mw046.bmp'><br><font class='baseline'><strong>Benjamin</strong><p>Received: <strong>4</strong></font> &nbsp; &nbsp; &nbsp; &nbsp; &nbsp; &nbsp;<font class='negOutcome'>Shared back: <strong>0</strong></font><p><img src='img/responseButtonOffersNo0_wht.png' class='respPic'></p></font></div>","null","5","Benjamin","trustrating_stim/white_mw046.bmp","Kept","0.2,0.6","10","0.2","91","18"
"html-keyboard-response","150","395347","0.0-18.0-1.18","testing","bdp_trlrn","Fri Dec 11 2020 17:31:23 GMT-0500 (Eastern Standard Time)","787149","Untrustworthy,Trustworthy","","1245","","","","decision","","<div class='pointsDiv'><table width=550px><tr><td>Current Point Total: 96</td><td style='text-align:right'>Round #: 19</td></tr></table></div><div class='trialDiv'><img src='trustrating_stim/white_mw035.bmp'><br><font class='baseline'><strong>Caleb</strong><p>Choose number of points to send.</font><p><img src='img/responseButtonOffersNo0L.png' class='respPic'></p></div>","1","5","Caleb","trustrating_stim/white_mw035.bmp","Shared","0.6,0.2","13","0.6","96","19"
"html-keyboard-response","151","396351","0.0-18.0-2.18","testing","bdp_trlrn","Fri Dec 11 2020 17:31:23 GMT-0500 (Eastern Standard Time)","787149","Untrustworthy,Trustworthy","","null","","","","decisionFB","","<div class='pointsDiv'><table width=550px><tr><td>Current Point Total: 95</td><td style='text-align:right'>Round #: 19</td></tr></table></div><div class='trialDiv'><img src='trustrating_stim/white_mw035.bmp'><br><font class='baseline'><strong>Caleb</strong><p>Choose number of points to send.</font><p><img src='img/responseButtonOffersNo0L1.png' class='respPic'></p></div>","null","5","Caleb","trustrating_stim/white_mw035.bmp","Shared","0.6,0.2","13","0.6","95","19"
"html-keyboard-response","152","398354","0.0-18.0-3.18","testing","bdp_trlrn","Fri Dec 11 2020 17:31:23 GMT-0500 (Eastern Standard Time)","787149","Untrustworthy,Trustworthy","","null","","","","feedback","","<div class='pointsDiv'><table width=550px><tr><td>Current Point Total: 97</td><td style='text-align:right'>Round #: 19</td></tr></table></div><div class='trialDiv'><img src='trustrating_stim/white_mw035.bmp'><br><font class='baseline'><strong>Caleb</strong><p>Received: <strong>4</strong></font> &nbsp; &nbsp; &nbsp; &nbsp; &nbsp; &nbsp;<font class='posOutcome'>Shared back: <strong>2</strong></font><p><img src='img/responseButtonOffersNo0_wht.png' class='respPic'></p></font></div>","null","5","Caleb","trustrating_stim/white_mw035.bmp","Shared","0.6,0.2","13","0.6","97","19"
"html-keyboard-response","153","399746","0.0-18.0-1.19","testing","bdp_trlrn","Fri Dec 11 2020 17:31:23 GMT-0500 (Eastern Standard Time)","787149","Untrustworthy,Trustworthy","","1391","","","","decision","","<div class='pointsDiv'><table width=550px><tr><td>Current Point Total: 102</td><td style='text-align:right'>Round #: 20</td></tr></table></div><div class='trialDiv'><img src='trustrating_stim/white_mw099.bmp'><br><font class='baseline'><strong>Joseph</strong><p>Choose number of points to send.</font><p><img src='img/responseButtonOffersNo0L.png' class='respPic'></p></div>","3","5","Joseph","trustrating_stim/white_mw099.bmp","Shared","0.8,0.4","13","0.8","102","20"
"html-keyboard-response","154","400748","0.0-18.0-2.19","testing","bdp_trlrn","Fri Dec 11 2020 17:31:23 GMT-0500 (Eastern Standard Time)","787149","Untrustworthy,Trustworthy","","null","","","","decisionFB","","<div class='pointsDiv'><table width=550px><tr><td>Current Point Total: 99</td><td style='text-align:right'>Round #: 20</td></tr></table></div><div class='trialDiv'><img src='trustrating_stim/white_mw099.bmp'><br><font class='baseline'><strong>Joseph</strong><p>Choose number of points to send.</font><p><img src='img/responseButtonOffersNo0L3.png' class='respPic'></p></div>","null","5","Joseph","trustrating_stim/white_mw099.bmp","Shared","0.8,0.4","13","0.8","99","20"
"html-keyboard-response","155","402751","0.0-18.0-3.19","testing","bdp_trlrn","Fri Dec 11 2020 17:31:23 GMT-0500 (Eastern Standard Time)","787149","Untrustworthy,Trustworthy","","null","","","","feedback","","<div class='pointsDiv'><table width=550px><tr><td>Current Point Total: 105</td><td style='text-align:right'>Round #: 20</td></tr></table></div><div class='trialDiv'><img src='trustrating_stim/white_mw099.bmp'><br><font class='baseline'><strong>Joseph</strong><p>Received: <strong>12</strong></font> &nbsp; &nbsp; &nbsp; &nbsp; &nbsp; &nbsp;<font class='posOutcome'>Shared back: <strong>6</strong></font><p><img src='img/responseButtonOffersNo0_wht.png' class='respPic'></p></font></div>","null","5","Joseph","trustrating_stim/white_mw099.bmp","Shared","0.8,0.4","13","0.8","105","20"
"html-keyboard-response","156","404062","0.0-18.0-1.20","testing","bdp_trlrn","Fri Dec 11 2020 17:31:23 GMT-0500 (Eastern Standard Time)","787149","Untrustworthy,Trustworthy","","1308","","","","decision","","<div class='pointsDiv'><table width=550px><tr><td>Current Point Total: 110</td><td style='text-align:right'>Round #: 21</td></tr></table></div><div class='trialDiv'><img src='trustrating_stim/white_00785_941205_fb_edt.bmp'><br><font class='baseline'><strong>Brian</strong><p>Choose number of points to send.</font><p><img src='img/responseButtonOffersNo0L.png' class='respPic'></p></div>","1","6","Brian","trustrating_stim/white_00785_941205_fb_edt.bmp","Kept","0.4,0.8","9","0.4","110","21"
"html-keyboard-response","157","405065","0.0-18.0-2.20","testing","bdp_trlrn","Fri Dec 11 2020 17:31:23 GMT-0500 (Eastern Standard Time)","787149","Untrustworthy,Trustworthy","","null","","","","decisionFB","","<div class='pointsDiv'><table width=550px><tr><td>Current Point Total: 109</td><td style='text-align:right'>Round #: 21</td></tr></table></div><div class='trialDiv'><img src='trustrating_stim/white_00785_941205_fb_edt.bmp'><br><font class='baseline'><strong>Brian</strong><p>Choose number of points to send.</font><p><img src='img/responseButtonOffersNo0L1.png' class='respPic'></p></div>","null","6","Brian","trustrating_stim/white_00785_941205_fb_edt.bmp","Kept","0.4,0.8","9","0.4","109","21"
"html-keyboard-response","158","407067","0.0-18.0-3.20","testing","bdp_trlrn","Fri Dec 11 2020 17:31:23 GMT-0500 (Eastern Standard Time)","787149","Untrustworthy,Trustworthy","","null","","","","feedback","","<div class='pointsDiv'><table width=550px><tr><td>Current Point Total: 109</td><td style='text-align:right'>Round #: 21</td></tr></table></div><div class='trialDiv'><img src='trustrating_stim/white_00785_941205_fb_edt.bmp'><br><font class='baseline'><strong>Brian</strong><p>Received: <strong>4</strong></font> &nbsp; &nbsp; &nbsp; &nbsp; &nbsp; &nbsp;<font class='negOutcome'>Shared back: <strong>0</strong></font><p><img src='img/responseButtonOffersNo0_wht.png' class='respPic'></p></font></div>","null","6","Brian","trustrating_stim/white_00785_941205_fb_edt.bmp","Kept","0.4,0.8","9","0.4","109","21"
"html-keyboard-response","159","410354","0.0-18.0-1.21","testing","bdp_trlrn","Fri Dec 11 2020 17:31:23 GMT-0500 (Eastern Standard Time)","787149","Untrustworthy,Trustworthy","","3285","","","","decision","","<div class='pointsDiv'><table width=550px><tr><td>Current Point Total: 114</td><td style='text-align:right'>Round #: 22</td></tr></table></div><div class='trialDiv'><img src='trustrating_stim/white_mw035.bmp'><br><font class='baseline'><strong>Caleb</strong><p>Choose number of points to send.</font><p><img src='img/responseButtonOffersNo0L.png' class='respPic'></p></div>","2","6","Caleb","trustrating_stim/white_mw035.bmp","Shared","0.6,0.2","13","0.6","114","22"
"html-keyboard-response","160","411355","0.0-18.0-2.21","testing","bdp_trlrn","Fri Dec 11 2020 17:31:23 GMT-0500 (Eastern Standard Time)","787149","Untrustworthy,Trustworthy","","null","","","","decisionFB","","<div class='pointsDiv'><table width=550px><tr><td>Current Point Total: 112</td><td style='text-align:right'>Round #: 22</td></tr></table></div><div class='trialDiv'><img src='trustrating_stim/white_mw035.bmp'><br><font class='baseline'><strong>Caleb</strong><p>Choose number of points to send.</font><p><img src='img/responseButtonOffersNo0L2.png' class='respPic'></p></div>","null","6","Caleb","trustrating_stim/white_mw035.bmp","Shared","0.6,0.2","13","0.6","112","22"
"html-keyboard-response","161","413360","0.0-18.0-3.21","testing","bdp_trlrn","Fri Dec 11 2020 17:31:23 GMT-0500 (Eastern Standard Time)","787149","Untrustworthy,Trustworthy","","null","","","","feedback","","<div class='pointsDiv'><table width=550px><tr><td>Current Point Total: 116</td><td style='text-align:right'>Round #: 22</td></tr></table></div><div class='trialDiv'><img src='trustrating_stim/white_mw035.bmp'><br><font class='baseline'><strong>Caleb</strong><p>Received: <strong>8</strong></font> &nbsp; &nbsp; &nbsp; &nbsp; &nbsp; &nbsp;<font class='posOutcome'>Shared back: <strong>4</strong></font><p><img src='img/responseButtonOffersNo0_wht.png' class='respPic'></p></font></div>","null","6","Caleb","trustrating_stim/white_mw035.bmp","Shared","0.6,0.2","13","0.6","116","22"
"html-keyboard-response","162","414338","0.0-18.0-1.22","testing","bdp_trlrn","Fri Dec 11 2020 17:31:23 GMT-0500 (Eastern Standard Time)","787149","Untrustworthy,Trustworthy","","977","","","","decision","","<div class='pointsDiv'><table width=550px><tr><td>Current Point Total: 121</td><td style='text-align:right'>Round #: 23</td></tr></table></div><div class='trialDiv'><img src='trustrating_stim/white_mw046.bmp'><br><font class='baseline'><strong>Benjamin</strong><p>Choose number of points to send.</font><p><img src='img/responseButtonOffersNo0L.png' class='respPic'></p></div>","1","6","Benjamin","trustrating_stim/white_mw046.bmp","Shared","0.2,0.6","10","0.2","121","23"
"html-keyboard-response","163","415340","0.0-18.0-2.22","testing","bdp_trlrn","Fri Dec 11 2020 17:31:23 GMT-0500 (Eastern Standard Time)","787149","Untrustworthy,Trustworthy","","null","","","","decisionFB","","<div class='pointsDiv'><table width=550px><tr><td>Current Point Total: 120</td><td style='text-align:right'>Round #: 23</td></tr></table></div><div class='trialDiv'><img src='trustrating_stim/white_mw046.bmp'><br><font class='baseline'><strong>Benjamin</strong><p>Choose number of points to send.</font><p><img src='img/responseButtonOffersNo0L1.png' class='respPic'></p></div>","null","6","Benjamin","trustrating_stim/white_mw046.bmp","Shared","0.2,0.6","10","0.2","120","23"
"html-keyboard-response","164","417343","0.0-18.0-3.22","testing","bdp_trlrn","Fri Dec 11 2020 17:31:23 GMT-0500 (Eastern Standard Time)","787149","Untrustworthy,Trustworthy","","null","","","","feedback","","<div class='pointsDiv'><table width=550px><tr><td>Current Point Total: 122</td><td style='text-align:right'>Round #: 23</td></tr></table></div><div class='trialDiv'><img src='trustrating_stim/white_mw046.bmp'><br><font class='baseline'><strong>Benjamin</strong><p>Received: <strong>4</strong></font> &nbsp; &nbsp; &nbsp; &nbsp; &nbsp; &nbsp;<font class='posOutcome'>Shared back: <strong>2</strong></font><p><img src='img/responseButtonOffersNo0_wht.png' class='respPic'></p></font></div>","null","6","Benjamin","trustrating_stim/white_mw046.bmp","Shared","0.2,0.6","10","0.2","122","23"
"html-keyboard-response","165","419429","0.0-18.0-1.23","testing","bdp_trlrn","Fri Dec 11 2020 17:31:23 GMT-0500 (Eastern Standard Time)","787149","Untrustworthy,Trustworthy","","2084","","","","decision","","<div class='pointsDiv'><table width=550px><tr><td>Current Point Total: 127</td><td style='text-align:right'>Round #: 24</td></tr></table></div><div class='trialDiv'><img src='trustrating_stim/white_mw099.bmp'><br><font class='baseline'><strong>Joseph</strong><p>Choose number of points to send.</font><p><img src='img/responseButtonOffersNo0L.png' class='respPic'></p></div>","4","6","Joseph","trustrating_stim/white_mw099.bmp","Shared","0.8,0.4","13","0.8","127","24"
"html-keyboard-response","166","420433","0.0-18.0-2.23","testing","bdp_trlrn","Fri Dec 11 2020 17:31:23 GMT-0500 (Eastern Standard Time)","787149","Untrustworthy,Trustworthy","","null","","","","decisionFB","","<div class='pointsDiv'><table width=550px><tr><td>Current Point Total: 123</td><td style='text-align:right'>Round #: 24</td></tr></table></div><div class='trialDiv'><img src='trustrating_stim/white_mw099.bmp'><br><font class='baseline'><strong>Joseph</strong><p>Choose number of points to send.</font><p><img src='img/responseButtonOffersNo0L4.png' class='respPic'></p></div>","null","6","Joseph","trustrating_stim/white_mw099.bmp","Shared","0.8,0.4","13","0.8","123","24"
"html-keyboard-response","167","422438","0.0-18.0-3.23","testing","bdp_trlrn","Fri Dec 11 2020 17:31:23 GMT-0500 (Eastern Standard Time)","787149","Untrustworthy,Trustworthy","","null","","","","feedback","","<div class='pointsDiv'><table width=550px><tr><td>Current Point Total: 131</td><td style='text-align:right'>Round #: 24</td></tr></table></div><div class='trialDiv'><img src='trustrating_stim/white_mw099.bmp'><br><font class='baseline'><strong>Joseph</strong><p>Received: <strong>16</strong></font> &nbsp; &nbsp; &nbsp; &nbsp; &nbsp; &nbsp;<font class='posOutcome'>Shared back: <strong>8</strong></font><p><img src='img/responseButtonOffersNo0_wht.png' class='respPic'></p></font></div>","null","6","Joseph","trustrating_stim/white_mw099.bmp","Shared","0.8,0.4","13","0.8","131","24"
"html-keyboard-response","168","424469","0.0-18.0-1.24","testing","bdp_trlrn","Fri Dec 11 2020 17:31:23 GMT-0500 (Eastern Standard Time)","787149","Untrustworthy,Trustworthy","","2030","","","","decision","","<div class='pointsDiv'><table width=550px><tr><td>Current Point Total: 136</td><td style='text-align:right'>Round #: 25</td></tr></table></div><div class='trialDiv'><img src='trustrating_stim/white_mw046.bmp'><br><font class='baseline'><strong>Benjamin</strong><p>Choose number of points to send.</font><p><img src='img/responseButtonOffersNo0L.png' class='respPic'></p></div>","1","7","Benjamin","trustrating_stim/white_mw046.bmp","Kept","0.2,0.6","10","0.2","136","25"
"html-keyboard-response","169","425471","0.0-18.0-2.24","testing","bdp_trlrn","Fri Dec 11 2020 17:31:23 GMT-0500 (Eastern Standard Time)","787149","Untrustworthy,Trustworthy","","null","","","","decisionFB","","<div class='pointsDiv'><table width=550px><tr><td>Current Point Total: 135</td><td style='text-align:right'>Round #: 25</td></tr></table></div><div class='trialDiv'><img src='trustrating_stim/white_mw046.bmp'><br><font class='baseline'><strong>Benjamin</strong><p>Choose number of points to send.</font><p><img src='img/responseButtonOffersNo0L1.png' class='respPic'></p></div>","null","7","Benjamin","trustrating_stim/white_mw046.bmp","Kept","0.2,0.6","10","0.2","135","25"
"html-keyboard-response","170","427473","0.0-18.0-3.24","testing","bdp_trlrn","Fri Dec 11 2020 17:31:23 GMT-0500 (Eastern Standard Time)","787149","Untrustworthy,Trustworthy","","null","","","","feedback","","<div class='pointsDiv'><table width=550px><tr><td>Current Point Total: 135</td><td style='text-align:right'>Round #: 25</td></tr></table></div><div class='trialDiv'><img src='trustrating_stim/white_mw046.bmp'><br><font class='baseline'><strong>Benjamin</strong><p>Received: <strong>4</strong></font> &nbsp; &nbsp; &nbsp; &nbsp; &nbsp; &nbsp;<font class='negOutcome'>Shared back: <strong>0</strong></font><p><img src='img/responseButtonOffersNo0_wht.png' class='respPic'></p></font></div>","null","7","Benjamin","trustrating_stim/white_mw046.bmp","Kept","0.2,0.6","10","0.2","135","25"
"html-keyboard-response","171","428564","0.0-18.0-1.25","testing","bdp_trlrn","Fri Dec 11 2020 17:31:23 GMT-0500 (Eastern Standard Time)","787149","Untrustworthy,Trustworthy","","1089","","","","decision","","<div class='pointsDiv'><table width=550px><tr><td>Current Point Total: 140</td><td style='text-align:right'>Round #: 26</td></tr></table></div><div class='trialDiv'><img src='trustrating_stim/white_00785_941205_fb_edt.bmp'><br><font class='baseline'><strong>Brian</strong><p>Choose number of points to send.</font><p><img src='img/responseButtonOffersNo0L.png' class='respPic'></p></div>","1","7","Brian","trustrating_stim/white_00785_941205_fb_edt.bmp","Kept","0.4,0.8","9","0.4","140","26"
"html-keyboard-response","172","429565","0.0-18.0-2.25","testing","bdp_trlrn","Fri Dec 11 2020 17:31:23 GMT-0500 (Eastern Standard Time)","787149","Untrustworthy,Trustworthy","","null","","","","decisionFB","","<div class='pointsDiv'><table width=550px><tr><td>Current Point Total: 139</td><td style='text-align:right'>Round #: 26</td></tr></table></div><div class='trialDiv'><img src='trustrating_stim/white_00785_941205_fb_edt.bmp'><br><font class='baseline'><strong>Brian</strong><p>Choose number of points to send.</font><p><img src='img/responseButtonOffersNo0L1.png' class='respPic'></p></div>","null","7","Brian","trustrating_stim/white_00785_941205_fb_edt.bmp","Kept","0.4,0.8","9","0.4","139","26"
"html-keyboard-response","173","431570","0.0-18.0-3.25","testing","bdp_trlrn","Fri Dec 11 2020 17:31:23 GMT-0500 (Eastern Standard Time)","787149","Untrustworthy,Trustworthy","","null","","","","feedback","","<div class='pointsDiv'><table width=550px><tr><td>Current Point Total: 139</td><td style='text-align:right'>Round #: 26</td></tr></table></div><div class='trialDiv'><img src='trustrating_stim/white_00785_941205_fb_edt.bmp'><br><font class='baseline'><strong>Brian</strong><p>Received: <strong>4</strong></font> &nbsp; &nbsp; &nbsp; &nbsp; &nbsp; &nbsp;<font class='negOutcome'>Shared back: <strong>0</strong></font><p><img src='img/responseButtonOffersNo0_wht.png' class='respPic'></p></font></div>","null","7","Brian","trustrating_stim/white_00785_941205_fb_edt.bmp","Kept","0.4,0.8","9","0.4","139","26"
"html-keyboard-response","174","434793","0.0-18.0-1.26","testing","bdp_trlrn","Fri Dec 11 2020 17:31:23 GMT-0500 (Eastern Standard Time)","787149","Untrustworthy,Trustworthy","","3220","","","","decision","","<div class='pointsDiv'><table width=550px><tr><td>Current Point Total: 144</td><td style='text-align:right'>Round #: 27</td></tr></table></div><div class='trialDiv'><img src='trustrating_stim/white_mw099.bmp'><br><font class='baseline'><strong>Joseph</strong><p>Choose number of points to send.</font><p><img src='img/responseButtonOffersNo0L.png' class='respPic'></p></div>","5","7","Joseph","trustrating_stim/white_mw099.bmp","Shared","0.8,0.4","13","0.8","144","27"
"html-keyboard-response","175","435796","0.0-18.0-2.26","testing","bdp_trlrn","Fri Dec 11 2020 17:31:23 GMT-0500 (Eastern Standard Time)","787149","Untrustworthy,Trustworthy","","null","","","","decisionFB","","<div class='pointsDiv'><table width=550px><tr><td>Current Point Total: 139</td><td style='text-align:right'>Round #: 27</td></tr></table></div><div class='trialDiv'><img src='trustrating_stim/white_mw099.bmp'><br><font class='baseline'><strong>Joseph</strong><p>Choose number of points to send.</font><p><img src='img/responseButtonOffersNo0L5.png' class='respPic'></p></div>","null","7","Joseph","trustrating_stim/white_mw099.bmp","Shared","0.8,0.4","13","0.8","139","27"
"html-keyboard-response","176","437801","0.0-18.0-3.26","testing","bdp_trlrn","Fri Dec 11 2020 17:31:23 GMT-0500 (Eastern Standard Time)","787149","Untrustworthy,Trustworthy","","null","","","","feedback","","<div class='pointsDiv'><table width=550px><tr><td>Current Point Total: 149</td><td style='text-align:right'>Round #: 27</td></tr></table></div><div class='trialDiv'><img src='trustrating_stim/white_mw099.bmp'><br><font class='baseline'><strong>Joseph</strong><p>Received: <strong>20</strong></font> &nbsp; &nbsp; &nbsp; &nbsp; &nbsp; &nbsp;<font class='posOutcome'>Shared back: <strong>10</strong></font><p><img src='img/responseButtonOffersNo0_wht.png' class='respPic'></p></font></div>","null","7","Joseph","trustrating_stim/white_mw099.bmp","Shared","0.8,0.4","13","0.8","149","27"
"html-keyboard-response","177","439806","0.0-18.0-1.27","testing","bdp_trlrn","Fri Dec 11 2020 17:31:23 GMT-0500 (Eastern Standard Time)","787149","Untrustworthy,Trustworthy","","2003","","","","decision","","<div class='pointsDiv'><table width=550px><tr><td>Current Point Total: 154</td><td style='text-align:right'>Round #: 28</td></tr></table></div><div class='trialDiv'><img src='trustrating_stim/white_mw035.bmp'><br><font class='baseline'><strong>Caleb</strong><p>Choose number of points to send.</font><p><img src='img/responseButtonOffersNo0L.png' class='respPic'></p></div>","3","7","Caleb","trustrating_stim/white_mw035.bmp","Kept","0.6,0.2","13","0.6","154","28"
"html-keyboard-response","178","440809","0.0-18.0-2.27","testing","bdp_trlrn","Fri Dec 11 2020 17:31:23 GMT-0500 (Eastern Standard Time)","787149","Untrustworthy,Trustworthy","","null","","","","decisionFB","","<div class='pointsDiv'><table width=550px><tr><td>Current Point Total: 151</td><td style='text-align:right'>Round #: 28</td></tr></table></div><div class='trialDiv'><img src='trustrating_stim/white_mw035.bmp'><br><font class='baseline'><strong>Caleb</strong><p>Choose number of points to send.</font><p><img src='img/responseButtonOffersNo0L3.png' class='respPic'></p></div>","null","7","Caleb","trustrating_stim/white_mw035.bmp","Kept","0.6,0.2","13","0.6","151","28"
"html-keyboard-response","179","442811","0.0-18.0-3.27","testing","bdp_trlrn","Fri Dec 11 2020 17:31:23 GMT-0500 (Eastern Standard Time)","787149","Untrustworthy,Trustworthy","","null","","","","feedback","","<div class='pointsDiv'><table width=550px><tr><td>Current Point Total: 151</td><td style='text-align:right'>Round #: 28</td></tr></table></div><div class='trialDiv'><img src='trustrating_stim/white_mw035.bmp'><br><font class='baseline'><strong>Caleb</strong><p>Received: <strong>12</strong></font> &nbsp; &nbsp; &nbsp; &nbsp; &nbsp; &nbsp;<font class='negOutcome'>Shared back: <strong>0</strong></font><p><img src='img/responseButtonOffersNo0_wht.png' class='respPic'></p></font></div>","null","7","Caleb","trustrating_stim/white_mw035.bmp","Kept","0.6,0.2","13","0.6","151","28"
"html-keyboard-response","180","444169","0.0-18.0-1.28","testing","bdp_trlrn","Fri Dec 11 2020 17:31:23 GMT-0500 (Eastern Standard Time)","787149","Untrustworthy,Trustworthy","","1356","","","","decision","","<div class='pointsDiv'><table width=550px><tr><td>Current Point Total: 156</td><td style='text-align:right'>Round #: 29</td></tr></table></div><div class='trialDiv'><img src='trustrating_stim/white_mw046.bmp'><br><font class='baseline'><strong>Benjamin</strong><p>Choose number of points to send.</font><p><img src='img/responseButtonOffersNo0L.png' class='respPic'></p></div>","1","8","Benjamin","trustrating_stim/white_mw046.bmp","Kept","0.2,0.6","10","0.2","156","29"
"html-keyboard-response","181","445173","0.0-18.0-2.28","testing","bdp_trlrn","Fri Dec 11 2020 17:31:23 GMT-0500 (Eastern Standard Time)","787149","Untrustworthy,Trustworthy","","null","","","","decisionFB","","<div class='pointsDiv'><table width=550px><tr><td>Current Point Total: 155</td><td style='text-align:right'>Round #: 29</td></tr></table></div><div class='trialDiv'><img src='trustrating_stim/white_mw046.bmp'><br><font class='baseline'><strong>Benjamin</strong><p>Choose number of points to send.</font><p><img src='img/responseButtonOffersNo0L1.png' class='respPic'></p></div>","null","8","Benjamin","trustrating_stim/white_mw046.bmp","Kept","0.2,0.6","10","0.2","155","29"
"html-keyboard-response","182","447177","0.0-18.0-3.28","testing","bdp_trlrn","Fri Dec 11 2020 17:31:23 GMT-0500 (Eastern Standard Time)","787149","Untrustworthy,Trustworthy","","null","","","","feedback","","<div class='pointsDiv'><table width=550px><tr><td>Current Point Total: 155</td><td style='text-align:right'>Round #: 29</td></tr></table></div><div class='trialDiv'><img src='trustrating_stim/white_mw046.bmp'><br><font class='baseline'><strong>Benjamin</strong><p>Received: <strong>4</strong></font> &nbsp; &nbsp; &nbsp; &nbsp; &nbsp; &nbsp;<font class='negOutcome'>Shared back: <strong>0</strong></font><p><img src='img/responseButtonOffersNo0_wht.png' class='respPic'></p></font></div>","null","8","Benjamin","trustrating_stim/white_mw046.bmp","Kept","0.2,0.6","10","0.2","155","29"
"html-keyboard-response","183","447747","0.0-18.0-1.29","testing","bdp_trlrn","Fri Dec 11 2020 17:31:23 GMT-0500 (Eastern Standard Time)","787149","Untrustworthy,Trustworthy","","569","","","","decision","","<div class='pointsDiv'><table width=550px><tr><td>Current Point Total: 160</td><td style='text-align:right'>Round #: 30</td></tr></table></div><div class='trialDiv'><img src='trustrating_stim/white_00785_941205_fb_edt.bmp'><br><font class='baseline'><strong>Brian</strong><p>Choose number of points to send.</font><p><img src='img/responseButtonOffersNo0L.png' class='respPic'></p></div>","1","8","Brian","trustrating_stim/white_00785_941205_fb_edt.bmp","Kept","0.4,0.8","9","0.4","160","30"
"html-keyboard-response","184","448749","0.0-18.0-2.29","testing","bdp_trlrn","Fri Dec 11 2020 17:31:23 GMT-0500 (Eastern Standard Time)","787149","Untrustworthy,Trustworthy","","null","","","","decisionFB","","<div class='pointsDiv'><table width=550px><tr><td>Current Point Total: 159</td><td style='text-align:right'>Round #: 30</td></tr></table></div><div class='trialDiv'><img src='trustrating_stim/white_00785_941205_fb_edt.bmp'><br><font class='baseline'><strong>Brian</strong><p>Choose number of points to send.</font><p><img src='img/responseButtonOffersNo0L1.png' class='respPic'></p></div>","null","8","Brian","trustrating_stim/white_00785_941205_fb_edt.bmp","Kept","0.4,0.8","9","0.4","159","30"
"html-keyboard-response","185","450753","0.0-18.0-3.29","testing","bdp_trlrn","Fri Dec 11 2020 17:31:23 GMT-0500 (Eastern Standard Time)","787149","Untrustworthy,Trustworthy","","null","","","","feedback","","<div class='pointsDiv'><table width=550px><tr><td>Current Point Total: 159</td><td style='text-align:right'>Round #: 30</td></tr></table></div><div class='trialDiv'><img src='trustrating_stim/white_00785_941205_fb_edt.bmp'><br><font class='baseline'><strong>Brian</strong><p>Received: <strong>4</strong></font> &nbsp; &nbsp; &nbsp; &nbsp; &nbsp; &nbsp;<font class='negOutcome'>Shared back: <strong>0</strong></font><p><img src='img/responseButtonOffersNo0_wht.png' class='respPic'></p></font></div>","null","8","Brian","trustrating_stim/white_00785_941205_fb_edt.bmp","Kept","0.4,0.8","9","0.4","159","30"
"html-keyboard-response","186","451616","0.0-18.0-1.30","testing","bdp_trlrn","Fri Dec 11 2020 17:31:23 GMT-0500 (Eastern Standard Time)","787149","Untrustworthy,Trustworthy","","862","","","","decision","","<div class='pointsDiv'><table width=550px><tr><td>Current Point Total: 164</td><td style='text-align:right'>Round #: 31</td></tr></table></div><div class='trialDiv'><img src='trustrating_stim/white_mw035.bmp'><br><font class='baseline'><strong>Caleb</strong><p>Choose number of points to send.</font><p><img src='img/responseButtonOffersNo0L.png' class='respPic'></p></div>","2","8","Caleb","trustrating_stim/white_mw035.bmp","Shared","0.6,0.2","13","0.6","164","31"
"html-keyboard-response","187","452619","0.0-18.0-2.30","testing","bdp_trlrn","Fri Dec 11 2020 17:31:23 GMT-0500 (Eastern Standard Time)","787149","Untrustworthy,Trustworthy","","null","","","","decisionFB","","<div class='pointsDiv'><table width=550px><tr><td>Current Point Total: 162</td><td style='text-align:right'>Round #: 31</td></tr></table></div><div class='trialDiv'><img src='trustrating_stim/white_mw035.bmp'><br><font class='baseline'><strong>Caleb</strong><p>Choose number of points to send.</font><p><img src='img/responseButtonOffersNo0L2.png' class='respPic'></p></div>","null","8","Caleb","trustrating_stim/white_mw035.bmp","Shared","0.6,0.2","13","0.6","162","31"
"html-keyboard-response","188","454622","0.0-18.0-3.30","testing","bdp_trlrn","Fri Dec 11 2020 17:31:23 GMT-0500 (Eastern Standard Time)","787149","Untrustworthy,Trustworthy","","null","","","","feedback","","<div class='pointsDiv'><table width=550px><tr><td>Current Point Total: 166</td><td style='text-align:right'>Round #: 31</td></tr></table></div><div class='trialDiv'><img src='trustrating_stim/white_mw035.bmp'><br><font class='baseline'><strong>Caleb</strong><p>Received: <strong>8</strong></font> &nbsp; &nbsp; &nbsp; &nbsp; &nbsp; &nbsp;<font class='posOutcome'>Shared back: <strong>4</strong></font><p><img src='img/responseButtonOffersNo0_wht.png' class='respPic'></p></font></div>","null","8","Caleb","trustrating_stim/white_mw035.bmp","Shared","0.6,0.2","13","0.6","166","31"
"html-keyboard-response","189","456252","0.0-18.0-1.31","testing","bdp_trlrn","Fri Dec 11 2020 17:31:23 GMT-0500 (Eastern Standard Time)","787149","Untrustworthy,Trustworthy","","1629","","","","decision","","<div class='pointsDiv'><table width=550px><tr><td>Current Point Total: 171</td><td style='text-align:right'>Round #: 32</td></tr></table></div><div class='trialDiv'><img src='trustrating_stim/white_mw099.bmp'><br><font class='baseline'><strong>Joseph</strong><p>Choose number of points to send.</font><p><img src='img/responseButtonOffersNo0L.png' class='respPic'></p></div>","5","8","Joseph","trustrating_stim/white_mw099.bmp","Shared","0.8,0.4","13","0.8","171","32"
"html-keyboard-response","190","457255","0.0-18.0-2.31","testing","bdp_trlrn","Fri Dec 11 2020 17:31:23 GMT-0500 (Eastern Standard Time)","787149","Untrustworthy,Trustworthy","","null","","","","decisionFB","","<div class='pointsDiv'><table width=550px><tr><td>Current Point Total: 166</td><td style='text-align:right'>Round #: 32</td></tr></table></div><div class='trialDiv'><img src='trustrating_stim/white_mw099.bmp'><br><font class='baseline'><strong>Joseph</strong><p>Choose number of points to send.</font><p><img src='img/responseButtonOffersNo0L5.png' class='respPic'></p></div>","null","8","Joseph","trustrating_stim/white_mw099.bmp","Shared","0.8,0.4","13","0.8","166","32"
