"trial_type","trial_index","time_elapsed","internal_node_id","subject_id","task","startTime","totalTime","labels","view_history","rt","event","trial","time","trialtype","success","stimulus","key_press","aground","name","face","outcome","agenttype","agentswpt","agentcurrpshare","point_total","round"
"pavlovia","0","3","0.0-0.0","testing","bdp_trlrn","Thu Dec 10 2020 16:28:31 GMT-0500 (EST)","805951","Untrustworthy,Trustworthy","","","","","","","","","","","","","","","","","",""
"instructions","1","5575","0.0-1.0","testing","bdp_trlrn","Thu Dec 10 2020 16:28:31 GMT-0500 (EST)","805951","Untrustworthy,Trustworthy","[{""page_index"":0,""viewing_time"":5572}]","5572","","","","","","","","","","","","","","","",""
"","","","","testing","bdp_trlrn","Thu Dec 10 2020 16:28:31 GMT-0500 (EST)","805951","Untrustworthy,Trustworthy","","","fullscreenenter","2","9454","fullscreenenter","","","","","","","","","","","",""
"fullscreen","2","10407","0.0-2.0","testing","bdp_trlrn","Thu Dec 10 2020 16:28:31 GMT-0500 (EST)","805951","Untrustworthy,Trustworthy","","","","","","","true","","","","","","","","","","",""
"instructions","3","49060","0.0-4.0","testing","bdp_trlrn","Thu Dec 10 2020 16:28:31 GMT-0500 (EST)","805951","Untrustworthy,Trustworthy","[{""page_index"":0,""viewing_time"":22642},{""page_index"":1,""viewing_time"":16009}]","38651","","","","","","","","","","","","","","","",""
"instructions","4","59656","0.0-5.0","testing","bdp_trlrn","Thu Dec 10 2020 16:28:31 GMT-0500 (EST)","805951","Untrustworthy,Trustworthy","[{""page_index"":0,""viewing_time"":10595}]","10596","","","","","","","","","","","","","","","",""
"image-keyboard-response","5","67203","0.0-6.0-1.0","testing","bdp_trlrn","Thu Dec 10 2020 16:28:31 GMT-0500 (EST)","805951","Untrustworthy,Trustworthy","","7443","","","","rating","","trustrating_stim/white_mw066.bmp","5","","","","","","","","",""
"image-keyboard-response","6","67406","0.0-6.0-2.0","testing","bdp_trlrn","Thu Dec 10 2020 16:28:31 GMT-0500 (EST)","805951","Untrustworthy,Trustworthy","","null","","","","ratingFB","","trustrating_stim/white_mw066.bmp","null","","","","","","","","",""
"image-keyboard-response","7","69192","0.0-6.0-1.1","testing","bdp_trlrn","Thu Dec 10 2020 16:28:31 GMT-0500 (EST)","805951","Untrustworthy,Trustworthy","","1683","","","","rating","","trustrating_stim/white_mw072.bmp","5","","","","","","","","",""
"image-keyboard-response","8","69404","0.0-6.0-2.1","testing","bdp_trlrn","Thu Dec 10 2020 16:28:31 GMT-0500 (EST)","805951","Untrustworthy,Trustworthy","","null","","","","ratingFB","","trustrating_stim/white_mw072.bmp","null","","","","","","","","",""
"image-keyboard-response","9","70534","0.0-6.0-1.2","testing","bdp_trlrn","Thu Dec 10 2020 16:28:31 GMT-0500 (EST)","805951","Untrustworthy,Trustworthy","","1028","","","","rating","","trustrating_stim/white_mw057.bmp","3","","","","","","","","",""
"image-keyboard-response","10","70735","0.0-6.0-2.2","testing","bdp_trlrn","Thu Dec 10 2020 16:28:31 GMT-0500 (EST)","805951","Untrustworthy,Trustworthy","","null","","","","ratingFB","","trustrating_stim/white_mw057.bmp","null","","","","","","","","",""
"image-keyboard-response","11","72151","0.0-6.0-1.3","testing","bdp_trlrn","Thu Dec 10 2020 16:28:31 GMT-0500 (EST)","805951","Untrustworthy,Trustworthy","","1312","","","","rating","","trustrating_stim/white_mw019.bmp","7","","","","","","","","",""
"image-keyboard-response","12","72352","0.0-6.0-2.3","testing","bdp_trlrn","Thu Dec 10 2020 16:28:31 GMT-0500 (EST)","805951","Untrustworthy,Trustworthy","","null","","","","ratingFB","","trustrating_stim/white_mw019.bmp","null","","","","","","","","",""
"image-keyboard-response","13","74354","0.0-6.0-1.4","testing","bdp_trlrn","Thu Dec 10 2020 16:28:31 GMT-0500 (EST)","805951","Untrustworthy,Trustworthy","","1899","","","","rating","","trustrating_stim/white_00757_941201_fa_edt.bmp","2","","","","","","","","",""
"image-keyboard-response","14","74555","0.0-6.0-2.4","testing","bdp_trlrn","Thu Dec 10 2020 16:28:31 GMT-0500 (EST)","805951","Untrustworthy,Trustworthy","","null","","","","ratingFB","","trustrating_stim/white_00757_941201_fa_edt.bmp","null","","","","","","","","",""
"image-keyboard-response","15","76649","0.0-6.0-1.5","testing","bdp_trlrn","Thu Dec 10 2020 16:28:31 GMT-0500 (EST)","805951","Untrustworthy,Trustworthy","","1991","","","","rating","","trustrating_stim/white_mw040.bmp","2","","","","","","","","",""
"image-keyboard-response","16","76850","0.0-6.0-2.5","testing","bdp_trlrn","Thu Dec 10 2020 16:28:31 GMT-0500 (EST)","805951","Untrustworthy,Trustworthy","","null","","","","ratingFB","","trustrating_stim/white_mw040.bmp","null","","","","","","","","",""
"image-keyboard-response","17","78757","0.0-6.0-1.6","testing","bdp_trlrn","Thu Dec 10 2020 16:28:31 GMT-0500 (EST)","805951","Untrustworthy,Trustworthy","","1805","","","","rating","","trustrating_stim/white_mw046.bmp","3","","","","","","","","",""
"image-keyboard-response","18","78959","0.0-6.0-2.6","testing","bdp_trlrn","Thu Dec 10 2020 16:28:31 GMT-0500 (EST)","805951","Untrustworthy,Trustworthy","","null","","","","ratingFB","","trustrating_stim/white_mw046.bmp","null","","","","","","","","",""
"image-keyboard-response","19","81170","0.0-6.0-1.7","testing","bdp_trlrn","Thu Dec 10 2020 16:28:31 GMT-0500 (EST)","805951","Untrustworthy,Trustworthy","","2110","","","","rating","","trustrating_stim/white_mw085.bmp","5","","","","","","","","",""
"image-keyboard-response","20","81373","0.0-6.0-2.7","testing","bdp_trlrn","Thu Dec 10 2020 16:28:31 GMT-0500 (EST)","805951","Untrustworthy,Trustworthy","","null","","","","ratingFB","","trustrating_stim/white_mw085.bmp","null","","","","","","","","",""
"image-keyboard-response","21","83157","0.0-6.0-1.8","testing","bdp_trlrn","Thu Dec 10 2020 16:28:31 GMT-0500 (EST)","805951","Untrustworthy,Trustworthy","","1683","","","","rating","","trustrating_stim/white_00761_941201_fb_edt.bmp","5","","","","","","","","",""
"image-keyboard-response","22","83360","0.0-6.0-2.8","testing","bdp_trlrn","Thu Dec 10 2020 16:28:31 GMT-0500 (EST)","805951","Untrustworthy,Trustworthy","","null","","","","ratingFB","","trustrating_stim/white_00761_941201_fb_edt.bmp","null","","","","","","","","",""
"image-keyboard-response","23","84924","0.0-6.0-1.9","testing","bdp_trlrn","Thu Dec 10 2020 16:28:31 GMT-0500 (EST)","805951","Untrustworthy,Trustworthy","","1461","","","","rating","","trustrating_stim/white_00602_940928_fb_edt.bmp","9","","","","","","","","",""
"image-keyboard-response","24","85126","0.0-6.0-2.9","testing","bdp_trlrn","Thu Dec 10 2020 16:28:31 GMT-0500 (EST)","805951","Untrustworthy,Trustworthy","","null","","","","ratingFB","","trustrating_stim/white_00602_940928_fb_edt.bmp","null","","","","","","","","",""
"image-keyboard-response","25","86343","0.0-6.0-1.10","testing","bdp_trlrn","Thu Dec 10 2020 16:28:31 GMT-0500 (EST)","805951","Untrustworthy,Trustworthy","","1114","","","","rating","","trustrating_stim/white_00109_931230_fa_edt.bmp","9","","","","","","","","",""
"image-keyboard-response","26","86545","0.0-6.0-2.10","testing","bdp_trlrn","Thu Dec 10 2020 16:28:31 GMT-0500 (EST)","805951","Untrustworthy,Trustworthy","","null","","","","ratingFB","","trustrating_stim/white_00109_931230_fa_edt.bmp","null","","","","","","","","",""
"image-keyboard-response","27","89604","0.0-6.0-1.11","testing","bdp_trlrn","Thu Dec 10 2020 16:28:31 GMT-0500 (EST)","805951","Untrustworthy,Trustworthy","","2957","","","","rating","","trustrating_stim/white_mw099.bmp","5","","","","","","","","",""
"image-keyboard-response","28","89806","0.0-6.0-2.11","testing","bdp_trlrn","Thu Dec 10 2020 16:28:31 GMT-0500 (EST)","805951","Untrustworthy,Trustworthy","","null","","","","ratingFB","","trustrating_stim/white_mw099.bmp","null","","","","","","","","",""
"image-keyboard-response","29","92606","0.0-6.0-1.12","testing","bdp_trlrn","Thu Dec 10 2020 16:28:31 GMT-0500 (EST)","805951","Untrustworthy,Trustworthy","","2697","","","","rating","","trustrating_stim/white_mw089.bmp","3","","","","","","","","",""
"image-keyboard-response","30","92808","0.0-6.0-2.12","testing","bdp_trlrn","Thu Dec 10 2020 16:28:31 GMT-0500 (EST)","805951","Untrustworthy,Trustworthy","","null","","","","ratingFB","","trustrating_stim/white_mw089.bmp","null","","","","","","","","",""
"image-keyboard-response","31","95655","0.0-6.0-1.13","testing","bdp_trlrn","Thu Dec 10 2020 16:28:31 GMT-0500 (EST)","805951","Untrustworthy,Trustworthy","","2745","","","","rating","","trustrating_stim/white_mw012.bmp","3","","","","","","","","",""
"image-keyboard-response","32","95857","0.0-6.0-2.13","testing","bdp_trlrn","Thu Dec 10 2020 16:28:31 GMT-0500 (EST)","805951","Untrustworthy,Trustworthy","","null","","","","ratingFB","","trustrating_stim/white_mw012.bmp","null","","","","","","","","",""
"image-keyboard-response","33","97744","0.0-6.0-1.14","testing","bdp_trlrn","Thu Dec 10 2020 16:28:31 GMT-0500 (EST)","805951","Untrustworthy,Trustworthy","","1784","","","","rating","","trustrating_stim/white_00120_931230_fa_edt.bmp","7","","","","","","","","",""
"image-keyboard-response","34","97946","0.0-6.0-2.14","testing","bdp_trlrn","Thu Dec 10 2020 16:28:31 GMT-0500 (EST)","805951","Untrustworthy,Trustworthy","","null","","","","ratingFB","","trustrating_stim/white_00120_931230_fa_edt.bmp","null","","","","","","","","",""
"image-keyboard-response","35","100224","0.0-6.0-1.15","testing","bdp_trlrn","Thu Dec 10 2020 16:28:31 GMT-0500 (EST)","805951","Untrustworthy,Trustworthy","","2176","","","","rating","","trustrating_stim/white_mw025.bmp","2","","","","","","","","",""
"image-keyboard-response","36","100427","0.0-6.0-2.15","testing","bdp_trlrn","Thu Dec 10 2020 16:28:31 GMT-0500 (EST)","805951","Untrustworthy,Trustworthy","","null","","","","ratingFB","","trustrating_stim/white_mw025.bmp","null","","","","","","","","",""
"image-keyboard-response","37","102260","0.0-6.0-1.16","testing","bdp_trlrn","Thu Dec 10 2020 16:28:31 GMT-0500 (EST)","805951","Untrustworthy,Trustworthy","","1731","","","","rating","","trustrating_stim/white_mw071.bmp","8","","","","","","","","",""
"image-keyboard-response","38","102461","0.0-6.0-2.16","testing","bdp_trlrn","Thu Dec 10 2020 16:28:31 GMT-0500 (EST)","805951","Untrustworthy,Trustworthy","","null","","","","ratingFB","","trustrating_stim/white_mw071.bmp","null","","","","","","","","",""
"image-keyboard-response","39","105040","0.0-6.0-1.17","testing","bdp_trlrn","Thu Dec 10 2020 16:28:31 GMT-0500 (EST)","805951","Untrustworthy,Trustworthy","","2477","","","","rating","","trustrating_stim/white_mw035.bmp","2","","","","","","","","",""
"image-keyboard-response","40","105241","0.0-6.0-2.17","testing","bdp_trlrn","Thu Dec 10 2020 16:28:31 GMT-0500 (EST)","805951","Untrustworthy,Trustworthy","","null","","","","ratingFB","","trustrating_stim/white_mw035.bmp","null","","","","","","","","",""
"image-keyboard-response","41","107224","0.0-6.0-1.18","testing","bdp_trlrn","Thu Dec 10 2020 16:28:31 GMT-0500 (EST)","805951","Untrustworthy,Trustworthy","","1881","","","","rating","","trustrating_stim/white_mw051.bmp","2","","","","","","","","",""
"image-keyboard-response","42","107426","0.0-6.0-2.18","testing","bdp_trlrn","Thu Dec 10 2020 16:28:31 GMT-0500 (EST)","805951","Untrustworthy,Trustworthy","","null","","","","ratingFB","","trustrating_stim/white_mw051.bmp","null","","","","","","","","",""
"image-keyboard-response","43","108368","0.0-6.0-1.19","testing","bdp_trlrn","Thu Dec 10 2020 16:28:31 GMT-0500 (EST)","805951","Untrustworthy,Trustworthy","","839","","","","rating","","trustrating_stim/white_00657_941121_fa_edt.bmp","2","","","","","","","","",""
"image-keyboard-response","44","108570","0.0-6.0-2.19","testing","bdp_trlrn","Thu Dec 10 2020 16:28:31 GMT-0500 (EST)","805951","Untrustworthy,Trustworthy","","null","","","","ratingFB","","trustrating_stim/white_00657_941121_fa_edt.bmp","null","","","","","","","","",""
"image-keyboard-response","45","109336","0.0-6.0-1.20","testing","bdp_trlrn","Thu Dec 10 2020 16:28:31 GMT-0500 (EST)","805951","Untrustworthy,Trustworthy","","663","","","","rating","","trustrating_stim/white_00785_941205_fb_edt.bmp","2","","","","","","","","",""
"image-keyboard-response","46","109537","0.0-6.0-2.20","testing","bdp_trlrn","Thu Dec 10 2020 16:28:31 GMT-0500 (EST)","805951","Untrustworthy,Trustworthy","","null","","","","ratingFB","","trustrating_stim/white_00785_941205_fb_edt.bmp","null","","","","","","","","",""
"image-keyboard-response","47","111591","0.0-6.0-1.21","testing","bdp_trlrn","Thu Dec 10 2020 16:28:31 GMT-0500 (EST)","805951","Untrustworthy,Trustworthy","","1952","","","","rating","","trustrating_stim/white_mw058.bmp","5","","","","","","","","",""
"image-keyboard-response","48","111793","0.0-6.0-2.21","testing","bdp_trlrn","Thu Dec 10 2020 16:28:31 GMT-0500 (EST)","805951","Untrustworthy,Trustworthy","","null","","","","ratingFB","","trustrating_stim/white_mw058.bmp","null","","","","","","","","",""
"image-keyboard-response","49","112808","0.0-6.0-1.22","testing","bdp_trlrn","Thu Dec 10 2020 16:28:31 GMT-0500 (EST)","805951","Untrustworthy,Trustworthy","","913","","","","rating","","trustrating_stim/white_mw004.bmp","2","","","","","","","","",""
"image-keyboard-response","50","113010","0.0-6.0-2.22","testing","bdp_trlrn","Thu Dec 10 2020 16:28:31 GMT-0500 (EST)","805951","Untrustworthy,Trustworthy","","null","","","","ratingFB","","trustrating_stim/white_mw004.bmp","null","","","","","","","","",""
"image-keyboard-response","51","113982","0.0-6.0-1.23","testing","bdp_trlrn","Thu Dec 10 2020 16:28:31 GMT-0500 (EST)","805951","Untrustworthy,Trustworthy","","870","","","","rating","","trustrating_stim/white_mw080.bmp","2","","","","","","","","",""
"image-keyboard-response","52","114185","0.0-6.0-2.23","testing","bdp_trlrn","Thu Dec 10 2020 16:28:31 GMT-0500 (EST)","805951","Untrustworthy,Trustworthy","","null","","","","ratingFB","","trustrating_stim/white_mw080.bmp","null","","","","","","","","",""
"image-keyboard-response","53","115788","0.0-6.0-1.24","testing","bdp_trlrn","Thu Dec 10 2020 16:28:31 GMT-0500 (EST)","805951","Untrustworthy,Trustworthy","","1501","","","","rating","","trustrating_stim/white_mw022.bmp","2","","","","","","","","",""
"image-keyboard-response","54","115990","0.0-6.0-2.24","testing","bdp_trlrn","Thu Dec 10 2020 16:28:31 GMT-0500 (EST)","805951","Untrustworthy,Trustworthy","","null","","","","ratingFB","","trustrating_stim/white_mw022.bmp","null","","","","","","","","",""
"image-keyboard-response","55","116586","0.0-6.0-1.25","testing","bdp_trlrn","Thu Dec 10 2020 16:28:31 GMT-0500 (EST)","805951","Untrustworthy,Trustworthy","","495","","","","rating","","trustrating_stim/white_00253_940128_fa_edt.bmp","2","","","","","","","","",""
"image-keyboard-response","56","116788","0.0-6.0-2.25","testing","bdp_trlrn","Thu Dec 10 2020 16:28:31 GMT-0500 (EST)","805951","Untrustworthy,Trustworthy","","null","","","","ratingFB","","trustrating_stim/white_00253_940128_fa_edt.bmp","null","","","","","","","","",""
"image-keyboard-response","57","117835","0.0-6.0-1.26","testing","bdp_trlrn","Thu Dec 10 2020 16:28:31 GMT-0500 (EST)","805951","Untrustworthy,Trustworthy","","944","","","","rating","","trustrating_stim/white_mw043.bmp","5","","","","","","","","",""
"image-keyboard-response","58","118036","0.0-6.0-2.26","testing","bdp_trlrn","Thu Dec 10 2020 16:28:31 GMT-0500 (EST)","805951","Untrustworthy,Trustworthy","","null","","","","ratingFB","","trustrating_stim/white_mw043.bmp","null","","","","","","","","",""
"image-keyboard-response","59","118528","0.0-6.0-1.27","testing","bdp_trlrn","Thu Dec 10 2020 16:28:31 GMT-0500 (EST)","805951","Untrustworthy,Trustworthy","","390","","","","rating","","trustrating_stim/white_mw006.bmp","2","","","","","","","","",""
"image-keyboard-response","60","118730","0.0-6.0-2.27","testing","bdp_trlrn","Thu Dec 10 2020 16:28:31 GMT-0500 (EST)","805951","Untrustworthy,Trustworthy","","null","","","","ratingFB","","trustrating_stim/white_mw006.bmp","null","","","","","","","","",""
"image-keyboard-response","61","119231","0.0-6.0-1.28","testing","bdp_trlrn","Thu Dec 10 2020 16:28:31 GMT-0500 (EST)","805951","Untrustworthy,Trustworthy","","400","","","","rating","","trustrating_stim/white_mw016.bmp","3","","","","","","","","",""
"image-keyboard-response","62","119433","0.0-6.0-2.28","testing","bdp_trlrn","Thu Dec 10 2020 16:28:31 GMT-0500 (EST)","805951","Untrustworthy,Trustworthy","","null","","","","ratingFB","","trustrating_stim/white_mw016.bmp","null","","","","","","","","",""
"image-keyboard-response","63","119874","0.0-6.0-1.29","testing","bdp_trlrn","Thu Dec 10 2020 16:28:31 GMT-0500 (EST)","805951","Untrustworthy,Trustworthy","","340","","","","rating","","trustrating_stim/white_mw044.bmp","2","","","","","","","","",""
"image-keyboard-response","64","120077","0.0-6.0-2.29","testing","bdp_trlrn","Thu Dec 10 2020 16:28:31 GMT-0500 (EST)","805951","Untrustworthy,Trustworthy","","null","","","","ratingFB","","trustrating_stim/white_mw044.bmp","null","","","","","","","","",""
"image-keyboard-response","65","120642","0.0-6.0-1.30","testing","bdp_trlrn","Thu Dec 10 2020 16:28:31 GMT-0500 (EST)","805951","Untrustworthy,Trustworthy","","463","","","","rating","","trustrating_stim/white_mw013.bmp","3","","","","","","","","",""
"image-keyboard-response","66","120844","0.0-6.0-2.30","testing","bdp_trlrn","Thu Dec 10 2020 16:28:31 GMT-0500 (EST)","805951","Untrustworthy,Trustworthy","","null","","","","ratingFB","","trustrating_stim/white_mw013.bmp","null","","","","","","","","",""
"image-keyboard-response","67","121209","0.0-6.0-1.31","testing","bdp_trlrn","Thu Dec 10 2020 16:28:31 GMT-0500 (EST)","805951","Untrustworthy,Trustworthy","","264","","","","rating","","trustrating_stim/white_00807_941205_fb_edt.bmp","3","","","","","","","","",""
"image-keyboard-response","68","121411","0.0-6.0-2.31","testing","bdp_trlrn","Thu Dec 10 2020 16:28:31 GMT-0500 (EST)","805951","Untrustworthy,Trustworthy","","null","","","","ratingFB","","trustrating_stim/white_00807_941205_fb_edt.bmp","null","","","","","","","","",""
"image-keyboard-response","69","122135","0.0-6.0-1.32","testing","bdp_trlrn","Thu Dec 10 2020 16:28:31 GMT-0500 (EST)","805951","Untrustworthy,Trustworthy","","622","","","","rating","","trustrating_stim/white_mw054.bmp","2","","","","","","","","",""
"image-keyboard-response","70","122338","0.0-6.0-2.32","testing","bdp_trlrn","Thu Dec 10 2020 16:28:31 GMT-0500 (EST)","805951","Untrustworthy,Trustworthy","","null","","","","ratingFB","","trustrating_stim/white_mw054.bmp","null","","","","","","","","",""
"image-keyboard-response","71","123231","0.0-6.0-1.33","testing","bdp_trlrn","Thu Dec 10 2020 16:28:31 GMT-0500 (EST)","805951","Untrustworthy,Trustworthy","","792","","","","rating","","trustrating_stim/white_mw082.bmp","2","","","","","","","","",""
"image-keyboard-response","72","123433","0.0-6.0-2.33","testing","bdp_trlrn","Thu Dec 10 2020 16:28:31 GMT-0500 (EST)","805951","Untrustworthy,Trustworthy","","null","","","","ratingFB","","trustrating_stim/white_mw082.bmp","null","","","","","","","","",""
"image-keyboard-response","73","124259","0.0-6.0-1.34","testing","bdp_trlrn","Thu Dec 10 2020 16:28:31 GMT-0500 (EST)","805951","Untrustworthy,Trustworthy","","724","","","","rating","","trustrating_stim/white_mw084.bmp","5","","","","","","","","",""
"image-keyboard-response","74","124462","0.0-6.0-2.34","testing","bdp_trlrn","Thu Dec 10 2020 16:28:31 GMT-0500 (EST)","805951","Untrustworthy,Trustworthy","","null","","","","ratingFB","","trustrating_stim/white_mw084.bmp","null","","","","","","","","",""
"image-keyboard-response","75","125659","0.0-6.0-1.35","testing","bdp_trlrn","Thu Dec 10 2020 16:28:31 GMT-0500 (EST)","805951","Untrustworthy,Trustworthy","","1095","","","","rating","","trustrating_stim/white_00223_940128_fb_edt.bmp","5","","","","","","","","",""
"image-keyboard-response","76","125861","0.0-6.0-2.35","testing","bdp_trlrn","Thu Dec 10 2020 16:28:31 GMT-0500 (EST)","805951","Untrustworthy,Trustworthy","","null","","","","ratingFB","","trustrating_stim/white_00223_940128_fb_edt.bmp","null","","","","","","","","",""
"image-keyboard-response","77","126941","0.0-6.0-1.36","testing","bdp_trlrn","Thu Dec 10 2020 16:28:31 GMT-0500 (EST)","805951","Untrustworthy,Trustworthy","","977","","","","rating","","trustrating_stim/white_mw097.bmp","1","","","","","","","","",""
"image-keyboard-response","78","127143","0.0-6.0-2.36","testing","bdp_trlrn","Thu Dec 10 2020 16:28:31 GMT-0500 (EST)","805951","Untrustworthy,Trustworthy","","null","","","","ratingFB","","trustrating_stim/white_mw097.bmp","null","","","","","","","","",""
"image-keyboard-response","79","128230","0.0-6.0-1.37","testing","bdp_trlrn","Thu Dec 10 2020 16:28:31 GMT-0500 (EST)","805951","Untrustworthy,Trustworthy","","985","","","","rating","","trustrating_stim/white_00960_960627_fb_edt.bmp","1","","","","","","","","",""
"image-keyboard-response","80","128431","0.0-6.0-2.37","testing","bdp_trlrn","Thu Dec 10 2020 16:28:31 GMT-0500 (EST)","805951","Untrustworthy,Trustworthy","","null","","","","ratingFB","","trustrating_stim/white_00960_960627_fb_edt.bmp","null","","","","","","","","",""
"image-keyboard-response","81","130345","0.0-6.0-1.38","testing","bdp_trlrn","Thu Dec 10 2020 16:28:31 GMT-0500 (EST)","805951","Untrustworthy,Trustworthy","","1813","","","","rating","","trustrating_stim/white_00897_960530_fb_edt.bmp","7","","","","","","","","",""
"image-keyboard-response","82","130548","0.0-6.0-2.38","testing","bdp_trlrn","Thu Dec 10 2020 16:28:31 GMT-0500 (EST)","805951","Untrustworthy,Trustworthy","","null","","","","ratingFB","","trustrating_stim/white_00897_960530_fb_edt.bmp","null","","","","","","","","",""
"image-keyboard-response","83","132141","0.0-6.0-1.39","testing","bdp_trlrn","Thu Dec 10 2020 16:28:31 GMT-0500 (EST)","805951","Untrustworthy,Trustworthy","","1492","","","","rating","","trustrating_stim/white_00658_941121_fb_edt.bmp","8","","","","","","","","",""
"image-keyboard-response","84","132344","0.0-6.0-2.39","testing","bdp_trlrn","Thu Dec 10 2020 16:28:31 GMT-0500 (EST)","805951","Untrustworthy,Trustworthy","","null","","","","ratingFB","","trustrating_stim/white_00658_941121_fb_edt.bmp","null","","","","","","","","",""
"instructions","85","134958","0.0-7.0","testing","bdp_trlrn","Thu Dec 10 2020 16:28:31 GMT-0500 (EST)","805951","Untrustworthy,Trustworthy","[{""page_index"":0,""viewing_time"":2514}]","2514","","","","","","","","","","","","","","","",""
"instructions","86","239388","0.0-8.0","testing","bdp_trlrn","Thu Dec 10 2020 16:28:31 GMT-0500 (EST)","805951","Untrustworthy,Trustworthy","[{""page_index"":0,""viewing_time"":96630},{""page_index"":1,""viewing_time"":3319},{""page_index"":2,""viewing_time"":1446},{""page_index"":3,""viewing_time"":2217},{""page_index"":4,""viewing_time"":186},{""page_index"":5,""viewing_time"":247},{""page_index"":6,""viewing_time"":281}]","104327","","","","","","","","","","","","","","","",""
"","","","","testing","bdp_trlrn","Thu Dec 10 2020 16:28:31 GMT-0500 (EST)","805951","Untrustworthy,Trustworthy","","","fullscreenexit","87","241469","fullscreenexit","","","","","","","","","","","",""
"html-keyboard-response","87","263555","0.0-9.0","testing","bdp_trlrn","Thu Dec 10 2020 16:28:31 GMT-0500 (EST)","805951","Untrustworthy,Trustworthy","","24164","","","","","","<div class='header' style='text-align:left; position: absolute; top: 5%; left: 5%;'><small>Task 3 of 4</small></div><div style='text-align:left; position: absolute; top: 10%; left: 20%; width: 60%'><p><strong>1) What is the minimum number of points you can choose to send to your partner?</strong></p><p>a) 0</p><p>b) 1</p><p>c) 5</p>","A","","","","","","","","",""
"html-keyboard-response","88","269955","0.0-10.0","testing","bdp_trlrn","Thu Dec 10 2020 16:28:31 GMT-0500 (EST)","805951","Untrustworthy,Trustworthy","","6283","","","","","","<div class='header' style='text-align:left; position: absolute; top: 5%; left: 5%;'><small>Task 3 of 4</small></div><div style='text-align:left; position: absolute; top: 10%; left: 20%; width: 60%'><p><strong>1) What is the minimum number of points you can choose to send to your partner?</strong></p><p style='color:#FF0000'>a) 0</p><p>b) 1</p><p>c) 5</p><h3 style='color:#FF0000'>Incorrect!</h3><h3 class='center-content'>The correct response is b).</h3><h3 class='center-content'>The minimum number of points you can choose to send to your partner is 1 point.</h3><p><em>Press SPACEBAR to continue</em></p></div>"," ","","","","","","","","",""
"html-keyboard-response","89","276358","0.0-11.0","testing","bdp_trlrn","Thu Dec 10 2020 16:28:31 GMT-0500 (EST)","805951","Untrustworthy,Trustworthy","","6301","","","","","","<div class='header' style='text-align:left; position: absolute; top: 5%; left: 5%;'><small>Task 3 of 4</small></div><div style='text-align:left; position: absolute; top: 10%; left: 20%; width: 60%'><p><strong>2) What is the maximum number of points you can choose to send to your partner?</strong></p><p>a) 8</p><p>b) 5</p><p>c) 3</p>","B","","","","","","","","",""
"html-keyboard-response","90","280079","0.0-12.0","testing","bdp_trlrn","Thu Dec 10 2020 16:28:31 GMT-0500 (EST)","805951","Untrustworthy,Trustworthy","","3618","","","","","","<div class='header' style='text-align:left; position: absolute; top: 5%; left: 5%;'><small>Task 3 of 4</small></div><div style='text-align:left; position: absolute; top: 10%; left: 20%; width: 60%'><p><strong>2) What is the maximum number of points you can choose to send to your partner?</strong></p><p>a) 8</p><p style='color:#00FF00'>b) 5</p><p>c) 3</p><h3 style='color:#00FF00'>Correct!</h3><h3 class='center-content'>The correct response is b).</h3><h3 class='center-content'>The maximum number of points you can choose to send to your partner is 5 points.</h3><p><em>Press SPACEBAR to continue</em></p></div>"," ","","","","","","","","",""
"html-keyboard-response","91","283577","0.0-13.0","testing","bdp_trlrn","Thu Dec 10 2020 16:28:31 GMT-0500 (EST)","805951","Untrustworthy,Trustworthy","","3397","","","","","","<div class='header' style='text-align:left; position: absolute; top: 5%; left: 5%;'><small>Task 3 of 4</small></div><div style='text-align:left; position: absolute; top: 10%; left: 20%; width: 60%'><p><strong>3) What happens to the amount of points you send to your partner?</strong></p><p>a) Nothing</p><p>b) It doubles</p><p>c) It quadruples</p>","C","","","","","","","","",""
"html-keyboard-response","92","289051","0.0-14.0","testing","bdp_trlrn","Thu Dec 10 2020 16:28:31 GMT-0500 (EST)","805951","Untrustworthy,Trustworthy","","5370","","","","","","<div class='header' style='text-align:left; position: absolute; top: 5%; left: 5%;'><small>Task 3 of 4</small></div><div style='text-align:left; position: absolute; top: 10%; left: 20%; width: 60%'><p><strong>3) What happens to the amount of points you send to your partner?</strong></p><p>a) Nothing</p><p>b) It doubles</p><p style='color:#00FF00'>c) It quadruples</p><h3 style='color:#00FF00'>Correct!</h3><h3 class='center-content'>The correct response is c).</h3><h3 class='center-content'>The amount of points you send to your partner quadruples.</h3><p><em>Press SPACEBAR to continue</em></p></div>"," ","","","","","","","","",""
"html-keyboard-response","93","310874","0.0-15.0","testing","bdp_trlrn","Thu Dec 10 2020 16:28:31 GMT-0500 (EST)","805951","Untrustworthy,Trustworthy","","21722","","","","","","<div class='header' style='text-align:left; position: absolute; top: 5%; left: 5%;'><small>Task 3 of 4</small></div><div style='text-align:left; position: absolute; top: 10%; left: 20%; width: 60%'><p><strong>4) If you decide to share 4 out of 5 points with your partner, and he decided to share half of what he received, how many points would you end up with in this round?</strong></p><p>a) 16</p><p>b) 0</p><p>c) 9</p>","C","","","","","","","","",""
"html-keyboard-response","94","314146","0.0-16.0","testing","bdp_trlrn","Thu Dec 10 2020 16:28:31 GMT-0500 (EST)","805951","Untrustworthy,Trustworthy","","3169","","","","","","<div class='header' style='text-align:left; position: absolute; top: 5%; left: 5%;'><small>Task 3 of 4</small></div><div style='text-align:left; position: absolute; top: 10%; left: 20%; width: 60%'><p><strong>4) If you decide to share 4 points with your partner, and he decided to share half of what he received, how many points would you end up with in this round?</strong></p><p>a) 16</p><p>b) 0</p><p style='color:#00FF00'>c) 9</p><h3 style='color:#00FF00'>Correct!</h3><h3 class='center-content'>The correct response is c).</h3><h3 class='center-content'>If you share 4 out of 5 points with your partner and he decided to share half with you, you would receive 8 points back (i.e. (4 x 4)/2 = 8), totaling to 9 points altogether.</h3><p><em>Press SPACEBAR to continue</em></p></div>"," ","","","","","","","","",""
"instructions","95","319379","0.0-17.0","testing","bdp_trlrn","Thu Dec 10 2020 16:28:31 GMT-0500 (EST)","805951","Untrustworthy,Trustworthy","[{""page_index"":0,""viewing_time"":5131}]","5131","","","","","","","","","","","","","","","",""
"html-keyboard-response","96","330001","0.0-18.0-1.0","testing","bdp_trlrn","Thu Dec 10 2020 16:28:31 GMT-0500 (EST)","805951","Untrustworthy,Trustworthy","","10518","","","","decision","","<div class='pointsDiv'><table width=550px><tr><td>Current Point Total: 5</td><td style='text-align:right'>Round #: 1</td></tr></table></div><div class='trialDiv'><img src='trustrating_stim/white_mw099.bmp'><br><font class='baseline'><strong>Brian</strong><p>Choose number of points to send.</font><p><img src='img/responseButtonOffersNo0L.png' class='respPic'></p></div>","5","1","Brian","trustrating_stim/white_mw099.bmp","Kept","0.4,0.8","13","0.4","5","1"
"html-keyboard-response","97","331006","0.0-18.0-2.0","testing","bdp_trlrn","Thu Dec 10 2020 16:28:31 GMT-0500 (EST)","805951","Untrustworthy,Trustworthy","","null","","","","decisionFB","","<div class='pointsDiv'><table width=550px><tr><td>Current Point Total: 0</td><td style='text-align:right'>Round #: 1</td></tr></table></div><div class='trialDiv'><img src='trustrating_stim/white_mw099.bmp'><br><font class='baseline'><strong>Brian</strong><p>Choose number of points to send.</font><p><img src='img/responseButtonOffersNo0L5.png' class='respPic'></p></div>","null","1","Brian","trustrating_stim/white_mw099.bmp","Kept","0.4,0.8","13","0.4","0","1"
"html-keyboard-response","98","333009","0.0-18.0-3.0","testing","bdp_trlrn","Thu Dec 10 2020 16:28:31 GMT-0500 (EST)","805951","Untrustworthy,Trustworthy","","null","","","","feedback","","<div class='pointsDiv'><table width=550px><tr><td>Current Point Total: 0</td><td style='text-align:right'>Round #: 1</td></tr></table></div><div class='trialDiv'><img src='trustrating_stim/white_mw099.bmp'><br><font class='baseline'><strong>Brian</strong><p>Received: <strong>20</strong></font> &nbsp; &nbsp; &nbsp; &nbsp; &nbsp; &nbsp;<font class='negOutcome'>Shared back: <strong>0</strong></font><p><img src='img/responseButtonOffersNo0_wht.png' class='respPic'></p></font></div>","null","1","Brian","trustrating_stim/white_mw099.bmp","Kept","0.4,0.8","13","0.4","0","1"
"html-keyboard-response","99","343560","0.0-18.0-1.1","testing","bdp_trlrn","Thu Dec 10 2020 16:28:31 GMT-0500 (EST)","805951","Untrustworthy,Trustworthy","","10549","","","","decision","","<div class='pointsDiv'><table width=550px><tr><td>Current Point Total: 5</td><td style='text-align:right'>Round #: 2</td></tr></table></div><div class='trialDiv'><img src='trustrating_stim/white_mw046.bmp'><br><font class='baseline'><strong>Benjamin</strong><p>Choose number of points to send.</font><p><img src='img/responseButtonOffersNo0L.png' class='respPic'></p></div>","5","1","Benjamin","trustrating_stim/white_mw046.bmp","Kept","0.6,0.2","15","0.6","5","2"
"html-keyboard-response","100","344563","0.0-18.0-2.1","testing","bdp_trlrn","Thu Dec 10 2020 16:28:31 GMT-0500 (EST)","805951","Untrustworthy,Trustworthy","","null","","","","decisionFB","","<div class='pointsDiv'><table width=550px><tr><td>Current Point Total: 0</td><td style='text-align:right'>Round #: 2</td></tr></table></div><div class='trialDiv'><img src='trustrating_stim/white_mw046.bmp'><br><font class='baseline'><strong>Benjamin</strong><p>Choose number of points to send.</font><p><img src='img/responseButtonOffersNo0L5.png' class='respPic'></p></div>","null","1","Benjamin","trustrating_stim/white_mw046.bmp","Kept","0.6,0.2","15","0.6","0","2"
"html-keyboard-response","101","346566","0.0-18.0-3.1","testing","bdp_trlrn","Thu Dec 10 2020 16:28:31 GMT-0500 (EST)","805951","Untrustworthy,Trustworthy","","null","","","","feedback","","<div class='pointsDiv'><table width=550px><tr><td>Current Point Total: 0</td><td style='text-align:right'>Round #: 2</td></tr></table></div><div class='trialDiv'><img src='trustrating_stim/white_mw046.bmp'><br><font class='baseline'><strong>Benjamin</strong><p>Received: <strong>20</strong></font> &nbsp; &nbsp; &nbsp; &nbsp; &nbsp; &nbsp;<font class='negOutcome'>Shared back: <strong>0</strong></font><p><img src='img/responseButtonOffersNo0_wht.png' class='respPic'></p></font></div>","null","1","Benjamin","trustrating_stim/white_mw046.bmp","Kept","0.6,0.2","15","0.6","0","2"
"html-keyboard-response","102","348304","0.0-18.0-1.2","testing","bdp_trlrn","Thu Dec 10 2020 16:28:31 GMT-0500 (EST)","805951","Untrustworthy,Trustworthy","","1736","","","","decision","","<div class='pointsDiv'><table width=550px><tr><td>Current Point Total: 5</td><td style='text-align:right'>Round #: 3</td></tr></table></div><div class='trialDiv'><img src='trustrating_stim/white_mw035.bmp'><br><font class='baseline'><strong>Ryan</strong><p>Choose number of points to send.</font><p><img src='img/responseButtonOffersNo0L.png' class='respPic'></p></div>","1","1","Ryan","trustrating_stim/white_mw035.bmp","Shared","0.8,0.4","15","0.8","5","3"
"html-keyboard-response","103","349306","0.0-18.0-2.2","testing","bdp_trlrn","Thu Dec 10 2020 16:28:31 GMT-0500 (EST)","805951","Untrustworthy,Trustworthy","","null","","","","decisionFB","","<div class='pointsDiv'><table width=550px><tr><td>Current Point Total: 4</td><td style='text-align:right'>Round #: 3</td></tr></table></div><div class='trialDiv'><img src='trustrating_stim/white_mw035.bmp'><br><font class='baseline'><strong>Ryan</strong><p>Choose number of points to send.</font><p><img src='img/responseButtonOffersNo0L1.png' class='respPic'></p></div>","null","1","Ryan","trustrating_stim/white_mw035.bmp","Shared","0.8,0.4","15","0.8","4","3"
"html-keyboard-response","104","351309","0.0-18.0-3.2","testing","bdp_trlrn","Thu Dec 10 2020 16:28:31 GMT-0500 (EST)","805951","Untrustworthy,Trustworthy","","null","","","","feedback","","<div class='pointsDiv'><table width=550px><tr><td>Current Point Total: 6</td><td style='text-align:right'>Round #: 3</td></tr></table></div><div class='trialDiv'><img src='trustrating_stim/white_mw035.bmp'><br><font class='baseline'><strong>Ryan</strong><p>Received: <strong>4</strong></font> &nbsp; &nbsp; &nbsp; &nbsp; &nbsp; &nbsp;<font class='posOutcome'>Shared back: <strong>2</strong></font><p><img src='img/responseButtonOffersNo0_wht.png' class='respPic'></p></font></div>","null","1","Ryan","trustrating_stim/white_mw035.bmp","Shared","0.8,0.4","15","0.8","6","3"
"html-keyboard-response","105","358553","0.0-18.0-1.3","testing","bdp_trlrn","Thu Dec 10 2020 16:28:31 GMT-0500 (EST)","805951","Untrustworthy,Trustworthy","","7242","","","","decision","","<div class='pointsDiv'><table width=550px><tr><td>Current Point Total: 11</td><td style='text-align:right'>Round #: 4</td></tr></table></div><div class='trialDiv'><img src='trustrating_stim/white_mw089.bmp'><br><font class='baseline'><strong>Anthony</strong><p>Choose number of points to send.</font><p><img src='img/responseButtonOffersNo0L.png' class='respPic'></p></div>","3","1","Anthony","trustrating_stim/white_mw089.bmp","Kept","0.2,0.6","15","0.2","11","4"
"html-keyboard-response","106","359555","0.0-18.0-2.3","testing","bdp_trlrn","Thu Dec 10 2020 16:28:31 GMT-0500 (EST)","805951","Untrustworthy,Trustworthy","","null","","","","decisionFB","","<div class='pointsDiv'><table width=550px><tr><td>Current Point Total: 8</td><td style='text-align:right'>Round #: 4</td></tr></table></div><div class='trialDiv'><img src='trustrating_stim/white_mw089.bmp'><br><font class='baseline'><strong>Anthony</strong><p>Choose number of points to send.</font><p><img src='img/responseButtonOffersNo0L3.png' class='respPic'></p></div>","null","1","Anthony","trustrating_stim/white_mw089.bmp","Kept","0.2,0.6","15","0.2","8","4"
"html-keyboard-response","107","361558","0.0-18.0-3.3","testing","bdp_trlrn","Thu Dec 10 2020 16:28:31 GMT-0500 (EST)","805951","Untrustworthy,Trustworthy","","null","","","","feedback","","<div class='pointsDiv'><table width=550px><tr><td>Current Point Total: 8</td><td style='text-align:right'>Round #: 4</td></tr></table></div><div class='trialDiv'><img src='trustrating_stim/white_mw089.bmp'><br><font class='baseline'><strong>Anthony</strong><p>Received: <strong>12</strong></font> &nbsp; &nbsp; &nbsp; &nbsp; &nbsp; &nbsp;<font class='negOutcome'>Shared back: <strong>0</strong></font><p><img src='img/responseButtonOffersNo0_wht.png' class='respPic'></p></font></div>","null","1","Anthony","trustrating_stim/white_mw089.bmp","Kept","0.2,0.6","15","0.2","8","4"
"html-keyboard-response","108","363160","0.0-18.0-1.4","testing","bdp_trlrn","Thu Dec 10 2020 16:28:31 GMT-0500 (EST)","805951","Untrustworthy,Trustworthy","","1601","","","","decision","","<div class='pointsDiv'><table width=550px><tr><td>Current Point Total: 13</td><td style='text-align:right'>Round #: 5</td></tr></table></div><div class='trialDiv'><img src='trustrating_stim/white_mw099.bmp'><br><font class='baseline'><strong>Brian</strong><p>Choose number of points to send.</font><p><img src='img/responseButtonOffersNo0L.png' class='respPic'></p></div>","1","2","Brian","trustrating_stim/white_mw099.bmp","Shared","0.4,0.8","13","0.4","13","5"
"html-keyboard-response","109","364163","0.0-18.0-2.4","testing","bdp_trlrn","Thu Dec 10 2020 16:28:31 GMT-0500 (EST)","805951","Untrustworthy,Trustworthy","","null","","","","decisionFB","","<div class='pointsDiv'><table width=550px><tr><td>Current Point Total: 12</td><td style='text-align:right'>Round #: 5</td></tr></table></div><div class='trialDiv'><img src='trustrating_stim/white_mw099.bmp'><br><font class='baseline'><strong>Brian</strong><p>Choose number of points to send.</font><p><img src='img/responseButtonOffersNo0L1.png' class='respPic'></p></div>","null","2","Brian","trustrating_stim/white_mw099.bmp","Shared","0.4,0.8","13","0.4","12","5"
"html-keyboard-response","110","366166","0.0-18.0-3.4","testing","bdp_trlrn","Thu Dec 10 2020 16:28:31 GMT-0500 (EST)","805951","Untrustworthy,Trustworthy","","null","","","","feedback","","<div class='pointsDiv'><table width=550px><tr><td>Current Point Total: 14</td><td style='text-align:right'>Round #: 5</td></tr></table></div><div class='trialDiv'><img src='trustrating_stim/white_mw099.bmp'><br><font class='baseline'><strong>Brian</strong><p>Received: <strong>4</strong></font> &nbsp; &nbsp; &nbsp; &nbsp; &nbsp; &nbsp;<font class='posOutcome'>Shared back: <strong>2</strong></font><p><img src='img/responseButtonOffersNo0_wht.png' class='respPic'></p></font></div>","null","2","Brian","trustrating_stim/white_mw099.bmp","Shared","0.4,0.8","13","0.4","14","5"
"html-keyboard-response","111","371294","0.0-18.0-1.5","testing","bdp_trlrn","Thu Dec 10 2020 16:28:31 GMT-0500 (EST)","805951","Untrustworthy,Trustworthy","","5126","","","","decision","","<div class='pointsDiv'><table width=550px><tr><td>Current Point Total: 19</td><td style='text-align:right'>Round #: 6</td></tr></table></div><div class='trialDiv'><img src='trustrating_stim/white_mw089.bmp'><br><font class='baseline'><strong>Anthony</strong><p>Choose number of points to send.</font><p><img src='img/responseButtonOffersNo0L.png' class='respPic'></p></div>","2","2","Anthony","trustrating_stim/white_mw089.bmp","Kept","0.2,0.6","15","0.2","19","6"
"html-keyboard-response","112","372296","0.0-18.0-2.5","testing","bdp_trlrn","Thu Dec 10 2020 16:28:31 GMT-0500 (EST)","805951","Untrustworthy,Trustworthy","","null","","","","decisionFB","","<div class='pointsDiv'><table width=550px><tr><td>Current Point Total: 17</td><td style='text-align:right'>Round #: 6</td></tr></table></div><div class='trialDiv'><img src='trustrating_stim/white_mw089.bmp'><br><font class='baseline'><strong>Anthony</strong><p>Choose number of points to send.</font><p><img src='img/responseButtonOffersNo0L2.png' class='respPic'></p></div>","null","2","Anthony","trustrating_stim/white_mw089.bmp","Kept","0.2,0.6","15","0.2","17","6"
"html-keyboard-response","113","374299","0.0-18.0-3.5","testing","bdp_trlrn","Thu Dec 10 2020 16:28:31 GMT-0500 (EST)","805951","Untrustworthy,Trustworthy","","null","","","","feedback","","<div class='pointsDiv'><table width=550px><tr><td>Current Point Total: 17</td><td style='text-align:right'>Round #: 6</td></tr></table></div><div class='trialDiv'><img src='trustrating_stim/white_mw089.bmp'><br><font class='baseline'><strong>Anthony</strong><p>Received: <strong>8</strong></font> &nbsp; &nbsp; &nbsp; &nbsp; &nbsp; &nbsp;<font class='negOutcome'>Shared back: <strong>0</strong></font><p><img src='img/responseButtonOffersNo0_wht.png' class='respPic'></p></font></div>","null","2","Anthony","trustrating_stim/white_mw089.bmp","Kept","0.2,0.6","15","0.2","17","6"
"html-keyboard-response","114","375592","0.0-18.0-1.6","testing","bdp_trlrn","Thu Dec 10 2020 16:28:31 GMT-0500 (EST)","805951","Untrustworthy,Trustworthy","","1292","","","","decision","","<div class='pointsDiv'><table width=550px><tr><td>Current Point Total: 22</td><td style='text-align:right'>Round #: 7</td></tr></table></div><div class='trialDiv'><img src='trustrating_stim/white_mw035.bmp'><br><font class='baseline'><strong>Ryan</strong><p>Choose number of points to send.</font><p><img src='img/responseButtonOffersNo0L.png' class='respPic'></p></div>","1","2","Ryan","trustrating_stim/white_mw035.bmp","Shared","0.8,0.4","15","0.8","22","7"
"html-keyboard-response","115","376595","0.0-18.0-2.6","testing","bdp_trlrn","Thu Dec 10 2020 16:28:31 GMT-0500 (EST)","805951","Untrustworthy,Trustworthy","","null","","","","decisionFB","","<div class='pointsDiv'><table width=550px><tr><td>Current Point Total: 21</td><td style='text-align:right'>Round #: 7</td></tr></table></div><div class='trialDiv'><img src='trustrating_stim/white_mw035.bmp'><br><font class='baseline'><strong>Ryan</strong><p>Choose number of points to send.</font><p><img src='img/responseButtonOffersNo0L1.png' class='respPic'></p></div>","null","2","Ryan","trustrating_stim/white_mw035.bmp","Shared","0.8,0.4","15","0.8","21","7"
"html-keyboard-response","116","378597","0.0-18.0-3.6","testing","bdp_trlrn","Thu Dec 10 2020 16:28:31 GMT-0500 (EST)","805951","Untrustworthy,Trustworthy","","null","","","","feedback","","<div class='pointsDiv'><table width=550px><tr><td>Current Point Total: 23</td><td style='text-align:right'>Round #: 7</td></tr></table></div><div class='trialDiv'><img src='trustrating_stim/white_mw035.bmp'><br><font class='baseline'><strong>Ryan</strong><p>Received: <strong>4</strong></font> &nbsp; &nbsp; &nbsp; &nbsp; &nbsp; &nbsp;<font class='posOutcome'>Shared back: <strong>2</strong></font><p><img src='img/responseButtonOffersNo0_wht.png' class='respPic'></p></font></div>","null","2","Ryan","trustrating_stim/white_mw035.bmp","Shared","0.8,0.4","15","0.8","23","7"
"html-keyboard-response","117","379636","0.0-18.0-1.7","testing","bdp_trlrn","Thu Dec 10 2020 16:28:31 GMT-0500 (EST)","805951","Untrustworthy,Trustworthy","","1036","","","","decision","","<div class='pointsDiv'><table width=550px><tr><td>Current Point Total: 28</td><td style='text-align:right'>Round #: 8</td></tr></table></div><div class='trialDiv'><img src='trustrating_stim/white_mw046.bmp'><br><font class='baseline'><strong>Benjamin</strong><p>Choose number of points to send.</font><p><img src='img/responseButtonOffersNo0L.png' class='respPic'></p></div>","1","2","Benjamin","trustrating_stim/white_mw046.bmp","Shared","0.6,0.2","15","0.6","28","8"
"html-keyboard-response","118","380638","0.0-18.0-2.7","testing","bdp_trlrn","Thu Dec 10 2020 16:28:31 GMT-0500 (EST)","805951","Untrustworthy,Trustworthy","","null","","","","decisionFB","","<div class='pointsDiv'><table width=550px><tr><td>Current Point Total: 27</td><td style='text-align:right'>Round #: 8</td></tr></table></div><div class='trialDiv'><img src='trustrating_stim/white_mw046.bmp'><br><font class='baseline'><strong>Benjamin</strong><p>Choose number of points to send.</font><p><img src='img/responseButtonOffersNo0L1.png' class='respPic'></p></div>","null","2","Benjamin","trustrating_stim/white_mw046.bmp","Shared","0.6,0.2","15","0.6","27","8"
"html-keyboard-response","119","382641","0.0-18.0-3.7","testing","bdp_trlrn","Thu Dec 10 2020 16:28:31 GMT-0500 (EST)","805951","Untrustworthy,Trustworthy","","null","","","","feedback","","<div class='pointsDiv'><table width=550px><tr><td>Current Point Total: 29</td><td style='text-align:right'>Round #: 8</td></tr></table></div><div class='trialDiv'><img src='trustrating_stim/white_mw046.bmp'><br><font class='baseline'><strong>Benjamin</strong><p>Received: <strong>4</strong></font> &nbsp; &nbsp; &nbsp; &nbsp; &nbsp; &nbsp;<font class='posOutcome'>Shared back: <strong>2</strong></font><p><img src='img/responseButtonOffersNo0_wht.png' class='respPic'></p></font></div>","null","2","Benjamin","trustrating_stim/white_mw046.bmp","Shared","0.6,0.2","15","0.6","29","8"
"html-keyboard-response","120","384417","0.0-18.0-1.8","testing","bdp_trlrn","Thu Dec 10 2020 16:28:31 GMT-0500 (EST)","805951","Untrustworthy,Trustworthy","","1775","","","","decision","","<div class='pointsDiv'><table width=550px><tr><td>Current Point Total: 34</td><td style='text-align:right'>Round #: 9</td></tr></table></div><div class='trialDiv'><img src='trustrating_stim/white_mw089.bmp'><br><font class='baseline'><strong>Anthony</strong><p>Choose number of points to send.</font><p><img src='img/responseButtonOffersNo0L.png' class='respPic'></p></div>","1","3","Anthony","trustrating_stim/white_mw089.bmp","Kept","0.2,0.6","15","0.2","34","9"
"html-keyboard-response","121","385419","0.0-18.0-2.8","testing","bdp_trlrn","Thu Dec 10 2020 16:28:31 GMT-0500 (EST)","805951","Untrustworthy,Trustworthy","","null","","","","decisionFB","","<div class='pointsDiv'><table width=550px><tr><td>Current Point Total: 33</td><td style='text-align:right'>Round #: 9</td></tr></table></div><div class='trialDiv'><img src='trustrating_stim/white_mw089.bmp'><br><font class='baseline'><strong>Anthony</strong><p>Choose number of points to send.</font><p><img src='img/responseButtonOffersNo0L1.png' class='respPic'></p></div>","null","3","Anthony","trustrating_stim/white_mw089.bmp","Kept","0.2,0.6","15","0.2","33","9"
"html-keyboard-response","122","387422","0.0-18.0-3.8","testing","bdp_trlrn","Thu Dec 10 2020 16:28:31 GMT-0500 (EST)","805951","Untrustworthy,Trustworthy","","null","","","","feedback","","<div class='pointsDiv'><table width=550px><tr><td>Current Point Total: 33</td><td style='text-align:right'>Round #: 9</td></tr></table></div><div class='trialDiv'><img src='trustrating_stim/white_mw089.bmp'><br><font class='baseline'><strong>Anthony</strong><p>Received: <strong>4</strong></font> &nbsp; &nbsp; &nbsp; &nbsp; &nbsp; &nbsp;<font class='negOutcome'>Shared back: <strong>0</strong></font><p><img src='img/responseButtonOffersNo0_wht.png' class='respPic'></p></font></div>","null","3","Anthony","trustrating_stim/white_mw089.bmp","Kept","0.2,0.6","15","0.2","33","9"
"html-keyboard-response","123","388764","0.0-18.0-1.9","testing","bdp_trlrn","Thu Dec 10 2020 16:28:31 GMT-0500 (EST)","805951","Untrustworthy,Trustworthy","","1341","","","","decision","","<div class='pointsDiv'><table width=550px><tr><td>Current Point Total: 38</td><td style='text-align:right'>Round #: 10</td></tr></table></div><div class='trialDiv'><img src='trustrating_stim/white_mw046.bmp'><br><font class='baseline'><strong>Benjamin</strong><p>Choose number of points to send.</font><p><img src='img/responseButtonOffersNo0L.png' class='respPic'></p></div>","2","3","Benjamin","trustrating_stim/white_mw046.bmp","Shared","0.6,0.2","15","0.6","38","10"
"html-keyboard-response","124","389767","0.0-18.0-2.9","testing","bdp_trlrn","Thu Dec 10 2020 16:28:31 GMT-0500 (EST)","805951","Untrustworthy,Trustworthy","","null","","","","decisionFB","","<div class='pointsDiv'><table width=550px><tr><td>Current Point Total: 36</td><td style='text-align:right'>Round #: 10</td></tr></table></div><div class='trialDiv'><img src='trustrating_stim/white_mw046.bmp'><br><font class='baseline'><strong>Benjamin</strong><p>Choose number of points to send.</font><p><img src='img/responseButtonOffersNo0L2.png' class='respPic'></p></div>","null","3","Benjamin","trustrating_stim/white_mw046.bmp","Shared","0.6,0.2","15","0.6","36","10"
"html-keyboard-response","125","391770","0.0-18.0-3.9","testing","bdp_trlrn","Thu Dec 10 2020 16:28:31 GMT-0500 (EST)","805951","Untrustworthy,Trustworthy","","null","","","","feedback","","<div class='pointsDiv'><table width=550px><tr><td>Current Point Total: 40</td><td style='text-align:right'>Round #: 10</td></tr></table></div><div class='trialDiv'><img src='trustrating_stim/white_mw046.bmp'><br><font class='baseline'><strong>Benjamin</strong><p>Received: <strong>8</strong></font> &nbsp; &nbsp; &nbsp; &nbsp; &nbsp; &nbsp;<font class='posOutcome'>Shared back: <strong>4</strong></font><p><img src='img/responseButtonOffersNo0_wht.png' class='respPic'></p></font></div>","null","3","Benjamin","trustrating_stim/white_mw046.bmp","Shared","0.6,0.2","15","0.6","40","10"
"html-keyboard-response","126","392826","0.0-18.0-1.10","testing","bdp_trlrn","Thu Dec 10 2020 16:28:31 GMT-0500 (EST)","805951","Untrustworthy,Trustworthy","","1055","","","","decision","","<div class='pointsDiv'><table width=550px><tr><td>Current Point Total: 45</td><td style='text-align:right'>Round #: 11</td></tr></table></div><div class='trialDiv'><img src='trustrating_stim/white_mw099.bmp'><br><font class='baseline'><strong>Brian</strong><p>Choose number of points to send.</font><p><img src='img/responseButtonOffersNo0L.png' class='respPic'></p></div>","1","3","Brian","trustrating_stim/white_mw099.bmp","Shared","0.4,0.8","13","0.4","45","11"
"html-keyboard-response","127","393829","0.0-18.0-2.10","testing","bdp_trlrn","Thu Dec 10 2020 16:28:31 GMT-0500 (EST)","805951","Untrustworthy,Trustworthy","","null","","","","decisionFB","","<div class='pointsDiv'><table width=550px><tr><td>Current Point Total: 44</td><td style='text-align:right'>Round #: 11</td></tr></table></div><div class='trialDiv'><img src='trustrating_stim/white_mw099.bmp'><br><font class='baseline'><strong>Brian</strong><p>Choose number of points to send.</font><p><img src='img/responseButtonOffersNo0L1.png' class='respPic'></p></div>","null","3","Brian","trustrating_stim/white_mw099.bmp","Shared","0.4,0.8","13","0.4","44","11"
"html-keyboard-response","128","395830","0.0-18.0-3.10","testing","bdp_trlrn","Thu Dec 10 2020 16:28:31 GMT-0500 (EST)","805951","Untrustworthy,Trustworthy","","null","","","","feedback","","<div class='pointsDiv'><table width=550px><tr><td>Current Point Total: 46</td><td style='text-align:right'>Round #: 11</td></tr></table></div><div class='trialDiv'><img src='trustrating_stim/white_mw099.bmp'><br><font class='baseline'><strong>Brian</strong><p>Received: <strong>4</strong></font> &nbsp; &nbsp; &nbsp; &nbsp; &nbsp; &nbsp;<font class='posOutcome'>Shared back: <strong>2</strong></font><p><img src='img/responseButtonOffersNo0_wht.png' class='respPic'></p></font></div>","null","3","Brian","trustrating_stim/white_mw099.bmp","Shared","0.4,0.8","13","0.4","46","11"
"html-keyboard-response","129","397314","0.0-18.0-1.11","testing","bdp_trlrn","Thu Dec 10 2020 16:28:31 GMT-0500 (EST)","805951","Untrustworthy,Trustworthy","","1482","","","","decision","","<div class='pointsDiv'><table width=550px><tr><td>Current Point Total: 51</td><td style='text-align:right'>Round #: 12</td></tr></table></div><div class='trialDiv'><img src='trustrating_stim/white_mw035.bmp'><br><font class='baseline'><strong>Ryan</strong><p>Choose number of points to send.</font><p><img src='img/responseButtonOffersNo0L.png' class='respPic'></p></div>","3","3","Ryan","trustrating_stim/white_mw035.bmp","Shared","0.8,0.4","15","0.8","51","12"
"html-keyboard-response","130","398316","0.0-18.0-2.11","testing","bdp_trlrn","Thu Dec 10 2020 16:28:31 GMT-0500 (EST)","805951","Untrustworthy,Trustworthy","","null","","","","decisionFB","","<div class='pointsDiv'><table width=550px><tr><td>Current Point Total: 48</td><td style='text-align:right'>Round #: 12</td></tr></table></div><div class='trialDiv'><img src='trustrating_stim/white_mw035.bmp'><br><font class='baseline'><strong>Ryan</strong><p>Choose number of points to send.</font><p><img src='img/responseButtonOffersNo0L3.png' class='respPic'></p></div>","null","3","Ryan","trustrating_stim/white_mw035.bmp","Shared","0.8,0.4","15","0.8","48","12"
"html-keyboard-response","131","400319","0.0-18.0-3.11","testing","bdp_trlrn","Thu Dec 10 2020 16:28:31 GMT-0500 (EST)","805951","Untrustworthy,Trustworthy","","null","","","","feedback","","<div class='pointsDiv'><table width=550px><tr><td>Current Point Total: 54</td><td style='text-align:right'>Round #: 12</td></tr></table></div><div class='trialDiv'><img src='trustrating_stim/white_mw035.bmp'><br><font class='baseline'><strong>Ryan</strong><p>Received: <strong>12</strong></font> &nbsp; &nbsp; &nbsp; &nbsp; &nbsp; &nbsp;<font class='posOutcome'>Shared back: <strong>6</strong></font><p><img src='img/responseButtonOffersNo0_wht.png' class='respPic'></p></font></div>","null","3","Ryan","trustrating_stim/white_mw035.bmp","Shared","0.8,0.4","15","0.8","54","12"
"html-keyboard-response","132","403573","0.0-18.0-1.12","testing","bdp_trlrn","Thu Dec 10 2020 16:28:31 GMT-0500 (EST)","805951","Untrustworthy,Trustworthy","","3253","","","","decision","","<div class='pointsDiv'><table width=550px><tr><td>Current Point Total: 59</td><td style='text-align:right'>Round #: 13</td></tr></table></div><div class='trialDiv'><img src='trustrating_stim/white_mw046.bmp'><br><font class='baseline'><strong>Benjamin</strong><p>Choose number of points to send.</font><p><img src='img/responseButtonOffersNo0L.png' class='respPic'></p></div>","2","4","Benjamin","trustrating_stim/white_mw046.bmp","Shared","0.6,0.2","15","0.6","59","13"
"html-keyboard-response","133","404576","0.0-18.0-2.12","testing","bdp_trlrn","Thu Dec 10 2020 16:28:31 GMT-0500 (EST)","805951","Untrustworthy,Trustworthy","","null","","","","decisionFB","","<div class='pointsDiv'><table width=550px><tr><td>Current Point Total: 57</td><td style='text-align:right'>Round #: 13</td></tr></table></div><div class='trialDiv'><img src='trustrating_stim/white_mw046.bmp'><br><font class='baseline'><strong>Benjamin</strong><p>Choose number of points to send.</font><p><img src='img/responseButtonOffersNo0L2.png' class='respPic'></p></div>","null","4","Benjamin","trustrating_stim/white_mw046.bmp","Shared","0.6,0.2","15","0.6","57","13"
"html-keyboard-response","134","406578","0.0-18.0-3.12","testing","bdp_trlrn","Thu Dec 10 2020 16:28:31 GMT-0500 (EST)","805951","Untrustworthy,Trustworthy","","null","","","","feedback","","<div class='pointsDiv'><table width=550px><tr><td>Current Point Total: 61</td><td style='text-align:right'>Round #: 13</td></tr></table></div><div class='trialDiv'><img src='trustrating_stim/white_mw046.bmp'><br><font class='baseline'><strong>Benjamin</strong><p>Received: <strong>8</strong></font> &nbsp; &nbsp; &nbsp; &nbsp; &nbsp; &nbsp;<font class='posOutcome'>Shared back: <strong>4</strong></font><p><img src='img/responseButtonOffersNo0_wht.png' class='respPic'></p></font></div>","null","4","Benjamin","trustrating_stim/white_mw046.bmp","Shared","0.6,0.2","15","0.6","61","13"
"html-keyboard-response","135","408269","0.0-18.0-1.13","testing","bdp_trlrn","Thu Dec 10 2020 16:28:31 GMT-0500 (EST)","805951","Untrustworthy,Trustworthy","","1690","","","","decision","","<div class='pointsDiv'><table width=550px><tr><td>Current Point Total: 66</td><td style='text-align:right'>Round #: 14</td></tr></table></div><div class='trialDiv'><img src='trustrating_stim/white_mw099.bmp'><br><font class='baseline'><strong>Brian</strong><p>Choose number of points to send.</font><p><img src='img/responseButtonOffersNo0L.png' class='respPic'></p></div>","3","4","Brian","trustrating_stim/white_mw099.bmp","Kept","0.4,0.8","13","0.4","66","14"
"html-keyboard-response","136","409272","0.0-18.0-2.13","testing","bdp_trlrn","Thu Dec 10 2020 16:28:31 GMT-0500 (EST)","805951","Untrustworthy,Trustworthy","","null","","","","decisionFB","","<div class='pointsDiv'><table width=550px><tr><td>Current Point Total: 63</td><td style='text-align:right'>Round #: 14</td></tr></table></div><div class='trialDiv'><img src='trustrating_stim/white_mw099.bmp'><br><font class='baseline'><strong>Brian</strong><p>Choose number of points to send.</font><p><img src='img/responseButtonOffersNo0L3.png' class='respPic'></p></div>","null","4","Brian","trustrating_stim/white_mw099.bmp","Kept","0.4,0.8","13","0.4","63","14"
"html-keyboard-response","137","411275","0.0-18.0-3.13","testing","bdp_trlrn","Thu Dec 10 2020 16:28:31 GMT-0500 (EST)","805951","Untrustworthy,Trustworthy","","null","","","","feedback","","<div class='pointsDiv'><table width=550px><tr><td>Current Point Total: 63</td><td style='text-align:right'>Round #: 14</td></tr></table></div><div class='trialDiv'><img src='trustrating_stim/white_mw099.bmp'><br><font class='baseline'><strong>Brian</strong><p>Received: <strong>12</strong></font> &nbsp; &nbsp; &nbsp; &nbsp; &nbsp; &nbsp;<font class='negOutcome'>Shared back: <strong>0</strong></font><p><img src='img/responseButtonOffersNo0_wht.png' class='respPic'></p></font></div>","null","4","Brian","trustrating_stim/white_mw099.bmp","Kept","0.4,0.8","13","0.4","63","14"
"html-keyboard-response","138","412455","0.0-18.0-1.14","testing","bdp_trlrn","Thu Dec 10 2020 16:28:31 GMT-0500 (EST)","805951","Untrustworthy,Trustworthy","","1179","","","","decision","","<div class='pointsDiv'><table width=550px><tr><td>Current Point Total: 68</td><td style='text-align:right'>Round #: 15</td></tr></table></div><div class='trialDiv'><img src='trustrating_stim/white_mw089.bmp'><br><font class='baseline'><strong>Anthony</strong><p>Choose number of points to send.</font><p><img src='img/responseButtonOffersNo0L.png' class='respPic'></p></div>","1","4","Anthony","trustrating_stim/white_mw089.bmp","Kept","0.2,0.6","15","0.2","68","15"
"html-keyboard-response","139","413458","0.0-18.0-2.14","testing","bdp_trlrn","Thu Dec 10 2020 16:28:31 GMT-0500 (EST)","805951","Untrustworthy,Trustworthy","","null","","","","decisionFB","","<div class='pointsDiv'><table width=550px><tr><td>Current Point Total: 67</td><td style='text-align:right'>Round #: 15</td></tr></table></div><div class='trialDiv'><img src='trustrating_stim/white_mw089.bmp'><br><font class='baseline'><strong>Anthony</strong><p>Choose number of points to send.</font><p><img src='img/responseButtonOffersNo0L1.png' class='respPic'></p></div>","null","4","Anthony","trustrating_stim/white_mw089.bmp","Kept","0.2,0.6","15","0.2","67","15"
"html-keyboard-response","140","415459","0.0-18.0-3.14","testing","bdp_trlrn","Thu Dec 10 2020 16:28:31 GMT-0500 (EST)","805951","Untrustworthy,Trustworthy","","null","","","","feedback","","<div class='pointsDiv'><table width=550px><tr><td>Current Point Total: 67</td><td style='text-align:right'>Round #: 15</td></tr></table></div><div class='trialDiv'><img src='trustrating_stim/white_mw089.bmp'><br><font class='baseline'><strong>Anthony</strong><p>Received: <strong>4</strong></font> &nbsp; &nbsp; &nbsp; &nbsp; &nbsp; &nbsp;<font class='negOutcome'>Shared back: <strong>0</strong></font><p><img src='img/responseButtonOffersNo0_wht.png' class='respPic'></p></font></div>","null","4","Anthony","trustrating_stim/white_mw089.bmp","Kept","0.2,0.6","15","0.2","67","15"
"html-keyboard-response","141","418558","0.0-18.0-1.15","testing","bdp_trlrn","Thu Dec 10 2020 16:28:31 GMT-0500 (EST)","805951","Untrustworthy,Trustworthy","","3097","","","","decision","","<div class='pointsDiv'><table width=550px><tr><td>Current Point Total: 72</td><td style='text-align:right'>Round #: 16</td></tr></table></div><div class='trialDiv'><img src='trustrating_stim/white_mw035.bmp'><br><font class='baseline'><strong>Ryan</strong><p>Choose number of points to send.</font><p><img src='img/responseButtonOffersNo0L.png' class='respPic'></p></div>","4","4","Ryan","trustrating_stim/white_mw035.bmp","Shared","0.8,0.4","15","0.8","72","16"
"html-keyboard-response","142","419561","0.0-18.0-2.15","testing","bdp_trlrn","Thu Dec 10 2020 16:28:31 GMT-0500 (EST)","805951","Untrustworthy,Trustworthy","","null","","","","decisionFB","","<div class='pointsDiv'><table width=550px><tr><td>Current Point Total: 68</td><td style='text-align:right'>Round #: 16</td></tr></table></div><div class='trialDiv'><img src='trustrating_stim/white_mw035.bmp'><br><font class='baseline'><strong>Ryan</strong><p>Choose number of points to send.</font><p><img src='img/responseButtonOffersNo0L4.png' class='respPic'></p></div>","null","4","Ryan","trustrating_stim/white_mw035.bmp","Shared","0.8,0.4","15","0.8","68","16"
"html-keyboard-response","143","421564","0.0-18.0-3.15","testing","bdp_trlrn","Thu Dec 10 2020 16:28:31 GMT-0500 (EST)","805951","Untrustworthy,Trustworthy","","null","","","","feedback","","<div class='pointsDiv'><table width=550px><tr><td>Current Point Total: 76</td><td style='text-align:right'>Round #: 16</td></tr></table></div><div class='trialDiv'><img src='trustrating_stim/white_mw035.bmp'><br><font class='baseline'><strong>Ryan</strong><p>Received: <strong>16</strong></font> &nbsp; &nbsp; &nbsp; &nbsp; &nbsp; &nbsp;<font class='posOutcome'>Shared back: <strong>8</strong></font><p><img src='img/responseButtonOffersNo0_wht.png' class='respPic'></p></font></div>","null","4","Ryan","trustrating_stim/white_mw035.bmp","Shared","0.8,0.4","15","0.8","76","16"
"html-keyboard-response","144","422681","0.0-18.0-1.16","testing","bdp_trlrn","Thu Dec 10 2020 16:28:31 GMT-0500 (EST)","805951","Untrustworthy,Trustworthy","","1116","","","","decision","","<div class='pointsDiv'><table width=550px><tr><td>Current Point Total: 81</td><td style='text-align:right'>Round #: 17</td></tr></table></div><div class='trialDiv'><img src='trustrating_stim/white_mw046.bmp'><br><font class='baseline'><strong>Benjamin</strong><p>Choose number of points to send.</font><p><img src='img/responseButtonOffersNo0L.png' class='respPic'></p></div>","2","5","Benjamin","trustrating_stim/white_mw046.bmp","Shared","0.6,0.2","15","0.6","81","17"
"html-keyboard-response","145","423683","0.0-18.0-2.16","testing","bdp_trlrn","Thu Dec 10 2020 16:28:31 GMT-0500 (EST)","805951","Untrustworthy,Trustworthy","","null","","","","decisionFB","","<div class='pointsDiv'><table width=550px><tr><td>Current Point Total: 79</td><td style='text-align:right'>Round #: 17</td></tr></table></div><div class='trialDiv'><img src='trustrating_stim/white_mw046.bmp'><br><font class='baseline'><strong>Benjamin</strong><p>Choose number of points to send.</font><p><img src='img/responseButtonOffersNo0L2.png' class='respPic'></p></div>","null","5","Benjamin","trustrating_stim/white_mw046.bmp","Shared","0.6,0.2","15","0.6","79","17"
"html-keyboard-response","146","425686","0.0-18.0-3.16","testing","bdp_trlrn","Thu Dec 10 2020 16:28:31 GMT-0500 (EST)","805951","Untrustworthy,Trustworthy","","null","","","","feedback","","<div class='pointsDiv'><table width=550px><tr><td>Current Point Total: 83</td><td style='text-align:right'>Round #: 17</td></tr></table></div><div class='trialDiv'><img src='trustrating_stim/white_mw046.bmp'><br><font class='baseline'><strong>Benjamin</strong><p>Received: <strong>8</strong></font> &nbsp; &nbsp; &nbsp; &nbsp; &nbsp; &nbsp;<font class='posOutcome'>Shared back: <strong>4</strong></font><p><img src='img/responseButtonOffersNo0_wht.png' class='respPic'></p></font></div>","null","5","Benjamin","trustrating_stim/white_mw046.bmp","Shared","0.6,0.2","15","0.6","83","17"
"html-keyboard-response","147","426802","0.0-18.0-1.17","testing","bdp_trlrn","Thu Dec 10 2020 16:28:31 GMT-0500 (EST)","805951","Untrustworthy,Trustworthy","","1115","","","","decision","","<div class='pointsDiv'><table width=550px><tr><td>Current Point Total: 88</td><td style='text-align:right'>Round #: 18</td></tr></table></div><div class='trialDiv'><img src='trustrating_stim/white_mw035.bmp'><br><font class='baseline'><strong>Ryan</strong><p>Choose number of points to send.</font><p><img src='img/responseButtonOffersNo0L.png' class='respPic'></p></div>","4","5","Ryan","trustrating_stim/white_mw035.bmp","Shared","0.8,0.4","15","0.8","88","18"
"html-keyboard-response","148","427805","0.0-18.0-2.17","testing","bdp_trlrn","Thu Dec 10 2020 16:28:31 GMT-0500 (EST)","805951","Untrustworthy,Trustworthy","","null","","","","decisionFB","","<div class='pointsDiv'><table width=550px><tr><td>Current Point Total: 84</td><td style='text-align:right'>Round #: 18</td></tr></table></div><div class='trialDiv'><img src='trustrating_stim/white_mw035.bmp'><br><font class='baseline'><strong>Ryan</strong><p>Choose number of points to send.</font><p><img src='img/responseButtonOffersNo0L4.png' class='respPic'></p></div>","null","5","Ryan","trustrating_stim/white_mw035.bmp","Shared","0.8,0.4","15","0.8","84","18"
"html-keyboard-response","149","429807","0.0-18.0-3.17","testing","bdp_trlrn","Thu Dec 10 2020 16:28:31 GMT-0500 (EST)","805951","Untrustworthy,Trustworthy","","null","","","","feedback","","<div class='pointsDiv'><table width=550px><tr><td>Current Point Total: 92</td><td style='text-align:right'>Round #: 18</td></tr></table></div><div class='trialDiv'><img src='trustrating_stim/white_mw035.bmp'><br><font class='baseline'><strong>Ryan</strong><p>Received: <strong>16</strong></font> &nbsp; &nbsp; &nbsp; &nbsp; &nbsp; &nbsp;<font class='posOutcome'>Shared back: <strong>8</strong></font><p><img src='img/responseButtonOffersNo0_wht.png' class='respPic'></p></font></div>","null","5","Ryan","trustrating_stim/white_mw035.bmp","Shared","0.8,0.4","15","0.8","92","18"
"html-keyboard-response","150","431091","0.0-18.0-1.18","testing","bdp_trlrn","Thu Dec 10 2020 16:28:31 GMT-0500 (EST)","805951","Untrustworthy,Trustworthy","","1283","","","","decision","","<div class='pointsDiv'><table width=550px><tr><td>Current Point Total: 97</td><td style='text-align:right'>Round #: 19</td></tr></table></div><div class='trialDiv'><img src='trustrating_stim/white_mw089.bmp'><br><font class='baseline'><strong>Anthony</strong><p>Choose number of points to send.</font><p><img src='img/responseButtonOffersNo0L.png' class='respPic'></p></div>","1","5","Anthony","trustrating_stim/white_mw089.bmp","Kept","0.2,0.6","15","0.2","97","19"
"html-keyboard-response","151","432094","0.0-18.0-2.18","testing","bdp_trlrn","Thu Dec 10 2020 16:28:31 GMT-0500 (EST)","805951","Untrustworthy,Trustworthy","","null","","","","decisionFB","","<div class='pointsDiv'><table width=550px><tr><td>Current Point Total: 96</td><td style='text-align:right'>Round #: 19</td></tr></table></div><div class='trialDiv'><img src='trustrating_stim/white_mw089.bmp'><br><font class='baseline'><strong>Anthony</strong><p>Choose number of points to send.</font><p><img src='img/responseButtonOffersNo0L1.png' class='respPic'></p></div>","null","5","Anthony","trustrating_stim/white_mw089.bmp","Kept","0.2,0.6","15","0.2","96","19"
"html-keyboard-response","152","434096","0.0-18.0-3.18","testing","bdp_trlrn","Thu Dec 10 2020 16:28:31 GMT-0500 (EST)","805951","Untrustworthy,Trustworthy","","null","","","","feedback","","<div class='pointsDiv'><table width=550px><tr><td>Current Point Total: 96</td><td style='text-align:right'>Round #: 19</td></tr></table></div><div class='trialDiv'><img src='trustrating_stim/white_mw089.bmp'><br><font class='baseline'><strong>Anthony</strong><p>Received: <strong>4</strong></font> &nbsp; &nbsp; &nbsp; &nbsp; &nbsp; &nbsp;<font class='negOutcome'>Shared back: <strong>0</strong></font><p><img src='img/responseButtonOffersNo0_wht.png' class='respPic'></p></font></div>","null","5","Anthony","trustrating_stim/white_mw089.bmp","Kept","0.2,0.6","15","0.2","96","19"
"html-keyboard-response","153","435576","0.0-18.0-1.19","testing","bdp_trlrn","Thu Dec 10 2020 16:28:31 GMT-0500 (EST)","805951","Untrustworthy,Trustworthy","","1478","","","","decision","","<div class='pointsDiv'><table width=550px><tr><td>Current Point Total: 101</td><td style='text-align:right'>Round #: 20</td></tr></table></div><div class='trialDiv'><img src='trustrating_stim/white_mw099.bmp'><br><font class='baseline'><strong>Brian</strong><p>Choose number of points to send.</font><p><img src='img/responseButtonOffersNo0L.png' class='respPic'></p></div>","2","5","Brian","trustrating_stim/white_mw099.bmp","Kept","0.4,0.8","13","0.4","101","20"
"html-keyboard-response","154","436578","0.0-18.0-2.19","testing","bdp_trlrn","Thu Dec 10 2020 16:28:31 GMT-0500 (EST)","805951","Untrustworthy,Trustworthy","","null","","","","decisionFB","","<div class='pointsDiv'><table width=550px><tr><td>Current Point Total: 99</td><td style='text-align:right'>Round #: 20</td></tr></table></div><div class='trialDiv'><img src='trustrating_stim/white_mw099.bmp'><br><font class='baseline'><strong>Brian</strong><p>Choose number of points to send.</font><p><img src='img/responseButtonOffersNo0L2.png' class='respPic'></p></div>","null","5","Brian","trustrating_stim/white_mw099.bmp","Kept","0.4,0.8","13","0.4","99","20"
"html-keyboard-response","155","438581","0.0-18.0-3.19","testing","bdp_trlrn","Thu Dec 10 2020 16:28:31 GMT-0500 (EST)","805951","Untrustworthy,Trustworthy","","null","","","","feedback","","<div class='pointsDiv'><table width=550px><tr><td>Current Point Total: 99</td><td style='text-align:right'>Round #: 20</td></tr></table></div><div class='trialDiv'><img src='trustrating_stim/white_mw099.bmp'><br><font class='baseline'><strong>Brian</strong><p>Received: <strong>8</strong></font> &nbsp; &nbsp; &nbsp; &nbsp; &nbsp; &nbsp;<font class='negOutcome'>Shared back: <strong>0</strong></font><p><img src='img/responseButtonOffersNo0_wht.png' class='respPic'></p></font></div>","null","5","Brian","trustrating_stim/white_mw099.bmp","Kept","0.4,0.8","13","0.4","99","20"
"html-keyboard-response","156","439764","0.0-18.0-1.20","testing","bdp_trlrn","Thu Dec 10 2020 16:28:31 GMT-0500 (EST)","805951","Untrustworthy,Trustworthy","","1182","","","","decision","","<div class='pointsDiv'><table width=550px><tr><td>Current Point Total: 104</td><td style='text-align:right'>Round #: 21</td></tr></table></div><div class='trialDiv'><img src='trustrating_stim/white_mw046.bmp'><br><font class='baseline'><strong>Benjamin</strong><p>Choose number of points to send.</font><p><img src='img/responseButtonOffersNo0L.png' class='respPic'></p></div>","2","6","Benjamin","trustrating_stim/white_mw046.bmp","Kept","0.6,0.2","15","0.6","104","21"
"html-keyboard-response","157","440766","0.0-18.0-2.20","testing","bdp_trlrn","Thu Dec 10 2020 16:28:31 GMT-0500 (EST)","805951","Untrustworthy,Trustworthy","","null","","","","decisionFB","","<div class='pointsDiv'><table width=550px><tr><td>Current Point Total: 102</td><td style='text-align:right'>Round #: 21</td></tr></table></div><div class='trialDiv'><img src='trustrating_stim/white_mw046.bmp'><br><font class='baseline'><strong>Benjamin</strong><p>Choose number of points to send.</font><p><img src='img/responseButtonOffersNo0L2.png' class='respPic'></p></div>","null","6","Benjamin","trustrating_stim/white_mw046.bmp","Kept","0.6,0.2","15","0.6","102","21"
"html-keyboard-response","158","442769","0.0-18.0-3.20","testing","bdp_trlrn","Thu Dec 10 2020 16:28:31 GMT-0500 (EST)","805951","Untrustworthy,Trustworthy","","null","","","","feedback","","<div class='pointsDiv'><table width=550px><tr><td>Current Point Total: 102</td><td style='text-align:right'>Round #: 21</td></tr></table></div><div class='trialDiv'><img src='trustrating_stim/white_mw046.bmp'><br><font class='baseline'><strong>Benjamin</strong><p>Received: <strong>8</strong></font> &nbsp; &nbsp; &nbsp; &nbsp; &nbsp; &nbsp;<font class='negOutcome'>Shared back: <strong>0</strong></font><p><img src='img/responseButtonOffersNo0_wht.png' class='respPic'></p></font></div>","null","6","Benjamin","trustrating_stim/white_mw046.bmp","Kept","0.6,0.2","15","0.6","102","21"
"html-keyboard-response","159","444209","0.0-18.0-1.21","testing","bdp_trlrn","Thu Dec 10 2020 16:28:31 GMT-0500 (EST)","805951","Untrustworthy,Trustworthy","","1439","","","","decision","","<div class='pointsDiv'><table width=550px><tr><td>Current Point Total: 107</td><td style='text-align:right'>Round #: 22</td></tr></table></div><div class='trialDiv'><img src='trustrating_stim/white_mw099.bmp'><br><font class='baseline'><strong>Brian</strong><p>Choose number of points to send.</font><p><img src='img/responseButtonOffersNo0L.png' class='respPic'></p></div>","2","6","Brian","trustrating_stim/white_mw099.bmp","Kept","0.4,0.8","13","0.4","107","22"
"html-keyboard-response","160","445211","0.0-18.0-2.21","testing","bdp_trlrn","Thu Dec 10 2020 16:28:31 GMT-0500 (EST)","805951","Untrustworthy,Trustworthy","","null","","","","decisionFB","","<div class='pointsDiv'><table width=550px><tr><td>Current Point Total: 105</td><td style='text-align:right'>Round #: 22</td></tr></table></div><div class='trialDiv'><img src='trustrating_stim/white_mw099.bmp'><br><font class='baseline'><strong>Brian</strong><p>Choose number of points to send.</font><p><img src='img/responseButtonOffersNo0L2.png' class='respPic'></p></div>","null","6","Brian","trustrating_stim/white_mw099.bmp","Kept","0.4,0.8","13","0.4","105","22"
"html-keyboard-response","161","447214","0.0-18.0-3.21","testing","bdp_trlrn","Thu Dec 10 2020 16:28:31 GMT-0500 (EST)","805951","Untrustworthy,Trustworthy","","null","","","","feedback","","<div class='pointsDiv'><table width=550px><tr><td>Current Point Total: 105</td><td style='text-align:right'>Round #: 22</td></tr></table></div><div class='trialDiv'><img src='trustrating_stim/white_mw099.bmp'><br><font class='baseline'><strong>Brian</strong><p>Received: <strong>8</strong></font> &nbsp; &nbsp; &nbsp; &nbsp; &nbsp; &nbsp;<font class='negOutcome'>Shared back: <strong>0</strong></font><p><img src='img/responseButtonOffersNo0_wht.png' class='respPic'></p></font></div>","null","6","Brian","trustrating_stim/white_mw099.bmp","Kept","0.4,0.8","13","0.4","105","22"
"html-keyboard-response","162","449155","0.0-18.0-1.22","testing","bdp_trlrn","Thu Dec 10 2020 16:28:31 GMT-0500 (EST)","805951","Untrustworthy,Trustworthy","","1939","","","","decision","","<div class='pointsDiv'><table width=550px><tr><td>Current Point Total: 110</td><td style='text-align:right'>Round #: 23</td></tr></table></div><div class='trialDiv'><img src='trustrating_stim/white_mw089.bmp'><br><font class='baseline'><strong>Anthony</strong><p>Choose number of points to send.</font><p><img src='img/responseButtonOffersNo0L.png' class='respPic'></p></div>","1","6","Anthony","trustrating_stim/white_mw089.bmp","Kept","0.2,0.6","15","0.2","110","23"
"html-keyboard-response","163","450157","0.0-18.0-2.22","testing","bdp_trlrn","Thu Dec 10 2020 16:28:31 GMT-0500 (EST)","805951","Untrustworthy,Trustworthy","","null","","","","decisionFB","","<div class='pointsDiv'><table width=550px><tr><td>Current Point Total: 109</td><td style='text-align:right'>Round #: 23</td></tr></table></div><div class='trialDiv'><img src='trustrating_stim/white_mw089.bmp'><br><font class='baseline'><strong>Anthony</strong><p>Choose number of points to send.</font><p><img src='img/responseButtonOffersNo0L1.png' class='respPic'></p></div>","null","6","Anthony","trustrating_stim/white_mw089.bmp","Kept","0.2,0.6","15","0.2","109","23"
"html-keyboard-response","164","452160","0.0-18.0-3.22","testing","bdp_trlrn","Thu Dec 10 2020 16:28:31 GMT-0500 (EST)","805951","Untrustworthy,Trustworthy","","null","","","","feedback","","<div class='pointsDiv'><table width=550px><tr><td>Current Point Total: 109</td><td style='text-align:right'>Round #: 23</td></tr></table></div><div class='trialDiv'><img src='trustrating_stim/white_mw089.bmp'><br><font class='baseline'><strong>Anthony</strong><p>Received: <strong>4</strong></font> &nbsp; &nbsp; &nbsp; &nbsp; &nbsp; &nbsp;<font class='negOutcome'>Shared back: <strong>0</strong></font><p><img src='img/responseButtonOffersNo0_wht.png' class='respPic'></p></font></div>","null","6","Anthony","trustrating_stim/white_mw089.bmp","Kept","0.2,0.6","15","0.2","109","23"
"html-keyboard-response","165","454056","0.0-18.0-1.23","testing","bdp_trlrn","Thu Dec 10 2020 16:28:31 GMT-0500 (EST)","805951","Untrustworthy,Trustworthy","","1895","","","","decision","","<div class='pointsDiv'><table width=550px><tr><td>Current Point Total: 114</td><td style='text-align:right'>Round #: 24</td></tr></table></div><div class='trialDiv'><img src='trustrating_stim/white_mw035.bmp'><br><font class='baseline'><strong>Ryan</strong><p>Choose number of points to send.</font><p><img src='img/responseButtonOffersNo0L.png' class='respPic'></p></div>","4","6","Ryan","trustrating_stim/white_mw035.bmp","Kept","0.8,0.4","15","0.8","114","24"
"html-keyboard-response","166","455059","0.0-18.0-2.23","testing","bdp_trlrn","Thu Dec 10 2020 16:28:31 GMT-0500 (EST)","805951","Untrustworthy,Trustworthy","","null","","","","decisionFB","","<div class='pointsDiv'><table width=550px><tr><td>Current Point Total: 110</td><td style='text-align:right'>Round #: 24</td></tr></table></div><div class='trialDiv'><img src='trustrating_stim/white_mw035.bmp'><br><font class='baseline'><strong>Ryan</strong><p>Choose number of points to send.</font><p><img src='img/responseButtonOffersNo0L4.png' class='respPic'></p></div>","null","6","Ryan","trustrating_stim/white_mw035.bmp","Kept","0.8,0.4","15","0.8","110","24"
"html-keyboard-response","167","457061","0.0-18.0-3.23","testing","bdp_trlrn","Thu Dec 10 2020 16:28:31 GMT-0500 (EST)","805951","Untrustworthy,Trustworthy","","null","","","","feedback","","<div class='pointsDiv'><table width=550px><tr><td>Current Point Total: 110</td><td style='text-align:right'>Round #: 24</td></tr></table></div><div class='trialDiv'><img src='trustrating_stim/white_mw035.bmp'><br><font class='baseline'><strong>Ryan</strong><p>Received: <strong>16</strong></font> &nbsp; &nbsp; &nbsp; &nbsp; &nbsp; &nbsp;<font class='negOutcome'>Shared back: <strong>0</strong></font><p><img src='img/responseButtonOffersNo0_wht.png' class='respPic'></p></font></div>","null","6","Ryan","trustrating_stim/white_mw035.bmp","Kept","0.8,0.4","15","0.8","110","24"
"html-keyboard-response","168","457829","0.0-18.0-1.24","testing","bdp_trlrn","Thu Dec 10 2020 16:28:31 GMT-0500 (EST)","805951","Untrustworthy,Trustworthy","","766","","","","decision","","<div class='pointsDiv'><table width=550px><tr><td>Current Point Total: 115</td><td style='text-align:right'>Round #: 25</td></tr></table></div><div class='trialDiv'><img src='trustrating_stim/white_mw089.bmp'><br><font class='baseline'><strong>Anthony</strong><p>Choose number of points to send.</font><p><img src='img/responseButtonOffersNo0L.png' class='respPic'></p></div>","1","7","Anthony","trustrating_stim/white_mw089.bmp","Kept","0.2,0.6","15","0.2","115","25"
"html-keyboard-response","169","458831","0.0-18.0-2.24","testing","bdp_trlrn","Thu Dec 10 2020 16:28:31 GMT-0500 (EST)","805951","Untrustworthy,Trustworthy","","null","","","","decisionFB","","<div class='pointsDiv'><table width=550px><tr><td>Current Point Total: 114</td><td style='text-align:right'>Round #: 25</td></tr></table></div><div class='trialDiv'><img src='trustrating_stim/white_mw089.bmp'><br><font class='baseline'><strong>Anthony</strong><p>Choose number of points to send.</font><p><img src='img/responseButtonOffersNo0L1.png' class='respPic'></p></div>","null","7","Anthony","trustrating_stim/white_mw089.bmp","Kept","0.2,0.6","15","0.2","114","25"
"html-keyboard-response","170","460834","0.0-18.0-3.24","testing","bdp_trlrn","Thu Dec 10 2020 16:28:31 GMT-0500 (EST)","805951","Untrustworthy,Trustworthy","","null","","","","feedback","","<div class='pointsDiv'><table width=550px><tr><td>Current Point Total: 114</td><td style='text-align:right'>Round #: 25</td></tr></table></div><div class='trialDiv'><img src='trustrating_stim/white_mw089.bmp'><br><font class='baseline'><strong>Anthony</strong><p>Received: <strong>4</strong></font> &nbsp; &nbsp; &nbsp; &nbsp; &nbsp; &nbsp;<font class='negOutcome'>Shared back: <strong>0</strong></font><p><img src='img/responseButtonOffersNo0_wht.png' class='respPic'></p></font></div>","null","7","Anthony","trustrating_stim/white_mw089.bmp","Kept","0.2,0.6","15","0.2","114","25"
"html-keyboard-response","171","461531","0.0-18.0-1.25","testing","bdp_trlrn","Thu Dec 10 2020 16:28:31 GMT-0500 (EST)","805951","Untrustworthy,Trustworthy","","696","","","","decision","","<div class='pointsDiv'><table width=550px><tr><td>Current Point Total: 119</td><td style='text-align:right'>Round #: 26</td></tr></table></div><div class='trialDiv'><img src='trustrating_stim/white_mw046.bmp'><br><font class='baseline'><strong>Benjamin</strong><p>Choose number of points to send.</font><p><img src='img/responseButtonOffersNo0L.png' class='respPic'></p></div>","1","7","Benjamin","trustrating_stim/white_mw046.bmp","Shared","0.6,0.2","15","0.6","119","26"
"html-keyboard-response","172","462534","0.0-18.0-2.25","testing","bdp_trlrn","Thu Dec 10 2020 16:28:31 GMT-0500 (EST)","805951","Untrustworthy,Trustworthy","","null","","","","decisionFB","","<div class='pointsDiv'><table width=550px><tr><td>Current Point Total: 118</td><td style='text-align:right'>Round #: 26</td></tr></table></div><div class='trialDiv'><img src='trustrating_stim/white_mw046.bmp'><br><font class='baseline'><strong>Benjamin</strong><p>Choose number of points to send.</font><p><img src='img/responseButtonOffersNo0L1.png' class='respPic'></p></div>","null","7","Benjamin","trustrating_stim/white_mw046.bmp","Shared","0.6,0.2","15","0.6","118","26"
"html-keyboard-response","173","464537","0.0-18.0-3.25","testing","bdp_trlrn","Thu Dec 10 2020 16:28:31 GMT-0500 (EST)","805951","Untrustworthy,Trustworthy","","null","","","","feedback","","<div class='pointsDiv'><table width=550px><tr><td>Current Point Total: 120</td><td style='text-align:right'>Round #: 26</td></tr></table></div><div class='trialDiv'><img src='trustrating_stim/white_mw046.bmp'><br><font class='baseline'><strong>Benjamin</strong><p>Received: <strong>4</strong></font> &nbsp; &nbsp; &nbsp; &nbsp; &nbsp; &nbsp;<font class='posOutcome'>Shared back: <strong>2</strong></font><p><img src='img/responseButtonOffersNo0_wht.png' class='respPic'></p></font></div>","null","7","Benjamin","trustrating_stim/white_mw046.bmp","Shared","0.6,0.2","15","0.6","120","26"
"html-keyboard-response","174","465408","0.0-18.0-1.26","testing","bdp_trlrn","Thu Dec 10 2020 16:28:31 GMT-0500 (EST)","805951","Untrustworthy,Trustworthy","","870","","","","decision","","<div class='pointsDiv'><table width=550px><tr><td>Current Point Total: 125</td><td style='text-align:right'>Round #: 27</td></tr></table></div><div class='trialDiv'><img src='trustrating_stim/white_mw099.bmp'><br><font class='baseline'><strong>Brian</strong><p>Choose number of points to send.</font><p><img src='img/responseButtonOffersNo0L.png' class='respPic'></p></div>","1","7","Brian","trustrating_stim/white_mw099.bmp","Kept","0.4,0.8","13","0.4","125","27"
"html-keyboard-response","175","466411","0.0-18.0-2.26","testing","bdp_trlrn","Thu Dec 10 2020 16:28:31 GMT-0500 (EST)","805951","Untrustworthy,Trustworthy","","null","","","","decisionFB","","<div class='pointsDiv'><table width=550px><tr><td>Current Point Total: 124</td><td style='text-align:right'>Round #: 27</td></tr></table></div><div class='trialDiv'><img src='trustrating_stim/white_mw099.bmp'><br><font class='baseline'><strong>Brian</strong><p>Choose number of points to send.</font><p><img src='img/responseButtonOffersNo0L1.png' class='respPic'></p></div>","null","7","Brian","trustrating_stim/white_mw099.bmp","Kept","0.4,0.8","13","0.4","124","27"
"html-keyboard-response","176","468412","0.0-18.0-3.26","testing","bdp_trlrn","Thu Dec 10 2020 16:28:31 GMT-0500 (EST)","805951","Untrustworthy,Trustworthy","","null","","","","feedback","","<div class='pointsDiv'><table width=550px><tr><td>Current Point Total: 124</td><td style='text-align:right'>Round #: 27</td></tr></table></div><div class='trialDiv'><img src='trustrating_stim/white_mw099.bmp'><br><font class='baseline'><strong>Brian</strong><p>Received: <strong>4</strong></font> &nbsp; &nbsp; &nbsp; &nbsp; &nbsp; &nbsp;<font class='negOutcome'>Shared back: <strong>0</strong></font><p><img src='img/responseButtonOffersNo0_wht.png' class='respPic'></p></font></div>","null","7","Brian","trustrating_stim/white_mw099.bmp","Kept","0.4,0.8","13","0.4","124","27"
"html-keyboard-response","177","470615","0.0-18.0-1.27","testing","bdp_trlrn","Thu Dec 10 2020 16:28:31 GMT-0500 (EST)","805951","Untrustworthy,Trustworthy","","2202","","","","decision","","<div class='pointsDiv'><table width=550px><tr><td>Current Point Total: 129</td><td style='text-align:right'>Round #: 28</td></tr></table></div><div class='trialDiv'><img src='trustrating_stim/white_mw035.bmp'><br><font class='baseline'><strong>Ryan</strong><p>Choose number of points to send.</font><p><img src='img/responseButtonOffersNo0L.png' class='respPic'></p></div>","4","7","Ryan","trustrating_stim/white_mw035.bmp","Shared","0.8,0.4","15","0.8","129","28"
"html-keyboard-response","178","471616","0.0-18.0-2.27","testing","bdp_trlrn","Thu Dec 10 2020 16:28:31 GMT-0500 (EST)","805951","Untrustworthy,Trustworthy","","null","","","","decisionFB","","<div class='pointsDiv'><table width=550px><tr><td>Current Point Total: 125</td><td style='text-align:right'>Round #: 28</td></tr></table></div><div class='trialDiv'><img src='trustrating_stim/white_mw035.bmp'><br><font class='baseline'><strong>Ryan</strong><p>Choose number of points to send.</font><p><img src='img/responseButtonOffersNo0L4.png' class='respPic'></p></div>","null","7","Ryan","trustrating_stim/white_mw035.bmp","Shared","0.8,0.4","15","0.8","125","28"
"html-keyboard-response","179","473619","0.0-18.0-3.27","testing","bdp_trlrn","Thu Dec 10 2020 16:28:31 GMT-0500 (EST)","805951","Untrustworthy,Trustworthy","","null","","","","feedback","","<div class='pointsDiv'><table width=550px><tr><td>Current Point Total: 133</td><td style='text-align:right'>Round #: 28</td></tr></table></div><div class='trialDiv'><img src='trustrating_stim/white_mw035.bmp'><br><font class='baseline'><strong>Ryan</strong><p>Received: <strong>16</strong></font> &nbsp; &nbsp; &nbsp; &nbsp; &nbsp; &nbsp;<font class='posOutcome'>Shared back: <strong>8</strong></font><p><img src='img/responseButtonOffersNo0_wht.png' class='respPic'></p></font></div>","null","7","Ryan","trustrating_stim/white_mw035.bmp","Shared","0.8,0.4","15","0.8","133","28"
"html-keyboard-response","180","474697","0.0-18.0-1.28","testing","bdp_trlrn","Thu Dec 10 2020 16:28:31 GMT-0500 (EST)","805951","Untrustworthy,Trustworthy","","1076","","","","decision","","<div class='pointsDiv'><table width=550px><tr><td>Current Point Total: 138</td><td style='text-align:right'>Round #: 29</td></tr></table></div><div class='trialDiv'><img src='trustrating_stim/white_mw099.bmp'><br><font class='baseline'><strong>Brian</strong><p>Choose number of points to send.</font><p><img src='img/responseButtonOffersNo0L.png' class='respPic'></p></div>","1","8","Brian","trustrating_stim/white_mw099.bmp","Kept","0.4,0.8","13","0.4","138","29"
"html-keyboard-response","181","475699","0.0-18.0-2.28","testing","bdp_trlrn","Thu Dec 10 2020 16:28:31 GMT-0500 (EST)","805951","Untrustworthy,Trustworthy","","null","","","","decisionFB","","<div class='pointsDiv'><table width=550px><tr><td>Current Point Total: 137</td><td style='text-align:right'>Round #: 29</td></tr></table></div><div class='trialDiv'><img src='trustrating_stim/white_mw099.bmp'><br><font class='baseline'><strong>Brian</strong><p>Choose number of points to send.</font><p><img src='img/responseButtonOffersNo0L1.png' class='respPic'></p></div>","null","8","Brian","trustrating_stim/white_mw099.bmp","Kept","0.4,0.8","13","0.4","137","29"
"html-keyboard-response","182","477702","0.0-18.0-3.28","testing","bdp_trlrn","Thu Dec 10 2020 16:28:31 GMT-0500 (EST)","805951","Untrustworthy,Trustworthy","","null","","","","feedback","","<div class='pointsDiv'><table width=550px><tr><td>Current Point Total: 137</td><td style='text-align:right'>Round #: 29</td></tr></table></div><div class='trialDiv'><img src='trustrating_stim/white_mw099.bmp'><br><font class='baseline'><strong>Brian</strong><p>Received: <strong>4</strong></font> &nbsp; &nbsp; &nbsp; &nbsp; &nbsp; &nbsp;<font class='negOutcome'>Shared back: <strong>0</strong></font><p><img src='img/responseButtonOffersNo0_wht.png' class='respPic'></p></font></div>","null","8","Brian","trustrating_stim/white_mw099.bmp","Kept","0.4,0.8","13","0.4","137","29"
"html-keyboard-response","183","480195","0.0-18.0-1.29","testing","bdp_trlrn","Thu Dec 10 2020 16:28:31 GMT-0500 (EST)","805951","Untrustworthy,Trustworthy","","2492","","","","decision","","<div class='pointsDiv'><table width=550px><tr><td>Current Point Total: 142</td><td style='text-align:right'>Round #: 30</td></tr></table></div><div class='trialDiv'><img src='trustrating_stim/white_mw035.bmp'><br><font class='baseline'><strong>Ryan</strong><p>Choose number of points to send.</font><p><img src='img/responseButtonOffersNo0L.png' class='respPic'></p></div>","5","8","Ryan","trustrating_stim/white_mw035.bmp","Kept","0.8,0.4","15","0.8","142","30"
"html-keyboard-response","184","481198","0.0-18.0-2.29","testing","bdp_trlrn","Thu Dec 10 2020 16:28:31 GMT-0500 (EST)","805951","Untrustworthy,Trustworthy","","null","","","","decisionFB","","<div class='pointsDiv'><table width=550px><tr><td>Current Point Total: 137</td><td style='text-align:right'>Round #: 30</td></tr></table></div><div class='trialDiv'><img src='trustrating_stim/white_mw035.bmp'><br><font class='baseline'><strong>Ryan</strong><p>Choose number of points to send.</font><p><img src='img/responseButtonOffersNo0L5.png' class='respPic'></p></div>","null","8","Ryan","trustrating_stim/white_mw035.bmp","Kept","0.8,0.4","15","0.8","137","30"
"html-keyboard-response","185","483199","0.0-18.0-3.29","testing","bdp_trlrn","Thu Dec 10 2020 16:28:31 GMT-0500 (EST)","805951","Untrustworthy,Trustworthy","","null","","","","feedback","","<div class='pointsDiv'><table width=550px><tr><td>Current Point Total: 137</td><td style='text-align:right'>Round #: 30</td></tr></table></div><div class='trialDiv'><img src='trustrating_stim/white_mw035.bmp'><br><font class='baseline'><strong>Ryan</strong><p>Received: <strong>20</strong></font> &nbsp; &nbsp; &nbsp; &nbsp; &nbsp; &nbsp;<font class='negOutcome'>Shared back: <strong>0</strong></font><p><img src='img/responseButtonOffersNo0_wht.png' class='respPic'></p></font></div>","null","8","Ryan","trustrating_stim/white_mw035.bmp","Kept","0.8,0.4","15","0.8","137","30"
"html-keyboard-response","186","487956","0.0-18.0-1.30","testing","bdp_trlrn","Thu Dec 10 2020 16:28:31 GMT-0500 (EST)","805951","Untrustworthy,Trustworthy","","4755","","","","decision","","<div class='pointsDiv'><table width=550px><tr><td>Current Point Total: 142</td><td style='text-align:right'>Round #: 31</td></tr></table></div><div class='trialDiv'><img src='trustrating_stim/white_mw046.bmp'><br><font class='baseline'><strong>Benjamin</strong><p>Choose number of points to send.</font><p><img src='img/responseButtonOffersNo0L.png' class='respPic'></p></div>","3","8","Benjamin","trustrating_stim/white_mw046.bmp","Kept","0.6,0.2","15","0.6","142","31"
"html-keyboard-response","187","488958","0.0-18.0-2.30","testing","bdp_trlrn","Thu Dec 10 2020 16:28:31 GMT-0500 (EST)","805951","Untrustworthy,Trustworthy","","null","","","","decisionFB","","<div class='pointsDiv'><table width=550px><tr><td>Current Point Total: 139</td><td style='text-align:right'>Round #: 31</td></tr></table></div><div class='trialDiv'><img src='trustrating_stim/white_mw046.bmp'><br><font class='baseline'><strong>Benjamin</strong><p>Choose number of points to send.</font><p><img src='img/responseButtonOffersNo0L3.png' class='respPic'></p></div>","null","8","Benjamin","trustrating_stim/white_mw046.bmp","Kept","0.6,0.2","15","0.6","139","31"
"html-keyboard-response","188","490961","0.0-18.0-3.30","testing","bdp_trlrn","Thu Dec 10 2020 16:28:31 GMT-0500 (EST)","805951","Untrustworthy,Trustworthy","","null","","","","feedback","","<div class='pointsDiv'><table width=550px><tr><td>Current Point Total: 139</td><td style='text-align:right'>Round #: 31</td></tr></table></div><div class='trialDiv'><img src='trustrating_stim/white_mw046.bmp'><br><font class='baseline'><strong>Benjamin</strong><p>Received: <strong>12</strong></font> &nbsp; &nbsp; &nbsp; &nbsp; &nbsp; &nbsp;<font class='negOutcome'>Shared back: <strong>0</strong></font><p><img src='img/responseButtonOffersNo0_wht.png' class='respPic'></p></font></div>","null","8","Benjamin","trustrating_stim/white_mw046.bmp","Kept","0.6,0.2","15","0.6","139","31"
"html-keyboard-response","189","493385","0.0-18.0-1.31","testing","bdp_trlrn","Thu Dec 10 2020 16:28:31 GMT-0500 (EST)","805951","Untrustworthy,Trustworthy","","2422","","","","decision","","<div class='pointsDiv'><table width=550px><tr><td>Current Point Total: 144</td><td style='text-align:right'>Round #: 32</td></tr></table></div><div class='trialDiv'><img src='trustrating_stim/white_mw089.bmp'><br><font class='baseline'><strong>Anthony</strong><p>Choose number of points to send.</font><p><img src='img/responseButtonOffersNo0L.png' class='respPic'></p></div>","1","8","Anthony","trustrating_stim/white_mw089.bmp","Kept","0.2,0.6","15","0.2","144","32"
"html-keyboard-response","190","494387","0.0-18.0-2.31","testing","bdp_trlrn","Thu Dec 10 2020 16:28:31 GMT-0500 (EST)","805951","Untrustworthy,Trustworthy","","null","","","","decisionFB","","<div class='pointsDiv'><table width=550px><tr><td>Current Point Total: 143</td><td style='text-align:right'>Round #: 32</td></tr></table></div><div class='trialDiv'><img src='trustrating_stim/white_mw089.bmp'><br><font class='baseline'><strong>Anthony</strong><p>Choose number of points to send.</font><p><img src='img/responseButtonOffersNo0L1.png' class='respPic'></p></div>","null","8","Anthony","trustrating_stim/white_mw089.bmp","Kept","0.2,0.6","15","0.2","143","32"
"html-keyboard-response","191","496389","0.0-18.0-3.31","testing","bdp_trlrn","Thu Dec 10 2020 16:28:31 GMT-0500 (EST)","805951","Untrustworthy,Trustworthy","","null","","","","feedback","","<div class='pointsDiv'><table width=550px><tr><td>Current Point Total: 143</td><td style='text-align:right'>Round #: 32</td></tr></table></div><div class='trialDiv'><img src='trustrating_stim/white_mw089.bmp'><br><font class='baseline'><strong>Anthony</strong><p>Received: <strong>4</strong></font> &nbsp; &nbsp; &nbsp; &nbsp; &nbsp; &nbsp;<font class='negOutcome'>Shared back: <strong>0</strong></font><p><img src='img/responseButtonOffersNo0_wht.png' class='respPic'></p></font></div>","null","8","Anthony","trustrating_stim/white_mw089.bmp","Kept","0.2,0.6","15","0.2","143","32"
"html-keyboard-response","192","498323","0.0-18.0-1.32","testing","bdp_trlrn","Thu Dec 10 2020 16:28:31 GMT-0500 (EST)","805951","Untrustworthy,Trustworthy","","1931","","","","decision","","<div class='pointsDiv'><table width=550px><tr><td>Current Point Total: 148</td><td style='text-align:right'>Round #: 33</td></tr></table></div><div class='trialDiv'><img src='trustrating_stim/white_mw099.bmp'><br><font class='baseline'><strong>Brian</strong><p>Choose number of points to send.</font><p><img src='img/responseButtonOffersNo0L.png' class='respPic'></p></div>","1","9","Brian","trustrating_stim/white_mw099.bmp","Shared","0.4,0.8","13","0.4","148","33"
"html-keyboard-response","193","499324","0.0-18.0-2.32","testing","bdp_trlrn","Thu Dec 10 2020 16:28:31 GMT-0500 (EST)","805951","Untrustworthy,Trustworthy","","null","","","","decisionFB","","<div class='pointsDiv'><table width=550px><tr><td>Current Point Total: 147</td><td style='text-align:right'>Round #: 33</td></tr></table></div><div class='trialDiv'><img src='trustrating_stim/white_mw099.bmp'><br><font class='baseline'><strong>Brian</strong><p>Choose number of points to send.</font><p><img src='img/responseButtonOffersNo0L1.png' class='respPic'></p></div>","null","9","Brian","trustrating_stim/white_mw099.bmp","Shared","0.4,0.8","13","0.4","147","33"
"html-keyboard-response","194","501327","0.0-18.0-3.32","testing","bdp_trlrn","Thu Dec 10 2020 16:28:31 GMT-0500 (EST)","805951","Untrustworthy,Trustworthy","","null","","","","feedback","","<div class='pointsDiv'><table width=550px><tr><td>Current Point Total: 149</td><td style='text-align:right'>Round #: 33</td></tr></table></div><div class='trialDiv'><img src='trustrating_stim/white_mw099.bmp'><br><font class='baseline'><strong>Brian</strong><p>Received: <strong>4</strong></font> &nbsp; &nbsp; &nbsp; &nbsp; &nbsp; &nbsp;<font class='posOutcome'>Shared back: <strong>2</strong></font><p><img src='img/responseButtonOffersNo0_wht.png' class='respPic'></p></font></div>","null","9","Brian","trustrating_stim/white_mw099.bmp","Shared","0.4,0.8","13","0.4","149","33"
"html-keyboard-response","195","502458","0.0-18.0-1.33","testing","bdp_trlrn","Thu Dec 10 2020 16:28:31 GMT-0500 (EST)","805951","Untrustworthy,Trustworthy","","1130","","","","decision","","<div class='pointsDiv'><table width=550px><tr><td>Current Point Total: 154</td><td style='text-align:right'>Round #: 34</td></tr></table></div><div class='trialDiv'><img src='trustrating_stim/white_mw035.bmp'><br><font class='baseline'><strong>Ryan</strong><p>Choose number of points to send.</font><p><img src='img/responseButtonOffersNo0L.png' class='respPic'></p></div>","4","9","Ryan","trustrating_stim/white_mw035.bmp","Shared","0.8,0.4","15","0.8","154","34"
"html-keyboard-response","196","503461","0.0-18.0-2.33","testing","bdp_trlrn","Thu Dec 10 2020 16:28:31 GMT-0500 (EST)","805951","Untrustworthy,Trustworthy","","null","","","","decisionFB","","<div class='pointsDiv'><table width=550px><tr><td>Current Point Total: 150</td><td style='text-align:right'>Round #: 34</td></tr></table></div><div class='trialDiv'><img src='trustrating_stim/white_mw035.bmp'><br><font class='baseline'><strong>Ryan</strong><p>Choose number of points to send.</font><p><img src='img/responseButtonOffersNo0L4.png' class='respPic'></p></div>","null","9","Ryan","trustrating_stim/white_mw035.bmp","Shared","0.8,0.4","15","0.8","150","34"
