"trial_type","trial_index","time_elapsed","internal_node_id","subject_id","task","startTime","totalTime","labels","view_history","rt","event","trial","time","trialtype","success","stimulus","key_press","numBlurs","aground","name","face","outcome","agenttype","agentswpt","agentcurrpshare","point_total","round"
"pavlovia","0","4","0.0-0.0","dstesting","bdp_trlrn","Mon May 10 2021 10:55:03 GMT-0400 (Eastern Daylight Time)","564600","Untrustworthy,Trustworthy","","","","","","","","","","","","","","","","","","",""
"instructions","1","3440","0.0-1.0","dstesting","bdp_trlrn","Mon May 10 2021 10:55:03 GMT-0400 (Eastern Daylight Time)","564600","Untrustworthy,Trustworthy","[{""page_index"":0,""viewing_time"":3435}]","3436","","","","","","","","","","","","","","","","",""
"","","","","dstesting","bdp_trlrn","Mon May 10 2021 10:55:03 GMT-0400 (Eastern Daylight Time)","564600","Untrustworthy,Trustworthy","","","fullscreenenter","2","7710","fullscreenenter","","","","","","","","","","","","",""
"fullscreen","2","8676","0.0-2.0","dstesting","bdp_trlrn","Mon May 10 2021 10:55:03 GMT-0400 (Eastern Daylight Time)","564600","Untrustworthy,Trustworthy","","","","","","","true","","","","","","","","","","","",""
"instructions","3","16892","0.0-4.0","dstesting","bdp_trlrn","Mon May 10 2021 10:55:03 GMT-0400 (Eastern Daylight Time)","564600","Untrustworthy,Trustworthy","[{""page_index"":0,""viewing_time"":2400},{""page_index"":1,""viewing_time"":5814}]","8214","","","","","","","","","","","","","","","","",""
"instructions","4","18093","0.0-5.0","dstesting","bdp_trlrn","Mon May 10 2021 10:55:03 GMT-0400 (Eastern Daylight Time)","564600","Untrustworthy,Trustworthy","[{""page_index"":0,""viewing_time"":1201}]","1201","","","","","","","","","","","","","","","","",""
"image-keyboard-response","5","22075","0.0-6.0-1.0","dstesting","bdp_trlrn","Mon May 10 2021 10:55:03 GMT-0400 (Eastern Daylight Time)","564600","Untrustworthy,Trustworthy","","3878","","","","rating","","trustrating_stim/white_00657_941121_fa_edt.bmp","7","","","","","","","","","",""
"image-keyboard-response","6","22279","0.0-6.0-2.0","dstesting","bdp_trlrn","Mon May 10 2021 10:55:03 GMT-0400 (Eastern Daylight Time)","564600","Untrustworthy,Trustworthy","","null","","","","ratingFB","","trustrating_stim/white_00657_941121_fa_edt.bmp","null","","","","","","","","","",""
"image-keyboard-response","7","24018","0.0-6.0-1.1","dstesting","bdp_trlrn","Mon May 10 2021 10:55:03 GMT-0400 (Eastern Daylight Time)","564600","Untrustworthy,Trustworthy","","1636","","","","rating","","trustrating_stim/white_mw071.bmp","4","","","","","","","","","",""
"image-keyboard-response","8","24221","0.0-6.0-2.1","dstesting","bdp_trlrn","Mon May 10 2021 10:55:03 GMT-0400 (Eastern Daylight Time)","564600","Untrustworthy,Trustworthy","","null","","","","ratingFB","","trustrating_stim/white_mw071.bmp","null","","","","","","","","","",""
"image-keyboard-response","9","25426","0.0-6.0-1.2","dstesting","bdp_trlrn","Mon May 10 2021 10:55:03 GMT-0400 (Eastern Daylight Time)","564600","Untrustworthy,Trustworthy","","1103","","","","rating","","trustrating_stim/white_mw080.bmp","3","","","","","","","","","",""
"image-keyboard-response","10","25628","0.0-6.0-2.2","dstesting","bdp_trlrn","Mon May 10 2021 10:55:03 GMT-0400 (Eastern Daylight Time)","564600","Untrustworthy,Trustworthy","","null","","","","ratingFB","","trustrating_stim/white_mw080.bmp","null","","","","","","","","","",""
"image-keyboard-response","11","27485","0.0-6.0-1.3","dstesting","bdp_trlrn","Mon May 10 2021 10:55:03 GMT-0400 (Eastern Daylight Time)","564600","Untrustworthy,Trustworthy","","1755","","","","rating","","trustrating_stim/white_mw089.bmp","3","","","","","","","","","",""
"image-keyboard-response","12","27688","0.0-6.0-2.3","dstesting","bdp_trlrn","Mon May 10 2021 10:55:03 GMT-0400 (Eastern Daylight Time)","564600","Untrustworthy,Trustworthy","","null","","","","ratingFB","","trustrating_stim/white_mw089.bmp","null","","","","","","","","","",""
"image-keyboard-response","13","30090","0.0-6.0-1.4","dstesting","bdp_trlrn","Mon May 10 2021 10:55:03 GMT-0400 (Eastern Daylight Time)","564600","Untrustworthy,Trustworthy","","2298","","","","rating","","trustrating_stim/white_mw040.bmp","5","","","","","","","","","",""
"image-keyboard-response","14","30291","0.0-6.0-2.4","dstesting","bdp_trlrn","Mon May 10 2021 10:55:03 GMT-0400 (Eastern Daylight Time)","564600","Untrustworthy,Trustworthy","","null","","","","ratingFB","","trustrating_stim/white_mw040.bmp","null","","","","","","","","","",""
"image-keyboard-response","15","31969","0.0-6.0-1.5","dstesting","bdp_trlrn","Mon May 10 2021 10:55:03 GMT-0400 (Eastern Daylight Time)","564600","Untrustworthy,Trustworthy","","1576","","","","rating","","trustrating_stim/white_00807_941205_fb_edt.bmp","3","","","","","","","","","",""
"image-keyboard-response","16","32172","0.0-6.0-2.5","dstesting","bdp_trlrn","Mon May 10 2021 10:55:03 GMT-0400 (Eastern Daylight Time)","564600","Untrustworthy,Trustworthy","","null","","","","ratingFB","","trustrating_stim/white_00807_941205_fb_edt.bmp","null","","","","","","","","","",""
"image-keyboard-response","17","34185","0.0-6.0-1.6","dstesting","bdp_trlrn","Mon May 10 2021 10:55:03 GMT-0400 (Eastern Daylight Time)","564600","Untrustworthy,Trustworthy","","1912","","","","rating","","trustrating_stim/white_00109_931230_fa_edt.bmp","7","","","","","","","","","",""
"image-keyboard-response","18","34391","0.0-6.0-2.6","dstesting","bdp_trlrn","Mon May 10 2021 10:55:03 GMT-0400 (Eastern Daylight Time)","564600","Untrustworthy,Trustworthy","","null","","","","ratingFB","","trustrating_stim/white_00109_931230_fa_edt.bmp","null","","","","","","","","","",""
"image-keyboard-response","19","36233","0.0-6.0-1.7","dstesting","bdp_trlrn","Mon May 10 2021 10:55:03 GMT-0400 (Eastern Daylight Time)","564600","Untrustworthy,Trustworthy","","1740","","","","rating","","trustrating_stim/white_mw058.bmp","4","","","","","","","","","",""
"image-keyboard-response","20","36433","0.0-6.0-2.7","dstesting","bdp_trlrn","Mon May 10 2021 10:55:03 GMT-0400 (Eastern Daylight Time)","564600","Untrustworthy,Trustworthy","","null","","","","ratingFB","","trustrating_stim/white_mw058.bmp","null","","","","","","","","","",""
"image-keyboard-response","21","38474","0.0-6.0-1.8","dstesting","bdp_trlrn","Mon May 10 2021 10:55:03 GMT-0400 (Eastern Daylight Time)","564600","Untrustworthy,Trustworthy","","1939","","","","rating","","trustrating_stim/white_00253_940128_fa_edt.bmp","6","","","","","","","","","",""
"image-keyboard-response","22","38678","0.0-6.0-2.8","dstesting","bdp_trlrn","Mon May 10 2021 10:55:03 GMT-0400 (Eastern Daylight Time)","564600","Untrustworthy,Trustworthy","","null","","","","ratingFB","","trustrating_stim/white_00253_940128_fa_edt.bmp","null","","","","","","","","","",""
"image-keyboard-response","23","40481","0.0-6.0-1.9","dstesting","bdp_trlrn","Mon May 10 2021 10:55:03 GMT-0400 (Eastern Daylight Time)","564600","Untrustworthy,Trustworthy","","1699","","","","rating","","trustrating_stim/white_mw082.bmp","8","","","","","","","","","",""
"image-keyboard-response","24","40686","0.0-6.0-2.9","dstesting","bdp_trlrn","Mon May 10 2021 10:55:03 GMT-0400 (Eastern Daylight Time)","564600","Untrustworthy,Trustworthy","","null","","","","ratingFB","","trustrating_stim/white_mw082.bmp","null","","","","","","","","","",""
"image-keyboard-response","25","42753","0.0-6.0-1.10","dstesting","bdp_trlrn","Mon May 10 2021 10:55:03 GMT-0400 (Eastern Daylight Time)","564600","Untrustworthy,Trustworthy","","1963","","","","rating","","trustrating_stim/white_00960_960627_fb_edt.bmp","3","","","","","","","","","",""
"image-keyboard-response","26","42956","0.0-6.0-2.10","dstesting","bdp_trlrn","Mon May 10 2021 10:55:03 GMT-0400 (Eastern Daylight Time)","564600","Untrustworthy,Trustworthy","","null","","","","ratingFB","","trustrating_stim/white_00960_960627_fb_edt.bmp","null","","","","","","","","","",""
"image-keyboard-response","27","44705","0.0-6.0-1.11","dstesting","bdp_trlrn","Mon May 10 2021 10:55:03 GMT-0400 (Eastern Daylight Time)","564600","Untrustworthy,Trustworthy","","1648","","","","rating","","trustrating_stim/white_mw046.bmp","2","","","","","","","","","",""
"image-keyboard-response","28","44908","0.0-6.0-2.11","dstesting","bdp_trlrn","Mon May 10 2021 10:55:03 GMT-0400 (Eastern Daylight Time)","564600","Untrustworthy,Trustworthy","","null","","","","ratingFB","","trustrating_stim/white_mw046.bmp","null","","","","","","","","","",""
"image-keyboard-response","29","47665","0.0-6.0-1.12","dstesting","bdp_trlrn","Mon May 10 2021 10:55:03 GMT-0400 (Eastern Daylight Time)","564600","Untrustworthy,Trustworthy","","2655","","","","rating","","trustrating_stim/white_00757_941201_fa_edt.bmp","3","","","","","","","","","",""
"image-keyboard-response","30","47869","0.0-6.0-2.12","dstesting","bdp_trlrn","Mon May 10 2021 10:55:03 GMT-0400 (Eastern Daylight Time)","564600","Untrustworthy,Trustworthy","","null","","","","ratingFB","","trustrating_stim/white_00757_941201_fa_edt.bmp","null","","","","","","","","","",""
"image-keyboard-response","31","49465","0.0-6.0-1.13","dstesting","bdp_trlrn","Mon May 10 2021 10:55:03 GMT-0400 (Eastern Daylight Time)","564600","Untrustworthy,Trustworthy","","1492","","","","rating","","trustrating_stim/white_mw066.bmp","6","","","","","","","","","",""
"image-keyboard-response","32","49670","0.0-6.0-2.13","dstesting","bdp_trlrn","Mon May 10 2021 10:55:03 GMT-0400 (Eastern Daylight Time)","564600","Untrustworthy,Trustworthy","","null","","","","ratingFB","","trustrating_stim/white_mw066.bmp","null","","","","","","","","","",""
"image-keyboard-response","33","52000","0.0-6.0-1.14","dstesting","bdp_trlrn","Mon May 10 2021 10:55:03 GMT-0400 (Eastern Daylight Time)","564600","Untrustworthy,Trustworthy","","2227","","","","rating","","trustrating_stim/white_mw016.bmp","1","","","","","","","","","",""
"image-keyboard-response","34","52203","0.0-6.0-2.14","dstesting","bdp_trlrn","Mon May 10 2021 10:55:03 GMT-0400 (Eastern Daylight Time)","564600","Untrustworthy,Trustworthy","","null","","","","ratingFB","","trustrating_stim/white_mw016.bmp","null","","","","","","","","","",""
"image-keyboard-response","35","54489","0.0-6.0-1.15","dstesting","bdp_trlrn","Mon May 10 2021 10:55:03 GMT-0400 (Eastern Daylight Time)","564600","Untrustworthy,Trustworthy","","2184","","","","rating","","trustrating_stim/white_mw004.bmp","3","","","","","","","","","",""
"image-keyboard-response","36","54694","0.0-6.0-2.15","dstesting","bdp_trlrn","Mon May 10 2021 10:55:03 GMT-0400 (Eastern Daylight Time)","564600","Untrustworthy,Trustworthy","","null","","","","ratingFB","","trustrating_stim/white_mw004.bmp","null","","","","","","","","","",""
"image-keyboard-response","37","57696","0.0-6.0-1.16","dstesting","bdp_trlrn","Mon May 10 2021 10:55:03 GMT-0400 (Eastern Daylight Time)","564600","Untrustworthy,Trustworthy","","2900","","","","rating","","trustrating_stim/white_00897_960530_fb_edt.bmp","4","","","","","","","","","",""
"image-keyboard-response","38","57899","0.0-6.0-2.16","dstesting","bdp_trlrn","Mon May 10 2021 10:55:03 GMT-0400 (Eastern Daylight Time)","564600","Untrustworthy,Trustworthy","","null","","","","ratingFB","","trustrating_stim/white_00897_960530_fb_edt.bmp","null","","","","","","","","","",""
"image-keyboard-response","39","60749","0.0-6.0-1.17","dstesting","bdp_trlrn","Mon May 10 2021 10:55:03 GMT-0400 (Eastern Daylight Time)","564600","Untrustworthy,Trustworthy","","2748","","","","rating","","trustrating_stim/white_mw084.bmp","4","","","","","","","","","",""
"image-keyboard-response","40","60950","0.0-6.0-2.17","dstesting","bdp_trlrn","Mon May 10 2021 10:55:03 GMT-0400 (Eastern Daylight Time)","564600","Untrustworthy,Trustworthy","","null","","","","ratingFB","","trustrating_stim/white_mw084.bmp","null","","","","","","","","","",""
"image-keyboard-response","41","62032","0.0-6.0-1.18","dstesting","bdp_trlrn","Mon May 10 2021 10:55:03 GMT-0400 (Eastern Daylight Time)","564600","Untrustworthy,Trustworthy","","977","","","","rating","","trustrating_stim/white_mw006.bmp","3","","","","","","","","","",""
"image-keyboard-response","42","62235","0.0-6.0-2.18","dstesting","bdp_trlrn","Mon May 10 2021 10:55:03 GMT-0400 (Eastern Daylight Time)","564600","Untrustworthy,Trustworthy","","null","","","","ratingFB","","trustrating_stim/white_mw006.bmp","null","","","","","","","","","",""
"image-keyboard-response","43","63827","0.0-6.0-1.19","dstesting","bdp_trlrn","Mon May 10 2021 10:55:03 GMT-0400 (Eastern Daylight Time)","564600","Untrustworthy,Trustworthy","","1490","","","","rating","","trustrating_stim/white_mw097.bmp","3","","","","","","","","","",""
"image-keyboard-response","44","64032","0.0-6.0-2.19","dstesting","bdp_trlrn","Mon May 10 2021 10:55:03 GMT-0400 (Eastern Daylight Time)","564600","Untrustworthy,Trustworthy","","null","","","","ratingFB","","trustrating_stim/white_mw097.bmp","null","","","","","","","","","",""
"image-keyboard-response","45","66425","0.0-6.0-1.20","dstesting","bdp_trlrn","Mon May 10 2021 10:55:03 GMT-0400 (Eastern Daylight Time)","564600","Untrustworthy,Trustworthy","","2288","","","","rating","","trustrating_stim/white_mw044.bmp","4","","","","","","","","","",""
"image-keyboard-response","46","66630","0.0-6.0-2.20","dstesting","bdp_trlrn","Mon May 10 2021 10:55:03 GMT-0400 (Eastern Daylight Time)","564600","Untrustworthy,Trustworthy","","null","","","","ratingFB","","trustrating_stim/white_mw044.bmp","null","","","","","","","","","",""
"image-keyboard-response","47","68952","0.0-6.0-1.21","dstesting","bdp_trlrn","Mon May 10 2021 10:55:03 GMT-0400 (Eastern Daylight Time)","564600","Untrustworthy,Trustworthy","","2220","","","","rating","","trustrating_stim/white_mw025.bmp","5","","","","","","","","","",""
"image-keyboard-response","48","69154","0.0-6.0-2.21","dstesting","bdp_trlrn","Mon May 10 2021 10:55:03 GMT-0400 (Eastern Daylight Time)","564600","Untrustworthy,Trustworthy","","null","","","","ratingFB","","trustrating_stim/white_mw025.bmp","null","","","","","","","","","",""
"image-keyboard-response","49","70577","0.0-6.0-1.22","dstesting","bdp_trlrn","Mon May 10 2021 10:55:03 GMT-0400 (Eastern Daylight Time)","564600","Untrustworthy,Trustworthy","","1318","","","","rating","","trustrating_stim/white_mw057.bmp","4","","","","","","","","","",""
"image-keyboard-response","50","70779","0.0-6.0-2.22","dstesting","bdp_trlrn","Mon May 10 2021 10:55:03 GMT-0400 (Eastern Daylight Time)","564600","Untrustworthy,Trustworthy","","null","","","","ratingFB","","trustrating_stim/white_mw057.bmp","null","","","","","","","","","",""
"image-keyboard-response","51","72042","0.0-6.0-1.23","dstesting","bdp_trlrn","Mon May 10 2021 10:55:03 GMT-0400 (Eastern Daylight Time)","564600","Untrustworthy,Trustworthy","","1161","","","","rating","","trustrating_stim/white_00602_940928_fb_edt.bmp","6","","","","","","","","","",""
"image-keyboard-response","52","72243","0.0-6.0-2.23","dstesting","bdp_trlrn","Mon May 10 2021 10:55:03 GMT-0400 (Eastern Daylight Time)","564600","Untrustworthy,Trustworthy","","null","","","","ratingFB","","trustrating_stim/white_00602_940928_fb_edt.bmp","null","","","","","","","","","",""
"image-keyboard-response","53","74609","0.0-6.0-1.24","dstesting","bdp_trlrn","Mon May 10 2021 10:55:03 GMT-0400 (Eastern Daylight Time)","564600","Untrustworthy,Trustworthy","","2261","","","","rating","","trustrating_stim/white_mw051.bmp","5","","","","","","","","","",""
"image-keyboard-response","54","74814","0.0-6.0-2.24","dstesting","bdp_trlrn","Mon May 10 2021 10:55:03 GMT-0400 (Eastern Daylight Time)","564600","Untrustworthy,Trustworthy","","null","","","","ratingFB","","trustrating_stim/white_mw051.bmp","null","","","","","","","","","",""
"image-keyboard-response","55","76895","0.0-6.0-1.25","dstesting","bdp_trlrn","Mon May 10 2021 10:55:03 GMT-0400 (Eastern Daylight Time)","564600","Untrustworthy,Trustworthy","","1977","","","","rating","","trustrating_stim/white_mw035.bmp","4","","","","","","","","","",""
"image-keyboard-response","56","77099","0.0-6.0-2.25","dstesting","bdp_trlrn","Mon May 10 2021 10:55:03 GMT-0400 (Eastern Daylight Time)","564600","Untrustworthy,Trustworthy","","null","","","","ratingFB","","trustrating_stim/white_mw035.bmp","null","","","","","","","","","",""
"image-keyboard-response","57","79624","0.0-6.0-1.26","dstesting","bdp_trlrn","Mon May 10 2021 10:55:03 GMT-0400 (Eastern Daylight Time)","564600","Untrustworthy,Trustworthy","","2424","","","","rating","","trustrating_stim/white_mw022.bmp","5","","","","","","","","","",""
"image-keyboard-response","58","79825","0.0-6.0-2.26","dstesting","bdp_trlrn","Mon May 10 2021 10:55:03 GMT-0400 (Eastern Daylight Time)","564600","Untrustworthy,Trustworthy","","null","","","","ratingFB","","trustrating_stim/white_mw022.bmp","null","","","","","","","","","",""
"image-keyboard-response","59","82176","0.0-6.0-1.27","dstesting","bdp_trlrn","Mon May 10 2021 10:55:03 GMT-0400 (Eastern Daylight Time)","564600","Untrustworthy,Trustworthy","","2250","","","","rating","","trustrating_stim/white_mw072.bmp","6","","","","","","","","","",""
"image-keyboard-response","60","82379","0.0-6.0-2.27","dstesting","bdp_trlrn","Mon May 10 2021 10:55:03 GMT-0400 (Eastern Daylight Time)","564600","Untrustworthy,Trustworthy","","null","","","","ratingFB","","trustrating_stim/white_mw072.bmp","null","","","","","","","","","",""
"image-keyboard-response","61","83776","0.0-6.0-1.28","dstesting","bdp_trlrn","Mon May 10 2021 10:55:03 GMT-0400 (Eastern Daylight Time)","564600","Untrustworthy,Trustworthy","","1296","","","","rating","","trustrating_stim/white_00785_941205_fb_edt.bmp","3","","","","","","","","","",""
"image-keyboard-response","62","83978","0.0-6.0-2.28","dstesting","bdp_trlrn","Mon May 10 2021 10:55:03 GMT-0400 (Eastern Daylight Time)","564600","Untrustworthy,Trustworthy","","null","","","","ratingFB","","trustrating_stim/white_00785_941205_fb_edt.bmp","null","","","","","","","","","",""
"image-keyboard-response","63","87712","0.0-6.0-1.29","dstesting","bdp_trlrn","Mon May 10 2021 10:55:03 GMT-0400 (Eastern Daylight Time)","564600","Untrustworthy,Trustworthy","","3632","","","","rating","","trustrating_stim/white_mw012.bmp","2","","","","","","","","","",""
"image-keyboard-response","64","87916","0.0-6.0-2.29","dstesting","bdp_trlrn","Mon May 10 2021 10:55:03 GMT-0400 (Eastern Daylight Time)","564600","Untrustworthy,Trustworthy","","null","","","","ratingFB","","trustrating_stim/white_mw012.bmp","null","","","","","","","","","",""
"image-keyboard-response","65","90020","0.0-6.0-1.30","dstesting","bdp_trlrn","Mon May 10 2021 10:55:03 GMT-0400 (Eastern Daylight Time)","564600","Untrustworthy,Trustworthy","","1997","","","","rating","","trustrating_stim/white_mw099.bmp","2","","","","","","","","","",""
"image-keyboard-response","66","90223","0.0-6.0-2.30","dstesting","bdp_trlrn","Mon May 10 2021 10:55:03 GMT-0400 (Eastern Daylight Time)","564600","Untrustworthy,Trustworthy","","null","","","","ratingFB","","trustrating_stim/white_mw099.bmp","null","","","","","","","","","",""
"image-keyboard-response","67","92159","0.0-6.0-1.31","dstesting","bdp_trlrn","Mon May 10 2021 10:55:03 GMT-0400 (Eastern Daylight Time)","564600","Untrustworthy,Trustworthy","","1834","","","","rating","","trustrating_stim/white_mw085.bmp","3","","","","","","","","","",""
"image-keyboard-response","68","92362","0.0-6.0-2.31","dstesting","bdp_trlrn","Mon May 10 2021 10:55:03 GMT-0400 (Eastern Daylight Time)","564600","Untrustworthy,Trustworthy","","null","","","","ratingFB","","trustrating_stim/white_mw085.bmp","null","","","","","","","","","",""
"image-keyboard-response","69","94681","0.0-6.0-1.32","dstesting","bdp_trlrn","Mon May 10 2021 10:55:03 GMT-0400 (Eastern Daylight Time)","564600","Untrustworthy,Trustworthy","","2212","","","","rating","","trustrating_stim/white_00223_940128_fb_edt.bmp","4","","","","","","","","","",""
"image-keyboard-response","70","94881","0.0-6.0-2.32","dstesting","bdp_trlrn","Mon May 10 2021 10:55:03 GMT-0400 (Eastern Daylight Time)","564600","Untrustworthy,Trustworthy","","null","","","","ratingFB","","trustrating_stim/white_00223_940128_fb_edt.bmp","null","","","","","","","","","",""
"image-keyboard-response","71","97487","0.0-6.0-1.33","dstesting","bdp_trlrn","Mon May 10 2021 10:55:03 GMT-0400 (Eastern Daylight Time)","564600","Untrustworthy,Trustworthy","","2501","","","","rating","","trustrating_stim/white_00658_941121_fb_edt.bmp","5","","","","","","","","","",""
"image-keyboard-response","72","97691","0.0-6.0-2.33","dstesting","bdp_trlrn","Mon May 10 2021 10:55:03 GMT-0400 (Eastern Daylight Time)","564600","Untrustworthy,Trustworthy","","null","","","","ratingFB","","trustrating_stim/white_00658_941121_fb_edt.bmp","null","","","","","","","","","",""
"image-keyboard-response","73","99640","0.0-6.0-1.34","dstesting","bdp_trlrn","Mon May 10 2021 10:55:03 GMT-0400 (Eastern Daylight Time)","564600","Untrustworthy,Trustworthy","","1844","","","","rating","","trustrating_stim/white_mw054.bmp","6","","","","","","","","","",""
"image-keyboard-response","74","99845","0.0-6.0-2.34","dstesting","bdp_trlrn","Mon May 10 2021 10:55:03 GMT-0400 (Eastern Daylight Time)","564600","Untrustworthy,Trustworthy","","null","","","","ratingFB","","trustrating_stim/white_mw054.bmp","null","","","","","","","","","",""
"image-keyboard-response","75","101335","0.0-6.0-1.35","dstesting","bdp_trlrn","Mon May 10 2021 10:55:03 GMT-0400 (Eastern Daylight Time)","564600","Untrustworthy,Trustworthy","","1388","","","","rating","","trustrating_stim/white_mw043.bmp","3","","","","","","","","","",""
"image-keyboard-response","76","101541","0.0-6.0-2.35","dstesting","bdp_trlrn","Mon May 10 2021 10:55:03 GMT-0400 (Eastern Daylight Time)","564600","Untrustworthy,Trustworthy","","null","","","","ratingFB","","trustrating_stim/white_mw043.bmp","null","","","","","","","","","",""
"image-keyboard-response","77","103583","0.0-6.0-1.36","dstesting","bdp_trlrn","Mon May 10 2021 10:55:03 GMT-0400 (Eastern Daylight Time)","564600","Untrustworthy,Trustworthy","","1939","","","","rating","","trustrating_stim/white_00120_931230_fa_edt.bmp","7","","","","","","","","","",""
"image-keyboard-response","78","103783","0.0-6.0-2.36","dstesting","bdp_trlrn","Mon May 10 2021 10:55:03 GMT-0400 (Eastern Daylight Time)","564600","Untrustworthy,Trustworthy","","null","","","","ratingFB","","trustrating_stim/white_00120_931230_fa_edt.bmp","null","","","","","","","","","",""
"image-keyboard-response","79","106328","0.0-6.0-1.37","dstesting","bdp_trlrn","Mon May 10 2021 10:55:03 GMT-0400 (Eastern Daylight Time)","564600","Untrustworthy,Trustworthy","","2440","","","","rating","","trustrating_stim/white_00761_941201_fb_edt.bmp","8","","","","","","","","","",""
"image-keyboard-response","80","106530","0.0-6.0-2.37","dstesting","bdp_trlrn","Mon May 10 2021 10:55:03 GMT-0400 (Eastern Daylight Time)","564600","Untrustworthy,Trustworthy","","null","","","","ratingFB","","trustrating_stim/white_00761_941201_fb_edt.bmp","null","","","","","","","","","",""
"image-keyboard-response","81","108640","0.0-6.0-1.38","dstesting","bdp_trlrn","Mon May 10 2021 10:55:03 GMT-0400 (Eastern Daylight Time)","564600","Untrustworthy,Trustworthy","","2005","","","","rating","","trustrating_stim/white_mw019.bmp","6","","","","","","","","","",""
"image-keyboard-response","82","108841","0.0-6.0-2.38","dstesting","bdp_trlrn","Mon May 10 2021 10:55:03 GMT-0400 (Eastern Daylight Time)","564600","Untrustworthy,Trustworthy","","null","","","","ratingFB","","trustrating_stim/white_mw019.bmp","null","","","","","","","","","",""
"image-keyboard-response","83","110362","0.0-6.0-1.39","dstesting","bdp_trlrn","Mon May 10 2021 10:55:03 GMT-0400 (Eastern Daylight Time)","564600","Untrustworthy,Trustworthy","","1418","","","","rating","","trustrating_stim/white_mw013.bmp","6","","","","","","","","","",""
"image-keyboard-response","84","110564","0.0-6.0-2.39","dstesting","bdp_trlrn","Mon May 10 2021 10:55:03 GMT-0400 (Eastern Daylight Time)","564600","Untrustworthy,Trustworthy","","null","","","","ratingFB","","trustrating_stim/white_mw013.bmp","null","","","","","","","","","",""
"instructions","85","113008","0.0-7.0","dstesting","bdp_trlrn","Mon May 10 2021 10:55:03 GMT-0400 (Eastern Daylight Time)","564600","Untrustworthy,Trustworthy","[{""page_index"":0,""viewing_time"":2342}]","2343","","","","","","","","","","","","","","","","",""
"","","","","dstesting","bdp_trlrn","Mon May 10 2021 10:55:03 GMT-0400 (Eastern Daylight Time)","564600","Untrustworthy,Trustworthy","","","blur","86","167343","blurevent","","","","1","","","","","","","","",""
"","","","","dstesting","bdp_trlrn","Mon May 10 2021 10:55:03 GMT-0400 (Eastern Daylight Time)","564600","Untrustworthy,Trustworthy","","","focus","86","201555","focusevent","","","","","","","","","","","","",""
"instructions","86","207983","0.0-8.0","dstesting","bdp_trlrn","Mon May 10 2021 10:55:03 GMT-0400 (Eastern Daylight Time)","564600","Untrustworthy,Trustworthy","[{""page_index"":0,""viewing_time"":3390},{""page_index"":1,""viewing_time"":6929},{""page_index"":2,""viewing_time"":5715},{""page_index"":3,""viewing_time"":10774},{""page_index"":4,""viewing_time"":14821},{""page_index"":5,""viewing_time"":51321},{""page_index"":6,""viewing_time"":1922}]","94872","","","","","","","","","","","","","","","","",""
"html-keyboard-response","87","210341","0.0-9.0","dstesting","bdp_trlrn","Mon May 10 2021 10:55:03 GMT-0400 (Eastern Daylight Time)","564600","Untrustworthy,Trustworthy","","2357","","","","","","<div class='header' style='text-align:left; position: absolute; top: 5%; left: 5%;'><small>Task 3 of 4</small></div><div style='text-align:left; position: absolute; top: 10%; left: 20%; width: 60%'><p><strong>1) What is the minimum number of points you can choose to send to your partner?</strong></p><p>a) 0</p><p>b) 1</p><p>c) 5</p>","B","","","","","","","","","",""
"html-keyboard-response","88","211452","0.0-10.0","dstesting","bdp_trlrn","Mon May 10 2021 10:55:03 GMT-0400 (Eastern Daylight Time)","564600","Untrustworthy,Trustworthy","","1007","","","","","","<div class='header' style='text-align:left; position: absolute; top: 5%; left: 5%;'><small>Task 3 of 4</small></div><div style='text-align:left; position: absolute; top: 10%; left: 20%; width: 60%'><p><strong>1) What is the minimum number of points you can choose to send to your partner?</strong></p><p>a) 0</p><p style='color:#00FF00'>b) 1</p><p>c) 5</p><h3 style='color:#00FF00'>Correct!</h3><h3 class='center-content'>The correct response is b).</h3><h3 class='center-content'>The minimum number of points you can choose to send to your partner is 1 point.</h3><p><em>Press SPACEBAR to continue</em></p></div>"," ","","","","","","","","","",""
"html-keyboard-response","89","214067","0.0-11.0","dstesting","bdp_trlrn","Mon May 10 2021 10:55:03 GMT-0400 (Eastern Daylight Time)","564600","Untrustworthy,Trustworthy","","2514","","","","","","<div class='header' style='text-align:left; position: absolute; top: 5%; left: 5%;'><small>Task 3 of 4</small></div><div style='text-align:left; position: absolute; top: 10%; left: 20%; width: 60%'><p><strong>2) What is the maximum number of points you can choose to send to your partner?</strong></p><p>a) 8</p><p>b) 5</p><p>c) 3</p>","B","","","","","","","","","",""
"html-keyboard-response","90","214452","0.0-12.0","dstesting","bdp_trlrn","Mon May 10 2021 10:55:03 GMT-0400 (Eastern Daylight Time)","564600","Untrustworthy,Trustworthy","","280","","","","","","<div class='header' style='text-align:left; position: absolute; top: 5%; left: 5%;'><small>Task 3 of 4</small></div><div style='text-align:left; position: absolute; top: 10%; left: 20%; width: 60%'><p><strong>2) What is the maximum number of points you can choose to send to your partner?</strong></p><p>a) 8</p><p style='color:#00FF00'>b) 5</p><p>c) 3</p><h3 style='color:#00FF00'>Correct!</h3><h3 class='center-content'>The correct response is b).</h3><h3 class='center-content'>The maximum number of points you can choose to send to your partner is 5 points.</h3><p><em>Press SPACEBAR to continue</em></p></div>"," ","","","","","","","","","",""
"html-keyboard-response","91","216020","0.0-13.0","dstesting","bdp_trlrn","Mon May 10 2021 10:55:03 GMT-0400 (Eastern Daylight Time)","564600","Untrustworthy,Trustworthy","","1468","","","","","","<div class='header' style='text-align:left; position: absolute; top: 5%; left: 5%;'><small>Task 3 of 4</small></div><div style='text-align:left; position: absolute; top: 10%; left: 20%; width: 60%'><p><strong>3) What happens to the amount of points you send to your partner?</strong></p><p>a) Nothing</p><p>b) It doubles</p><p>c) It quadruples</p>","C","","","","","","","","","",""
"html-keyboard-response","92","216245","0.0-14.0","dstesting","bdp_trlrn","Mon May 10 2021 10:55:03 GMT-0400 (Eastern Daylight Time)","564600","Untrustworthy,Trustworthy","","120","","","","","","<div class='header' style='text-align:left; position: absolute; top: 5%; left: 5%;'><small>Task 3 of 4</small></div><div style='text-align:left; position: absolute; top: 10%; left: 20%; width: 60%'><p><strong>3) What happens to the amount of points you send to your partner?</strong></p><p>a) Nothing</p><p>b) It doubles</p><p style='color:#00FF00'>c) It quadruples</p><h3 style='color:#00FF00'>Correct!</h3><h3 class='center-content'>The correct response is c).</h3><h3 class='center-content'>The amount of points you send to your partner quadruples.</h3><p><em>Press SPACEBAR to continue</em></p></div>"," ","","","","","","","","","",""
"html-keyboard-response","93","217132","0.0-15.0","dstesting","bdp_trlrn","Mon May 10 2021 10:55:03 GMT-0400 (Eastern Daylight Time)","564600","Untrustworthy,Trustworthy","","786","","","","","","<div class='header' style='text-align:left; position: absolute; top: 5%; left: 5%;'><small>Task 3 of 4</small></div><div style='text-align:left; position: absolute; top: 10%; left: 20%; width: 60%'><p><strong>4) If you decide to share 4 out of 5 points with your partner, and he decided to share half of what he received, how many points would you end up with in this round?</strong></p><p>a) 16</p><p>b) 0</p><p>c) 9</p>","C","","","","","","","","","",""
"html-keyboard-response","94","217693","0.0-16.0","dstesting","bdp_trlrn","Mon May 10 2021 10:55:03 GMT-0400 (Eastern Daylight Time)","564600","Untrustworthy,Trustworthy","","458","","","","","","<div class='header' style='text-align:left; position: absolute; top: 5%; left: 5%;'><small>Task 3 of 4</small></div><div style='text-align:left; position: absolute; top: 10%; left: 20%; width: 60%'><p><strong>4) If you decide to share 4 points with your partner, and he decided to share half of what he received, how many points would you end up with in this round?</strong></p><p>a) 16</p><p>b) 0</p><p style='color:#00FF00'>c) 9</p><h3 style='color:#00FF00'>Correct!</h3><h3 class='center-content'>The correct response is c).</h3><h3 class='center-content'>If you share 4 out of 5 points with your partner and he decided to share half with you, you would receive 8 points back (i.e. (4 x 4)/2 = 8), totaling to 9 points altogether.</h3><p><em>Press SPACEBAR to continue</em></p></div>"," ","","","","","","","","","",""
"instructions","95","222296","0.0-17.0","dstesting","bdp_trlrn","Mon May 10 2021 10:55:03 GMT-0400 (Eastern Daylight Time)","564600","Untrustworthy,Trustworthy","[{""page_index"":0,""viewing_time"":4502}]","4502","","","","","","","","","","","","","","","","",""
"html-keyboard-response","96","223643","0.0-18.0-1.0","dstesting","bdp_trlrn","Mon May 10 2021 10:55:03 GMT-0400 (Eastern Daylight Time)","564600","Untrustworthy,Trustworthy","","1244","","","","decision","","<div class='trialDiv'><img src='trustrating_stim/white_mw035.bmp'><br><font class='baseline'><strong>Richard</strong><p>Choose number of points to send.</font><div class='respPicDiv'><img src='img/responseButtonOffersNo0L.png' class='respPic'></div></div>","5","","1","Richard","trustrating_stim/white_mw035.bmp","Kept","0.2,0.6","13","0.2","5","1"
"html-keyboard-response","97","223898","0.0-18.0-2.0","dstesting","bdp_trlrn","Mon May 10 2021 10:55:03 GMT-0400 (Eastern Daylight Time)","564600","Untrustworthy,Trustworthy","","null","","","","decisionFB","","<div class='trialDiv'><img src='trustrating_stim/white_mw035.bmp'><br><font class='baseline'><strong>Richard</strong><p>Choose number of points to send.</font><div class='respPicDiv'><img src='img/responseButtonOffersNo0L5.png' class='respPic'></div></div>","null","","1","Richard","trustrating_stim/white_mw035.bmp","Kept","0.2,0.6","13","0.2","0","1"
"html-keyboard-response","98","224903","0.0-18.0-3.0","dstesting","bdp_trlrn","Mon May 10 2021 10:55:03 GMT-0400 (Eastern Daylight Time)","564600","Untrustworthy,Trustworthy","","null","","","","feedback","","<div class='trialDiv'><img src='trustrating_stim/white_mw035.bmp'><br><font class='baseline'><strong>Richard</strong><p>Received: <strong>20</strong></font> &nbsp; &nbsp; &nbsp; &nbsp; &nbsp; &nbsp;<font class='negOutcome'>Shared back: <strong>0</strong></font></font><div class='respPicDiv'><img src='img/responseButtonOffersNo0_wht.png' class='respPic'></div></div>","null","","1","Richard","trustrating_stim/white_mw035.bmp","Kept","0.2,0.6","13","0.2","0","1"
"html-keyboard-response","99","228012","0.0-18.0-1.1","dstesting","bdp_trlrn","Mon May 10 2021 10:55:03 GMT-0400 (Eastern Daylight Time)","564600","Untrustworthy,Trustworthy","","3109","","","","decision","","<div class='trialDiv'><img src='trustrating_stim/white_mw071.bmp'><br><font class='baseline'><strong>Sean</strong><p>Choose number of points to send.</font><div class='respPicDiv'><img src='img/responseButtonOffersNo0L.png' class='respPic'></div></div>","3","","1","Sean","trustrating_stim/white_mw071.bmp","Shared","0.6,0.2","15","0.6","5","2"
"html-keyboard-response","100","228268","0.0-18.0-2.1","dstesting","bdp_trlrn","Mon May 10 2021 10:55:03 GMT-0400 (Eastern Daylight Time)","564600","Untrustworthy,Trustworthy","","null","","","","decisionFB","","<div class='trialDiv'><img src='trustrating_stim/white_mw071.bmp'><br><font class='baseline'><strong>Sean</strong><p>Choose number of points to send.</font><div class='respPicDiv'><img src='img/responseButtonOffersNo0L3.png' class='respPic'></div></div>","null","","1","Sean","trustrating_stim/white_mw071.bmp","Shared","0.6,0.2","15","0.6","2","2"
"html-keyboard-response","101","229271","0.0-18.0-3.1","dstesting","bdp_trlrn","Mon May 10 2021 10:55:03 GMT-0400 (Eastern Daylight Time)","564600","Untrustworthy,Trustworthy","","null","","","","feedback","","<div class='trialDiv'><img src='trustrating_stim/white_mw071.bmp'><br><font class='baseline'><strong>Sean</strong><p>Received: <strong>12</strong></font> &nbsp; &nbsp; &nbsp; &nbsp; &nbsp; &nbsp;<font class='posOutcome'>Shared back: <strong>6</strong></font></font><div class='respPicDiv'><img src='img/responseButtonOffersNo0_wht.png' class='respPic'></div></div>","null","","1","Sean","trustrating_stim/white_mw071.bmp","Shared","0.6,0.2","15","0.6","8","2"
"html-keyboard-response","102","231240","0.0-18.0-1.2","dstesting","bdp_trlrn","Mon May 10 2021 10:55:03 GMT-0400 (Eastern Daylight Time)","564600","Untrustworthy,Trustworthy","","1968","","","","decision","","<div class='trialDiv'><img src='trustrating_stim/white_mw099.bmp'><br><font class='baseline'><strong>Ryan</strong><p>Choose number of points to send.</font><div class='respPicDiv'><img src='img/responseButtonOffersNo0L.png' class='respPic'></div></div>","3","","1","Ryan","trustrating_stim/white_mw099.bmp","Shared","0.4,0.8","11","0.4","13","3"
"html-keyboard-response","103","231495","0.0-18.0-2.2","dstesting","bdp_trlrn","Mon May 10 2021 10:55:03 GMT-0400 (Eastern Daylight Time)","564600","Untrustworthy,Trustworthy","","null","","","","decisionFB","","<div class='trialDiv'><img src='trustrating_stim/white_mw099.bmp'><br><font class='baseline'><strong>Ryan</strong><p>Choose number of points to send.</font><div class='respPicDiv'><img src='img/responseButtonOffersNo0L3.png' class='respPic'></div></div>","null","","1","Ryan","trustrating_stim/white_mw099.bmp","Shared","0.4,0.8","11","0.4","10","3"
"html-keyboard-response","104","232497","0.0-18.0-3.2","dstesting","bdp_trlrn","Mon May 10 2021 10:55:03 GMT-0400 (Eastern Daylight Time)","564600","Untrustworthy,Trustworthy","","null","","","","feedback","","<div class='trialDiv'><img src='trustrating_stim/white_mw099.bmp'><br><font class='baseline'><strong>Ryan</strong><p>Received: <strong>12</strong></font> &nbsp; &nbsp; &nbsp; &nbsp; &nbsp; &nbsp;<font class='posOutcome'>Shared back: <strong>6</strong></font></font><div class='respPicDiv'><img src='img/responseButtonOffersNo0_wht.png' class='respPic'></div></div>","null","","1","Ryan","trustrating_stim/white_mw099.bmp","Shared","0.4,0.8","11","0.4","16","3"
"html-keyboard-response","105","233979","0.0-18.0-1.3","dstesting","bdp_trlrn","Mon May 10 2021 10:55:03 GMT-0400 (Eastern Daylight Time)","564600","Untrustworthy,Trustworthy","","1481","","","","decision","","<div class='trialDiv'><img src='trustrating_stim/white_00785_941205_fb_edt.bmp'><br><font class='baseline'><strong>Joseph</strong><p>Choose number of points to send.</font><div class='respPicDiv'><img src='img/responseButtonOffersNo0L.png' class='respPic'></div></div>","3","","1","Joseph","trustrating_stim/white_00785_941205_fb_edt.bmp","Shared","0.8,0.4","11","0.8","21","4"
"html-keyboard-response","106","234231","0.0-18.0-2.3","dstesting","bdp_trlrn","Mon May 10 2021 10:55:03 GMT-0400 (Eastern Daylight Time)","564600","Untrustworthy,Trustworthy","","null","","","","decisionFB","","<div class='trialDiv'><img src='trustrating_stim/white_00785_941205_fb_edt.bmp'><br><font class='baseline'><strong>Joseph</strong><p>Choose number of points to send.</font><div class='respPicDiv'><img src='img/responseButtonOffersNo0L3.png' class='respPic'></div></div>","null","","1","Joseph","trustrating_stim/white_00785_941205_fb_edt.bmp","Shared","0.8,0.4","11","0.8","18","4"
"html-keyboard-response","107","235235","0.0-18.0-3.3","dstesting","bdp_trlrn","Mon May 10 2021 10:55:03 GMT-0400 (Eastern Daylight Time)","564600","Untrustworthy,Trustworthy","","null","","","","feedback","","<div class='trialDiv'><img src='trustrating_stim/white_00785_941205_fb_edt.bmp'><br><font class='baseline'><strong>Joseph</strong><p>Received: <strong>12</strong></font> &nbsp; &nbsp; &nbsp; &nbsp; &nbsp; &nbsp;<font class='posOutcome'>Shared back: <strong>6</strong></font></font><div class='respPicDiv'><img src='img/responseButtonOffersNo0_wht.png' class='respPic'></div></div>","null","","1","Joseph","trustrating_stim/white_00785_941205_fb_edt.bmp","Shared","0.8,0.4","11","0.8","24","4"
"html-keyboard-response","108","236771","0.0-18.0-1.4","dstesting","bdp_trlrn","Mon May 10 2021 10:55:03 GMT-0400 (Eastern Daylight Time)","564600","Untrustworthy,Trustworthy","","1535","","","","decision","","<div class='trialDiv'><img src='trustrating_stim/white_mw071.bmp'><br><font class='baseline'><strong>Sean</strong><p>Choose number of points to send.</font><div class='respPicDiv'><img src='img/responseButtonOffersNo0L.png' class='respPic'></div></div>","4","","2","Sean","trustrating_stim/white_mw071.bmp","Kept","0.6,0.2","15","0.6","29","5"
"html-keyboard-response","109","237024","0.0-18.0-2.4","dstesting","bdp_trlrn","Mon May 10 2021 10:55:03 GMT-0400 (Eastern Daylight Time)","564600","Untrustworthy,Trustworthy","","null","","","","decisionFB","","<div class='trialDiv'><img src='trustrating_stim/white_mw071.bmp'><br><font class='baseline'><strong>Sean</strong><p>Choose number of points to send.</font><div class='respPicDiv'><img src='img/responseButtonOffersNo0L4.png' class='respPic'></div></div>","null","","2","Sean","trustrating_stim/white_mw071.bmp","Kept","0.6,0.2","15","0.6","25","5"
"html-keyboard-response","110","238028","0.0-18.0-3.4","dstesting","bdp_trlrn","Mon May 10 2021 10:55:03 GMT-0400 (Eastern Daylight Time)","564600","Untrustworthy,Trustworthy","","null","","","","feedback","","<div class='trialDiv'><img src='trustrating_stim/white_mw071.bmp'><br><font class='baseline'><strong>Sean</strong><p>Received: <strong>16</strong></font> &nbsp; &nbsp; &nbsp; &nbsp; &nbsp; &nbsp;<font class='negOutcome'>Shared back: <strong>0</strong></font></font><div class='respPicDiv'><img src='img/responseButtonOffersNo0_wht.png' class='respPic'></div></div>","null","","2","Sean","trustrating_stim/white_mw071.bmp","Kept","0.6,0.2","15","0.6","25","5"
"html-keyboard-response","111","239484","0.0-18.0-1.5","dstesting","bdp_trlrn","Mon May 10 2021 10:55:03 GMT-0400 (Eastern Daylight Time)","564600","Untrustworthy,Trustworthy","","1455","","","","decision","","<div class='trialDiv'><img src='trustrating_stim/white_mw035.bmp'><br><font class='baseline'><strong>Richard</strong><p>Choose number of points to send.</font><div class='respPicDiv'><img src='img/responseButtonOffersNo0L.png' class='respPic'></div></div>","2","","2","Richard","trustrating_stim/white_mw035.bmp","Shared","0.2,0.6","13","0.2","30","6"
"html-keyboard-response","112","239740","0.0-18.0-2.5","dstesting","bdp_trlrn","Mon May 10 2021 10:55:03 GMT-0400 (Eastern Daylight Time)","564600","Untrustworthy,Trustworthy","","null","","","","decisionFB","","<div class='trialDiv'><img src='trustrating_stim/white_mw035.bmp'><br><font class='baseline'><strong>Richard</strong><p>Choose number of points to send.</font><div class='respPicDiv'><img src='img/responseButtonOffersNo0L2.png' class='respPic'></div></div>","null","","2","Richard","trustrating_stim/white_mw035.bmp","Shared","0.2,0.6","13","0.2","28","6"
"html-keyboard-response","113","240742","0.0-18.0-3.5","dstesting","bdp_trlrn","Mon May 10 2021 10:55:03 GMT-0400 (Eastern Daylight Time)","564600","Untrustworthy,Trustworthy","","null","","","","feedback","","<div class='trialDiv'><img src='trustrating_stim/white_mw035.bmp'><br><font class='baseline'><strong>Richard</strong><p>Received: <strong>8</strong></font> &nbsp; &nbsp; &nbsp; &nbsp; &nbsp; &nbsp;<font class='posOutcome'>Shared back: <strong>4</strong></font></font><div class='respPicDiv'><img src='img/responseButtonOffersNo0_wht.png' class='respPic'></div></div>","null","","2","Richard","trustrating_stim/white_mw035.bmp","Shared","0.2,0.6","13","0.2","32","6"
"html-keyboard-response","114","242358","0.0-18.0-1.6","dstesting","bdp_trlrn","Mon May 10 2021 10:55:03 GMT-0400 (Eastern Daylight Time)","564600","Untrustworthy,Trustworthy","","1615","","","","decision","","<div class='trialDiv'><img src='trustrating_stim/white_00785_941205_fb_edt.bmp'><br><font class='baseline'><strong>Joseph</strong><p>Choose number of points to send.</font><div class='respPicDiv'><img src='img/responseButtonOffersNo0L.png' class='respPic'></div></div>","2","","2","Joseph","trustrating_stim/white_00785_941205_fb_edt.bmp","Shared","0.8,0.4","11","0.8","37","7"
"html-keyboard-response","115","242614","0.0-18.0-2.6","dstesting","bdp_trlrn","Mon May 10 2021 10:55:03 GMT-0400 (Eastern Daylight Time)","564600","Untrustworthy,Trustworthy","","null","","","","decisionFB","","<div class='trialDiv'><img src='trustrating_stim/white_00785_941205_fb_edt.bmp'><br><font class='baseline'><strong>Joseph</strong><p>Choose number of points to send.</font><div class='respPicDiv'><img src='img/responseButtonOffersNo0L2.png' class='respPic'></div></div>","null","","2","Joseph","trustrating_stim/white_00785_941205_fb_edt.bmp","Shared","0.8,0.4","11","0.8","35","7"
"html-keyboard-response","116","243617","0.0-18.0-3.6","dstesting","bdp_trlrn","Mon May 10 2021 10:55:03 GMT-0400 (Eastern Daylight Time)","564600","Untrustworthy,Trustworthy","","null","","","","feedback","","<div class='trialDiv'><img src='trustrating_stim/white_00785_941205_fb_edt.bmp'><br><font class='baseline'><strong>Joseph</strong><p>Received: <strong>8</strong></font> &nbsp; &nbsp; &nbsp; &nbsp; &nbsp; &nbsp;<font class='posOutcome'>Shared back: <strong>4</strong></font></font><div class='respPicDiv'><img src='img/responseButtonOffersNo0_wht.png' class='respPic'></div></div>","null","","2","Joseph","trustrating_stim/white_00785_941205_fb_edt.bmp","Shared","0.8,0.4","11","0.8","39","7"
"html-keyboard-response","117","245467","0.0-18.0-1.7","dstesting","bdp_trlrn","Mon May 10 2021 10:55:03 GMT-0400 (Eastern Daylight Time)","564600","Untrustworthy,Trustworthy","","1849","","","","decision","","<div class='trialDiv'><img src='trustrating_stim/white_mw099.bmp'><br><font class='baseline'><strong>Ryan</strong><p>Choose number of points to send.</font><div class='respPicDiv'><img src='img/responseButtonOffersNo0L.png' class='respPic'></div></div>","4","","2","Ryan","trustrating_stim/white_mw099.bmp","Shared","0.4,0.8","11","0.4","44","8"
"html-keyboard-response","118","245718","0.0-18.0-2.7","dstesting","bdp_trlrn","Mon May 10 2021 10:55:03 GMT-0400 (Eastern Daylight Time)","564600","Untrustworthy,Trustworthy","","null","","","","decisionFB","","<div class='trialDiv'><img src='trustrating_stim/white_mw099.bmp'><br><font class='baseline'><strong>Ryan</strong><p>Choose number of points to send.</font><div class='respPicDiv'><img src='img/responseButtonOffersNo0L4.png' class='respPic'></div></div>","null","","2","Ryan","trustrating_stim/white_mw099.bmp","Shared","0.4,0.8","11","0.4","40","8"
"html-keyboard-response","119","246721","0.0-18.0-3.7","dstesting","bdp_trlrn","Mon May 10 2021 10:55:03 GMT-0400 (Eastern Daylight Time)","564600","Untrustworthy,Trustworthy","","null","","","","feedback","","<div class='trialDiv'><img src='trustrating_stim/white_mw099.bmp'><br><font class='baseline'><strong>Ryan</strong><p>Received: <strong>16</strong></font> &nbsp; &nbsp; &nbsp; &nbsp; &nbsp; &nbsp;<font class='posOutcome'>Shared back: <strong>8</strong></font></font><div class='respPicDiv'><img src='img/responseButtonOffersNo0_wht.png' class='respPic'></div></div>","null","","2","Ryan","trustrating_stim/white_mw099.bmp","Shared","0.4,0.8","11","0.4","48","8"
"html-keyboard-response","120","249122","0.0-18.0-1.8","dstesting","bdp_trlrn","Mon May 10 2021 10:55:03 GMT-0400 (Eastern Daylight Time)","564600","Untrustworthy,Trustworthy","","2401","","","","decision","","<div class='trialDiv'><img src='trustrating_stim/white_mw035.bmp'><br><font class='baseline'><strong>Richard</strong><p>Choose number of points to send.</font><div class='respPicDiv'><img src='img/responseButtonOffersNo0L.png' class='respPic'></div></div>","3","","3","Richard","trustrating_stim/white_mw035.bmp","Kept","0.2,0.6","13","0.2","53","9"
"html-keyboard-response","121","249376","0.0-18.0-2.8","dstesting","bdp_trlrn","Mon May 10 2021 10:55:03 GMT-0400 (Eastern Daylight Time)","564600","Untrustworthy,Trustworthy","","null","","","","decisionFB","","<div class='trialDiv'><img src='trustrating_stim/white_mw035.bmp'><br><font class='baseline'><strong>Richard</strong><p>Choose number of points to send.</font><div class='respPicDiv'><img src='img/responseButtonOffersNo0L3.png' class='respPic'></div></div>","null","","3","Richard","trustrating_stim/white_mw035.bmp","Kept","0.2,0.6","13","0.2","50","9"
"html-keyboard-response","122","250379","0.0-18.0-3.8","dstesting","bdp_trlrn","Mon May 10 2021 10:55:03 GMT-0400 (Eastern Daylight Time)","564600","Untrustworthy,Trustworthy","","null","","","","feedback","","<div class='trialDiv'><img src='trustrating_stim/white_mw035.bmp'><br><font class='baseline'><strong>Richard</strong><p>Received: <strong>12</strong></font> &nbsp; &nbsp; &nbsp; &nbsp; &nbsp; &nbsp;<font class='negOutcome'>Shared back: <strong>0</strong></font></font><div class='respPicDiv'><img src='img/responseButtonOffersNo0_wht.png' class='respPic'></div></div>","null","","3","Richard","trustrating_stim/white_mw035.bmp","Kept","0.2,0.6","13","0.2","50","9"
"html-keyboard-response","123","252909","0.0-18.0-1.9","dstesting","bdp_trlrn","Mon May 10 2021 10:55:03 GMT-0400 (Eastern Daylight Time)","564600","Untrustworthy,Trustworthy","","2529","","","","decision","","<div class='trialDiv'><img src='trustrating_stim/white_00785_941205_fb_edt.bmp'><br><font class='baseline'><strong>Joseph</strong><p>Choose number of points to send.</font><div class='respPicDiv'><img src='img/responseButtonOffersNo0L.png' class='respPic'></div></div>","2","","3","Joseph","trustrating_stim/white_00785_941205_fb_edt.bmp","Kept","0.8,0.4","11","0.8","55","10"
"html-keyboard-response","124","253163","0.0-18.0-2.9","dstesting","bdp_trlrn","Mon May 10 2021 10:55:03 GMT-0400 (Eastern Daylight Time)","564600","Untrustworthy,Trustworthy","","null","","","","decisionFB","","<div class='trialDiv'><img src='trustrating_stim/white_00785_941205_fb_edt.bmp'><br><font class='baseline'><strong>Joseph</strong><p>Choose number of points to send.</font><div class='respPicDiv'><img src='img/responseButtonOffersNo0L2.png' class='respPic'></div></div>","null","","3","Joseph","trustrating_stim/white_00785_941205_fb_edt.bmp","Kept","0.8,0.4","11","0.8","53","10"
"html-keyboard-response","125","254167","0.0-18.0-3.9","dstesting","bdp_trlrn","Mon May 10 2021 10:55:03 GMT-0400 (Eastern Daylight Time)","564600","Untrustworthy,Trustworthy","","null","","","","feedback","","<div class='trialDiv'><img src='trustrating_stim/white_00785_941205_fb_edt.bmp'><br><font class='baseline'><strong>Joseph</strong><p>Received: <strong>8</strong></font> &nbsp; &nbsp; &nbsp; &nbsp; &nbsp; &nbsp;<font class='negOutcome'>Shared back: <strong>0</strong></font></font><div class='respPicDiv'><img src='img/responseButtonOffersNo0_wht.png' class='respPic'></div></div>","null","","3","Joseph","trustrating_stim/white_00785_941205_fb_edt.bmp","Kept","0.8,0.4","11","0.8","53","10"
"html-keyboard-response","126","255604","0.0-18.0-1.10","dstesting","bdp_trlrn","Mon May 10 2021 10:55:03 GMT-0400 (Eastern Daylight Time)","564600","Untrustworthy,Trustworthy","","1435","","","","decision","","<div class='trialDiv'><img src='trustrating_stim/white_mw099.bmp'><br><font class='baseline'><strong>Ryan</strong><p>Choose number of points to send.</font><div class='respPicDiv'><img src='img/responseButtonOffersNo0L.png' class='respPic'></div></div>","4","","3","Ryan","trustrating_stim/white_mw099.bmp","Kept","0.4,0.8","11","0.4","58","11"
"html-keyboard-response","127","255857","0.0-18.0-2.10","dstesting","bdp_trlrn","Mon May 10 2021 10:55:03 GMT-0400 (Eastern Daylight Time)","564600","Untrustworthy,Trustworthy","","null","","","","decisionFB","","<div class='trialDiv'><img src='trustrating_stim/white_mw099.bmp'><br><font class='baseline'><strong>Ryan</strong><p>Choose number of points to send.</font><div class='respPicDiv'><img src='img/responseButtonOffersNo0L4.png' class='respPic'></div></div>","null","","3","Ryan","trustrating_stim/white_mw099.bmp","Kept","0.4,0.8","11","0.4","54","11"
"html-keyboard-response","128","256859","0.0-18.0-3.10","dstesting","bdp_trlrn","Mon May 10 2021 10:55:03 GMT-0400 (Eastern Daylight Time)","564600","Untrustworthy,Trustworthy","","null","","","","feedback","","<div class='trialDiv'><img src='trustrating_stim/white_mw099.bmp'><br><font class='baseline'><strong>Ryan</strong><p>Received: <strong>16</strong></font> &nbsp; &nbsp; &nbsp; &nbsp; &nbsp; &nbsp;<font class='negOutcome'>Shared back: <strong>0</strong></font></font><div class='respPicDiv'><img src='img/responseButtonOffersNo0_wht.png' class='respPic'></div></div>","null","","3","Ryan","trustrating_stim/white_mw099.bmp","Kept","0.4,0.8","11","0.4","54","11"
"html-keyboard-response","129","261787","0.0-18.0-1.11","dstesting","bdp_trlrn","Mon May 10 2021 10:55:03 GMT-0400 (Eastern Daylight Time)","564600","Untrustworthy,Trustworthy","","4927","","","","decision","","<div class='trialDiv'><img src='trustrating_stim/white_mw071.bmp'><br><font class='baseline'><strong>Sean</strong><p>Choose number of points to send.</font><div class='respPicDiv'><img src='img/responseButtonOffersNo0L.png' class='respPic'></div></div>","3","","3","Sean","trustrating_stim/white_mw071.bmp","Shared","0.6,0.2","15","0.6","59","12"
"html-keyboard-response","130","262043","0.0-18.0-2.11","dstesting","bdp_trlrn","Mon May 10 2021 10:55:03 GMT-0400 (Eastern Daylight Time)","564600","Untrustworthy,Trustworthy","","null","","","","decisionFB","","<div class='trialDiv'><img src='trustrating_stim/white_mw071.bmp'><br><font class='baseline'><strong>Sean</strong><p>Choose number of points to send.</font><div class='respPicDiv'><img src='img/responseButtonOffersNo0L3.png' class='respPic'></div></div>","null","","3","Sean","trustrating_stim/white_mw071.bmp","Shared","0.6,0.2","15","0.6","56","12"
"html-keyboard-response","131","263045","0.0-18.0-3.11","dstesting","bdp_trlrn","Mon May 10 2021 10:55:03 GMT-0400 (Eastern Daylight Time)","564600","Untrustworthy,Trustworthy","","null","","","","feedback","","<div class='trialDiv'><img src='trustrating_stim/white_mw071.bmp'><br><font class='baseline'><strong>Sean</strong><p>Received: <strong>12</strong></font> &nbsp; &nbsp; &nbsp; &nbsp; &nbsp; &nbsp;<font class='posOutcome'>Shared back: <strong>6</strong></font></font><div class='respPicDiv'><img src='img/responseButtonOffersNo0_wht.png' class='respPic'></div></div>","null","","3","Sean","trustrating_stim/white_mw071.bmp","Shared","0.6,0.2","15","0.6","62","12"
"html-keyboard-response","132","264716","0.0-18.0-1.12","dstesting","bdp_trlrn","Mon May 10 2021 10:55:03 GMT-0400 (Eastern Daylight Time)","564600","Untrustworthy,Trustworthy","","1670","","","","decision","","<div class='trialDiv'><img src='trustrating_stim/white_mw099.bmp'><br><font class='baseline'><strong>Ryan</strong><p>Choose number of points to send.</font><div class='respPicDiv'><img src='img/responseButtonOffersNo0L.png' class='respPic'></div></div>","2","","4","Ryan","trustrating_stim/white_mw099.bmp","Kept","0.4,0.8","11","0.4","67","13"
"html-keyboard-response","133","264971","0.0-18.0-2.12","dstesting","bdp_trlrn","Mon May 10 2021 10:55:03 GMT-0400 (Eastern Daylight Time)","564600","Untrustworthy,Trustworthy","","null","","","","decisionFB","","<div class='trialDiv'><img src='trustrating_stim/white_mw099.bmp'><br><font class='baseline'><strong>Ryan</strong><p>Choose number of points to send.</font><div class='respPicDiv'><img src='img/responseButtonOffersNo0L2.png' class='respPic'></div></div>","null","","4","Ryan","trustrating_stim/white_mw099.bmp","Kept","0.4,0.8","11","0.4","65","13"
"html-keyboard-response","134","265975","0.0-18.0-3.12","dstesting","bdp_trlrn","Mon May 10 2021 10:55:03 GMT-0400 (Eastern Daylight Time)","564600","Untrustworthy,Trustworthy","","null","","","","feedback","","<div class='trialDiv'><img src='trustrating_stim/white_mw099.bmp'><br><font class='baseline'><strong>Ryan</strong><p>Received: <strong>8</strong></font> &nbsp; &nbsp; &nbsp; &nbsp; &nbsp; &nbsp;<font class='negOutcome'>Shared back: <strong>0</strong></font></font><div class='respPicDiv'><img src='img/responseButtonOffersNo0_wht.png' class='respPic'></div></div>","null","","4","Ryan","trustrating_stim/white_mw099.bmp","Kept","0.4,0.8","11","0.4","65","13"
"html-keyboard-response","135","267469","0.0-18.0-1.13","dstesting","bdp_trlrn","Mon May 10 2021 10:55:03 GMT-0400 (Eastern Daylight Time)","564600","Untrustworthy,Trustworthy","","1493","","","","decision","","<div class='trialDiv'><img src='trustrating_stim/white_00785_941205_fb_edt.bmp'><br><font class='baseline'><strong>Joseph</strong><p>Choose number of points to send.</font><div class='respPicDiv'><img src='img/responseButtonOffersNo0L.png' class='respPic'></div></div>","2","","4","Joseph","trustrating_stim/white_00785_941205_fb_edt.bmp","Shared","0.8,0.4","11","0.8","70","14"
"html-keyboard-response","136","267723","0.0-18.0-2.13","dstesting","bdp_trlrn","Mon May 10 2021 10:55:03 GMT-0400 (Eastern Daylight Time)","564600","Untrustworthy,Trustworthy","","null","","","","decisionFB","","<div class='trialDiv'><img src='trustrating_stim/white_00785_941205_fb_edt.bmp'><br><font class='baseline'><strong>Joseph</strong><p>Choose number of points to send.</font><div class='respPicDiv'><img src='img/responseButtonOffersNo0L2.png' class='respPic'></div></div>","null","","4","Joseph","trustrating_stim/white_00785_941205_fb_edt.bmp","Shared","0.8,0.4","11","0.8","68","14"
"html-keyboard-response","137","268725","0.0-18.0-3.13","dstesting","bdp_trlrn","Mon May 10 2021 10:55:03 GMT-0400 (Eastern Daylight Time)","564600","Untrustworthy,Trustworthy","","null","","","","feedback","","<div class='trialDiv'><img src='trustrating_stim/white_00785_941205_fb_edt.bmp'><br><font class='baseline'><strong>Joseph</strong><p>Received: <strong>8</strong></font> &nbsp; &nbsp; &nbsp; &nbsp; &nbsp; &nbsp;<font class='posOutcome'>Shared back: <strong>4</strong></font></font><div class='respPicDiv'><img src='img/responseButtonOffersNo0_wht.png' class='respPic'></div></div>","null","","4","Joseph","trustrating_stim/white_00785_941205_fb_edt.bmp","Shared","0.8,0.4","11","0.8","72","14"
"html-keyboard-response","138","269762","0.0-18.0-1.14","dstesting","bdp_trlrn","Mon May 10 2021 10:55:03 GMT-0400 (Eastern Daylight Time)","564600","Untrustworthy,Trustworthy","","1036","","","","decision","","<div class='trialDiv'><img src='trustrating_stim/white_mw035.bmp'><br><font class='baseline'><strong>Richard</strong><p>Choose number of points to send.</font><div class='respPicDiv'><img src='img/responseButtonOffersNo0L.png' class='respPic'></div></div>","1","","4","Richard","trustrating_stim/white_mw035.bmp","Kept","0.2,0.6","13","0.2","77","15"
"html-keyboard-response","139","270016","0.0-18.0-2.14","dstesting","bdp_trlrn","Mon May 10 2021 10:55:03 GMT-0400 (Eastern Daylight Time)","564600","Untrustworthy,Trustworthy","","null","","","","decisionFB","","<div class='trialDiv'><img src='trustrating_stim/white_mw035.bmp'><br><font class='baseline'><strong>Richard</strong><p>Choose number of points to send.</font><div class='respPicDiv'><img src='img/responseButtonOffersNo0L1.png' class='respPic'></div></div>","null","","4","Richard","trustrating_stim/white_mw035.bmp","Kept","0.2,0.6","13","0.2","76","15"
"html-keyboard-response","140","271018","0.0-18.0-3.14","dstesting","bdp_trlrn","Mon May 10 2021 10:55:03 GMT-0400 (Eastern Daylight Time)","564600","Untrustworthy,Trustworthy","","null","","","","feedback","","<div class='trialDiv'><img src='trustrating_stim/white_mw035.bmp'><br><font class='baseline'><strong>Richard</strong><p>Received: <strong>4</strong></font> &nbsp; &nbsp; &nbsp; &nbsp; &nbsp; &nbsp;<font class='negOutcome'>Shared back: <strong>0</strong></font></font><div class='respPicDiv'><img src='img/responseButtonOffersNo0_wht.png' class='respPic'></div></div>","null","","4","Richard","trustrating_stim/white_mw035.bmp","Kept","0.2,0.6","13","0.2","76","15"
"html-keyboard-response","141","274578","0.0-18.0-1.15","dstesting","bdp_trlrn","Mon May 10 2021 10:55:03 GMT-0400 (Eastern Daylight Time)","564600","Untrustworthy,Trustworthy","","3559","","","","decision","","<div class='trialDiv'><img src='trustrating_stim/white_mw071.bmp'><br><font class='baseline'><strong>Sean</strong><p>Choose number of points to send.</font><div class='respPicDiv'><img src='img/responseButtonOffersNo0L.png' class='respPic'></div></div>","5","","4","Sean","trustrating_stim/white_mw071.bmp","Shared","0.6,0.2","15","0.6","81","16"
"html-keyboard-response","142","274832","0.0-18.0-2.15","dstesting","bdp_trlrn","Mon May 10 2021 10:55:03 GMT-0400 (Eastern Daylight Time)","564600","Untrustworthy,Trustworthy","","null","","","","decisionFB","","<div class='trialDiv'><img src='trustrating_stim/white_mw071.bmp'><br><font class='baseline'><strong>Sean</strong><p>Choose number of points to send.</font><div class='respPicDiv'><img src='img/responseButtonOffersNo0L5.png' class='respPic'></div></div>","null","","4","Sean","trustrating_stim/white_mw071.bmp","Shared","0.6,0.2","15","0.6","76","16"
"html-keyboard-response","143","275834","0.0-18.0-3.15","dstesting","bdp_trlrn","Mon May 10 2021 10:55:03 GMT-0400 (Eastern Daylight Time)","564600","Untrustworthy,Trustworthy","","null","","","","feedback","","<div class='trialDiv'><img src='trustrating_stim/white_mw071.bmp'><br><font class='baseline'><strong>Sean</strong><p>Received: <strong>20</strong></font> &nbsp; &nbsp; &nbsp; &nbsp; &nbsp; &nbsp;<font class='posOutcome'>Shared back: <strong>10</strong></font></font><div class='respPicDiv'><img src='img/responseButtonOffersNo0_wht.png' class='respPic'></div></div>","null","","4","Sean","trustrating_stim/white_mw071.bmp","Shared","0.6,0.2","15","0.6","86","16"
"html-keyboard-response","144","277515","0.0-18.0-1.16","dstesting","bdp_trlrn","Mon May 10 2021 10:55:03 GMT-0400 (Eastern Daylight Time)","564600","Untrustworthy,Trustworthy","","1680","","","","decision","","<div class='trialDiv'><img src='trustrating_stim/white_mw035.bmp'><br><font class='baseline'><strong>Richard</strong><p>Choose number of points to send.</font><div class='respPicDiv'><img src='img/responseButtonOffersNo0L.png' class='respPic'></div></div>","1","","5","Richard","trustrating_stim/white_mw035.bmp","Shared","0.2,0.6","13","0.2","91","17"
"html-keyboard-response","145","277770","0.0-18.0-2.16","dstesting","bdp_trlrn","Mon May 10 2021 10:55:03 GMT-0400 (Eastern Daylight Time)","564600","Untrustworthy,Trustworthy","","null","","","","decisionFB","","<div class='trialDiv'><img src='trustrating_stim/white_mw035.bmp'><br><font class='baseline'><strong>Richard</strong><p>Choose number of points to send.</font><div class='respPicDiv'><img src='img/responseButtonOffersNo0L1.png' class='respPic'></div></div>","null","","5","Richard","trustrating_stim/white_mw035.bmp","Shared","0.2,0.6","13","0.2","90","17"
"html-keyboard-response","146","278775","0.0-18.0-3.16","dstesting","bdp_trlrn","Mon May 10 2021 10:55:03 GMT-0400 (Eastern Daylight Time)","564600","Untrustworthy,Trustworthy","","null","","","","feedback","","<div class='trialDiv'><img src='trustrating_stim/white_mw035.bmp'><br><font class='baseline'><strong>Richard</strong><p>Received: <strong>4</strong></font> &nbsp; &nbsp; &nbsp; &nbsp; &nbsp; &nbsp;<font class='posOutcome'>Shared back: <strong>2</strong></font></font><div class='respPicDiv'><img src='img/responseButtonOffersNo0_wht.png' class='respPic'></div></div>","null","","5","Richard","trustrating_stim/white_mw035.bmp","Shared","0.2,0.6","13","0.2","92","17"
"html-keyboard-response","147","281723","0.0-18.0-1.17","dstesting","bdp_trlrn","Mon May 10 2021 10:55:03 GMT-0400 (Eastern Daylight Time)","564600","Untrustworthy,Trustworthy","","2948","","","","decision","","<div class='trialDiv'><img src='trustrating_stim/white_mw099.bmp'><br><font class='baseline'><strong>Ryan</strong><p>Choose number of points to send.</font><div class='respPicDiv'><img src='img/responseButtonOffersNo0L.png' class='respPic'></div></div>","4","","5","Ryan","trustrating_stim/white_mw099.bmp","Shared","0.4,0.8","11","0.4","97","18"
"html-keyboard-response","148","281979","0.0-18.0-2.17","dstesting","bdp_trlrn","Mon May 10 2021 10:55:03 GMT-0400 (Eastern Daylight Time)","564600","Untrustworthy,Trustworthy","","null","","","","decisionFB","","<div class='trialDiv'><img src='trustrating_stim/white_mw099.bmp'><br><font class='baseline'><strong>Ryan</strong><p>Choose number of points to send.</font><div class='respPicDiv'><img src='img/responseButtonOffersNo0L4.png' class='respPic'></div></div>","null","","5","Ryan","trustrating_stim/white_mw099.bmp","Shared","0.4,0.8","11","0.4","93","18"
"html-keyboard-response","149","282981","0.0-18.0-3.17","dstesting","bdp_trlrn","Mon May 10 2021 10:55:03 GMT-0400 (Eastern Daylight Time)","564600","Untrustworthy,Trustworthy","","null","","","","feedback","","<div class='trialDiv'><img src='trustrating_stim/white_mw099.bmp'><br><font class='baseline'><strong>Ryan</strong><p>Received: <strong>16</strong></font> &nbsp; &nbsp; &nbsp; &nbsp; &nbsp; &nbsp;<font class='posOutcome'>Shared back: <strong>8</strong></font></font><div class='respPicDiv'><img src='img/responseButtonOffersNo0_wht.png' class='respPic'></div></div>","null","","5","Ryan","trustrating_stim/white_mw099.bmp","Shared","0.4,0.8","11","0.4","101","18"
"html-keyboard-response","150","283618","0.0-18.0-1.18","dstesting","bdp_trlrn","Mon May 10 2021 10:55:03 GMT-0400 (Eastern Daylight Time)","564600","Untrustworthy,Trustworthy","","636","","","","decision","","<div class='trialDiv'><img src='trustrating_stim/white_00785_941205_fb_edt.bmp'><br><font class='baseline'><strong>Joseph</strong><p>Choose number of points to send.</font><div class='respPicDiv'><img src='img/responseButtonOffersNo0L.png' class='respPic'></div></div>","1","","5","Joseph","trustrating_stim/white_00785_941205_fb_edt.bmp","Shared","0.8,0.4","11","0.8","106","19"
"html-keyboard-response","151","283872","0.0-18.0-2.18","dstesting","bdp_trlrn","Mon May 10 2021 10:55:03 GMT-0400 (Eastern Daylight Time)","564600","Untrustworthy,Trustworthy","","null","","","","decisionFB","","<div class='trialDiv'><img src='trustrating_stim/white_00785_941205_fb_edt.bmp'><br><font class='baseline'><strong>Joseph</strong><p>Choose number of points to send.</font><div class='respPicDiv'><img src='img/responseButtonOffersNo0L1.png' class='respPic'></div></div>","null","","5","Joseph","trustrating_stim/white_00785_941205_fb_edt.bmp","Shared","0.8,0.4","11","0.8","105","19"
"html-keyboard-response","152","284874","0.0-18.0-3.18","dstesting","bdp_trlrn","Mon May 10 2021 10:55:03 GMT-0400 (Eastern Daylight Time)","564600","Untrustworthy,Trustworthy","","null","","","","feedback","","<div class='trialDiv'><img src='trustrating_stim/white_00785_941205_fb_edt.bmp'><br><font class='baseline'><strong>Joseph</strong><p>Received: <strong>4</strong></font> &nbsp; &nbsp; &nbsp; &nbsp; &nbsp; &nbsp;<font class='posOutcome'>Shared back: <strong>2</strong></font></font><div class='respPicDiv'><img src='img/responseButtonOffersNo0_wht.png' class='respPic'></div></div>","null","","5","Joseph","trustrating_stim/white_00785_941205_fb_edt.bmp","Shared","0.8,0.4","11","0.8","107","19"
"html-keyboard-response","153","288634","0.0-18.0-1.19","dstesting","bdp_trlrn","Mon May 10 2021 10:55:03 GMT-0400 (Eastern Daylight Time)","564600","Untrustworthy,Trustworthy","","3760","","","","decision","","<div class='trialDiv'><img src='trustrating_stim/white_mw071.bmp'><br><font class='baseline'><strong>Sean</strong><p>Choose number of points to send.</font><div class='respPicDiv'><img src='img/responseButtonOffersNo0L.png' class='respPic'></div></div>","5","","5","Sean","trustrating_stim/white_mw071.bmp","Kept","0.6,0.2","15","0.6","112","20"
"html-keyboard-response","154","288885","0.0-18.0-2.19","dstesting","bdp_trlrn","Mon May 10 2021 10:55:03 GMT-0400 (Eastern Daylight Time)","564600","Untrustworthy,Trustworthy","","null","","","","decisionFB","","<div class='trialDiv'><img src='trustrating_stim/white_mw071.bmp'><br><font class='baseline'><strong>Sean</strong><p>Choose number of points to send.</font><div class='respPicDiv'><img src='img/responseButtonOffersNo0L5.png' class='respPic'></div></div>","null","","5","Sean","trustrating_stim/white_mw071.bmp","Kept","0.6,0.2","15","0.6","107","20"
"html-keyboard-response","155","289887","0.0-18.0-3.19","dstesting","bdp_trlrn","Mon May 10 2021 10:55:03 GMT-0400 (Eastern Daylight Time)","564600","Untrustworthy,Trustworthy","","null","","","","feedback","","<div class='trialDiv'><img src='trustrating_stim/white_mw071.bmp'><br><font class='baseline'><strong>Sean</strong><p>Received: <strong>20</strong></font> &nbsp; &nbsp; &nbsp; &nbsp; &nbsp; &nbsp;<font class='negOutcome'>Shared back: <strong>0</strong></font></font><div class='respPicDiv'><img src='img/responseButtonOffersNo0_wht.png' class='respPic'></div></div>","null","","5","Sean","trustrating_stim/white_mw071.bmp","Kept","0.6,0.2","15","0.6","107","20"
"html-keyboard-response","156","290834","0.0-18.0-1.20","dstesting","bdp_trlrn","Mon May 10 2021 10:55:03 GMT-0400 (Eastern Daylight Time)","564600","Untrustworthy,Trustworthy","","946","","","","decision","","<div class='trialDiv'><img src='trustrating_stim/white_00785_941205_fb_edt.bmp'><br><font class='baseline'><strong>Joseph</strong><p>Choose number of points to send.</font><div class='respPicDiv'><img src='img/responseButtonOffersNo0L.png' class='respPic'></div></div>","1","","6","Joseph","trustrating_stim/white_00785_941205_fb_edt.bmp","Shared","0.8,0.4","11","0.8","112","21"
"html-keyboard-response","157","291089","0.0-18.0-2.20","dstesting","bdp_trlrn","Mon May 10 2021 10:55:03 GMT-0400 (Eastern Daylight Time)","564600","Untrustworthy,Trustworthy","","null","","","","decisionFB","","<div class='trialDiv'><img src='trustrating_stim/white_00785_941205_fb_edt.bmp'><br><font class='baseline'><strong>Joseph</strong><p>Choose number of points to send.</font><div class='respPicDiv'><img src='img/responseButtonOffersNo0L1.png' class='respPic'></div></div>","null","","6","Joseph","trustrating_stim/white_00785_941205_fb_edt.bmp","Shared","0.8,0.4","11","0.8","111","21"
"html-keyboard-response","158","292092","0.0-18.0-3.20","dstesting","bdp_trlrn","Mon May 10 2021 10:55:03 GMT-0400 (Eastern Daylight Time)","564600","Untrustworthy,Trustworthy","","null","","","","feedback","","<div class='trialDiv'><img src='trustrating_stim/white_00785_941205_fb_edt.bmp'><br><font class='baseline'><strong>Joseph</strong><p>Received: <strong>4</strong></font> &nbsp; &nbsp; &nbsp; &nbsp; &nbsp; &nbsp;<font class='posOutcome'>Shared back: <strong>2</strong></font></font><div class='respPicDiv'><img src='img/responseButtonOffersNo0_wht.png' class='respPic'></div></div>","null","","6","Joseph","trustrating_stim/white_00785_941205_fb_edt.bmp","Shared","0.8,0.4","11","0.8","113","21"
"html-keyboard-response","159","293817","0.0-18.0-1.21","dstesting","bdp_trlrn","Mon May 10 2021 10:55:03 GMT-0400 (Eastern Daylight Time)","564600","Untrustworthy,Trustworthy","","1725","","","","decision","","<div class='trialDiv'><img src='trustrating_stim/white_mw099.bmp'><br><font class='baseline'><strong>Ryan</strong><p>Choose number of points to send.</font><div class='respPicDiv'><img src='img/responseButtonOffersNo0L.png' class='respPic'></div></div>","4","","6","Ryan","trustrating_stim/white_mw099.bmp","Kept","0.4,0.8","11","0.4","118","22"
"html-keyboard-response","160","294070","0.0-18.0-2.21","dstesting","bdp_trlrn","Mon May 10 2021 10:55:03 GMT-0400 (Eastern Daylight Time)","564600","Untrustworthy,Trustworthy","","null","","","","decisionFB","","<div class='trialDiv'><img src='trustrating_stim/white_mw099.bmp'><br><font class='baseline'><strong>Ryan</strong><p>Choose number of points to send.</font><div class='respPicDiv'><img src='img/responseButtonOffersNo0L4.png' class='respPic'></div></div>","null","","6","Ryan","trustrating_stim/white_mw099.bmp","Kept","0.4,0.8","11","0.4","114","22"
"html-keyboard-response","161","295074","0.0-18.0-3.21","dstesting","bdp_trlrn","Mon May 10 2021 10:55:03 GMT-0400 (Eastern Daylight Time)","564600","Untrustworthy,Trustworthy","","null","","","","feedback","","<div class='trialDiv'><img src='trustrating_stim/white_mw099.bmp'><br><font class='baseline'><strong>Ryan</strong><p>Received: <strong>16</strong></font> &nbsp; &nbsp; &nbsp; &nbsp; &nbsp; &nbsp;<font class='negOutcome'>Shared back: <strong>0</strong></font></font><div class='respPicDiv'><img src='img/responseButtonOffersNo0_wht.png' class='respPic'></div></div>","null","","6","Ryan","trustrating_stim/white_mw099.bmp","Kept","0.4,0.8","11","0.4","114","22"
"html-keyboard-response","162","296642","0.0-18.0-1.22","dstesting","bdp_trlrn","Mon May 10 2021 10:55:03 GMT-0400 (Eastern Daylight Time)","564600","Untrustworthy,Trustworthy","","1566","","","","decision","","<div class='trialDiv'><img src='trustrating_stim/white_mw035.bmp'><br><font class='baseline'><strong>Richard</strong><p>Choose number of points to send.</font><div class='respPicDiv'><img src='img/responseButtonOffersNo0L.png' class='respPic'></div></div>","2","","6","Richard","trustrating_stim/white_mw035.bmp","Shared","0.2,0.6","13","0.2","119","23"
"html-keyboard-response","163","296895","0.0-18.0-2.22","dstesting","bdp_trlrn","Mon May 10 2021 10:55:03 GMT-0400 (Eastern Daylight Time)","564600","Untrustworthy,Trustworthy","","null","","","","decisionFB","","<div class='trialDiv'><img src='trustrating_stim/white_mw035.bmp'><br><font class='baseline'><strong>Richard</strong><p>Choose number of points to send.</font><div class='respPicDiv'><img src='img/responseButtonOffersNo0L2.png' class='respPic'></div></div>","null","","6","Richard","trustrating_stim/white_mw035.bmp","Shared","0.2,0.6","13","0.2","117","23"
"html-keyboard-response","164","297900","0.0-18.0-3.22","dstesting","bdp_trlrn","Mon May 10 2021 10:55:03 GMT-0400 (Eastern Daylight Time)","564600","Untrustworthy,Trustworthy","","null","","","","feedback","","<div class='trialDiv'><img src='trustrating_stim/white_mw035.bmp'><br><font class='baseline'><strong>Richard</strong><p>Received: <strong>8</strong></font> &nbsp; &nbsp; &nbsp; &nbsp; &nbsp; &nbsp;<font class='posOutcome'>Shared back: <strong>4</strong></font></font><div class='respPicDiv'><img src='img/responseButtonOffersNo0_wht.png' class='respPic'></div></div>","null","","6","Richard","trustrating_stim/white_mw035.bmp","Shared","0.2,0.6","13","0.2","121","23"
"html-keyboard-response","165","299419","0.0-18.0-1.23","dstesting","bdp_trlrn","Mon May 10 2021 10:55:03 GMT-0400 (Eastern Daylight Time)","564600","Untrustworthy,Trustworthy","","1519","","","","decision","","<div class='trialDiv'><img src='trustrating_stim/white_mw071.bmp'><br><font class='baseline'><strong>Sean</strong><p>Choose number of points to send.</font><div class='respPicDiv'><img src='img/responseButtonOffersNo0L.png' class='respPic'></div></div>","1","","6","Sean","trustrating_stim/white_mw071.bmp","Shared","0.6,0.2","15","0.6","126","24"
"html-keyboard-response","166","299670","0.0-18.0-2.23","dstesting","bdp_trlrn","Mon May 10 2021 10:55:03 GMT-0400 (Eastern Daylight Time)","564600","Untrustworthy,Trustworthy","","null","","","","decisionFB","","<div class='trialDiv'><img src='trustrating_stim/white_mw071.bmp'><br><font class='baseline'><strong>Sean</strong><p>Choose number of points to send.</font><div class='respPicDiv'><img src='img/responseButtonOffersNo0L1.png' class='respPic'></div></div>","null","","6","Sean","trustrating_stim/white_mw071.bmp","Shared","0.6,0.2","15","0.6","125","24"
"html-keyboard-response","167","300677","0.0-18.0-3.23","dstesting","bdp_trlrn","Mon May 10 2021 10:55:03 GMT-0400 (Eastern Daylight Time)","564600","Untrustworthy,Trustworthy","","null","","","","feedback","","<div class='trialDiv'><img src='trustrating_stim/white_mw071.bmp'><br><font class='baseline'><strong>Sean</strong><p>Received: <strong>4</strong></font> &nbsp; &nbsp; &nbsp; &nbsp; &nbsp; &nbsp;<font class='posOutcome'>Shared back: <strong>2</strong></font></font><div class='respPicDiv'><img src='img/responseButtonOffersNo0_wht.png' class='respPic'></div></div>","null","","6","Sean","trustrating_stim/white_mw071.bmp","Shared","0.6,0.2","15","0.6","127","24"
"html-keyboard-response","168","302585","0.0-18.0-1.24","dstesting","bdp_trlrn","Mon May 10 2021 10:55:03 GMT-0400 (Eastern Daylight Time)","564600","Untrustworthy,Trustworthy","","1908","","","","decision","","<div class='trialDiv'><img src='trustrating_stim/white_00785_941205_fb_edt.bmp'><br><font class='baseline'><strong>Joseph</strong><p>Choose number of points to send.</font><div class='respPicDiv'><img src='img/responseButtonOffersNo0L.png' class='respPic'></div></div>","4","","7","Joseph","trustrating_stim/white_00785_941205_fb_edt.bmp","Shared","0.8,0.4","11","0.8","132","25"
"html-keyboard-response","169","302840","0.0-18.0-2.24","dstesting","bdp_trlrn","Mon May 10 2021 10:55:03 GMT-0400 (Eastern Daylight Time)","564600","Untrustworthy,Trustworthy","","null","","","","decisionFB","","<div class='trialDiv'><img src='trustrating_stim/white_00785_941205_fb_edt.bmp'><br><font class='baseline'><strong>Joseph</strong><p>Choose number of points to send.</font><div class='respPicDiv'><img src='img/responseButtonOffersNo0L4.png' class='respPic'></div></div>","null","","7","Joseph","trustrating_stim/white_00785_941205_fb_edt.bmp","Shared","0.8,0.4","11","0.8","128","25"
"html-keyboard-response","170","303844","0.0-18.0-3.24","dstesting","bdp_trlrn","Mon May 10 2021 10:55:03 GMT-0400 (Eastern Daylight Time)","564600","Untrustworthy,Trustworthy","","null","","","","feedback","","<div class='trialDiv'><img src='trustrating_stim/white_00785_941205_fb_edt.bmp'><br><font class='baseline'><strong>Joseph</strong><p>Received: <strong>16</strong></font> &nbsp; &nbsp; &nbsp; &nbsp; &nbsp; &nbsp;<font class='posOutcome'>Shared back: <strong>8</strong></font></font><div class='respPicDiv'><img src='img/responseButtonOffersNo0_wht.png' class='respPic'></div></div>","null","","7","Joseph","trustrating_stim/white_00785_941205_fb_edt.bmp","Shared","0.8,0.4","11","0.8","136","25"
"html-keyboard-response","171","306209","0.0-18.0-1.25","dstesting","bdp_trlrn","Mon May 10 2021 10:55:03 GMT-0400 (Eastern Daylight Time)","564600","Untrustworthy,Trustworthy","","2364","","","","decision","","<div class='trialDiv'><img src='trustrating_stim/white_mw035.bmp'><br><font class='baseline'><strong>Richard</strong><p>Choose number of points to send.</font><div class='respPicDiv'><img src='img/responseButtonOffersNo0L.png' class='respPic'></div></div>","2","","7","Richard","trustrating_stim/white_mw035.bmp","Kept","0.2,0.6","13","0.2","141","26"
"html-keyboard-response","172","306465","0.0-18.0-2.25","dstesting","bdp_trlrn","Mon May 10 2021 10:55:03 GMT-0400 (Eastern Daylight Time)","564600","Untrustworthy,Trustworthy","","null","","","","decisionFB","","<div class='trialDiv'><img src='trustrating_stim/white_mw035.bmp'><br><font class='baseline'><strong>Richard</strong><p>Choose number of points to send.</font><div class='respPicDiv'><img src='img/responseButtonOffersNo0L2.png' class='respPic'></div></div>","null","","7","Richard","trustrating_stim/white_mw035.bmp","Kept","0.2,0.6","13","0.2","139","26"
"html-keyboard-response","173","307471","0.0-18.0-3.25","dstesting","bdp_trlrn","Mon May 10 2021 10:55:03 GMT-0400 (Eastern Daylight Time)","564600","Untrustworthy,Trustworthy","","null","","","","feedback","","<div class='trialDiv'><img src='trustrating_stim/white_mw035.bmp'><br><font class='baseline'><strong>Richard</strong><p>Received: <strong>8</strong></font> &nbsp; &nbsp; &nbsp; &nbsp; &nbsp; &nbsp;<font class='negOutcome'>Shared back: <strong>0</strong></font></font><div class='respPicDiv'><img src='img/responseButtonOffersNo0_wht.png' class='respPic'></div></div>","null","","7","Richard","trustrating_stim/white_mw035.bmp","Kept","0.2,0.6","13","0.2","139","26"
"html-keyboard-response","174","308741","0.0-18.0-1.26","dstesting","bdp_trlrn","Mon May 10 2021 10:55:03 GMT-0400 (Eastern Daylight Time)","564600","Untrustworthy,Trustworthy","","1269","","","","decision","","<div class='trialDiv'><img src='trustrating_stim/white_mw099.bmp'><br><font class='baseline'><strong>Ryan</strong><p>Choose number of points to send.</font><div class='respPicDiv'><img src='img/responseButtonOffersNo0L.png' class='respPic'></div></div>","2","","7","Ryan","trustrating_stim/white_mw099.bmp","Kept","0.4,0.8","11","0.4","144","27"
"html-keyboard-response","175","308996","0.0-18.0-2.26","dstesting","bdp_trlrn","Mon May 10 2021 10:55:03 GMT-0400 (Eastern Daylight Time)","564600","Untrustworthy,Trustworthy","","null","","","","decisionFB","","<div class='trialDiv'><img src='trustrating_stim/white_mw099.bmp'><br><font class='baseline'><strong>Ryan</strong><p>Choose number of points to send.</font><div class='respPicDiv'><img src='img/responseButtonOffersNo0L2.png' class='respPic'></div></div>","null","","7","Ryan","trustrating_stim/white_mw099.bmp","Kept","0.4,0.8","11","0.4","142","27"
"html-keyboard-response","176","309999","0.0-18.0-3.26","dstesting","bdp_trlrn","Mon May 10 2021 10:55:03 GMT-0400 (Eastern Daylight Time)","564600","Untrustworthy,Trustworthy","","null","","","","feedback","","<div class='trialDiv'><img src='trustrating_stim/white_mw099.bmp'><br><font class='baseline'><strong>Ryan</strong><p>Received: <strong>8</strong></font> &nbsp; &nbsp; &nbsp; &nbsp; &nbsp; &nbsp;<font class='negOutcome'>Shared back: <strong>0</strong></font></font><div class='respPicDiv'><img src='img/responseButtonOffersNo0_wht.png' class='respPic'></div></div>","null","","7","Ryan","trustrating_stim/white_mw099.bmp","Kept","0.4,0.8","11","0.4","142","27"
"html-keyboard-response","177","311274","0.0-18.0-1.27","dstesting","bdp_trlrn","Mon May 10 2021 10:55:03 GMT-0400 (Eastern Daylight Time)","564600","Untrustworthy,Trustworthy","","1275","","","","decision","","<div class='trialDiv'><img src='trustrating_stim/white_mw071.bmp'><br><font class='baseline'><strong>Sean</strong><p>Choose number of points to send.</font><div class='respPicDiv'><img src='img/responseButtonOffersNo0L.png' class='respPic'></div></div>","4","","7","Sean","trustrating_stim/white_mw071.bmp","Shared","0.6,0.2","15","0.6","147","28"
"html-keyboard-response","178","311529","0.0-18.0-2.27","dstesting","bdp_trlrn","Mon May 10 2021 10:55:03 GMT-0400 (Eastern Daylight Time)","564600","Untrustworthy,Trustworthy","","null","","","","decisionFB","","<div class='trialDiv'><img src='trustrating_stim/white_mw071.bmp'><br><font class='baseline'><strong>Sean</strong><p>Choose number of points to send.</font><div class='respPicDiv'><img src='img/responseButtonOffersNo0L4.png' class='respPic'></div></div>","null","","7","Sean","trustrating_stim/white_mw071.bmp","Shared","0.6,0.2","15","0.6","143","28"
"html-keyboard-response","179","312534","0.0-18.0-3.27","dstesting","bdp_trlrn","Mon May 10 2021 10:55:03 GMT-0400 (Eastern Daylight Time)","564600","Untrustworthy,Trustworthy","","null","","","","feedback","","<div class='trialDiv'><img src='trustrating_stim/white_mw071.bmp'><br><font class='baseline'><strong>Sean</strong><p>Received: <strong>16</strong></font> &nbsp; &nbsp; &nbsp; &nbsp; &nbsp; &nbsp;<font class='posOutcome'>Shared back: <strong>8</strong></font></font><div class='respPicDiv'><img src='img/responseButtonOffersNo0_wht.png' class='respPic'></div></div>","null","","7","Sean","trustrating_stim/white_mw071.bmp","Shared","0.6,0.2","15","0.6","151","28"
"html-keyboard-response","180","313764","0.0-18.0-1.28","dstesting","bdp_trlrn","Mon May 10 2021 10:55:03 GMT-0400 (Eastern Daylight Time)","564600","Untrustworthy,Trustworthy","","1230","","","","decision","","<div class='trialDiv'><img src='trustrating_stim/white_00785_941205_fb_edt.bmp'><br><font class='baseline'><strong>Joseph</strong><p>Choose number of points to send.</font><div class='respPicDiv'><img src='img/responseButtonOffersNo0L.png' class='respPic'></div></div>","4","","8","Joseph","trustrating_stim/white_00785_941205_fb_edt.bmp","Shared","0.8,0.4","11","0.8","156","29"
"html-keyboard-response","181","314020","0.0-18.0-2.28","dstesting","bdp_trlrn","Mon May 10 2021 10:55:03 GMT-0400 (Eastern Daylight Time)","564600","Untrustworthy,Trustworthy","","null","","","","decisionFB","","<div class='trialDiv'><img src='trustrating_stim/white_00785_941205_fb_edt.bmp'><br><font class='baseline'><strong>Joseph</strong><p>Choose number of points to send.</font><div class='respPicDiv'><img src='img/responseButtonOffersNo0L4.png' class='respPic'></div></div>","null","","8","Joseph","trustrating_stim/white_00785_941205_fb_edt.bmp","Shared","0.8,0.4","11","0.8","152","29"
"html-keyboard-response","182","315023","0.0-18.0-3.28","dstesting","bdp_trlrn","Mon May 10 2021 10:55:03 GMT-0400 (Eastern Daylight Time)","564600","Untrustworthy,Trustworthy","","null","","","","feedback","","<div class='trialDiv'><img src='trustrating_stim/white_00785_941205_fb_edt.bmp'><br><font class='baseline'><strong>Joseph</strong><p>Received: <strong>16</strong></font> &nbsp; &nbsp; &nbsp; &nbsp; &nbsp; &nbsp;<font class='posOutcome'>Shared back: <strong>8</strong></font></font><div class='respPicDiv'><img src='img/responseButtonOffersNo0_wht.png' class='respPic'></div></div>","null","","8","Joseph","trustrating_stim/white_00785_941205_fb_edt.bmp","Shared","0.8,0.4","11","0.8","160","29"
"html-keyboard-response","183","316361","0.0-18.0-1.29","dstesting","bdp_trlrn","Mon May 10 2021 10:55:03 GMT-0400 (Eastern Daylight Time)","564600","Untrustworthy,Trustworthy","","1336","","","","decision","","<div class='trialDiv'><img src='trustrating_stim/white_mw099.bmp'><br><font class='baseline'><strong>Ryan</strong><p>Choose number of points to send.</font><div class='respPicDiv'><img src='img/responseButtonOffersNo0L.png' class='respPic'></div></div>","2","","8","Ryan","trustrating_stim/white_mw099.bmp","Shared","0.4,0.8","11","0.4","165","30"
"html-keyboard-response","184","316616","0.0-18.0-2.29","dstesting","bdp_trlrn","Mon May 10 2021 10:55:03 GMT-0400 (Eastern Daylight Time)","564600","Untrustworthy,Trustworthy","","null","","","","decisionFB","","<div class='trialDiv'><img src='trustrating_stim/white_mw099.bmp'><br><font class='baseline'><strong>Ryan</strong><p>Choose number of points to send.</font><div class='respPicDiv'><img src='img/responseButtonOffersNo0L2.png' class='respPic'></div></div>","null","","8","Ryan","trustrating_stim/white_mw099.bmp","Shared","0.4,0.8","11","0.4","163","30"
"html-keyboard-response","185","317620","0.0-18.0-3.29","dstesting","bdp_trlrn","Mon May 10 2021 10:55:03 GMT-0400 (Eastern Daylight Time)","564600","Untrustworthy,Trustworthy","","null","","","","feedback","","<div class='trialDiv'><img src='trustrating_stim/white_mw099.bmp'><br><font class='baseline'><strong>Ryan</strong><p>Received: <strong>8</strong></font> &nbsp; &nbsp; &nbsp; &nbsp; &nbsp; &nbsp;<font class='posOutcome'>Shared back: <strong>4</strong></font></font><div class='respPicDiv'><img src='img/responseButtonOffersNo0_wht.png' class='respPic'></div></div>","null","","8","Ryan","trustrating_stim/white_mw099.bmp","Shared","0.4,0.8","11","0.4","167","30"
"html-keyboard-response","186","319561","0.0-18.0-1.30","dstesting","bdp_trlrn","Mon May 10 2021 10:55:03 GMT-0400 (Eastern Daylight Time)","564600","Untrustworthy,Trustworthy","","1940","","","","decision","","<div class='trialDiv'><img src='trustrating_stim/white_mw071.bmp'><br><font class='baseline'><strong>Sean</strong><p>Choose number of points to send.</font><div class='respPicDiv'><img src='img/responseButtonOffersNo0L.png' class='respPic'></div></div>","5","","8","Sean","trustrating_stim/white_mw071.bmp","Shared","0.6,0.2","15","0.6","172","31"
"html-keyboard-response","187","319812","0.0-18.0-2.30","dstesting","bdp_trlrn","Mon May 10 2021 10:55:03 GMT-0400 (Eastern Daylight Time)","564600","Untrustworthy,Trustworthy","","null","","","","decisionFB","","<div class='trialDiv'><img src='trustrating_stim/white_mw071.bmp'><br><font class='baseline'><strong>Sean</strong><p>Choose number of points to send.</font><div class='respPicDiv'><img src='img/responseButtonOffersNo0L5.png' class='respPic'></div></div>","null","","8","Sean","trustrating_stim/white_mw071.bmp","Shared","0.6,0.2","15","0.6","167","31"
"html-keyboard-response","188","320814","0.0-18.0-3.30","dstesting","bdp_trlrn","Mon May 10 2021 10:55:03 GMT-0400 (Eastern Daylight Time)","564600","Untrustworthy,Trustworthy","","null","","","","feedback","","<div class='trialDiv'><img src='trustrating_stim/white_mw071.bmp'><br><font class='baseline'><strong>Sean</strong><p>Received: <strong>20</strong></font> &nbsp; &nbsp; &nbsp; &nbsp; &nbsp; &nbsp;<font class='posOutcome'>Shared back: <strong>10</strong></font></font><div class='respPicDiv'><img src='img/responseButtonOffersNo0_wht.png' class='respPic'></div></div>","null","","8","Sean","trustrating_stim/white_mw071.bmp","Shared","0.6,0.2","15","0.6","177","31"
"html-keyboard-response","189","321858","0.0-18.0-1.31","dstesting","bdp_trlrn","Mon May 10 2021 10:55:03 GMT-0400 (Eastern Daylight Time)","564600","Untrustworthy,Trustworthy","","1043","","","","decision","","<div class='trialDiv'><img src='trustrating_stim/white_mw035.bmp'><br><font class='baseline'><strong>Richard</strong><p>Choose number of points to send.</font><div class='respPicDiv'><img src='img/responseButtonOffersNo0L.png' class='respPic'></div></div>","1","","8","Richard","trustrating_stim/white_mw035.bmp","Kept","0.2,0.6","13","0.2","182","32"
"html-keyboard-response","190","322110","0.0-18.0-2.31","dstesting","bdp_trlrn","Mon May 10 2021 10:55:03 GMT-0400 (Eastern Daylight Time)","564600","Untrustworthy,Trustworthy","","null","","","","decisionFB","","<div class='trialDiv'><img src='trustrating_stim/white_mw035.bmp'><br><font class='baseline'><strong>Richard</strong><p>Choose number of points to send.</font><div class='respPicDiv'><img src='img/responseButtonOffersNo0L1.png' class='respPic'></div></div>","null","","8","Richard","trustrating_stim/white_mw035.bmp","Kept","0.2,0.6","13","0.2","181","32"
"html-keyboard-response","191","323113","0.0-18.0-3.31","dstesting","bdp_trlrn","Mon May 10 2021 10:55:03 GMT-0400 (Eastern Daylight Time)","564600","Untrustworthy,Trustworthy","","null","","","","feedback","","<div class='trialDiv'><img src='trustrating_stim/white_mw035.bmp'><br><font class='baseline'><strong>Richard</strong><p>Received: <strong>4</strong></font> &nbsp; &nbsp; &nbsp; &nbsp; &nbsp; &nbsp;<font class='negOutcome'>Shared back: <strong>0</strong></font></font><div class='respPicDiv'><img src='img/responseButtonOffersNo0_wht.png' class='respPic'></div></div>","null","","8","Richard","trustrating_stim/white_mw035.bmp","Kept","0.2,0.6","13","0.2","181","32"
"html-keyboard-response","192","324673","0.0-18.0-1.32","dstesting","bdp_trlrn","Mon May 10 2021 10:55:03 GMT-0400 (Eastern Daylight Time)","564600","Untrustworthy,Trustworthy","","1559","","","","decision","","<div class='trialDiv'><img src='trustrating_stim/white_mw071.bmp'><br><font class='baseline'><strong>Sean</strong><p>Choose number of points to send.</font><div class='respPicDiv'><img src='img/responseButtonOffersNo0L.png' class='respPic'></div></div>","5","","9","Sean","trustrating_stim/white_mw071.bmp","Kept","0.6,0.2","15","0.6","186","33"
"html-keyboard-response","193","324926","0.0-18.0-2.32","dstesting","bdp_trlrn","Mon May 10 2021 10:55:03 GMT-0400 (Eastern Daylight Time)","564600","Untrustworthy,Trustworthy","","null","","","","decisionFB","","<div class='trialDiv'><img src='trustrating_stim/white_mw071.bmp'><br><font class='baseline'><strong>Sean</strong><p>Choose number of points to send.</font><div class='respPicDiv'><img src='img/responseButtonOffersNo0L5.png' class='respPic'></div></div>","null","","9","Sean","trustrating_stim/white_mw071.bmp","Kept","0.6,0.2","15","0.6","181","33"
"html-keyboard-response","194","325931","0.0-18.0-3.32","dstesting","bdp_trlrn","Mon May 10 2021 10:55:03 GMT-0400 (Eastern Daylight Time)","564600","Untrustworthy,Trustworthy","","null","","","","feedback","","<div class='trialDiv'><img src='trustrating_stim/white_mw071.bmp'><br><font class='baseline'><strong>Sean</strong><p>Received: <strong>20</strong></font> &nbsp; &nbsp; &nbsp; &nbsp; &nbsp; &nbsp;<font class='negOutcome'>Shared back: <strong>0</strong></font></font><div class='respPicDiv'><img src='img/responseButtonOffersNo0_wht.png' class='respPic'></div></div>","null","","9","Sean","trustrating_stim/white_mw071.bmp","Kept","0.6,0.2","15","0.6","181","33"
"html-keyboard-response","195","327383","0.0-18.0-1.33","dstesting","bdp_trlrn","Mon May 10 2021 10:55:03 GMT-0400 (Eastern Daylight Time)","564600","Untrustworthy,Trustworthy","","1452","","","","decision","","<div class='trialDiv'><img src='trustrating_stim/white_00785_941205_fb_edt.bmp'><br><font class='baseline'><strong>Joseph</strong><p>Choose number of points to send.</font><div class='respPicDiv'><img src='img/responseButtonOffersNo0L.png' class='respPic'></div></div>","3","","9","Joseph","trustrating_stim/white_00785_941205_fb_edt.bmp","Shared","0.8,0.4","11","0.8","186","34"
"html-keyboard-response","196","327635","0.0-18.0-2.33","dstesting","bdp_trlrn","Mon May 10 2021 10:55:03 GMT-0400 (Eastern Daylight Time)","564600","Untrustworthy,Trustworthy","","null","","","","decisionFB","","<div class='trialDiv'><img src='trustrating_stim/white_00785_941205_fb_edt.bmp'><br><font class='baseline'><strong>Joseph</strong><p>Choose number of points to send.</font><div class='respPicDiv'><img src='img/responseButtonOffersNo0L3.png' class='respPic'></div></div>","null","","9","Joseph","trustrating_stim/white_00785_941205_fb_edt.bmp","Shared","0.8,0.4","11","0.8","183","34"
"html-keyboard-response","197","328638","0.0-18.0-3.33","dstesting","bdp_trlrn","Mon May 10 2021 10:55:03 GMT-0400 (Eastern Daylight Time)","564600","Untrustworthy,Trustworthy","","null","","","","feedback","","<div class='trialDiv'><img src='trustrating_stim/white_00785_941205_fb_edt.bmp'><br><font class='baseline'><strong>Joseph</strong><p>Received: <strong>12</strong></font> &nbsp; &nbsp; &nbsp; &nbsp; &nbsp; &nbsp;<font class='posOutcome'>Shared back: <strong>6</strong></font></font><div class='respPicDiv'><img src='img/responseButtonOffersNo0_wht.png' class='respPic'></div></div>","null","","9","Joseph","trustrating_stim/white_00785_941205_fb_edt.bmp","Shared","0.8,0.4","11","0.8","189","34"
"html-keyboard-response","198","331417","0.0-18.0-1.34","dstesting","bdp_trlrn","Mon May 10 2021 10:55:03 GMT-0400 (Eastern Daylight Time)","564600","Untrustworthy,Trustworthy","","2779","","","","decision","","<div class='trialDiv'><img src='trustrating_stim/white_mw035.bmp'><br><font class='baseline'><strong>Richard</strong><p>Choose number of points to send.</font><div class='respPicDiv'><img src='img/responseButtonOffersNo0L.png' class='respPic'></div></div>","1","","9","Richard","trustrating_stim/white_mw035.bmp","Kept","0.2,0.6","13","0.2","194","35"
"html-keyboard-response","199","331673","0.0-18.0-2.34","dstesting","bdp_trlrn","Mon May 10 2021 10:55:03 GMT-0400 (Eastern Daylight Time)","564600","Untrustworthy,Trustworthy","","null","","","","decisionFB","","<div class='trialDiv'><img src='trustrating_stim/white_mw035.bmp'><br><font class='baseline'><strong>Richard</strong><p>Choose number of points to send.</font><div class='respPicDiv'><img src='img/responseButtonOffersNo0L1.png' class='respPic'></div></div>","null","","9","Richard","trustrating_stim/white_mw035.bmp","Kept","0.2,0.6","13","0.2","193","35"
"html-keyboard-response","200","332675","0.0-18.0-3.34","dstesting","bdp_trlrn","Mon May 10 2021 10:55:03 GMT-0400 (Eastern Daylight Time)","564600","Untrustworthy,Trustworthy","","null","","","","feedback","","<div class='trialDiv'><img src='trustrating_stim/white_mw035.bmp'><br><font class='baseline'><strong>Richard</strong><p>Received: <strong>4</strong></font> &nbsp; &nbsp; &nbsp; &nbsp; &nbsp; &nbsp;<font class='negOutcome'>Shared back: <strong>0</strong></font></font><div class='respPicDiv'><img src='img/responseButtonOffersNo0_wht.png' class='respPic'></div></div>","null","","9","Richard","trustrating_stim/white_mw035.bmp","Kept","0.2,0.6","13","0.2","193","35"
"html-keyboard-response","201","335465","0.0-18.0-1.35","dstesting","bdp_trlrn","Mon May 10 2021 10:55:03 GMT-0400 (Eastern Daylight Time)","564600","Untrustworthy,Trustworthy","","2789","","","","decision","","<div class='trialDiv'><img src='trustrating_stim/white_mw099.bmp'><br><font class='baseline'><strong>Ryan</strong><p>Choose number of points to send.</font><div class='respPicDiv'><img src='img/responseButtonOffersNo0L.png' class='respPic'></div></div>","3","","9","Ryan","trustrating_stim/white_mw099.bmp","Kept","0.4,0.8","11","0.4","198","36"
"html-keyboard-response","202","335717","0.0-18.0-2.35","dstesting","bdp_trlrn","Mon May 10 2021 10:55:03 GMT-0400 (Eastern Daylight Time)","564600","Untrustworthy,Trustworthy","","null","","","","decisionFB","","<div class='trialDiv'><img src='trustrating_stim/white_mw099.bmp'><br><font class='baseline'><strong>Ryan</strong><p>Choose number of points to send.</font><div class='respPicDiv'><img src='img/responseButtonOffersNo0L3.png' class='respPic'></div></div>","null","","9","Ryan","trustrating_stim/white_mw099.bmp","Kept","0.4,0.8","11","0.4","195","36"
"html-keyboard-response","203","336718","0.0-18.0-3.35","dstesting","bdp_trlrn","Mon May 10 2021 10:55:03 GMT-0400 (Eastern Daylight Time)","564600","Untrustworthy,Trustworthy","","null","","","","feedback","","<div class='trialDiv'><img src='trustrating_stim/white_mw099.bmp'><br><font class='baseline'><strong>Ryan</strong><p>Received: <strong>12</strong></font> &nbsp; &nbsp; &nbsp; &nbsp; &nbsp; &nbsp;<font class='negOutcome'>Shared back: <strong>0</strong></font></font><div class='respPicDiv'><img src='img/responseButtonOffersNo0_wht.png' class='respPic'></div></div>","null","","9","Ryan","trustrating_stim/white_mw099.bmp","Kept","0.4,0.8","11","0.4","195","36"
"html-keyboard-response","204","337954","0.0-18.0-1.36","dstesting","bdp_trlrn","Mon May 10 2021 10:55:03 GMT-0400 (Eastern Daylight Time)","564600","Untrustworthy,Trustworthy","","1235","","","","decision","","<div class='trialDiv'><img src='trustrating_stim/white_00785_941205_fb_edt.bmp'><br><font class='baseline'><strong>Joseph</strong><p>Choose number of points to send.</font><div class='respPicDiv'><img src='img/responseButtonOffersNo0L.png' class='respPic'></div></div>","4","","10","Joseph","trustrating_stim/white_00785_941205_fb_edt.bmp","Shared","0.8,0.4","11","0.8","200","37"
"html-keyboard-response","205","338209","0.0-18.0-2.36","dstesting","bdp_trlrn","Mon May 10 2021 10:55:03 GMT-0400 (Eastern Daylight Time)","564600","Untrustworthy,Trustworthy","","null","","","","decisionFB","","<div class='trialDiv'><img src='trustrating_stim/white_00785_941205_fb_edt.bmp'><br><font class='baseline'><strong>Joseph</strong><p>Choose number of points to send.</font><div class='respPicDiv'><img src='img/responseButtonOffersNo0L4.png' class='respPic'></div></div>","null","","10","Joseph","trustrating_stim/white_00785_941205_fb_edt.bmp","Shared","0.8,0.4","11","0.8","196","37"
"html-keyboard-response","206","339214","0.0-18.0-3.36","dstesting","bdp_trlrn","Mon May 10 2021 10:55:03 GMT-0400 (Eastern Daylight Time)","564600","Untrustworthy,Trustworthy","","null","","","","feedback","","<div class='trialDiv'><img src='trustrating_stim/white_00785_941205_fb_edt.bmp'><br><font class='baseline'><strong>Joseph</strong><p>Received: <strong>16</strong></font> &nbsp; &nbsp; &nbsp; &nbsp; &nbsp; &nbsp;<font class='posOutcome'>Shared back: <strong>8</strong></font></font><div class='respPicDiv'><img src='img/responseButtonOffersNo0_wht.png' class='respPic'></div></div>","null","","10","Joseph","trustrating_stim/white_00785_941205_fb_edt.bmp","Shared","0.8,0.4","11","0.8","204","37"
"html-keyboard-response","207","339857","0.0-18.0-1.37","dstesting","bdp_trlrn","Mon May 10 2021 10:55:03 GMT-0400 (Eastern Daylight Time)","564600","Untrustworthy,Trustworthy","","643","","","","decision","","<div class='trialDiv'><img src='trustrating_stim/white_mw099.bmp'><br><font class='baseline'><strong>Ryan</strong><p>Choose number of points to send.</font><div class='respPicDiv'><img src='img/responseButtonOffersNo0L.png' class='respPic'></div></div>","2","","10","Ryan","trustrating_stim/white_mw099.bmp","Kept","0.4,0.8","11","0.4","209","38"
