"trial_type","trial_index","time_elapsed","internal_node_id","subject_id","task","startTime","totalTime","fairMachine","unfairMachine","view_history","rt","event","trial","time","trialtype","success","stimulus","key_press","roundsLeft","chosen","pFairMachWin","pUnfairMachWin","pTrialWin","outcome","animation_sequence","responses"
"pavlovia","0","2","0.0-0.0","633471b7c7b5fa52a0a407a7","bdp_lott","Sat Apr 01 2023 11:47:42 GMT-0400 (Eastern Daylight Time)","236872","green","red","","","","","","","","","","","","","","","","",""
"instructions","1","1954","0.0-1.0","633471b7c7b5fa52a0a407a7","bdp_lott","Sat Apr 01 2023 11:47:42 GMT-0400 (Eastern Daylight Time)","236872","green","red","[{""page_index"":0,""viewing_time"":1952}]","1952","","","","","","","","","","","","","","",""
"","","","","633471b7c7b5fa52a0a407a7","bdp_lott","Sat Apr 01 2023 11:47:42 GMT-0400 (Eastern Daylight Time)","236872","green","red","","","fullscreenenter","2","6675","fullscreenenter","","","","","","","","","","",""
"fullscreen","2","7664","0.0-2.0","633471b7c7b5fa52a0a407a7","bdp_lott","Sat Apr 01 2023 11:47:42 GMT-0400 (Eastern Daylight Time)","236872","green","red","","","","","","","true","","","","","","","","","",""
"instructions","3","29761","0.0-4.0","633471b7c7b5fa52a0a407a7","bdp_lott","Sat Apr 01 2023 11:47:42 GMT-0400 (Eastern Daylight Time)","236872","green","red","[{""page_index"":0,""viewing_time"":22096}]","22096","","","","","","","","","","","","","","",""
"image-keyboard-response","4","32272","0.0-5.0-1.0","633471b7c7b5fa52a0a407a7","bdp_lott","Sat Apr 01 2023 11:47:42 GMT-0400 (Eastern Daylight Time)","236872","green","red","","2509","","","","choice","","img/red_ll/initchoose11.jpg","1","225","green","0.5","0.5","0.5","w","",""
"animation","5","32873","0.0-5.0-2.0","633471b7c7b5fa52a0a407a7","bdp_lott","Sat Apr 01 2023 11:47:42 GMT-0400 (Eastern Daylight Time)","236872","green","red","","","","","","","","","","225","","","","","","[{""stimulus"":""img/green_wl/1.jpg"",""time"":52},{""stimulus"":""img/green_wl/2.jpg"",""time"":101},{""stimulus"":""img/green_wl/3.jpg"",""time"":151},{""stimulus"":""img/green_wl/4.jpg"",""time"":201},{""stimulus"":""img/green_wl/5.jpg"",""time"":251},{""stimulus"":""img/green_wl/6.jpg"",""time"":301},{""stimulus"":""img/green_wl/7.jpg"",""time"":352},{""stimulus"":""img/green_wl/8.jpg"",""time"":401},{""stimulus"":""img/green_wl/9.jpg"",""time"":451},{""stimulus"":""img/green_wl/10.jpg"",""time"":501},{""stimulus"":""img/green_wl/11.jpg"",""time"":551}]","[]"
"image-keyboard-response","6","34912","0.0-5.0-1.1","633471b7c7b5fa52a0a407a7","bdp_lott","Sat Apr 01 2023 11:47:42 GMT-0400 (Eastern Daylight Time)","236872","green","red","","2038","","","","choice","","img/green_wl/choose11.jpg","2","224","red","0.5","0.5","0.5","w","",""
"animation","7","35513","0.0-5.0-2.1","633471b7c7b5fa52a0a407a7","bdp_lott","Sat Apr 01 2023 11:47:42 GMT-0400 (Eastern Daylight Time)","236872","green","red","","","","","","","","","","224","","","","","","[{""stimulus"":""img/red_ww/1.jpg"",""time"":51},{""stimulus"":""img/red_ww/2.jpg"",""time"":101},{""stimulus"":""img/red_ww/3.jpg"",""time"":152},{""stimulus"":""img/red_ww/4.jpg"",""time"":201},{""stimulus"":""img/red_ww/5.jpg"",""time"":252},{""stimulus"":""img/red_ww/6.jpg"",""time"":302},{""stimulus"":""img/red_ww/7.jpg"",""time"":351},{""stimulus"":""img/red_ww/8.jpg"",""time"":401},{""stimulus"":""img/red_ww/9.jpg"",""time"":451},{""stimulus"":""img/red_ww/10.jpg"",""time"":502},{""stimulus"":""img/red_ww/11.jpg"",""time"":551}]","[]"
"image-keyboard-response","8","36958","0.0-5.0-1.2","633471b7c7b5fa52a0a407a7","bdp_lott","Sat Apr 01 2023 11:47:42 GMT-0400 (Eastern Daylight Time)","236872","green","red","","1445","","","","choice","","img/red_ww/choose11.jpg","1","223","green","0.5","0.5","0.5","l","",""
"animation","9","37559","0.0-5.0-2.2","633471b7c7b5fa52a0a407a7","bdp_lott","Sat Apr 01 2023 11:47:42 GMT-0400 (Eastern Daylight Time)","236872","green","red","","","","","","","","","","223","","","","","","[{""stimulus"":""img/green_lw/1.jpg"",""time"":51},{""stimulus"":""img/green_lw/2.jpg"",""time"":101},{""stimulus"":""img/green_lw/3.jpg"",""time"":151},{""stimulus"":""img/green_lw/4.jpg"",""time"":202},{""stimulus"":""img/green_lw/5.jpg"",""time"":251},{""stimulus"":""img/green_lw/6.jpg"",""time"":302},{""stimulus"":""img/green_lw/7.jpg"",""time"":352},{""stimulus"":""img/green_lw/8.jpg"",""time"":401},{""stimulus"":""img/green_lw/9.jpg"",""time"":452},{""stimulus"":""img/green_lw/10.jpg"",""time"":501},{""stimulus"":""img/green_lw/11.jpg"",""time"":552}]","[]"
"image-keyboard-response","10","38972","0.0-5.0-1.3","633471b7c7b5fa52a0a407a7","bdp_lott","Sat Apr 01 2023 11:47:42 GMT-0400 (Eastern Daylight Time)","236872","green","red","","1412","","","","choice","","img/green_lw/choose11.jpg","2","222","red","0.5","0.5","0.5","l","",""
"animation","11","39573","0.0-5.0-2.3","633471b7c7b5fa52a0a407a7","bdp_lott","Sat Apr 01 2023 11:47:42 GMT-0400 (Eastern Daylight Time)","236872","green","red","","","","","","","","","","222","","","","","","[{""stimulus"":""img/red_ll/1.jpg"",""time"":51},{""stimulus"":""img/red_ll/2.jpg"",""time"":101},{""stimulus"":""img/red_ll/3.jpg"",""time"":151},{""stimulus"":""img/red_ll/4.jpg"",""time"":201},{""stimulus"":""img/red_ll/5.jpg"",""time"":251},{""stimulus"":""img/red_ll/6.jpg"",""time"":302},{""stimulus"":""img/red_ll/7.jpg"",""time"":351},{""stimulus"":""img/red_ll/8.jpg"",""time"":401},{""stimulus"":""img/red_ll/9.jpg"",""time"":451},{""stimulus"":""img/red_ll/10.jpg"",""time"":501},{""stimulus"":""img/red_ll/11.jpg"",""time"":551}]","[]"
"image-keyboard-response","12","40765","0.0-5.0-1.4","633471b7c7b5fa52a0a407a7","bdp_lott","Sat Apr 01 2023 11:47:42 GMT-0400 (Eastern Daylight Time)","236872","green","red","","1192","","","","choice","","img/red_ll/choose11.jpg","1","221","green","0.5","0.5","0.5","l","",""
"animation","13","41366","0.0-5.0-2.4","633471b7c7b5fa52a0a407a7","bdp_lott","Sat Apr 01 2023 11:47:42 GMT-0400 (Eastern Daylight Time)","236872","green","red","","","","","","","","","","221","","","","","","[{""stimulus"":""img/green_ll/1.jpg"",""time"":51},{""stimulus"":""img/green_ll/2.jpg"",""time"":101},{""stimulus"":""img/green_ll/3.jpg"",""time"":152},{""stimulus"":""img/green_ll/4.jpg"",""time"":201},{""stimulus"":""img/green_ll/5.jpg"",""time"":251},{""stimulus"":""img/green_ll/6.jpg"",""time"":302},{""stimulus"":""img/green_ll/7.jpg"",""time"":351},{""stimulus"":""img/green_ll/8.jpg"",""time"":401},{""stimulus"":""img/green_ll/9.jpg"",""time"":451},{""stimulus"":""img/green_ll/10.jpg"",""time"":502},{""stimulus"":""img/green_ll/11.jpg"",""time"":551}]","[]"
"image-keyboard-response","14","42512","0.0-5.0-1.5","633471b7c7b5fa52a0a407a7","bdp_lott","Sat Apr 01 2023 11:47:42 GMT-0400 (Eastern Daylight Time)","236872","green","red","","1145","","","","choice","","img/green_ll/choose11.jpg","2","220","red","0.5","0.5","0.5","l","",""
"animation","15","43113","0.0-5.0-2.5","633471b7c7b5fa52a0a407a7","bdp_lott","Sat Apr 01 2023 11:47:42 GMT-0400 (Eastern Daylight Time)","236872","green","red","","","","","","","","","","220","","","","","","[{""stimulus"":""img/red_ll/1.jpg"",""time"":51},{""stimulus"":""img/red_ll/2.jpg"",""time"":100},{""stimulus"":""img/red_ll/3.jpg"",""time"":151},{""stimulus"":""img/red_ll/4.jpg"",""time"":201},{""stimulus"":""img/red_ll/5.jpg"",""time"":255},{""stimulus"":""img/red_ll/6.jpg"",""time"":302},{""stimulus"":""img/red_ll/7.jpg"",""time"":351},{""stimulus"":""img/red_ll/8.jpg"",""time"":401},{""stimulus"":""img/red_ll/9.jpg"",""time"":451},{""stimulus"":""img/red_ll/10.jpg"",""time"":501},{""stimulus"":""img/red_ll/11.jpg"",""time"":551}]","[]"
"image-keyboard-response","16","44144","0.0-5.0-1.6","633471b7c7b5fa52a0a407a7","bdp_lott","Sat Apr 01 2023 11:47:42 GMT-0400 (Eastern Daylight Time)","236872","green","red","","1031","","","","choice","","img/red_ll/choose11.jpg","1","219","green","0.5","0.5","0.5","l","",""
"animation","17","44745","0.0-5.0-2.6","633471b7c7b5fa52a0a407a7","bdp_lott","Sat Apr 01 2023 11:47:42 GMT-0400 (Eastern Daylight Time)","236872","green","red","","","","","","","","","","219","","","","","","[{""stimulus"":""img/green_ll/1.jpg"",""time"":51},{""stimulus"":""img/green_ll/2.jpg"",""time"":101},{""stimulus"":""img/green_ll/3.jpg"",""time"":151},{""stimulus"":""img/green_ll/4.jpg"",""time"":201},{""stimulus"":""img/green_ll/5.jpg"",""time"":251},{""stimulus"":""img/green_ll/6.jpg"",""time"":301},{""stimulus"":""img/green_ll/7.jpg"",""time"":351},{""stimulus"":""img/green_ll/8.jpg"",""time"":400},{""stimulus"":""img/green_ll/9.jpg"",""time"":451},{""stimulus"":""img/green_ll/10.jpg"",""time"":501},{""stimulus"":""img/green_ll/11.jpg"",""time"":551}]","[]"
"image-keyboard-response","18","45591","0.0-5.0-1.7","633471b7c7b5fa52a0a407a7","bdp_lott","Sat Apr 01 2023 11:47:42 GMT-0400 (Eastern Daylight Time)","236872","green","red","","846","","","","choice","","img/green_ll/choose11.jpg","2","218","red","0.5","0.5","0.5","l","",""
"animation","19","46192","0.0-5.0-2.7","633471b7c7b5fa52a0a407a7","bdp_lott","Sat Apr 01 2023 11:47:42 GMT-0400 (Eastern Daylight Time)","236872","green","red","","","","","","","","","","218","","","","","","[{""stimulus"":""img/red_ll/1.jpg"",""time"":51},{""stimulus"":""img/red_ll/2.jpg"",""time"":102},{""stimulus"":""img/red_ll/3.jpg"",""time"":151},{""stimulus"":""img/red_ll/4.jpg"",""time"":202},{""stimulus"":""img/red_ll/5.jpg"",""time"":252},{""stimulus"":""img/red_ll/6.jpg"",""time"":301},{""stimulus"":""img/red_ll/7.jpg"",""time"":351},{""stimulus"":""img/red_ll/8.jpg"",""time"":402},{""stimulus"":""img/red_ll/9.jpg"",""time"":452},{""stimulus"":""img/red_ll/10.jpg"",""time"":501},{""stimulus"":""img/red_ll/11.jpg"",""time"":551}]","[]"
"image-keyboard-response","20","47104","0.0-5.0-1.8","633471b7c7b5fa52a0a407a7","bdp_lott","Sat Apr 01 2023 11:47:42 GMT-0400 (Eastern Daylight Time)","236872","green","red","","912","","","","choice","","img/red_ll/choose11.jpg","1","217","green","0.5","0.5","0.5","l","",""
"animation","21","47705","0.0-5.0-2.8","633471b7c7b5fa52a0a407a7","bdp_lott","Sat Apr 01 2023 11:47:42 GMT-0400 (Eastern Daylight Time)","236872","green","red","","","","","","","","","","217","","","","","","[{""stimulus"":""img/green_ll/1.jpg"",""time"":51},{""stimulus"":""img/green_ll/2.jpg"",""time"":101},{""stimulus"":""img/green_ll/3.jpg"",""time"":151},{""stimulus"":""img/green_ll/4.jpg"",""time"":201},{""stimulus"":""img/green_ll/5.jpg"",""time"":250},{""stimulus"":""img/green_ll/6.jpg"",""time"":301},{""stimulus"":""img/green_ll/7.jpg"",""time"":351},{""stimulus"":""img/green_ll/8.jpg"",""time"":401},{""stimulus"":""img/green_ll/9.jpg"",""time"":451},{""stimulus"":""img/green_ll/10.jpg"",""time"":500},{""stimulus"":""img/green_ll/11.jpg"",""time"":551}]","[]"
"image-keyboard-response","22","48501","0.0-5.0-1.9","633471b7c7b5fa52a0a407a7","bdp_lott","Sat Apr 01 2023 11:47:42 GMT-0400 (Eastern Daylight Time)","236872","green","red","","795","","","","choice","","img/green_ll/choose11.jpg","2","216","red","0.5","0.5","0.5","w","",""
"animation","23","49103","0.0-5.0-2.9","633471b7c7b5fa52a0a407a7","bdp_lott","Sat Apr 01 2023 11:47:42 GMT-0400 (Eastern Daylight Time)","236872","green","red","","","","","","","","","","216","","","","","","[{""stimulus"":""img/red_lw/1.jpg"",""time"":52},{""stimulus"":""img/red_lw/2.jpg"",""time"":102},{""stimulus"":""img/red_lw/3.jpg"",""time"":151},{""stimulus"":""img/red_lw/4.jpg"",""time"":201},{""stimulus"":""img/red_lw/5.jpg"",""time"":251},{""stimulus"":""img/red_lw/6.jpg"",""time"":302},{""stimulus"":""img/red_lw/7.jpg"",""time"":352},{""stimulus"":""img/red_lw/8.jpg"",""time"":402},{""stimulus"":""img/red_lw/9.jpg"",""time"":451},{""stimulus"":""img/red_lw/10.jpg"",""time"":501},{""stimulus"":""img/red_lw/11.jpg"",""time"":551}]","[]"
"image-keyboard-response","24","49902","0.0-5.0-1.10","633471b7c7b5fa52a0a407a7","bdp_lott","Sat Apr 01 2023 11:47:42 GMT-0400 (Eastern Daylight Time)","236872","green","red","","799","","","","choice","","img/red_lw/choose11.jpg","2","215","red","0.5","0.5","0.5","l","",""
"animation","25","50503","0.0-5.0-2.10","633471b7c7b5fa52a0a407a7","bdp_lott","Sat Apr 01 2023 11:47:42 GMT-0400 (Eastern Daylight Time)","236872","green","red","","","","","","","","","","215","","","","","","[{""stimulus"":""img/red_ll/1.jpg"",""time"":51},{""stimulus"":""img/red_ll/2.jpg"",""time"":101},{""stimulus"":""img/red_ll/3.jpg"",""time"":151},{""stimulus"":""img/red_ll/4.jpg"",""time"":201},{""stimulus"":""img/red_ll/5.jpg"",""time"":251},{""stimulus"":""img/red_ll/6.jpg"",""time"":301},{""stimulus"":""img/red_ll/7.jpg"",""time"":351},{""stimulus"":""img/red_ll/8.jpg"",""time"":402},{""stimulus"":""img/red_ll/9.jpg"",""time"":451},{""stimulus"":""img/red_ll/10.jpg"",""time"":501},{""stimulus"":""img/red_ll/11.jpg"",""time"":551}]","[]"
"image-keyboard-response","26","51307","0.0-5.0-1.11","633471b7c7b5fa52a0a407a7","bdp_lott","Sat Apr 01 2023 11:47:42 GMT-0400 (Eastern Daylight Time)","236872","green","red","","804","","","","choice","","img/red_ll/choose11.jpg","2","214","red","0.5","0.5","0.5","l","",""
"animation","27","51908","0.0-5.0-2.11","633471b7c7b5fa52a0a407a7","bdp_lott","Sat Apr 01 2023 11:47:42 GMT-0400 (Eastern Daylight Time)","236872","green","red","","","","","","","","","","214","","","","","","[{""stimulus"":""img/red_ll/1.jpg"",""time"":51},{""stimulus"":""img/red_ll/2.jpg"",""time"":101},{""stimulus"":""img/red_ll/3.jpg"",""time"":150},{""stimulus"":""img/red_ll/4.jpg"",""time"":200},{""stimulus"":""img/red_ll/5.jpg"",""time"":252},{""stimulus"":""img/red_ll/6.jpg"",""time"":301},{""stimulus"":""img/red_ll/7.jpg"",""time"":352},{""stimulus"":""img/red_ll/8.jpg"",""time"":402},{""stimulus"":""img/red_ll/9.jpg"",""time"":451},{""stimulus"":""img/red_ll/10.jpg"",""time"":500},{""stimulus"":""img/red_ll/11.jpg"",""time"":550}]","[]"
"image-keyboard-response","28","52346","0.0-5.0-1.12","633471b7c7b5fa52a0a407a7","bdp_lott","Sat Apr 01 2023 11:47:42 GMT-0400 (Eastern Daylight Time)","236872","green","red","","436","","","","choice","","img/red_ll/choose11.jpg","1","213","green","0.5","0.5","0.5","l","",""
"animation","29","52946","0.0-5.0-2.12","633471b7c7b5fa52a0a407a7","bdp_lott","Sat Apr 01 2023 11:47:42 GMT-0400 (Eastern Daylight Time)","236872","green","red","","","","","","","","","","213","","","","","","[{""stimulus"":""img/green_ll/1.jpg"",""time"":51},{""stimulus"":""img/green_ll/2.jpg"",""time"":101},{""stimulus"":""img/green_ll/3.jpg"",""time"":150},{""stimulus"":""img/green_ll/4.jpg"",""time"":201},{""stimulus"":""img/green_ll/5.jpg"",""time"":251},{""stimulus"":""img/green_ll/6.jpg"",""time"":300},{""stimulus"":""img/green_ll/7.jpg"",""time"":351},{""stimulus"":""img/green_ll/8.jpg"",""time"":401},{""stimulus"":""img/green_ll/9.jpg"",""time"":450},{""stimulus"":""img/green_ll/10.jpg"",""time"":501},{""stimulus"":""img/green_ll/11.jpg"",""time"":550}]","[]"
"image-keyboard-response","30","53893","0.0-5.0-1.13","633471b7c7b5fa52a0a407a7","bdp_lott","Sat Apr 01 2023 11:47:42 GMT-0400 (Eastern Daylight Time)","236872","green","red","","947","","","","choice","","img/green_ll/choose11.jpg","1","212","green","0.5","0.5","0.5","w","",""
"animation","31","54494","0.0-5.0-2.13","633471b7c7b5fa52a0a407a7","bdp_lott","Sat Apr 01 2023 11:47:42 GMT-0400 (Eastern Daylight Time)","236872","green","red","","","","","","","","","","212","","","","","","[{""stimulus"":""img/green_wl/1.jpg"",""time"":51},{""stimulus"":""img/green_wl/2.jpg"",""time"":101},{""stimulus"":""img/green_wl/3.jpg"",""time"":151},{""stimulus"":""img/green_wl/4.jpg"",""time"":201},{""stimulus"":""img/green_wl/5.jpg"",""time"":252},{""stimulus"":""img/green_wl/6.jpg"",""time"":302},{""stimulus"":""img/green_wl/7.jpg"",""time"":352},{""stimulus"":""img/green_wl/8.jpg"",""time"":402},{""stimulus"":""img/green_wl/9.jpg"",""time"":451},{""stimulus"":""img/green_wl/10.jpg"",""time"":501},{""stimulus"":""img/green_wl/11.jpg"",""time"":550}]","[]"
"image-keyboard-response","32","55688","0.0-5.0-1.14","633471b7c7b5fa52a0a407a7","bdp_lott","Sat Apr 01 2023 11:47:42 GMT-0400 (Eastern Daylight Time)","236872","green","red","","1194","","","","choice","","img/green_wl/choose11.jpg","1","211","green","0.5","0.5","0.5","w","",""
"animation","33","56290","0.0-5.0-2.14","633471b7c7b5fa52a0a407a7","bdp_lott","Sat Apr 01 2023 11:47:42 GMT-0400 (Eastern Daylight Time)","236872","green","red","","","","","","","","","","211","","","","","","[{""stimulus"":""img/green_wl/1.jpg"",""time"":51},{""stimulus"":""img/green_wl/2.jpg"",""time"":101},{""stimulus"":""img/green_wl/3.jpg"",""time"":151},{""stimulus"":""img/green_wl/4.jpg"",""time"":201},{""stimulus"":""img/green_wl/5.jpg"",""time"":251},{""stimulus"":""img/green_wl/6.jpg"",""time"":301},{""stimulus"":""img/green_wl/7.jpg"",""time"":351},{""stimulus"":""img/green_wl/8.jpg"",""time"":401},{""stimulus"":""img/green_wl/9.jpg"",""time"":450},{""stimulus"":""img/green_wl/10.jpg"",""time"":501},{""stimulus"":""img/green_wl/11.jpg"",""time"":551}]","[]"
"image-keyboard-response","34","56979","0.0-5.0-1.15","633471b7c7b5fa52a0a407a7","bdp_lott","Sat Apr 01 2023 11:47:42 GMT-0400 (Eastern Daylight Time)","236872","green","red","","689","","","","choice","","img/green_wl/choose11.jpg","1","210","green","0.5","0.5","0.5","w","",""
"animation","35","57579","0.0-5.0-2.15","633471b7c7b5fa52a0a407a7","bdp_lott","Sat Apr 01 2023 11:47:42 GMT-0400 (Eastern Daylight Time)","236872","green","red","","","","","","","","","","210","","","","","","[{""stimulus"":""img/green_wl/1.jpg"",""time"":50},{""stimulus"":""img/green_wl/2.jpg"",""time"":101},{""stimulus"":""img/green_wl/3.jpg"",""time"":151},{""stimulus"":""img/green_wl/4.jpg"",""time"":201},{""stimulus"":""img/green_wl/5.jpg"",""time"":251},{""stimulus"":""img/green_wl/6.jpg"",""time"":301},{""stimulus"":""img/green_wl/7.jpg"",""time"":351},{""stimulus"":""img/green_wl/8.jpg"",""time"":401},{""stimulus"":""img/green_wl/9.jpg"",""time"":451},{""stimulus"":""img/green_wl/10.jpg"",""time"":500},{""stimulus"":""img/green_wl/11.jpg"",""time"":552}]","[]"
"image-keyboard-response","36","58055","0.0-5.0-1.16","633471b7c7b5fa52a0a407a7","bdp_lott","Sat Apr 01 2023 11:47:42 GMT-0400 (Eastern Daylight Time)","236872","green","red","","475","","","","choice","","img/green_wl/choose11.jpg","1","209","green","0.5","0.5","0.5","l","",""
"animation","37","58655","0.0-5.0-2.16","633471b7c7b5fa52a0a407a7","bdp_lott","Sat Apr 01 2023 11:47:42 GMT-0400 (Eastern Daylight Time)","236872","green","red","","","","","","","","","","209","","","","","","[{""stimulus"":""img/green_ll/1.jpg"",""time"":51},{""stimulus"":""img/green_ll/2.jpg"",""time"":101},{""stimulus"":""img/green_ll/3.jpg"",""time"":150},{""stimulus"":""img/green_ll/4.jpg"",""time"":201},{""stimulus"":""img/green_ll/5.jpg"",""time"":251},{""stimulus"":""img/green_ll/6.jpg"",""time"":301},{""stimulus"":""img/green_ll/7.jpg"",""time"":352},{""stimulus"":""img/green_ll/8.jpg"",""time"":401},{""stimulus"":""img/green_ll/9.jpg"",""time"":451},{""stimulus"":""img/green_ll/10.jpg"",""time"":501},{""stimulus"":""img/green_ll/11.jpg"",""time"":550}]","[]"
"image-keyboard-response","38","59389","0.0-5.0-1.17","633471b7c7b5fa52a0a407a7","bdp_lott","Sat Apr 01 2023 11:47:42 GMT-0400 (Eastern Daylight Time)","236872","green","red","","733","","","","choice","","img/green_ll/choose11.jpg","1","208","green","0.5","0.5","0.5","l","",""
"animation","39","59990","0.0-5.0-2.17","633471b7c7b5fa52a0a407a7","bdp_lott","Sat Apr 01 2023 11:47:42 GMT-0400 (Eastern Daylight Time)","236872","green","red","","","","","","","","","","208","","","","","","[{""stimulus"":""img/green_ll/1.jpg"",""time"":51},{""stimulus"":""img/green_ll/2.jpg"",""time"":101},{""stimulus"":""img/green_ll/3.jpg"",""time"":151},{""stimulus"":""img/green_ll/4.jpg"",""time"":201},{""stimulus"":""img/green_ll/5.jpg"",""time"":251},{""stimulus"":""img/green_ll/6.jpg"",""time"":300},{""stimulus"":""img/green_ll/7.jpg"",""time"":351},{""stimulus"":""img/green_ll/8.jpg"",""time"":401},{""stimulus"":""img/green_ll/9.jpg"",""time"":451},{""stimulus"":""img/green_ll/10.jpg"",""time"":501},{""stimulus"":""img/green_ll/11.jpg"",""time"":552}]","[]"
"image-keyboard-response","40","60444","0.0-5.0-1.18","633471b7c7b5fa52a0a407a7","bdp_lott","Sat Apr 01 2023 11:47:42 GMT-0400 (Eastern Daylight Time)","236872","green","red","","454","","","","choice","","img/green_ll/choose11.jpg","1","207","green","0.5","0.5","0.5","w","",""
"animation","41","61046","0.0-5.0-2.18","633471b7c7b5fa52a0a407a7","bdp_lott","Sat Apr 01 2023 11:47:42 GMT-0400 (Eastern Daylight Time)","236872","green","red","","","","","","","","","","207","","","","","","[{""stimulus"":""img/green_wl/1.jpg"",""time"":51},{""stimulus"":""img/green_wl/2.jpg"",""time"":101},{""stimulus"":""img/green_wl/3.jpg"",""time"":151},{""stimulus"":""img/green_wl/4.jpg"",""time"":201},{""stimulus"":""img/green_wl/5.jpg"",""time"":251},{""stimulus"":""img/green_wl/6.jpg"",""time"":302},{""stimulus"":""img/green_wl/7.jpg"",""time"":351},{""stimulus"":""img/green_wl/8.jpg"",""time"":401},{""stimulus"":""img/green_wl/9.jpg"",""time"":452},{""stimulus"":""img/green_wl/10.jpg"",""time"":501},{""stimulus"":""img/green_wl/11.jpg"",""time"":552}]","[]"
"image-keyboard-response","42","61637","0.0-5.0-1.19","633471b7c7b5fa52a0a407a7","bdp_lott","Sat Apr 01 2023 11:47:42 GMT-0400 (Eastern Daylight Time)","236872","green","red","","591","","","","choice","","img/green_wl/choose11.jpg","2","206","red","0.5","0.5","0.5","w","",""
"animation","43","62238","0.0-5.0-2.19","633471b7c7b5fa52a0a407a7","bdp_lott","Sat Apr 01 2023 11:47:42 GMT-0400 (Eastern Daylight Time)","236872","green","red","","","","","","","","","","206","","","","","","[{""stimulus"":""img/red_ww/1.jpg"",""time"":52},{""stimulus"":""img/red_ww/2.jpg"",""time"":102},{""stimulus"":""img/red_ww/3.jpg"",""time"":152},{""stimulus"":""img/red_ww/4.jpg"",""time"":202},{""stimulus"":""img/red_ww/5.jpg"",""time"":251},{""stimulus"":""img/red_ww/6.jpg"",""time"":301},{""stimulus"":""img/red_ww/7.jpg"",""time"":351},{""stimulus"":""img/red_ww/8.jpg"",""time"":401},{""stimulus"":""img/red_ww/9.jpg"",""time"":451},{""stimulus"":""img/red_ww/10.jpg"",""time"":501},{""stimulus"":""img/red_ww/11.jpg"",""time"":551}]","[]"
"image-keyboard-response","44","63014","0.0-5.0-1.20","633471b7c7b5fa52a0a407a7","bdp_lott","Sat Apr 01 2023 11:47:42 GMT-0400 (Eastern Daylight Time)","236872","green","red","","775","","","","choice","","img/red_ww/choose11.jpg","1","205","green","0.5","0.5","0.5","w","",""
"animation","45","63615","0.0-5.0-2.20","633471b7c7b5fa52a0a407a7","bdp_lott","Sat Apr 01 2023 11:47:42 GMT-0400 (Eastern Daylight Time)","236872","green","red","","","","","","","","","","205","","","","","","[{""stimulus"":""img/green_ww/1.jpg"",""time"":51},{""stimulus"":""img/green_ww/2.jpg"",""time"":101},{""stimulus"":""img/green_ww/3.jpg"",""time"":150},{""stimulus"":""img/green_ww/4.jpg"",""time"":201},{""stimulus"":""img/green_ww/5.jpg"",""time"":251},{""stimulus"":""img/green_ww/6.jpg"",""time"":301},{""stimulus"":""img/green_ww/7.jpg"",""time"":350},{""stimulus"":""img/green_ww/8.jpg"",""time"":401},{""stimulus"":""img/green_ww/9.jpg"",""time"":451},{""stimulus"":""img/green_ww/10.jpg"",""time"":501},{""stimulus"":""img/green_ww/11.jpg"",""time"":551}]","[]"
"image-keyboard-response","46","64118","0.0-5.0-1.21","633471b7c7b5fa52a0a407a7","bdp_lott","Sat Apr 01 2023 11:47:42 GMT-0400 (Eastern Daylight Time)","236872","green","red","","503","","","","choice","","img/green_ww/choose11.jpg","1","204","green","0.5","0.5","0.5","w","",""
"animation","47","64719","0.0-5.0-2.21","633471b7c7b5fa52a0a407a7","bdp_lott","Sat Apr 01 2023 11:47:42 GMT-0400 (Eastern Daylight Time)","236872","green","red","","","","","","","","","","204","","","","","","[{""stimulus"":""img/green_ww/1.jpg"",""time"":52},{""stimulus"":""img/green_ww/2.jpg"",""time"":102},{""stimulus"":""img/green_ww/3.jpg"",""time"":151},{""stimulus"":""img/green_ww/4.jpg"",""time"":201},{""stimulus"":""img/green_ww/5.jpg"",""time"":251},{""stimulus"":""img/green_ww/6.jpg"",""time"":302},{""stimulus"":""img/green_ww/7.jpg"",""time"":351},{""stimulus"":""img/green_ww/8.jpg"",""time"":402},{""stimulus"":""img/green_ww/9.jpg"",""time"":451},{""stimulus"":""img/green_ww/10.jpg"",""time"":501},{""stimulus"":""img/green_ww/11.jpg"",""time"":552}]","[]"
"image-keyboard-response","48","65166","0.0-5.0-1.22","633471b7c7b5fa52a0a407a7","bdp_lott","Sat Apr 01 2023 11:47:42 GMT-0400 (Eastern Daylight Time)","236872","green","red","","447","","","","choice","","img/green_ww/choose11.jpg","1","203","green","0.5","0.5","0.5","l","",""
"animation","49","65767","0.0-5.0-2.22","633471b7c7b5fa52a0a407a7","bdp_lott","Sat Apr 01 2023 11:47:42 GMT-0400 (Eastern Daylight Time)","236872","green","red","","","","","","","","","","203","","","","","","[{""stimulus"":""img/green_lw/1.jpg"",""time"":51},{""stimulus"":""img/green_lw/2.jpg"",""time"":101},{""stimulus"":""img/green_lw/3.jpg"",""time"":151},{""stimulus"":""img/green_lw/4.jpg"",""time"":202},{""stimulus"":""img/green_lw/5.jpg"",""time"":251},{""stimulus"":""img/green_lw/6.jpg"",""time"":302},{""stimulus"":""img/green_lw/7.jpg"",""time"":351},{""stimulus"":""img/green_lw/8.jpg"",""time"":401},{""stimulus"":""img/green_lw/9.jpg"",""time"":451},{""stimulus"":""img/green_lw/10.jpg"",""time"":501},{""stimulus"":""img/green_lw/11.jpg"",""time"":551}]","[]"
"image-keyboard-response","50","66131","0.0-5.0-1.23","633471b7c7b5fa52a0a407a7","bdp_lott","Sat Apr 01 2023 11:47:42 GMT-0400 (Eastern Daylight Time)","236872","green","red","","364","","","","choice","","img/green_lw/choose11.jpg","1","202","green","0.5","0.5","0.5","w","",""
"animation","51","66731","0.0-5.0-2.23","633471b7c7b5fa52a0a407a7","bdp_lott","Sat Apr 01 2023 11:47:42 GMT-0400 (Eastern Daylight Time)","236872","green","red","","","","","","","","","","202","","","","","","[{""stimulus"":""img/green_ww/1.jpg"",""time"":51},{""stimulus"":""img/green_ww/2.jpg"",""time"":101},{""stimulus"":""img/green_ww/3.jpg"",""time"":151},{""stimulus"":""img/green_ww/4.jpg"",""time"":201},{""stimulus"":""img/green_ww/5.jpg"",""time"":251},{""stimulus"":""img/green_ww/6.jpg"",""time"":300},{""stimulus"":""img/green_ww/7.jpg"",""time"":351},{""stimulus"":""img/green_ww/8.jpg"",""time"":401},{""stimulus"":""img/green_ww/9.jpg"",""time"":451},{""stimulus"":""img/green_ww/10.jpg"",""time"":501},{""stimulus"":""img/green_ww/11.jpg"",""time"":551}]","[]"
"image-keyboard-response","52","67333","0.0-5.0-1.24","633471b7c7b5fa52a0a407a7","bdp_lott","Sat Apr 01 2023 11:47:42 GMT-0400 (Eastern Daylight Time)","236872","green","red","","601","","","","choice","","img/green_ww/choose11.jpg","2","201","red","0.5","0.5","0.5","w","",""
"animation","53","67934","0.0-5.0-2.24","633471b7c7b5fa52a0a407a7","bdp_lott","Sat Apr 01 2023 11:47:42 GMT-0400 (Eastern Daylight Time)","236872","green","red","","","","","","","","","","201","","","","","","[{""stimulus"":""img/red_ww/1.jpg"",""time"":51},{""stimulus"":""img/red_ww/2.jpg"",""time"":101},{""stimulus"":""img/red_ww/3.jpg"",""time"":151},{""stimulus"":""img/red_ww/4.jpg"",""time"":201},{""stimulus"":""img/red_ww/5.jpg"",""time"":251},{""stimulus"":""img/red_ww/6.jpg"",""time"":300},{""stimulus"":""img/red_ww/7.jpg"",""time"":350},{""stimulus"":""img/red_ww/8.jpg"",""time"":401},{""stimulus"":""img/red_ww/9.jpg"",""time"":450},{""stimulus"":""img/red_ww/10.jpg"",""time"":501},{""stimulus"":""img/red_ww/11.jpg"",""time"":550}]","[]"
"image-keyboard-response","54","68452","0.0-5.0-1.25","633471b7c7b5fa52a0a407a7","bdp_lott","Sat Apr 01 2023 11:47:42 GMT-0400 (Eastern Daylight Time)","236872","green","red","","517","","","","choice","","img/red_ww/choose11.jpg","1","200","green","0.5","0.5","0.5","l","",""
"animation","55","69054","0.0-5.0-2.25","633471b7c7b5fa52a0a407a7","bdp_lott","Sat Apr 01 2023 11:47:42 GMT-0400 (Eastern Daylight Time)","236872","green","red","","","","","","","","","","200","","","","","","[{""stimulus"":""img/green_lw/1.jpg"",""time"":51},{""stimulus"":""img/green_lw/2.jpg"",""time"":101},{""stimulus"":""img/green_lw/3.jpg"",""time"":151},{""stimulus"":""img/green_lw/4.jpg"",""time"":201},{""stimulus"":""img/green_lw/5.jpg"",""time"":251},{""stimulus"":""img/green_lw/6.jpg"",""time"":301},{""stimulus"":""img/green_lw/7.jpg"",""time"":351},{""stimulus"":""img/green_lw/8.jpg"",""time"":402},{""stimulus"":""img/green_lw/9.jpg"",""time"":452},{""stimulus"":""img/green_lw/10.jpg"",""time"":501},{""stimulus"":""img/green_lw/11.jpg"",""time"":551}]","[]"
"image-keyboard-response","56","69598","0.0-5.0-1.26","633471b7c7b5fa52a0a407a7","bdp_lott","Sat Apr 01 2023 11:47:42 GMT-0400 (Eastern Daylight Time)","236872","green","red","","543","","","","choice","","img/green_lw/choose11.jpg","2","199","red","0.5","0.5","0.5","l","",""
"animation","57","70200","0.0-5.0-2.26","633471b7c7b5fa52a0a407a7","bdp_lott","Sat Apr 01 2023 11:47:42 GMT-0400 (Eastern Daylight Time)","236872","green","red","","","","","","","","","","199","","","","","","[{""stimulus"":""img/red_ll/1.jpg"",""time"":51},{""stimulus"":""img/red_ll/2.jpg"",""time"":102},{""stimulus"":""img/red_ll/3.jpg"",""time"":151},{""stimulus"":""img/red_ll/4.jpg"",""time"":201},{""stimulus"":""img/red_ll/5.jpg"",""time"":251},{""stimulus"":""img/red_ll/6.jpg"",""time"":302},{""stimulus"":""img/red_ll/7.jpg"",""time"":351},{""stimulus"":""img/red_ll/8.jpg"",""time"":402},{""stimulus"":""img/red_ll/9.jpg"",""time"":451},{""stimulus"":""img/red_ll/10.jpg"",""time"":501},{""stimulus"":""img/red_ll/11.jpg"",""time"":551}]","[]"
"image-keyboard-response","58","70568","0.0-5.0-1.27","633471b7c7b5fa52a0a407a7","bdp_lott","Sat Apr 01 2023 11:47:42 GMT-0400 (Eastern Daylight Time)","236872","green","red","","368","","","","choice","","img/red_ll/choose11.jpg","1","198","green","0.5","0.5","0.5","l","",""
"animation","59","71169","0.0-5.0-2.27","633471b7c7b5fa52a0a407a7","bdp_lott","Sat Apr 01 2023 11:47:42 GMT-0400 (Eastern Daylight Time)","236872","green","red","","","","","","","","","","198","","","","","","[{""stimulus"":""img/green_ll/1.jpg"",""time"":51},{""stimulus"":""img/green_ll/2.jpg"",""time"":101},{""stimulus"":""img/green_ll/3.jpg"",""time"":151},{""stimulus"":""img/green_ll/4.jpg"",""time"":201},{""stimulus"":""img/green_ll/5.jpg"",""time"":251},{""stimulus"":""img/green_ll/6.jpg"",""time"":301},{""stimulus"":""img/green_ll/7.jpg"",""time"":351},{""stimulus"":""img/green_ll/8.jpg"",""time"":401},{""stimulus"":""img/green_ll/9.jpg"",""time"":451},{""stimulus"":""img/green_ll/10.jpg"",""time"":500},{""stimulus"":""img/green_ll/11.jpg"",""time"":551}]","[]"
"image-keyboard-response","60","71548","0.0-5.0-1.28","633471b7c7b5fa52a0a407a7","bdp_lott","Sat Apr 01 2023 11:47:42 GMT-0400 (Eastern Daylight Time)","236872","green","red","","379","","","","choice","","img/green_ll/choose11.jpg","1","197","green","0.5","0.5","0.5","w","",""
"animation","61","72149","0.0-5.0-2.28","633471b7c7b5fa52a0a407a7","bdp_lott","Sat Apr 01 2023 11:47:42 GMT-0400 (Eastern Daylight Time)","236872","green","red","","","","","","","","","","197","","","","","","[{""stimulus"":""img/green_wl/1.jpg"",""time"":51},{""stimulus"":""img/green_wl/2.jpg"",""time"":101},{""stimulus"":""img/green_wl/3.jpg"",""time"":151},{""stimulus"":""img/green_wl/4.jpg"",""time"":201},{""stimulus"":""img/green_wl/5.jpg"",""time"":251},{""stimulus"":""img/green_wl/6.jpg"",""time"":301},{""stimulus"":""img/green_wl/7.jpg"",""time"":352},{""stimulus"":""img/green_wl/8.jpg"",""time"":401},{""stimulus"":""img/green_wl/9.jpg"",""time"":451},{""stimulus"":""img/green_wl/10.jpg"",""time"":501},{""stimulus"":""img/green_wl/11.jpg"",""time"":552}]","[]"
"image-keyboard-response","62","72583","0.0-5.0-1.29","633471b7c7b5fa52a0a407a7","bdp_lott","Sat Apr 01 2023 11:47:42 GMT-0400 (Eastern Daylight Time)","236872","green","red","","434","","","","choice","","img/green_wl/choose11.jpg","2","196","red","0.5","0.5","0.5","w","",""
"animation","63","73184","0.0-5.0-2.29","633471b7c7b5fa52a0a407a7","bdp_lott","Sat Apr 01 2023 11:47:42 GMT-0400 (Eastern Daylight Time)","236872","green","red","","","","","","","","","","196","","","","","","[{""stimulus"":""img/red_ww/1.jpg"",""time"":52},{""stimulus"":""img/red_ww/2.jpg"",""time"":101},{""stimulus"":""img/red_ww/3.jpg"",""time"":150},{""stimulus"":""img/red_ww/4.jpg"",""time"":201},{""stimulus"":""img/red_ww/5.jpg"",""time"":251},{""stimulus"":""img/red_ww/6.jpg"",""time"":301},{""stimulus"":""img/red_ww/7.jpg"",""time"":351},{""stimulus"":""img/red_ww/8.jpg"",""time"":401},{""stimulus"":""img/red_ww/9.jpg"",""time"":451},{""stimulus"":""img/red_ww/10.jpg"",""time"":501},{""stimulus"":""img/red_ww/11.jpg"",""time"":551}]","[]"
"image-keyboard-response","64","73585","0.0-5.0-1.30","633471b7c7b5fa52a0a407a7","bdp_lott","Sat Apr 01 2023 11:47:42 GMT-0400 (Eastern Daylight Time)","236872","green","red","","400","","","","choice","","img/red_ww/choose11.jpg","2","195","red","0.5","0.5","0.5","l","",""
"animation","65","74186","0.0-5.0-2.30","633471b7c7b5fa52a0a407a7","bdp_lott","Sat Apr 01 2023 11:47:42 GMT-0400 (Eastern Daylight Time)","236872","green","red","","","","","","","","","","195","","","","","","[{""stimulus"":""img/red_wl/1.jpg"",""time"":52},{""stimulus"":""img/red_wl/2.jpg"",""time"":101},{""stimulus"":""img/red_wl/3.jpg"",""time"":152},{""stimulus"":""img/red_wl/4.jpg"",""time"":202},{""stimulus"":""img/red_wl/5.jpg"",""time"":251},{""stimulus"":""img/red_wl/6.jpg"",""time"":302},{""stimulus"":""img/red_wl/7.jpg"",""time"":351},{""stimulus"":""img/red_wl/8.jpg"",""time"":401},{""stimulus"":""img/red_wl/9.jpg"",""time"":451},{""stimulus"":""img/red_wl/10.jpg"",""time"":501},{""stimulus"":""img/red_wl/11.jpg"",""time"":551}]","[]"
"image-keyboard-response","66","74545","0.0-5.0-1.31","633471b7c7b5fa52a0a407a7","bdp_lott","Sat Apr 01 2023 11:47:42 GMT-0400 (Eastern Daylight Time)","236872","green","red","","358","","","","choice","","img/red_wl/choose11.jpg","1","194","green","0.5","0.5","0.5","w","",""
"animation","67","75146","0.0-5.0-2.31","633471b7c7b5fa52a0a407a7","bdp_lott","Sat Apr 01 2023 11:47:42 GMT-0400 (Eastern Daylight Time)","236872","green","red","","","","","","","","","","194","","","","","","[{""stimulus"":""img/green_wl/1.jpg"",""time"":51},{""stimulus"":""img/green_wl/2.jpg"",""time"":102},{""stimulus"":""img/green_wl/3.jpg"",""time"":151},{""stimulus"":""img/green_wl/4.jpg"",""time"":202},{""stimulus"":""img/green_wl/5.jpg"",""time"":252},{""stimulus"":""img/green_wl/6.jpg"",""time"":300},{""stimulus"":""img/green_wl/7.jpg"",""time"":351},{""stimulus"":""img/green_wl/8.jpg"",""time"":401},{""stimulus"":""img/green_wl/9.jpg"",""time"":451},{""stimulus"":""img/green_wl/10.jpg"",""time"":502},{""stimulus"":""img/green_wl/11.jpg"",""time"":552}]","[]"
"image-keyboard-response","68","75752","0.0-5.0-1.32","633471b7c7b5fa52a0a407a7","bdp_lott","Sat Apr 01 2023 11:47:42 GMT-0400 (Eastern Daylight Time)","236872","green","red","","606","","","","choice","","img/green_wl/choose11.jpg","2","193","red","0.5","0.5","0.5","l","",""
"animation","69","76353","0.0-5.0-2.32","633471b7c7b5fa52a0a407a7","bdp_lott","Sat Apr 01 2023 11:47:42 GMT-0400 (Eastern Daylight Time)","236872","green","red","","","","","","","","","","193","","","","","","[{""stimulus"":""img/red_wl/1.jpg"",""time"":51},{""stimulus"":""img/red_wl/2.jpg"",""time"":100},{""stimulus"":""img/red_wl/3.jpg"",""time"":150},{""stimulus"":""img/red_wl/4.jpg"",""time"":200},{""stimulus"":""img/red_wl/5.jpg"",""time"":251},{""stimulus"":""img/red_wl/6.jpg"",""time"":301},{""stimulus"":""img/red_wl/7.jpg"",""time"":350},{""stimulus"":""img/red_wl/8.jpg"",""time"":400},{""stimulus"":""img/red_wl/9.jpg"",""time"":452},{""stimulus"":""img/red_wl/10.jpg"",""time"":501},{""stimulus"":""img/red_wl/11.jpg"",""time"":552}]","[]"
"image-keyboard-response","70","76762","0.0-5.0-1.33","633471b7c7b5fa52a0a407a7","bdp_lott","Sat Apr 01 2023 11:47:42 GMT-0400 (Eastern Daylight Time)","236872","green","red","","409","","","","choice","","img/red_wl/choose11.jpg","1","192","green","0.5","0.5","0.5","l","",""
"animation","71","77363","0.0-5.0-2.33","633471b7c7b5fa52a0a407a7","bdp_lott","Sat Apr 01 2023 11:47:42 GMT-0400 (Eastern Daylight Time)","236872","green","red","","","","","","","","","","192","","","","","","[{""stimulus"":""img/green_ll/1.jpg"",""time"":50},{""stimulus"":""img/green_ll/2.jpg"",""time"":100},{""stimulus"":""img/green_ll/3.jpg"",""time"":151},{""stimulus"":""img/green_ll/4.jpg"",""time"":201},{""stimulus"":""img/green_ll/5.jpg"",""time"":250},{""stimulus"":""img/green_ll/6.jpg"",""time"":301},{""stimulus"":""img/green_ll/7.jpg"",""time"":351},{""stimulus"":""img/green_ll/8.jpg"",""time"":402},{""stimulus"":""img/green_ll/9.jpg"",""time"":451},{""stimulus"":""img/green_ll/10.jpg"",""time"":500},{""stimulus"":""img/green_ll/11.jpg"",""time"":551}]","[]"
"image-keyboard-response","72","77789","0.0-5.0-1.34","633471b7c7b5fa52a0a407a7","bdp_lott","Sat Apr 01 2023 11:47:42 GMT-0400 (Eastern Daylight Time)","236872","green","red","","425","","","","choice","","img/green_ll/choose11.jpg","1","191","green","0.5","0.5","0.5","w","",""
"animation","73","78390","0.0-5.0-2.34","633471b7c7b5fa52a0a407a7","bdp_lott","Sat Apr 01 2023 11:47:42 GMT-0400 (Eastern Daylight Time)","236872","green","red","","","","","","","","","","191","","","","","","[{""stimulus"":""img/green_wl/1.jpg"",""time"":51},{""stimulus"":""img/green_wl/2.jpg"",""time"":100},{""stimulus"":""img/green_wl/3.jpg"",""time"":150},{""stimulus"":""img/green_wl/4.jpg"",""time"":200},{""stimulus"":""img/green_wl/5.jpg"",""time"":251},{""stimulus"":""img/green_wl/6.jpg"",""time"":310},{""stimulus"":""img/green_wl/7.jpg"",""time"":350},{""stimulus"":""img/green_wl/8.jpg"",""time"":400},{""stimulus"":""img/green_wl/9.jpg"",""time"":451},{""stimulus"":""img/green_wl/10.jpg"",""time"":500},{""stimulus"":""img/green_wl/11.jpg"",""time"":551}]","[]"
"image-keyboard-response","74","78728","0.0-5.0-1.35","633471b7c7b5fa52a0a407a7","bdp_lott","Sat Apr 01 2023 11:47:42 GMT-0400 (Eastern Daylight Time)","236872","green","red","","338","","","","choice","","img/green_wl/choose11.jpg","2","190","red","0.5","0.5","0.5","l","",""
"animation","75","79330","0.0-5.0-2.35","633471b7c7b5fa52a0a407a7","bdp_lott","Sat Apr 01 2023 11:47:42 GMT-0400 (Eastern Daylight Time)","236872","green","red","","","","","","","","","","190","","","","","","[{""stimulus"":""img/red_wl/1.jpg"",""time"":50},{""stimulus"":""img/red_wl/2.jpg"",""time"":101},{""stimulus"":""img/red_wl/3.jpg"",""time"":150},{""stimulus"":""img/red_wl/4.jpg"",""time"":201},{""stimulus"":""img/red_wl/5.jpg"",""time"":250},{""stimulus"":""img/red_wl/6.jpg"",""time"":301},{""stimulus"":""img/red_wl/7.jpg"",""time"":351},{""stimulus"":""img/red_wl/8.jpg"",""time"":401},{""stimulus"":""img/red_wl/9.jpg"",""time"":450},{""stimulus"":""img/red_wl/10.jpg"",""time"":501},{""stimulus"":""img/red_wl/11.jpg"",""time"":550}]","[]"
"image-keyboard-response","76","79623","0.0-5.0-1.36","633471b7c7b5fa52a0a407a7","bdp_lott","Sat Apr 01 2023 11:47:42 GMT-0400 (Eastern Daylight Time)","236872","green","red","","293","","","","choice","","img/red_wl/choose11.jpg","2","189","red","0.5","0.5","0.5","l","",""
"animation","77","80224","0.0-5.0-2.36","633471b7c7b5fa52a0a407a7","bdp_lott","Sat Apr 01 2023 11:47:42 GMT-0400 (Eastern Daylight Time)","236872","green","red","","","","","","","","","","189","","","","","","[{""stimulus"":""img/red_wl/1.jpg"",""time"":52},{""stimulus"":""img/red_wl/2.jpg"",""time"":102},{""stimulus"":""img/red_wl/3.jpg"",""time"":151},{""stimulus"":""img/red_wl/4.jpg"",""time"":201},{""stimulus"":""img/red_wl/5.jpg"",""time"":252},{""stimulus"":""img/red_wl/6.jpg"",""time"":301},{""stimulus"":""img/red_wl/7.jpg"",""time"":352},{""stimulus"":""img/red_wl/8.jpg"",""time"":401},{""stimulus"":""img/red_wl/9.jpg"",""time"":462},{""stimulus"":""img/red_wl/10.jpg"",""time"":501},{""stimulus"":""img/red_wl/11.jpg"",""time"":552}]","[]"
"image-keyboard-response","78","80504","0.0-5.0-1.37","633471b7c7b5fa52a0a407a7","bdp_lott","Sat Apr 01 2023 11:47:42 GMT-0400 (Eastern Daylight Time)","236872","green","red","","279","","","","choice","","img/red_wl/choose11.jpg","1","188","green","0.5","0.5","0.5","l","",""
"animation","79","81105","0.0-5.0-2.37","633471b7c7b5fa52a0a407a7","bdp_lott","Sat Apr 01 2023 11:47:42 GMT-0400 (Eastern Daylight Time)","236872","green","red","","","","","","","","","","188","","","","","","[{""stimulus"":""img/green_ll/1.jpg"",""time"":51},{""stimulus"":""img/green_ll/2.jpg"",""time"":110},{""stimulus"":""img/green_ll/3.jpg"",""time"":151},{""stimulus"":""img/green_ll/4.jpg"",""time"":201},{""stimulus"":""img/green_ll/5.jpg"",""time"":251},{""stimulus"":""img/green_ll/6.jpg"",""time"":301},{""stimulus"":""img/green_ll/7.jpg"",""time"":351},{""stimulus"":""img/green_ll/8.jpg"",""time"":401},{""stimulus"":""img/green_ll/9.jpg"",""time"":452},{""stimulus"":""img/green_ll/10.jpg"",""time"":501},{""stimulus"":""img/green_ll/11.jpg"",""time"":551}]","[]"
"image-keyboard-response","80","81410","0.0-5.0-1.38","633471b7c7b5fa52a0a407a7","bdp_lott","Sat Apr 01 2023 11:47:42 GMT-0400 (Eastern Daylight Time)","236872","green","red","","305","","","","choice","","img/green_ll/choose11.jpg","1","187","green","0.5","0.5","0.5","w","",""
"animation","81","82011","0.0-5.0-2.38","633471b7c7b5fa52a0a407a7","bdp_lott","Sat Apr 01 2023 11:47:42 GMT-0400 (Eastern Daylight Time)","236872","green","red","","","","","","","","","","187","","","","","","[{""stimulus"":""img/green_wl/1.jpg"",""time"":51},{""stimulus"":""img/green_wl/2.jpg"",""time"":101},{""stimulus"":""img/green_wl/3.jpg"",""time"":152},{""stimulus"":""img/green_wl/4.jpg"",""time"":201},{""stimulus"":""img/green_wl/5.jpg"",""time"":252},{""stimulus"":""img/green_wl/6.jpg"",""time"":301},{""stimulus"":""img/green_wl/7.jpg"",""time"":351},{""stimulus"":""img/green_wl/8.jpg"",""time"":401},{""stimulus"":""img/green_wl/9.jpg"",""time"":451},{""stimulus"":""img/green_wl/10.jpg"",""time"":501},{""stimulus"":""img/green_wl/11.jpg"",""time"":551}]","[]"
"image-keyboard-response","82","82221","0.0-5.0-1.39","633471b7c7b5fa52a0a407a7","bdp_lott","Sat Apr 01 2023 11:47:42 GMT-0400 (Eastern Daylight Time)","236872","green","red","","210","","","","choice","","img/green_wl/choose11.jpg","2","186","red","0.5","0.5","0.5","w","",""
"animation","83","82822","0.0-5.0-2.39","633471b7c7b5fa52a0a407a7","bdp_lott","Sat Apr 01 2023 11:47:42 GMT-0400 (Eastern Daylight Time)","236872","green","red","","","","","","","","","","186","","","","","","[{""stimulus"":""img/red_ww/1.jpg"",""time"":51},{""stimulus"":""img/red_ww/2.jpg"",""time"":101},{""stimulus"":""img/red_ww/3.jpg"",""time"":151},{""stimulus"":""img/red_ww/4.jpg"",""time"":201},{""stimulus"":""img/red_ww/5.jpg"",""time"":251},{""stimulus"":""img/red_ww/6.jpg"",""time"":301},{""stimulus"":""img/red_ww/7.jpg"",""time"":351},{""stimulus"":""img/red_ww/8.jpg"",""time"":401},{""stimulus"":""img/red_ww/9.jpg"",""time"":451},{""stimulus"":""img/red_ww/10.jpg"",""time"":501},{""stimulus"":""img/red_ww/11.jpg"",""time"":551}]","[]"
"image-keyboard-response","84","83032","0.0-5.0-1.40","633471b7c7b5fa52a0a407a7","bdp_lott","Sat Apr 01 2023 11:47:42 GMT-0400 (Eastern Daylight Time)","236872","green","red","","210","","","","choice","","img/red_ww/choose11.jpg","2","185","red","0.5","0.5","0.5","l","",""
"animation","85","83633","0.0-5.0-2.40","633471b7c7b5fa52a0a407a7","bdp_lott","Sat Apr 01 2023 11:47:42 GMT-0400 (Eastern Daylight Time)","236872","green","red","","","","","","","","","","185","","","","","","[{""stimulus"":""img/red_wl/1.jpg"",""time"":51},{""stimulus"":""img/red_wl/2.jpg"",""time"":100},{""stimulus"":""img/red_wl/3.jpg"",""time"":150},{""stimulus"":""img/red_wl/4.jpg"",""time"":201},{""stimulus"":""img/red_wl/5.jpg"",""time"":251},{""stimulus"":""img/red_wl/6.jpg"",""time"":301},{""stimulus"":""img/red_wl/7.jpg"",""time"":351},{""stimulus"":""img/red_wl/8.jpg"",""time"":400},{""stimulus"":""img/red_wl/9.jpg"",""time"":451},{""stimulus"":""img/red_wl/10.jpg"",""time"":500},{""stimulus"":""img/red_wl/11.jpg"",""time"":550}]","[]"
"image-keyboard-response","86","83958","0.0-5.0-1.41","633471b7c7b5fa52a0a407a7","bdp_lott","Sat Apr 01 2023 11:47:42 GMT-0400 (Eastern Daylight Time)","236872","green","red","","325","","","","choice","","img/red_wl/choose11.jpg","1","184","green","0.5","0.5","0.5","l","",""
"animation","87","84560","0.0-5.0-2.41","633471b7c7b5fa52a0a407a7","bdp_lott","Sat Apr 01 2023 11:47:42 GMT-0400 (Eastern Daylight Time)","236872","green","red","","","","","","","","","","184","","","","","","[{""stimulus"":""img/green_ll/1.jpg"",""time"":51},{""stimulus"":""img/green_ll/2.jpg"",""time"":101},{""stimulus"":""img/green_ll/3.jpg"",""time"":151},{""stimulus"":""img/green_ll/4.jpg"",""time"":201},{""stimulus"":""img/green_ll/5.jpg"",""time"":263},{""stimulus"":""img/green_ll/6.jpg"",""time"":301},{""stimulus"":""img/green_ll/7.jpg"",""time"":351},{""stimulus"":""img/green_ll/8.jpg"",""time"":400},{""stimulus"":""img/green_ll/9.jpg"",""time"":450},{""stimulus"":""img/green_ll/10.jpg"",""time"":500},{""stimulus"":""img/green_ll/11.jpg"",""time"":551}]","[]"
"image-keyboard-response","88","84828","0.0-5.0-1.42","633471b7c7b5fa52a0a407a7","bdp_lott","Sat Apr 01 2023 11:47:42 GMT-0400 (Eastern Daylight Time)","236872","green","red","","268","","","","choice","","img/green_ll/choose11.jpg","1","183","green","0.5","0.5","0.5","l","",""
"animation","89","85429","0.0-5.0-2.42","633471b7c7b5fa52a0a407a7","bdp_lott","Sat Apr 01 2023 11:47:42 GMT-0400 (Eastern Daylight Time)","236872","green","red","","","","","","","","","","183","","","","","","[{""stimulus"":""img/green_ll/1.jpg"",""time"":51},{""stimulus"":""img/green_ll/2.jpg"",""time"":101},{""stimulus"":""img/green_ll/3.jpg"",""time"":151},{""stimulus"":""img/green_ll/4.jpg"",""time"":202},{""stimulus"":""img/green_ll/5.jpg"",""time"":252},{""stimulus"":""img/green_ll/6.jpg"",""time"":301},{""stimulus"":""img/green_ll/7.jpg"",""time"":352},{""stimulus"":""img/green_ll/8.jpg"",""time"":401},{""stimulus"":""img/green_ll/9.jpg"",""time"":451},{""stimulus"":""img/green_ll/10.jpg"",""time"":502},{""stimulus"":""img/green_ll/11.jpg"",""time"":551}]","[]"
"image-keyboard-response","90","85828","0.0-5.0-1.43","633471b7c7b5fa52a0a407a7","bdp_lott","Sat Apr 01 2023 11:47:42 GMT-0400 (Eastern Daylight Time)","236872","green","red","","399","","","","choice","","img/green_ll/choose11.jpg","1","182","green","0.5","0.5","0.5","w","",""
"animation","91","86443","0.0-5.0-2.43","633471b7c7b5fa52a0a407a7","bdp_lott","Sat Apr 01 2023 11:47:42 GMT-0400 (Eastern Daylight Time)","236872","green","red","","","","","","","","","","182","","","","","","[{""stimulus"":""img/green_wl/1.jpg"",""time"":51},{""stimulus"":""img/green_wl/2.jpg"",""time"":101},{""stimulus"":""img/green_wl/3.jpg"",""time"":151},{""stimulus"":""img/green_wl/4.jpg"",""time"":202},{""stimulus"":""img/green_wl/5.jpg"",""time"":251},{""stimulus"":""img/green_wl/6.jpg"",""time"":301},{""stimulus"":""img/green_wl/7.jpg"",""time"":351},{""stimulus"":""img/green_wl/8.jpg"",""time"":401},{""stimulus"":""img/green_wl/9.jpg"",""time"":451},{""stimulus"":""img/green_wl/10.jpg"",""time"":501},{""stimulus"":""img/green_wl/11.jpg"",""time"":550}]","[]"
"image-keyboard-response","92","86658","0.0-5.0-1.44","633471b7c7b5fa52a0a407a7","bdp_lott","Sat Apr 01 2023 11:47:42 GMT-0400 (Eastern Daylight Time)","236872","green","red","","214","","","","choice","","img/green_wl/choose11.jpg","2","181","red","0.5","0.5","0.5","w","",""
"animation","93","87259","0.0-5.0-2.44","633471b7c7b5fa52a0a407a7","bdp_lott","Sat Apr 01 2023 11:47:42 GMT-0400 (Eastern Daylight Time)","236872","green","red","","","","","","","","","","181","","","","","","[{""stimulus"":""img/red_ww/1.jpg"",""time"":51},{""stimulus"":""img/red_ww/2.jpg"",""time"":101},{""stimulus"":""img/red_ww/3.jpg"",""time"":151},{""stimulus"":""img/red_ww/4.jpg"",""time"":201},{""stimulus"":""img/red_ww/5.jpg"",""time"":252},{""stimulus"":""img/red_ww/6.jpg"",""time"":301},{""stimulus"":""img/red_ww/7.jpg"",""time"":351},{""stimulus"":""img/red_ww/8.jpg"",""time"":401},{""stimulus"":""img/red_ww/9.jpg"",""time"":452},{""stimulus"":""img/red_ww/10.jpg"",""time"":501},{""stimulus"":""img/red_ww/11.jpg"",""time"":551}]","[]"
"image-keyboard-response","94","87477","0.0-5.0-1.45","633471b7c7b5fa52a0a407a7","bdp_lott","Sat Apr 01 2023 11:47:42 GMT-0400 (Eastern Daylight Time)","236872","green","red","","217","","","","choice","","img/red_ww/choose11.jpg","2","180","red","0.5","0.5","0.5","l","",""
"animation","95","88077","0.0-5.0-2.45","633471b7c7b5fa52a0a407a7","bdp_lott","Sat Apr 01 2023 11:47:42 GMT-0400 (Eastern Daylight Time)","236872","green","red","","","","","","","","","","180","","","","","","[{""stimulus"":""img/red_wl/1.jpg"",""time"":51},{""stimulus"":""img/red_wl/2.jpg"",""time"":101},{""stimulus"":""img/red_wl/3.jpg"",""time"":151},{""stimulus"":""img/red_wl/4.jpg"",""time"":201},{""stimulus"":""img/red_wl/5.jpg"",""time"":250},{""stimulus"":""img/red_wl/6.jpg"",""time"":300},{""stimulus"":""img/red_wl/7.jpg"",""time"":351},{""stimulus"":""img/red_wl/8.jpg"",""time"":401},{""stimulus"":""img/red_wl/9.jpg"",""time"":451},{""stimulus"":""img/red_wl/10.jpg"",""time"":502},{""stimulus"":""img/red_wl/11.jpg"",""time"":551}]","[]"
"image-keyboard-response","96","88419","0.0-5.0-1.46","633471b7c7b5fa52a0a407a7","bdp_lott","Sat Apr 01 2023 11:47:42 GMT-0400 (Eastern Daylight Time)","236872","green","red","","341","","","","choice","","img/red_wl/choose11.jpg","1","179","green","0.5","0.5","0.5","w","",""
"animation","97","89019","0.0-5.0-2.46","633471b7c7b5fa52a0a407a7","bdp_lott","Sat Apr 01 2023 11:47:42 GMT-0400 (Eastern Daylight Time)","236872","green","red","","","","","","","","","","179","","","","","","[{""stimulus"":""img/green_wl/1.jpg"",""time"":51},{""stimulus"":""img/green_wl/2.jpg"",""time"":101},{""stimulus"":""img/green_wl/3.jpg"",""time"":152},{""stimulus"":""img/green_wl/4.jpg"",""time"":201},{""stimulus"":""img/green_wl/5.jpg"",""time"":252},{""stimulus"":""img/green_wl/6.jpg"",""time"":302},{""stimulus"":""img/green_wl/7.jpg"",""time"":351},{""stimulus"":""img/green_wl/8.jpg"",""time"":402},{""stimulus"":""img/green_wl/9.jpg"",""time"":451},{""stimulus"":""img/green_wl/10.jpg"",""time"":501},{""stimulus"":""img/green_wl/11.jpg"",""time"":552}]","[]"
"image-keyboard-response","98","89352","0.0-5.0-1.47","633471b7c7b5fa52a0a407a7","bdp_lott","Sat Apr 01 2023 11:47:42 GMT-0400 (Eastern Daylight Time)","236872","green","red","","331","","","","choice","","img/green_wl/choose11.jpg","1","178","green","0.5","0.5","0.5","w","",""
"animation","99","89953","0.0-5.0-2.47","633471b7c7b5fa52a0a407a7","bdp_lott","Sat Apr 01 2023 11:47:42 GMT-0400 (Eastern Daylight Time)","236872","green","red","","","","","","","","","","178","","","","","","[{""stimulus"":""img/green_wl/1.jpg"",""time"":50},{""stimulus"":""img/green_wl/2.jpg"",""time"":100},{""stimulus"":""img/green_wl/3.jpg"",""time"":151},{""stimulus"":""img/green_wl/4.jpg"",""time"":201},{""stimulus"":""img/green_wl/5.jpg"",""time"":251},{""stimulus"":""img/green_wl/6.jpg"",""time"":301},{""stimulus"":""img/green_wl/7.jpg"",""time"":350},{""stimulus"":""img/green_wl/8.jpg"",""time"":401},{""stimulus"":""img/green_wl/9.jpg"",""time"":451},{""stimulus"":""img/green_wl/10.jpg"",""time"":501},{""stimulus"":""img/green_wl/11.jpg"",""time"":551}]","[]"
"image-keyboard-response","100","90252","0.0-5.0-1.48","633471b7c7b5fa52a0a407a7","bdp_lott","Sat Apr 01 2023 11:47:42 GMT-0400 (Eastern Daylight Time)","236872","green","red","","299","","","","choice","","img/green_wl/choose11.jpg","1","177","green","0.5","0.5","0.5","l","",""
"animation","101","90853","0.0-5.0-2.48","633471b7c7b5fa52a0a407a7","bdp_lott","Sat Apr 01 2023 11:47:42 GMT-0400 (Eastern Daylight Time)","236872","green","red","","","","","","","","","","177","","","","","","[{""stimulus"":""img/green_ll/1.jpg"",""time"":51},{""stimulus"":""img/green_ll/2.jpg"",""time"":101},{""stimulus"":""img/green_ll/3.jpg"",""time"":150},{""stimulus"":""img/green_ll/4.jpg"",""time"":200},{""stimulus"":""img/green_ll/5.jpg"",""time"":251},{""stimulus"":""img/green_ll/6.jpg"",""time"":301},{""stimulus"":""img/green_ll/7.jpg"",""time"":351},{""stimulus"":""img/green_ll/8.jpg"",""time"":401},{""stimulus"":""img/green_ll/9.jpg"",""time"":451},{""stimulus"":""img/green_ll/10.jpg"",""time"":500},{""stimulus"":""img/green_ll/11.jpg"",""time"":551}]","[]"
"image-keyboard-response","102","91313","0.0-5.0-1.49","633471b7c7b5fa52a0a407a7","bdp_lott","Sat Apr 01 2023 11:47:42 GMT-0400 (Eastern Daylight Time)","236872","green","red","","459","","","","choice","","img/green_ll/choose11.jpg","2","176","red","0.5","0.5","0.5","l","",""
"animation","103","91914","0.0-5.0-2.49","633471b7c7b5fa52a0a407a7","bdp_lott","Sat Apr 01 2023 11:47:42 GMT-0400 (Eastern Daylight Time)","236872","green","red","","","","","","","","","","176","","","","","","[{""stimulus"":""img/red_ll/1.jpg"",""time"":51},{""stimulus"":""img/red_ll/2.jpg"",""time"":101},{""stimulus"":""img/red_ll/3.jpg"",""time"":152},{""stimulus"":""img/red_ll/4.jpg"",""time"":200},{""stimulus"":""img/red_ll/5.jpg"",""time"":252},{""stimulus"":""img/red_ll/6.jpg"",""time"":301},{""stimulus"":""img/red_ll/7.jpg"",""time"":351},{""stimulus"":""img/red_ll/8.jpg"",""time"":401},{""stimulus"":""img/red_ll/9.jpg"",""time"":451},{""stimulus"":""img/red_ll/10.jpg"",""time"":501},{""stimulus"":""img/red_ll/11.jpg"",""time"":552}]","[]"
"image-keyboard-response","104","92159","0.0-5.0-1.50","633471b7c7b5fa52a0a407a7","bdp_lott","Sat Apr 01 2023 11:47:42 GMT-0400 (Eastern Daylight Time)","236872","green","red","","245","","","","choice","","img/red_ll/choose11.jpg","1","175","green","0.5","0.5","0.5","l","",""
"animation","105","92760","0.0-5.0-2.50","633471b7c7b5fa52a0a407a7","bdp_lott","Sat Apr 01 2023 11:47:42 GMT-0400 (Eastern Daylight Time)","236872","green","red","","","","","","","","","","175","","","","","","[{""stimulus"":""img/green_ll/1.jpg"",""time"":50},{""stimulus"":""img/green_ll/2.jpg"",""time"":101},{""stimulus"":""img/green_ll/3.jpg"",""time"":151},{""stimulus"":""img/green_ll/4.jpg"",""time"":201},{""stimulus"":""img/green_ll/5.jpg"",""time"":251},{""stimulus"":""img/green_ll/6.jpg"",""time"":301},{""stimulus"":""img/green_ll/7.jpg"",""time"":351},{""stimulus"":""img/green_ll/8.jpg"",""time"":401},{""stimulus"":""img/green_ll/9.jpg"",""time"":451},{""stimulus"":""img/green_ll/10.jpg"",""time"":501},{""stimulus"":""img/green_ll/11.jpg"",""time"":551}]","[]"
"image-keyboard-response","106","93130","0.0-5.0-1.51","633471b7c7b5fa52a0a407a7","bdp_lott","Sat Apr 01 2023 11:47:42 GMT-0400 (Eastern Daylight Time)","236872","green","red","","370","","","","choice","","img/green_ll/choose11.jpg","2","174","red","0.5","0.5","0.5","l","",""
"animation","107","93730","0.0-5.0-2.51","633471b7c7b5fa52a0a407a7","bdp_lott","Sat Apr 01 2023 11:47:42 GMT-0400 (Eastern Daylight Time)","236872","green","red","","","","","","","","","","174","","","","","","[{""stimulus"":""img/red_ll/1.jpg"",""time"":51},{""stimulus"":""img/red_ll/2.jpg"",""time"":100},{""stimulus"":""img/red_ll/3.jpg"",""time"":151},{""stimulus"":""img/red_ll/4.jpg"",""time"":201},{""stimulus"":""img/red_ll/5.jpg"",""time"":251},{""stimulus"":""img/red_ll/6.jpg"",""time"":301},{""stimulus"":""img/red_ll/7.jpg"",""time"":351},{""stimulus"":""img/red_ll/8.jpg"",""time"":401},{""stimulus"":""img/red_ll/9.jpg"",""time"":450},{""stimulus"":""img/red_ll/10.jpg"",""time"":500},{""stimulus"":""img/red_ll/11.jpg"",""time"":550}]","[]"
"image-keyboard-response","108","93974","0.0-5.0-1.52","633471b7c7b5fa52a0a407a7","bdp_lott","Sat Apr 01 2023 11:47:42 GMT-0400 (Eastern Daylight Time)","236872","green","red","","242","","","","choice","","img/red_ll/choose11.jpg","1","173","green","0.5","0.5","0.5","w","",""
"animation","109","94575","0.0-5.0-2.52","633471b7c7b5fa52a0a407a7","bdp_lott","Sat Apr 01 2023 11:47:42 GMT-0400 (Eastern Daylight Time)","236872","green","red","","","","","","","","","","173","","","","","","[{""stimulus"":""img/green_wl/1.jpg"",""time"":51},{""stimulus"":""img/green_wl/2.jpg"",""time"":100},{""stimulus"":""img/green_wl/3.jpg"",""time"":151},{""stimulus"":""img/green_wl/4.jpg"",""time"":201},{""stimulus"":""img/green_wl/5.jpg"",""time"":250},{""stimulus"":""img/green_wl/6.jpg"",""time"":301},{""stimulus"":""img/green_wl/7.jpg"",""time"":351},{""stimulus"":""img/green_wl/8.jpg"",""time"":402},{""stimulus"":""img/green_wl/9.jpg"",""time"":452},{""stimulus"":""img/green_wl/10.jpg"",""time"":500},{""stimulus"":""img/green_wl/11.jpg"",""time"":551}]","[]"
"image-keyboard-response","110","95043","0.0-5.0-1.53","633471b7c7b5fa52a0a407a7","bdp_lott","Sat Apr 01 2023 11:47:42 GMT-0400 (Eastern Daylight Time)","236872","green","red","","468","","","","choice","","img/green_wl/choose11.jpg","1","172","green","0.5","0.5","0.5","l","",""
"animation","111","95645","0.0-5.0-2.53","633471b7c7b5fa52a0a407a7","bdp_lott","Sat Apr 01 2023 11:47:42 GMT-0400 (Eastern Daylight Time)","236872","green","red","","","","","","","","","","172","","","","","","[{""stimulus"":""img/green_ll/1.jpg"",""time"":51},{""stimulus"":""img/green_ll/2.jpg"",""time"":101},{""stimulus"":""img/green_ll/3.jpg"",""time"":150},{""stimulus"":""img/green_ll/4.jpg"",""time"":201},{""stimulus"":""img/green_ll/5.jpg"",""time"":251},{""stimulus"":""img/green_ll/6.jpg"",""time"":301},{""stimulus"":""img/green_ll/7.jpg"",""time"":351},{""stimulus"":""img/green_ll/8.jpg"",""time"":401},{""stimulus"":""img/green_ll/9.jpg"",""time"":451},{""stimulus"":""img/green_ll/10.jpg"",""time"":501},{""stimulus"":""img/green_ll/11.jpg"",""time"":552}]","[]"
"image-keyboard-response","112","96041","0.0-5.0-1.54","633471b7c7b5fa52a0a407a7","bdp_lott","Sat Apr 01 2023 11:47:42 GMT-0400 (Eastern Daylight Time)","236872","green","red","","396","","","","choice","","img/green_ll/choose11.jpg","1","171","green","0.5","0.5","0.5","l","",""
"animation","113","96642","0.0-5.0-2.54","633471b7c7b5fa52a0a407a7","bdp_lott","Sat Apr 01 2023 11:47:42 GMT-0400 (Eastern Daylight Time)","236872","green","red","","","","","","","","","","171","","","","","","[{""stimulus"":""img/green_ll/1.jpg"",""time"":51},{""stimulus"":""img/green_ll/2.jpg"",""time"":100},{""stimulus"":""img/green_ll/3.jpg"",""time"":151},{""stimulus"":""img/green_ll/4.jpg"",""time"":201},{""stimulus"":""img/green_ll/5.jpg"",""time"":250},{""stimulus"":""img/green_ll/6.jpg"",""time"":301},{""stimulus"":""img/green_ll/7.jpg"",""time"":351},{""stimulus"":""img/green_ll/8.jpg"",""time"":400},{""stimulus"":""img/green_ll/9.jpg"",""time"":451},{""stimulus"":""img/green_ll/10.jpg"",""time"":501},{""stimulus"":""img/green_ll/11.jpg"",""time"":551}]","[]"
"image-keyboard-response","114","96942","0.0-5.0-1.55","633471b7c7b5fa52a0a407a7","bdp_lott","Sat Apr 01 2023 11:47:42 GMT-0400 (Eastern Daylight Time)","236872","green","red","","300","","","","choice","","img/green_ll/choose11.jpg","2","170","red","0.5","0.5","0.5","l","",""
"animation","115","97543","0.0-5.0-2.55","633471b7c7b5fa52a0a407a7","bdp_lott","Sat Apr 01 2023 11:47:42 GMT-0400 (Eastern Daylight Time)","236872","green","red","","","","","","","","","","170","","","","","","[{""stimulus"":""img/red_ll/1.jpg"",""time"":51},{""stimulus"":""img/red_ll/2.jpg"",""time"":101},{""stimulus"":""img/red_ll/3.jpg"",""time"":150},{""stimulus"":""img/red_ll/4.jpg"",""time"":201},{""stimulus"":""img/red_ll/5.jpg"",""time"":252},{""stimulus"":""img/red_ll/6.jpg"",""time"":301},{""stimulus"":""img/red_ll/7.jpg"",""time"":351},{""stimulus"":""img/red_ll/8.jpg"",""time"":401},{""stimulus"":""img/red_ll/9.jpg"",""time"":451},{""stimulus"":""img/red_ll/10.jpg"",""time"":501},{""stimulus"":""img/red_ll/11.jpg"",""time"":551}]","[]"
"image-keyboard-response","116","97687","0.0-5.0-1.56","633471b7c7b5fa52a0a407a7","bdp_lott","Sat Apr 01 2023 11:47:42 GMT-0400 (Eastern Daylight Time)","236872","green","red","","144","","","","choice","","img/red_ll/choose11.jpg","1","169","green","0.5","0.5","0.5","w","",""
"animation","117","98288","0.0-5.0-2.56","633471b7c7b5fa52a0a407a7","bdp_lott","Sat Apr 01 2023 11:47:42 GMT-0400 (Eastern Daylight Time)","236872","green","red","","","","","","","","","","169","","","","","","[{""stimulus"":""img/green_wl/1.jpg"",""time"":51},{""stimulus"":""img/green_wl/2.jpg"",""time"":102},{""stimulus"":""img/green_wl/3.jpg"",""time"":151},{""stimulus"":""img/green_wl/4.jpg"",""time"":201},{""stimulus"":""img/green_wl/5.jpg"",""time"":251},{""stimulus"":""img/green_wl/6.jpg"",""time"":301},{""stimulus"":""img/green_wl/7.jpg"",""time"":351},{""stimulus"":""img/green_wl/8.jpg"",""time"":402},{""stimulus"":""img/green_wl/9.jpg"",""time"":451},{""stimulus"":""img/green_wl/10.jpg"",""time"":500},{""stimulus"":""img/green_wl/11.jpg"",""time"":550}]","[]"
"image-keyboard-response","118","98515","0.0-5.0-1.57","633471b7c7b5fa52a0a407a7","bdp_lott","Sat Apr 01 2023 11:47:42 GMT-0400 (Eastern Daylight Time)","236872","green","red","","227","","","","choice","","img/green_wl/choose11.jpg","1","168","green","0.5","0.5","0.5","w","",""
"animation","119","99116","0.0-5.0-2.57","633471b7c7b5fa52a0a407a7","bdp_lott","Sat Apr 01 2023 11:47:42 GMT-0400 (Eastern Daylight Time)","236872","green","red","","","","","","","","","","168","","","","","","[{""stimulus"":""img/green_wl/1.jpg"",""time"":51},{""stimulus"":""img/green_wl/2.jpg"",""time"":101},{""stimulus"":""img/green_wl/3.jpg"",""time"":150},{""stimulus"":""img/green_wl/4.jpg"",""time"":201},{""stimulus"":""img/green_wl/5.jpg"",""time"":251},{""stimulus"":""img/green_wl/6.jpg"",""time"":300},{""stimulus"":""img/green_wl/7.jpg"",""time"":350},{""stimulus"":""img/green_wl/8.jpg"",""time"":401},{""stimulus"":""img/green_wl/9.jpg"",""time"":450},{""stimulus"":""img/green_wl/10.jpg"",""time"":500},{""stimulus"":""img/green_wl/11.jpg"",""time"":551}]","[]"
"image-keyboard-response","120","99415","0.0-5.0-1.58","633471b7c7b5fa52a0a407a7","bdp_lott","Sat Apr 01 2023 11:47:42 GMT-0400 (Eastern Daylight Time)","236872","green","red","","298","","","","choice","","img/green_wl/choose11.jpg","1","167","green","0.5","0.5","0.5","w","",""
"animation","121","100015","0.0-5.0-2.58","633471b7c7b5fa52a0a407a7","bdp_lott","Sat Apr 01 2023 11:47:42 GMT-0400 (Eastern Daylight Time)","236872","green","red","","","","","","","","","","167","","","","","","[{""stimulus"":""img/green_wl/1.jpg"",""time"":51},{""stimulus"":""img/green_wl/2.jpg"",""time"":101},{""stimulus"":""img/green_wl/3.jpg"",""time"":151},{""stimulus"":""img/green_wl/4.jpg"",""time"":200},{""stimulus"":""img/green_wl/5.jpg"",""time"":251},{""stimulus"":""img/green_wl/6.jpg"",""time"":300},{""stimulus"":""img/green_wl/7.jpg"",""time"":351},{""stimulus"":""img/green_wl/8.jpg"",""time"":401},{""stimulus"":""img/green_wl/9.jpg"",""time"":451},{""stimulus"":""img/green_wl/10.jpg"",""time"":501},{""stimulus"":""img/green_wl/11.jpg"",""time"":550}]","[]"
"image-keyboard-response","122","100292","0.0-5.0-1.59","633471b7c7b5fa52a0a407a7","bdp_lott","Sat Apr 01 2023 11:47:42 GMT-0400 (Eastern Daylight Time)","236872","green","red","","276","","","","choice","","img/green_wl/choose11.jpg","1","166","green","0.5","0.5","0.5","l","",""
"animation","123","100893","0.0-5.0-2.59","633471b7c7b5fa52a0a407a7","bdp_lott","Sat Apr 01 2023 11:47:42 GMT-0400 (Eastern Daylight Time)","236872","green","red","","","","","","","","","","166","","","","","","[{""stimulus"":""img/green_ll/1.jpg"",""time"":51},{""stimulus"":""img/green_ll/2.jpg"",""time"":101},{""stimulus"":""img/green_ll/3.jpg"",""time"":151},{""stimulus"":""img/green_ll/4.jpg"",""time"":202},{""stimulus"":""img/green_ll/5.jpg"",""time"":251},{""stimulus"":""img/green_ll/6.jpg"",""time"":302},{""stimulus"":""img/green_ll/7.jpg"",""time"":351},{""stimulus"":""img/green_ll/8.jpg"",""time"":401},{""stimulus"":""img/green_ll/9.jpg"",""time"":451},{""stimulus"":""img/green_ll/10.jpg"",""time"":502},{""stimulus"":""img/green_ll/11.jpg"",""time"":552}]","[]"
"image-keyboard-response","124","101323","0.0-5.0-1.60","633471b7c7b5fa52a0a407a7","bdp_lott","Sat Apr 01 2023 11:47:42 GMT-0400 (Eastern Daylight Time)","236872","green","red","","429","","","","choice","","img/green_ll/choose11.jpg","2","165","red","0.5","0.5","0.5","l","",""
"animation","125","101924","0.0-5.0-2.60","633471b7c7b5fa52a0a407a7","bdp_lott","Sat Apr 01 2023 11:47:42 GMT-0400 (Eastern Daylight Time)","236872","green","red","","","","","","","","","","165","","","","","","[{""stimulus"":""img/red_ll/1.jpg"",""time"":51},{""stimulus"":""img/red_ll/2.jpg"",""time"":101},{""stimulus"":""img/red_ll/3.jpg"",""time"":151},{""stimulus"":""img/red_ll/4.jpg"",""time"":200},{""stimulus"":""img/red_ll/5.jpg"",""time"":251},{""stimulus"":""img/red_ll/6.jpg"",""time"":302},{""stimulus"":""img/red_ll/7.jpg"",""time"":351},{""stimulus"":""img/red_ll/8.jpg"",""time"":401},{""stimulus"":""img/red_ll/9.jpg"",""time"":451},{""stimulus"":""img/red_ll/10.jpg"",""time"":501},{""stimulus"":""img/red_ll/11.jpg"",""time"":551}]","[]"
"image-keyboard-response","126","102543","0.0-5.0-1.61","633471b7c7b5fa52a0a407a7","bdp_lott","Sat Apr 01 2023 11:47:42 GMT-0400 (Eastern Daylight Time)","236872","green","red","","619","","","","choice","","img/red_ll/choose11.jpg","1","164","green","0.5","0.5","0.5","w","",""
"animation","127","103145","0.0-5.0-2.61","633471b7c7b5fa52a0a407a7","bdp_lott","Sat Apr 01 2023 11:47:42 GMT-0400 (Eastern Daylight Time)","236872","green","red","","","","","","","","","","164","","","","","","[{""stimulus"":""img/green_wl/1.jpg"",""time"":52},{""stimulus"":""img/green_wl/2.jpg"",""time"":101},{""stimulus"":""img/green_wl/3.jpg"",""time"":151},{""stimulus"":""img/green_wl/4.jpg"",""time"":202},{""stimulus"":""img/green_wl/5.jpg"",""time"":252},{""stimulus"":""img/green_wl/6.jpg"",""time"":301},{""stimulus"":""img/green_wl/7.jpg"",""time"":352},{""stimulus"":""img/green_wl/8.jpg"",""time"":402},{""stimulus"":""img/green_wl/9.jpg"",""time"":452},{""stimulus"":""img/green_wl/10.jpg"",""time"":501},{""stimulus"":""img/green_wl/11.jpg"",""time"":552}]","[]"
"image-keyboard-response","128","103415","0.0-5.0-1.62","633471b7c7b5fa52a0a407a7","bdp_lott","Sat Apr 01 2023 11:47:42 GMT-0400 (Eastern Daylight Time)","236872","green","red","","270","","","","choice","","img/green_wl/choose11.jpg","2","163","red","0.5","0.5","0.5","w","",""
"animation","129","104016","0.0-5.0-2.62","633471b7c7b5fa52a0a407a7","bdp_lott","Sat Apr 01 2023 11:47:42 GMT-0400 (Eastern Daylight Time)","236872","green","red","","","","","","","","","","163","","","","","","[{""stimulus"":""img/red_ww/1.jpg"",""time"":51},{""stimulus"":""img/red_ww/2.jpg"",""time"":100},{""stimulus"":""img/red_ww/3.jpg"",""time"":151},{""stimulus"":""img/red_ww/4.jpg"",""time"":201},{""stimulus"":""img/red_ww/5.jpg"",""time"":250},{""stimulus"":""img/red_ww/6.jpg"",""time"":301},{""stimulus"":""img/red_ww/7.jpg"",""time"":351},{""stimulus"":""img/red_ww/8.jpg"",""time"":401},{""stimulus"":""img/red_ww/9.jpg"",""time"":450},{""stimulus"":""img/red_ww/10.jpg"",""time"":500},{""stimulus"":""img/red_ww/11.jpg"",""time"":551}]","[]"
"image-keyboard-response","130","104520","0.0-5.0-1.63","633471b7c7b5fa52a0a407a7","bdp_lott","Sat Apr 01 2023 11:47:42 GMT-0400 (Eastern Daylight Time)","236872","green","red","","504","","","","choice","","img/red_ww/choose11.jpg","2","162","red","0.5","0.5","0.5","w","",""
"animation","131","105121","0.0-5.0-2.63","633471b7c7b5fa52a0a407a7","bdp_lott","Sat Apr 01 2023 11:47:42 GMT-0400 (Eastern Daylight Time)","236872","green","red","","","","","","","","","","162","","","","","","[{""stimulus"":""img/red_ww/1.jpg"",""time"":51},{""stimulus"":""img/red_ww/2.jpg"",""time"":101},{""stimulus"":""img/red_ww/3.jpg"",""time"":151},{""stimulus"":""img/red_ww/4.jpg"",""time"":201},{""stimulus"":""img/red_ww/5.jpg"",""time"":251},{""stimulus"":""img/red_ww/6.jpg"",""time"":301},{""stimulus"":""img/red_ww/7.jpg"",""time"":351},{""stimulus"":""img/red_ww/8.jpg"",""time"":401},{""stimulus"":""img/red_ww/9.jpg"",""time"":451},{""stimulus"":""img/red_ww/10.jpg"",""time"":501},{""stimulus"":""img/red_ww/11.jpg"",""time"":550}]","[]"
"image-keyboard-response","132","105334","0.0-5.0-1.64","633471b7c7b5fa52a0a407a7","bdp_lott","Sat Apr 01 2023 11:47:42 GMT-0400 (Eastern Daylight Time)","236872","green","red","","213","","","","choice","","img/red_ww/choose11.jpg","2","161","red","0.5","0.5","0.5","w","",""
"animation","133","105935","0.0-5.0-2.64","633471b7c7b5fa52a0a407a7","bdp_lott","Sat Apr 01 2023 11:47:42 GMT-0400 (Eastern Daylight Time)","236872","green","red","","","","","","","","","","161","","","","","","[{""stimulus"":""img/red_ww/1.jpg"",""time"":51},{""stimulus"":""img/red_ww/2.jpg"",""time"":100},{""stimulus"":""img/red_ww/3.jpg"",""time"":151},{""stimulus"":""img/red_ww/4.jpg"",""time"":201},{""stimulus"":""img/red_ww/5.jpg"",""time"":251},{""stimulus"":""img/red_ww/6.jpg"",""time"":301},{""stimulus"":""img/red_ww/7.jpg"",""time"":351},{""stimulus"":""img/red_ww/8.jpg"",""time"":401},{""stimulus"":""img/red_ww/9.jpg"",""time"":451},{""stimulus"":""img/red_ww/10.jpg"",""time"":501},{""stimulus"":""img/red_ww/11.jpg"",""time"":551}]","[]"
"image-keyboard-response","134","106201","0.0-5.0-1.65","633471b7c7b5fa52a0a407a7","bdp_lott","Sat Apr 01 2023 11:47:42 GMT-0400 (Eastern Daylight Time)","236872","green","red","","265","","","","choice","","img/red_ww/choose11.jpg","2","160","red","0.5","0.5","0.5","w","",""
"animation","135","106802","0.0-5.0-2.65","633471b7c7b5fa52a0a407a7","bdp_lott","Sat Apr 01 2023 11:47:42 GMT-0400 (Eastern Daylight Time)","236872","green","red","","","","","","","","","","160","","","","","","[{""stimulus"":""img/red_ww/1.jpg"",""time"":51},{""stimulus"":""img/red_ww/2.jpg"",""time"":101},{""stimulus"":""img/red_ww/3.jpg"",""time"":151},{""stimulus"":""img/red_ww/4.jpg"",""time"":202},{""stimulus"":""img/red_ww/5.jpg"",""time"":252},{""stimulus"":""img/red_ww/6.jpg"",""time"":302},{""stimulus"":""img/red_ww/7.jpg"",""time"":352},{""stimulus"":""img/red_ww/8.jpg"",""time"":402},{""stimulus"":""img/red_ww/9.jpg"",""time"":451},{""stimulus"":""img/red_ww/10.jpg"",""time"":502},{""stimulus"":""img/red_ww/11.jpg"",""time"":552}]","[]"
"image-keyboard-response","136","107052","0.0-5.0-1.66","633471b7c7b5fa52a0a407a7","bdp_lott","Sat Apr 01 2023 11:47:42 GMT-0400 (Eastern Daylight Time)","236872","green","red","","248","","","","choice","","img/red_ww/choose11.jpg","2","159","red","0.5","0.5","0.5","l","",""
"animation","137","107653","0.0-5.0-2.66","633471b7c7b5fa52a0a407a7","bdp_lott","Sat Apr 01 2023 11:47:42 GMT-0400 (Eastern Daylight Time)","236872","green","red","","","","","","","","","","159","","","","","","[{""stimulus"":""img/red_wl/1.jpg"",""time"":51},{""stimulus"":""img/red_wl/2.jpg"",""time"":100},{""stimulus"":""img/red_wl/3.jpg"",""time"":151},{""stimulus"":""img/red_wl/4.jpg"",""time"":202},{""stimulus"":""img/red_wl/5.jpg"",""time"":251},{""stimulus"":""img/red_wl/6.jpg"",""time"":300},{""stimulus"":""img/red_wl/7.jpg"",""time"":351},{""stimulus"":""img/red_wl/8.jpg"",""time"":401},{""stimulus"":""img/red_wl/9.jpg"",""time"":451},{""stimulus"":""img/red_wl/10.jpg"",""time"":501},{""stimulus"":""img/red_wl/11.jpg"",""time"":550}]","[]"
"image-keyboard-response","138","108048","0.0-5.0-1.67","633471b7c7b5fa52a0a407a7","bdp_lott","Sat Apr 01 2023 11:47:42 GMT-0400 (Eastern Daylight Time)","236872","green","red","","395","","","","choice","","img/red_wl/choose11.jpg","1","158","green","0.5","0.5","0.5","w","",""
"animation","139","108649","0.0-5.0-2.67","633471b7c7b5fa52a0a407a7","bdp_lott","Sat Apr 01 2023 11:47:42 GMT-0400 (Eastern Daylight Time)","236872","green","red","","","","","","","","","","158","","","","","","[{""stimulus"":""img/green_wl/1.jpg"",""time"":50},{""stimulus"":""img/green_wl/2.jpg"",""time"":100},{""stimulus"":""img/green_wl/3.jpg"",""time"":151},{""stimulus"":""img/green_wl/4.jpg"",""time"":200},{""stimulus"":""img/green_wl/5.jpg"",""time"":251},{""stimulus"":""img/green_wl/6.jpg"",""time"":301},{""stimulus"":""img/green_wl/7.jpg"",""time"":350},{""stimulus"":""img/green_wl/8.jpg"",""time"":400},{""stimulus"":""img/green_wl/9.jpg"",""time"":451},{""stimulus"":""img/green_wl/10.jpg"",""time"":500},{""stimulus"":""img/green_wl/11.jpg"",""time"":550}]","[]"
"image-keyboard-response","140","109055","0.0-5.0-1.68","633471b7c7b5fa52a0a407a7","bdp_lott","Sat Apr 01 2023 11:47:42 GMT-0400 (Eastern Daylight Time)","236872","green","red","","406","","","","choice","","img/green_wl/choose11.jpg","1","157","green","0.5","0.5","0.5","w","",""
"animation","141","109657","0.0-5.0-2.68","633471b7c7b5fa52a0a407a7","bdp_lott","Sat Apr 01 2023 11:47:42 GMT-0400 (Eastern Daylight Time)","236872","green","red","","","","","","","","","","157","","","","","","[{""stimulus"":""img/green_wl/1.jpg"",""time"":52},{""stimulus"":""img/green_wl/2.jpg"",""time"":101},{""stimulus"":""img/green_wl/3.jpg"",""time"":151},{""stimulus"":""img/green_wl/4.jpg"",""time"":201},{""stimulus"":""img/green_wl/5.jpg"",""time"":252},{""stimulus"":""img/green_wl/6.jpg"",""time"":301},{""stimulus"":""img/green_wl/7.jpg"",""time"":352},{""stimulus"":""img/green_wl/8.jpg"",""time"":401},{""stimulus"":""img/green_wl/9.jpg"",""time"":451},{""stimulus"":""img/green_wl/10.jpg"",""time"":501},{""stimulus"":""img/green_wl/11.jpg"",""time"":552}]","[]"
"image-keyboard-response","142","109870","0.0-5.0-1.69","633471b7c7b5fa52a0a407a7","bdp_lott","Sat Apr 01 2023 11:47:42 GMT-0400 (Eastern Daylight Time)","236872","green","red","","213","","","","choice","","img/green_wl/choose11.jpg","1","156","green","0.5","0.5","0.5","w","",""
"animation","143","110470","0.0-5.0-2.69","633471b7c7b5fa52a0a407a7","bdp_lott","Sat Apr 01 2023 11:47:42 GMT-0400 (Eastern Daylight Time)","236872","green","red","","","","","","","","","","156","","","","","","[{""stimulus"":""img/green_wl/1.jpg"",""time"":51},{""stimulus"":""img/green_wl/2.jpg"",""time"":101},{""stimulus"":""img/green_wl/3.jpg"",""time"":150},{""stimulus"":""img/green_wl/4.jpg"",""time"":201},{""stimulus"":""img/green_wl/5.jpg"",""time"":251},{""stimulus"":""img/green_wl/6.jpg"",""time"":301},{""stimulus"":""img/green_wl/7.jpg"",""time"":351},{""stimulus"":""img/green_wl/8.jpg"",""time"":401},{""stimulus"":""img/green_wl/9.jpg"",""time"":451},{""stimulus"":""img/green_wl/10.jpg"",""time"":501},{""stimulus"":""img/green_wl/11.jpg"",""time"":550}]","[]"
"image-keyboard-response","144","110690","0.0-5.0-1.70","633471b7c7b5fa52a0a407a7","bdp_lott","Sat Apr 01 2023 11:47:42 GMT-0400 (Eastern Daylight Time)","236872","green","red","","218","","","","choice","","img/green_wl/choose11.jpg","1","155","green","0.5","0.5","0.5","w","",""
"animation","145","111291","0.0-5.0-2.70","633471b7c7b5fa52a0a407a7","bdp_lott","Sat Apr 01 2023 11:47:42 GMT-0400 (Eastern Daylight Time)","236872","green","red","","","","","","","","","","155","","","","","","[{""stimulus"":""img/green_wl/1.jpg"",""time"":51},{""stimulus"":""img/green_wl/2.jpg"",""time"":100},{""stimulus"":""img/green_wl/3.jpg"",""time"":151},{""stimulus"":""img/green_wl/4.jpg"",""time"":201},{""stimulus"":""img/green_wl/5.jpg"",""time"":250},{""stimulus"":""img/green_wl/6.jpg"",""time"":301},{""stimulus"":""img/green_wl/7.jpg"",""time"":351},{""stimulus"":""img/green_wl/8.jpg"",""time"":407},{""stimulus"":""img/green_wl/9.jpg"",""time"":454},{""stimulus"":""img/green_wl/10.jpg"",""time"":502},{""stimulus"":""img/green_wl/11.jpg"",""time"":550}]","[]"
"image-keyboard-response","146","111486","0.0-5.0-1.71","633471b7c7b5fa52a0a407a7","bdp_lott","Sat Apr 01 2023 11:47:42 GMT-0400 (Eastern Daylight Time)","236872","green","red","","195","","","","choice","","img/green_wl/choose11.jpg","1","154","green","0.5","0.5","0.5","w","",""
"animation","147","112092","0.0-5.0-2.71","633471b7c7b5fa52a0a407a7","bdp_lott","Sat Apr 01 2023 11:47:42 GMT-0400 (Eastern Daylight Time)","236872","green","red","","","","","","","","","","154","","","","","","[{""stimulus"":""img/green_wl/1.jpg"",""time"":52},{""stimulus"":""img/green_wl/2.jpg"",""time"":101},{""stimulus"":""img/green_wl/3.jpg"",""time"":151},{""stimulus"":""img/green_wl/4.jpg"",""time"":201},{""stimulus"":""img/green_wl/5.jpg"",""time"":251},{""stimulus"":""img/green_wl/6.jpg"",""time"":302},{""stimulus"":""img/green_wl/7.jpg"",""time"":351},{""stimulus"":""img/green_wl/8.jpg"",""time"":401},{""stimulus"":""img/green_wl/9.jpg"",""time"":451},{""stimulus"":""img/green_wl/10.jpg"",""time"":501},{""stimulus"":""img/green_wl/11.jpg"",""time"":551}]","[]"
"image-keyboard-response","148","112312","0.0-5.0-1.72","633471b7c7b5fa52a0a407a7","bdp_lott","Sat Apr 01 2023 11:47:42 GMT-0400 (Eastern Daylight Time)","236872","green","red","","220","","","","choice","","img/green_wl/choose11.jpg","1","153","green","0.5","0.5","0.5","l","",""
"animation","149","112913","0.0-5.0-2.72","633471b7c7b5fa52a0a407a7","bdp_lott","Sat Apr 01 2023 11:47:42 GMT-0400 (Eastern Daylight Time)","236872","green","red","","","","","","","","","","153","","","","","","[{""stimulus"":""img/green_ll/1.jpg"",""time"":50},{""stimulus"":""img/green_ll/2.jpg"",""time"":101},{""stimulus"":""img/green_ll/3.jpg"",""time"":151},{""stimulus"":""img/green_ll/4.jpg"",""time"":200},{""stimulus"":""img/green_ll/5.jpg"",""time"":252},{""stimulus"":""img/green_ll/6.jpg"",""time"":302},{""stimulus"":""img/green_ll/7.jpg"",""time"":351},{""stimulus"":""img/green_ll/8.jpg"",""time"":400},{""stimulus"":""img/green_ll/9.jpg"",""time"":452},{""stimulus"":""img/green_ll/10.jpg"",""time"":500},{""stimulus"":""img/green_ll/11.jpg"",""time"":551}]","[]"
"image-keyboard-response","150","113166","0.0-5.0-1.73","633471b7c7b5fa52a0a407a7","bdp_lott","Sat Apr 01 2023 11:47:42 GMT-0400 (Eastern Daylight Time)","236872","green","red","","253","","","","choice","","img/green_ll/choose11.jpg","1","152","green","0.5","0.5","0.5","w","",""
"animation","151","113766","0.0-5.0-2.73","633471b7c7b5fa52a0a407a7","bdp_lott","Sat Apr 01 2023 11:47:42 GMT-0400 (Eastern Daylight Time)","236872","green","red","","","","","","","","","","152","","","","","","[{""stimulus"":""img/green_wl/1.jpg"",""time"":51},{""stimulus"":""img/green_wl/2.jpg"",""time"":101},{""stimulus"":""img/green_wl/3.jpg"",""time"":150},{""stimulus"":""img/green_wl/4.jpg"",""time"":201},{""stimulus"":""img/green_wl/5.jpg"",""time"":250},{""stimulus"":""img/green_wl/6.jpg"",""time"":301},{""stimulus"":""img/green_wl/7.jpg"",""time"":350},{""stimulus"":""img/green_wl/8.jpg"",""time"":401},{""stimulus"":""img/green_wl/9.jpg"",""time"":451},{""stimulus"":""img/green_wl/10.jpg"",""time"":500},{""stimulus"":""img/green_wl/11.jpg"",""time"":551}]","[]"
"image-keyboard-response","152","113985","0.0-5.0-1.74","633471b7c7b5fa52a0a407a7","bdp_lott","Sat Apr 01 2023 11:47:42 GMT-0400 (Eastern Daylight Time)","236872","green","red","","218","","","","choice","","img/green_wl/choose11.jpg","2","151","red","0.5","0.5","0.5","w","",""
"animation","153","114585","0.0-5.0-2.74","633471b7c7b5fa52a0a407a7","bdp_lott","Sat Apr 01 2023 11:47:42 GMT-0400 (Eastern Daylight Time)","236872","green","red","","","","","","","","","","151","","","","","","[{""stimulus"":""img/red_ww/1.jpg"",""time"":50},{""stimulus"":""img/red_ww/2.jpg"",""time"":101},{""stimulus"":""img/red_ww/3.jpg"",""time"":151},{""stimulus"":""img/red_ww/4.jpg"",""time"":202},{""stimulus"":""img/red_ww/5.jpg"",""time"":250},{""stimulus"":""img/red_ww/6.jpg"",""time"":301},{""stimulus"":""img/red_ww/7.jpg"",""time"":350},{""stimulus"":""img/red_ww/8.jpg"",""time"":400},{""stimulus"":""img/red_ww/9.jpg"",""time"":451},{""stimulus"":""img/red_ww/10.jpg"",""time"":512},{""stimulus"":""img/red_ww/11.jpg"",""time"":550}]","[]"
"image-keyboard-response","154","114749","0.0-5.0-1.75","633471b7c7b5fa52a0a407a7","bdp_lott","Sat Apr 01 2023 11:47:42 GMT-0400 (Eastern Daylight Time)","236872","green","red","","163","","","","choice","","img/red_ww/choose11.jpg","1","150","green","0.5","0.5","0.5","l","",""
"animation","155","115351","0.0-5.0-2.75","633471b7c7b5fa52a0a407a7","bdp_lott","Sat Apr 01 2023 11:47:42 GMT-0400 (Eastern Daylight Time)","236872","green","red","","","","","","","","","","150","","","","","","[{""stimulus"":""img/green_lw/1.jpg"",""time"":51},{""stimulus"":""img/green_lw/2.jpg"",""time"":101},{""stimulus"":""img/green_lw/3.jpg"",""time"":151},{""stimulus"":""img/green_lw/4.jpg"",""time"":201},{""stimulus"":""img/green_lw/5.jpg"",""time"":252},{""stimulus"":""img/green_lw/6.jpg"",""time"":302},{""stimulus"":""img/green_lw/7.jpg"",""time"":351},{""stimulus"":""img/green_lw/8.jpg"",""time"":401},{""stimulus"":""img/green_lw/9.jpg"",""time"":451},{""stimulus"":""img/green_lw/10.jpg"",""time"":501},{""stimulus"":""img/green_lw/11.jpg"",""time"":552}]","[]"
"image-keyboard-response","156","115629","0.0-5.0-1.76","633471b7c7b5fa52a0a407a7","bdp_lott","Sat Apr 01 2023 11:47:42 GMT-0400 (Eastern Daylight Time)","236872","green","red","","277","","","","choice","","img/green_lw/choose11.jpg","1","149","green","0.5","0.1","0.5","w","",""
"animation","157","116230","0.0-5.0-2.76","633471b7c7b5fa52a0a407a7","bdp_lott","Sat Apr 01 2023 11:47:42 GMT-0400 (Eastern Daylight Time)","236872","green","red","","","","","","","","","","149","","","","","","[{""stimulus"":""img/green_ww/1.jpg"",""time"":51},{""stimulus"":""img/green_ww/2.jpg"",""time"":100},{""stimulus"":""img/green_ww/3.jpg"",""time"":150},{""stimulus"":""img/green_ww/4.jpg"",""time"":201},{""stimulus"":""img/green_ww/5.jpg"",""time"":251},{""stimulus"":""img/green_ww/6.jpg"",""time"":301},{""stimulus"":""img/green_ww/7.jpg"",""time"":350},{""stimulus"":""img/green_ww/8.jpg"",""time"":401},{""stimulus"":""img/green_ww/9.jpg"",""time"":451},{""stimulus"":""img/green_ww/10.jpg"",""time"":500},{""stimulus"":""img/green_ww/11.jpg"",""time"":551}]","[]"
"image-keyboard-response","158","116387","0.0-5.0-1.77","633471b7c7b5fa52a0a407a7","bdp_lott","Sat Apr 01 2023 11:47:42 GMT-0400 (Eastern Daylight Time)","236872","green","red","","157","","","","choice","","img/green_ww/choose11.jpg","2","148","red","0.5","0.1","0.1","l","",""
"animation","159","116987","0.0-5.0-2.77","633471b7c7b5fa52a0a407a7","bdp_lott","Sat Apr 01 2023 11:47:42 GMT-0400 (Eastern Daylight Time)","236872","green","red","","","","","","","","","","148","","","","","","[{""stimulus"":""img/red_wl/1.jpg"",""time"":51},{""stimulus"":""img/red_wl/2.jpg"",""time"":100},{""stimulus"":""img/red_wl/3.jpg"",""time"":150},{""stimulus"":""img/red_wl/4.jpg"",""time"":201},{""stimulus"":""img/red_wl/5.jpg"",""time"":251},{""stimulus"":""img/red_wl/6.jpg"",""time"":301},{""stimulus"":""img/red_wl/7.jpg"",""time"":350},{""stimulus"":""img/red_wl/8.jpg"",""time"":401},{""stimulus"":""img/red_wl/9.jpg"",""time"":451},{""stimulus"":""img/red_wl/10.jpg"",""time"":501},{""stimulus"":""img/red_wl/11.jpg"",""time"":550}]","[]"
"image-keyboard-response","160","117189","0.0-5.0-1.78","633471b7c7b5fa52a0a407a7","bdp_lott","Sat Apr 01 2023 11:47:42 GMT-0400 (Eastern Daylight Time)","236872","green","red","","202","","","","choice","","img/red_wl/choose11.jpg","2","147","red","0.5","0.1","0.1","l","",""
"animation","161","117790","0.0-5.0-2.78","633471b7c7b5fa52a0a407a7","bdp_lott","Sat Apr 01 2023 11:47:42 GMT-0400 (Eastern Daylight Time)","236872","green","red","","","","","","","","","","147","","","","","","[{""stimulus"":""img/red_wl/1.jpg"",""time"":50},{""stimulus"":""img/red_wl/2.jpg"",""time"":101},{""stimulus"":""img/red_wl/3.jpg"",""time"":150},{""stimulus"":""img/red_wl/4.jpg"",""time"":200},{""stimulus"":""img/red_wl/5.jpg"",""time"":251},{""stimulus"":""img/red_wl/6.jpg"",""time"":301},{""stimulus"":""img/red_wl/7.jpg"",""time"":351},{""stimulus"":""img/red_wl/8.jpg"",""time"":401},{""stimulus"":""img/red_wl/9.jpg"",""time"":451},{""stimulus"":""img/red_wl/10.jpg"",""time"":501},{""stimulus"":""img/red_wl/11.jpg"",""time"":551}]","[]"
"image-keyboard-response","162","117914","0.0-5.0-1.79","633471b7c7b5fa52a0a407a7","bdp_lott","Sat Apr 01 2023 11:47:42 GMT-0400 (Eastern Daylight Time)","236872","green","red","","124","","","","choice","","img/red_wl/choose11.jpg","1","146","green","0.5","0.1","0.5","l","",""
"animation","163","118515","0.0-5.0-2.79","633471b7c7b5fa52a0a407a7","bdp_lott","Sat Apr 01 2023 11:47:42 GMT-0400 (Eastern Daylight Time)","236872","green","red","","","","","","","","","","146","","","","","","[{""stimulus"":""img/green_ll/1.jpg"",""time"":51},{""stimulus"":""img/green_ll/2.jpg"",""time"":101},{""stimulus"":""img/green_ll/3.jpg"",""time"":151},{""stimulus"":""img/green_ll/4.jpg"",""time"":200},{""stimulus"":""img/green_ll/5.jpg"",""time"":251},{""stimulus"":""img/green_ll/6.jpg"",""time"":301},{""stimulus"":""img/green_ll/7.jpg"",""time"":351},{""stimulus"":""img/green_ll/8.jpg"",""time"":401},{""stimulus"":""img/green_ll/9.jpg"",""time"":451},{""stimulus"":""img/green_ll/10.jpg"",""time"":501},{""stimulus"":""img/green_ll/11.jpg"",""time"":551}]","[]"
"image-keyboard-response","164","118762","0.0-5.0-1.80","633471b7c7b5fa52a0a407a7","bdp_lott","Sat Apr 01 2023 11:47:42 GMT-0400 (Eastern Daylight Time)","236872","green","red","","246","","","","choice","","img/green_ll/choose11.jpg","1","145","green","0.5","0.1","0.5","w","",""
"animation","165","119364","0.0-5.0-2.80","633471b7c7b5fa52a0a407a7","bdp_lott","Sat Apr 01 2023 11:47:42 GMT-0400 (Eastern Daylight Time)","236872","green","red","","","","","","","","","","145","","","","","","[{""stimulus"":""img/green_wl/1.jpg"",""time"":50},{""stimulus"":""img/green_wl/2.jpg"",""time"":100},{""stimulus"":""img/green_wl/3.jpg"",""time"":150},{""stimulus"":""img/green_wl/4.jpg"",""time"":202},{""stimulus"":""img/green_wl/5.jpg"",""time"":251},{""stimulus"":""img/green_wl/6.jpg"",""time"":300},{""stimulus"":""img/green_wl/7.jpg"",""time"":350},{""stimulus"":""img/green_wl/8.jpg"",""time"":401},{""stimulus"":""img/green_wl/9.jpg"",""time"":452},{""stimulus"":""img/green_wl/10.jpg"",""time"":501},{""stimulus"":""img/green_wl/11.jpg"",""time"":551}]","[]"
"image-keyboard-response","166","119742","0.0-5.0-1.81","633471b7c7b5fa52a0a407a7","bdp_lott","Sat Apr 01 2023 11:47:42 GMT-0400 (Eastern Daylight Time)","236872","green","red","","378","","","","choice","","img/green_wl/choose11.jpg","1","144","green","0.5","0.1","0.5","w","",""
"animation","167","120343","0.0-5.0-2.81","633471b7c7b5fa52a0a407a7","bdp_lott","Sat Apr 01 2023 11:47:42 GMT-0400 (Eastern Daylight Time)","236872","green","red","","","","","","","","","","144","","","","","","[{""stimulus"":""img/green_wl/1.jpg"",""time"":51},{""stimulus"":""img/green_wl/2.jpg"",""time"":101},{""stimulus"":""img/green_wl/3.jpg"",""time"":151},{""stimulus"":""img/green_wl/4.jpg"",""time"":201},{""stimulus"":""img/green_wl/5.jpg"",""time"":250},{""stimulus"":""img/green_wl/6.jpg"",""time"":301},{""stimulus"":""img/green_wl/7.jpg"",""time"":351},{""stimulus"":""img/green_wl/8.jpg"",""time"":401},{""stimulus"":""img/green_wl/9.jpg"",""time"":451},{""stimulus"":""img/green_wl/10.jpg"",""time"":501},{""stimulus"":""img/green_wl/11.jpg"",""time"":551}]","[]"
"image-keyboard-response","168","120551","0.0-5.0-1.82","633471b7c7b5fa52a0a407a7","bdp_lott","Sat Apr 01 2023 11:47:42 GMT-0400 (Eastern Daylight Time)","236872","green","red","","208","","","","choice","","img/green_wl/choose11.jpg","1","143","green","0.5","0.1","0.5","w","",""
"animation","169","121153","0.0-5.0-2.82","633471b7c7b5fa52a0a407a7","bdp_lott","Sat Apr 01 2023 11:47:42 GMT-0400 (Eastern Daylight Time)","236872","green","red","","","","","","","","","","143","","","","","","[{""stimulus"":""img/green_wl/1.jpg"",""time"":52},{""stimulus"":""img/green_wl/2.jpg"",""time"":102},{""stimulus"":""img/green_wl/3.jpg"",""time"":152},{""stimulus"":""img/green_wl/4.jpg"",""time"":202},{""stimulus"":""img/green_wl/5.jpg"",""time"":251},{""stimulus"":""img/green_wl/6.jpg"",""time"":301},{""stimulus"":""img/green_wl/7.jpg"",""time"":352},{""stimulus"":""img/green_wl/8.jpg"",""time"":401},{""stimulus"":""img/green_wl/9.jpg"",""time"":452},{""stimulus"":""img/green_wl/10.jpg"",""time"":502},{""stimulus"":""img/green_wl/11.jpg"",""time"":552}]","[]"
"image-keyboard-response","170","121483","0.0-5.0-1.83","633471b7c7b5fa52a0a407a7","bdp_lott","Sat Apr 01 2023 11:47:42 GMT-0400 (Eastern Daylight Time)","236872","green","red","","330","","","","choice","","img/green_wl/choose11.jpg","1","142","green","0.5","0.1","0.5","w","",""
"animation","171","122084","0.0-5.0-2.83","633471b7c7b5fa52a0a407a7","bdp_lott","Sat Apr 01 2023 11:47:42 GMT-0400 (Eastern Daylight Time)","236872","green","red","","","","","","","","","","142","","","","","","[{""stimulus"":""img/green_wl/1.jpg"",""time"":51},{""stimulus"":""img/green_wl/2.jpg"",""time"":101},{""stimulus"":""img/green_wl/3.jpg"",""time"":152},{""stimulus"":""img/green_wl/4.jpg"",""time"":201},{""stimulus"":""img/green_wl/5.jpg"",""time"":251},{""stimulus"":""img/green_wl/6.jpg"",""time"":302},{""stimulus"":""img/green_wl/7.jpg"",""time"":352},{""stimulus"":""img/green_wl/8.jpg"",""time"":400},{""stimulus"":""img/green_wl/9.jpg"",""time"":451},{""stimulus"":""img/green_wl/10.jpg"",""time"":501},{""stimulus"":""img/green_wl/11.jpg"",""time"":551}]","[]"
"image-keyboard-response","172","122426","0.0-5.0-1.84","633471b7c7b5fa52a0a407a7","bdp_lott","Sat Apr 01 2023 11:47:42 GMT-0400 (Eastern Daylight Time)","236872","green","red","","342","","","","choice","","img/green_wl/choose11.jpg","1","141","green","0.5","0.1","0.5","w","",""
"animation","173","123026","0.0-5.0-2.84","633471b7c7b5fa52a0a407a7","bdp_lott","Sat Apr 01 2023 11:47:42 GMT-0400 (Eastern Daylight Time)","236872","green","red","","","","","","","","","","141","","","","","","[{""stimulus"":""img/green_wl/1.jpg"",""time"":51},{""stimulus"":""img/green_wl/2.jpg"",""time"":101},{""stimulus"":""img/green_wl/3.jpg"",""time"":151},{""stimulus"":""img/green_wl/4.jpg"",""time"":201},{""stimulus"":""img/green_wl/5.jpg"",""time"":252},{""stimulus"":""img/green_wl/6.jpg"",""time"":301},{""stimulus"":""img/green_wl/7.jpg"",""time"":351},{""stimulus"":""img/green_wl/8.jpg"",""time"":401},{""stimulus"":""img/green_wl/9.jpg"",""time"":451},{""stimulus"":""img/green_wl/10.jpg"",""time"":501},{""stimulus"":""img/green_wl/11.jpg"",""time"":551}]","[]"
"image-keyboard-response","174","123361","0.0-5.0-1.85","633471b7c7b5fa52a0a407a7","bdp_lott","Sat Apr 01 2023 11:47:42 GMT-0400 (Eastern Daylight Time)","236872","green","red","","333","","","","choice","","img/green_wl/choose11.jpg","1","140","green","0.5","0.1","0.5","l","",""
"animation","175","123961","0.0-5.0-2.85","633471b7c7b5fa52a0a407a7","bdp_lott","Sat Apr 01 2023 11:47:42 GMT-0400 (Eastern Daylight Time)","236872","green","red","","","","","","","","","","140","","","","","","[{""stimulus"":""img/green_ll/1.jpg"",""time"":51},{""stimulus"":""img/green_ll/2.jpg"",""time"":100},{""stimulus"":""img/green_ll/3.jpg"",""time"":151},{""stimulus"":""img/green_ll/4.jpg"",""time"":200},{""stimulus"":""img/green_ll/5.jpg"",""time"":261},{""stimulus"":""img/green_ll/6.jpg"",""time"":301},{""stimulus"":""img/green_ll/7.jpg"",""time"":351},{""stimulus"":""img/green_ll/8.jpg"",""time"":401},{""stimulus"":""img/green_ll/9.jpg"",""time"":451},{""stimulus"":""img/green_ll/10.jpg"",""time"":501},{""stimulus"":""img/green_ll/11.jpg"",""time"":551}]","[]"
"image-keyboard-response","176","124359","0.0-5.0-1.86","633471b7c7b5fa52a0a407a7","bdp_lott","Sat Apr 01 2023 11:47:42 GMT-0400 (Eastern Daylight Time)","236872","green","red","","397","","","","choice","","img/green_ll/choose11.jpg","2","139","red","0.5","0.1","0.1","l","",""
"animation","177","124960","0.0-5.0-2.86","633471b7c7b5fa52a0a407a7","bdp_lott","Sat Apr 01 2023 11:47:42 GMT-0400 (Eastern Daylight Time)","236872","green","red","","","","","","","","","","139","","","","","","[{""stimulus"":""img/red_ll/1.jpg"",""time"":51},{""stimulus"":""img/red_ll/2.jpg"",""time"":102},{""stimulus"":""img/red_ll/3.jpg"",""time"":151},{""stimulus"":""img/red_ll/4.jpg"",""time"":201},{""stimulus"":""img/red_ll/5.jpg"",""time"":252},{""stimulus"":""img/red_ll/6.jpg"",""time"":301},{""stimulus"":""img/red_ll/7.jpg"",""time"":351},{""stimulus"":""img/red_ll/8.jpg"",""time"":401},{""stimulus"":""img/red_ll/9.jpg"",""time"":451},{""stimulus"":""img/red_ll/10.jpg"",""time"":502},{""stimulus"":""img/red_ll/11.jpg"",""time"":551}]","[]"
"image-keyboard-response","178","125112","0.0-5.0-1.87","633471b7c7b5fa52a0a407a7","bdp_lott","Sat Apr 01 2023 11:47:42 GMT-0400 (Eastern Daylight Time)","236872","green","red","","151","","","","choice","","img/red_ll/choose11.jpg","2","138","red","0.5","0.1","0.1","l","",""
"animation","179","125713","0.0-5.0-2.87","633471b7c7b5fa52a0a407a7","bdp_lott","Sat Apr 01 2023 11:47:42 GMT-0400 (Eastern Daylight Time)","236872","green","red","","","","","","","","","","138","","","","","","[{""stimulus"":""img/red_ll/1.jpg"",""time"":51},{""stimulus"":""img/red_ll/2.jpg"",""time"":101},{""stimulus"":""img/red_ll/3.jpg"",""time"":151},{""stimulus"":""img/red_ll/4.jpg"",""time"":201},{""stimulus"":""img/red_ll/5.jpg"",""time"":251},{""stimulus"":""img/red_ll/6.jpg"",""time"":301},{""stimulus"":""img/red_ll/7.jpg"",""time"":351},{""stimulus"":""img/red_ll/8.jpg"",""time"":401},{""stimulus"":""img/red_ll/9.jpg"",""time"":451},{""stimulus"":""img/red_ll/10.jpg"",""time"":501},{""stimulus"":""img/red_ll/11.jpg"",""time"":552}]","[]"
"image-keyboard-response","180","125817","0.0-5.0-1.88","633471b7c7b5fa52a0a407a7","bdp_lott","Sat Apr 01 2023 11:47:42 GMT-0400 (Eastern Daylight Time)","236872","green","red","","103","","","","choice","","img/red_ll/choose11.jpg","1","137","green","0.5","0.1","0.5","l","",""
"animation","181","126417","0.0-5.0-2.88","633471b7c7b5fa52a0a407a7","bdp_lott","Sat Apr 01 2023 11:47:42 GMT-0400 (Eastern Daylight Time)","236872","green","red","","","","","","","","","","137","","","","","","[{""stimulus"":""img/green_ll/1.jpg"",""time"":51},{""stimulus"":""img/green_ll/2.jpg"",""time"":101},{""stimulus"":""img/green_ll/3.jpg"",""time"":151},{""stimulus"":""img/green_ll/4.jpg"",""time"":200},{""stimulus"":""img/green_ll/5.jpg"",""time"":251},{""stimulus"":""img/green_ll/6.jpg"",""time"":300},{""stimulus"":""img/green_ll/7.jpg"",""time"":351},{""stimulus"":""img/green_ll/8.jpg"",""time"":400},{""stimulus"":""img/green_ll/9.jpg"",""time"":450},{""stimulus"":""img/green_ll/10.jpg"",""time"":501},{""stimulus"":""img/green_ll/11.jpg"",""time"":550}]","[]"
"image-keyboard-response","182","126631","0.0-5.0-1.89","633471b7c7b5fa52a0a407a7","bdp_lott","Sat Apr 01 2023 11:47:42 GMT-0400 (Eastern Daylight Time)","236872","green","red","","213","","","","choice","","img/green_ll/choose11.jpg","1","136","green","0.5","0.1","0.5","w","",""
"animation","183","127232","0.0-5.0-2.89","633471b7c7b5fa52a0a407a7","bdp_lott","Sat Apr 01 2023 11:47:42 GMT-0400 (Eastern Daylight Time)","236872","green","red","","","","","","","","","","136","","","","","","[{""stimulus"":""img/green_wl/1.jpg"",""time"":52},{""stimulus"":""img/green_wl/2.jpg"",""time"":101},{""stimulus"":""img/green_wl/3.jpg"",""time"":151},{""stimulus"":""img/green_wl/4.jpg"",""time"":201},{""stimulus"":""img/green_wl/5.jpg"",""time"":251},{""stimulus"":""img/green_wl/6.jpg"",""time"":301},{""stimulus"":""img/green_wl/7.jpg"",""time"":351},{""stimulus"":""img/green_wl/8.jpg"",""time"":402},{""stimulus"":""img/green_wl/9.jpg"",""time"":451},{""stimulus"":""img/green_wl/10.jpg"",""time"":502},{""stimulus"":""img/green_wl/11.jpg"",""time"":552}]","[]"
"image-keyboard-response","184","127408","0.0-5.0-1.90","633471b7c7b5fa52a0a407a7","bdp_lott","Sat Apr 01 2023 11:47:42 GMT-0400 (Eastern Daylight Time)","236872","green","red","","175","","","","choice","","img/green_wl/choose11.jpg","2","135","red","0.5","0.1","0.1","l","",""
"animation","185","128009","0.0-5.0-2.90","633471b7c7b5fa52a0a407a7","bdp_lott","Sat Apr 01 2023 11:47:42 GMT-0400 (Eastern Daylight Time)","236872","green","red","","","","","","","","","","135","","","","","","[{""stimulus"":""img/red_wl/1.jpg"",""time"":50},{""stimulus"":""img/red_wl/2.jpg"",""time"":100},{""stimulus"":""img/red_wl/3.jpg"",""time"":150},{""stimulus"":""img/red_wl/4.jpg"",""time"":200},{""stimulus"":""img/red_wl/5.jpg"",""time"":250},{""stimulus"":""img/red_wl/6.jpg"",""time"":301},{""stimulus"":""img/red_wl/7.jpg"",""time"":351},{""stimulus"":""img/red_wl/8.jpg"",""time"":400},{""stimulus"":""img/red_wl/9.jpg"",""time"":451},{""stimulus"":""img/red_wl/10.jpg"",""time"":500},{""stimulus"":""img/red_wl/11.jpg"",""time"":551}]","[]"
"image-keyboard-response","186","128114","0.0-5.0-1.91","633471b7c7b5fa52a0a407a7","bdp_lott","Sat Apr 01 2023 11:47:42 GMT-0400 (Eastern Daylight Time)","236872","green","red","","104","","","","choice","","img/red_wl/choose11.jpg","1","134","green","0.5","0.1","0.5","w","",""
"animation","187","128715","0.0-5.0-2.91","633471b7c7b5fa52a0a407a7","bdp_lott","Sat Apr 01 2023 11:47:42 GMT-0400 (Eastern Daylight Time)","236872","green","red","","","","","","","","","","134","","","","","","[{""stimulus"":""img/green_wl/1.jpg"",""time"":51},{""stimulus"":""img/green_wl/2.jpg"",""time"":101},{""stimulus"":""img/green_wl/3.jpg"",""time"":151},{""stimulus"":""img/green_wl/4.jpg"",""time"":201},{""stimulus"":""img/green_wl/5.jpg"",""time"":251},{""stimulus"":""img/green_wl/6.jpg"",""time"":301},{""stimulus"":""img/green_wl/7.jpg"",""time"":351},{""stimulus"":""img/green_wl/8.jpg"",""time"":401},{""stimulus"":""img/green_wl/9.jpg"",""time"":451},{""stimulus"":""img/green_wl/10.jpg"",""time"":501},{""stimulus"":""img/green_wl/11.jpg"",""time"":551}]","[]"
"image-keyboard-response","188","128885","0.0-5.0-1.92","633471b7c7b5fa52a0a407a7","bdp_lott","Sat Apr 01 2023 11:47:42 GMT-0400 (Eastern Daylight Time)","236872","green","red","","170","","","","choice","","img/green_wl/choose11.jpg","1","133","green","0.5","0.1","0.5","l","",""
"animation","189","129486","0.0-5.0-2.92","633471b7c7b5fa52a0a407a7","bdp_lott","Sat Apr 01 2023 11:47:42 GMT-0400 (Eastern Daylight Time)","236872","green","red","","","","","","","","","","133","","","","","","[{""stimulus"":""img/green_ll/1.jpg"",""time"":50},{""stimulus"":""img/green_ll/2.jpg"",""time"":100},{""stimulus"":""img/green_ll/3.jpg"",""time"":151},{""stimulus"":""img/green_ll/4.jpg"",""time"":200},{""stimulus"":""img/green_ll/5.jpg"",""time"":250},{""stimulus"":""img/green_ll/6.jpg"",""time"":301},{""stimulus"":""img/green_ll/7.jpg"",""time"":350},{""stimulus"":""img/green_ll/8.jpg"",""time"":400},{""stimulus"":""img/green_ll/9.jpg"",""time"":451},{""stimulus"":""img/green_ll/10.jpg"",""time"":501},{""stimulus"":""img/green_ll/11.jpg"",""time"":551}]","[]"
"image-keyboard-response","190","129670","0.0-5.0-1.93","633471b7c7b5fa52a0a407a7","bdp_lott","Sat Apr 01 2023 11:47:42 GMT-0400 (Eastern Daylight Time)","236872","green","red","","184","","","","choice","","img/green_ll/choose11.jpg","1","132","green","0.5","0.1","0.5","l","",""
