"trial_type","trial_index","time_elapsed","internal_node_id","subject_id","task","startTime","totalTime","fairMachine","unfairMachine","view_history","rt","event","trial","time","trialtype","success","stimulus","key_press","roundsLeft","chosen","pFairMachWin","pUnfairMachWin","pTrialWin","outcome","animation_sequence","responses"
"pavlovia","0","4","0.0-0.0","5b608617208f1c000100bdeb","bdp_lott","Wed Apr 12 2023 05:27:27 GMT-0400 (Eastern Daylight Time)","258238","red","green","","","","","","","","","","","","","","","","",""
"instructions","1","6900","0.0-1.0","5b608617208f1c000100bdeb","bdp_lott","Wed Apr 12 2023 05:27:27 GMT-0400 (Eastern Daylight Time)","258238","red","green","[{""page_index"":0,""viewing_time"":6895}]","6896","","","","","","","","","","","","","","",""
"","","","","5b608617208f1c000100bdeb","bdp_lott","Wed Apr 12 2023 05:27:27 GMT-0400 (Eastern Daylight Time)","258238","red","green","","","fullscreenenter","2","9680","fullscreenenter","","","","","","","","","","",""
"fullscreen","2","10652","0.0-2.0","5b608617208f1c000100bdeb","bdp_lott","Wed Apr 12 2023 05:27:27 GMT-0400 (Eastern Daylight Time)","258238","red","green","","","","","","","true","","","","","","","","","",""
"instructions","3","28103","0.0-4.0","5b608617208f1c000100bdeb","bdp_lott","Wed Apr 12 2023 05:27:27 GMT-0400 (Eastern Daylight Time)","258238","red","green","[{""page_index"":0,""viewing_time"":17449}]","17450","","","","","","","","","","","","","","",""
"image-keyboard-response","4","29392","0.0-5.0-1.0","5b608617208f1c000100bdeb","bdp_lott","Wed Apr 12 2023 05:27:27 GMT-0400 (Eastern Daylight Time)","258238","red","green","","1287","","","","choice","","img/red_ll/initchoose11.jpg","1","225","green","0.5","0.5","0.5","l","",""
"animation","5","29997","0.0-5.0-2.0","5b608617208f1c000100bdeb","bdp_lott","Wed Apr 12 2023 05:27:27 GMT-0400 (Eastern Daylight Time)","258238","red","green","","","","","","","","","","225","","","","","","[{""stimulus"":""img/green_ll/1.jpg"",""time"":52},{""stimulus"":""img/green_ll/2.jpg"",""time"":104},{""stimulus"":""img/green_ll/3.jpg"",""time"":151},{""stimulus"":""img/green_ll/4.jpg"",""time"":202},{""stimulus"":""img/green_ll/5.jpg"",""time"":264},{""stimulus"":""img/green_ll/6.jpg"",""time"":301},{""stimulus"":""img/green_ll/7.jpg"",""time"":353},{""stimulus"":""img/green_ll/8.jpg"",""time"":407},{""stimulus"":""img/green_ll/9.jpg"",""time"":458},{""stimulus"":""img/green_ll/10.jpg"",""time"":512},{""stimulus"":""img/green_ll/11.jpg"",""time"":553}]","[]"
"image-keyboard-response","6","31600","0.0-5.0-1.1","5b608617208f1c000100bdeb","bdp_lott","Wed Apr 12 2023 05:27:27 GMT-0400 (Eastern Daylight Time)","258238","red","green","","1603","","","","choice","","img/green_ll/choose11.jpg","2","224","red","0.5","0.5","0.5","w","",""
"animation","7","32202","0.0-5.0-2.1","5b608617208f1c000100bdeb","bdp_lott","Wed Apr 12 2023 05:27:27 GMT-0400 (Eastern Daylight Time)","258238","red","green","","","","","","","","","","224","","","","","","[{""stimulus"":""img/red_lw/1.jpg"",""time"":51},{""stimulus"":""img/red_lw/2.jpg"",""time"":103},{""stimulus"":""img/red_lw/3.jpg"",""time"":159},{""stimulus"":""img/red_lw/4.jpg"",""time"":206},{""stimulus"":""img/red_lw/5.jpg"",""time"":254},{""stimulus"":""img/red_lw/6.jpg"",""time"":302},{""stimulus"":""img/red_lw/7.jpg"",""time"":354},{""stimulus"":""img/red_lw/8.jpg"",""time"":404},{""stimulus"":""img/red_lw/9.jpg"",""time"":463},{""stimulus"":""img/red_lw/10.jpg"",""time"":501},{""stimulus"":""img/red_lw/11.jpg"",""time"":551}]","[]"
"image-keyboard-response","8","33261","0.0-5.0-1.2","5b608617208f1c000100bdeb","bdp_lott","Wed Apr 12 2023 05:27:27 GMT-0400 (Eastern Daylight Time)","258238","red","green","","1057","","","","choice","","img/red_lw/choose11.jpg","1","223","green","0.5","0.5","0.5","w","",""
"animation","9","33870","0.0-5.0-2.2","5b608617208f1c000100bdeb","bdp_lott","Wed Apr 12 2023 05:27:27 GMT-0400 (Eastern Daylight Time)","258238","red","green","","","","","","","","","","223","","","","","","[{""stimulus"":""img/green_ww/1.jpg"",""time"":53},{""stimulus"":""img/green_ww/2.jpg"",""time"":108},{""stimulus"":""img/green_ww/3.jpg"",""time"":158},{""stimulus"":""img/green_ww/4.jpg"",""time"":201},{""stimulus"":""img/green_ww/5.jpg"",""time"":254},{""stimulus"":""img/green_ww/6.jpg"",""time"":302},{""stimulus"":""img/green_ww/7.jpg"",""time"":353},{""stimulus"":""img/green_ww/8.jpg"",""time"":403},{""stimulus"":""img/green_ww/9.jpg"",""time"":461},{""stimulus"":""img/green_ww/10.jpg"",""time"":507},{""stimulus"":""img/green_ww/11.jpg"",""time"":553}]","[]"
"image-keyboard-response","10","35179","0.0-5.0-1.3","5b608617208f1c000100bdeb","bdp_lott","Wed Apr 12 2023 05:27:27 GMT-0400 (Eastern Daylight Time)","258238","red","green","","1308","","","","choice","","img/green_ww/choose11.jpg","2","222","red","0.5","0.5","0.5","l","",""
"animation","11","35783","0.0-5.0-2.3","5b608617208f1c000100bdeb","bdp_lott","Wed Apr 12 2023 05:27:27 GMT-0400 (Eastern Daylight Time)","258238","red","green","","","","","","","","","","222","","","","","","[{""stimulus"":""img/red_wl/1.jpg"",""time"":54},{""stimulus"":""img/red_wl/2.jpg"",""time"":108},{""stimulus"":""img/red_wl/3.jpg"",""time"":152},{""stimulus"":""img/red_wl/4.jpg"",""time"":202},{""stimulus"":""img/red_wl/5.jpg"",""time"":253},{""stimulus"":""img/red_wl/6.jpg"",""time"":305},{""stimulus"":""img/red_wl/7.jpg"",""time"":351},{""stimulus"":""img/red_wl/8.jpg"",""time"":400},{""stimulus"":""img/red_wl/9.jpg"",""time"":450},{""stimulus"":""img/red_wl/10.jpg"",""time"":507},{""stimulus"":""img/red_wl/11.jpg"",""time"":557}]","[]"
"image-keyboard-response","12","36505","0.0-5.0-1.4","5b608617208f1c000100bdeb","bdp_lott","Wed Apr 12 2023 05:27:27 GMT-0400 (Eastern Daylight Time)","258238","red","green","","721","","","","choice","","img/red_wl/choose11.jpg","1","221","green","0.5","0.5","0.5","w","",""
"animation","13","37106","0.0-5.0-2.4","5b608617208f1c000100bdeb","bdp_lott","Wed Apr 12 2023 05:27:27 GMT-0400 (Eastern Daylight Time)","258238","red","green","","","","","","","","","","221","","","","","","[{""stimulus"":""img/green_wl/1.jpg"",""time"":55},{""stimulus"":""img/green_wl/2.jpg"",""time"":113},{""stimulus"":""img/green_wl/3.jpg"",""time"":151},{""stimulus"":""img/green_wl/4.jpg"",""time"":201},{""stimulus"":""img/green_wl/5.jpg"",""time"":254},{""stimulus"":""img/green_wl/6.jpg"",""time"":304},{""stimulus"":""img/green_wl/7.jpg"",""time"":355},{""stimulus"":""img/green_wl/8.jpg"",""time"":404},{""stimulus"":""img/green_wl/9.jpg"",""time"":453},{""stimulus"":""img/green_wl/10.jpg"",""time"":502},{""stimulus"":""img/green_wl/11.jpg"",""time"":553}]","[]"
"image-keyboard-response","14","38007","0.0-5.0-1.5","5b608617208f1c000100bdeb","bdp_lott","Wed Apr 12 2023 05:27:27 GMT-0400 (Eastern Daylight Time)","258238","red","green","","900","","","","choice","","img/green_wl/choose11.jpg","1","220","green","0.5","0.5","0.5","l","",""
"animation","15","38610","0.0-5.0-2.5","5b608617208f1c000100bdeb","bdp_lott","Wed Apr 12 2023 05:27:27 GMT-0400 (Eastern Daylight Time)","258238","red","green","","","","","","","","","","220","","","","","","[{""stimulus"":""img/green_ll/1.jpg"",""time"":51},{""stimulus"":""img/green_ll/2.jpg"",""time"":115},{""stimulus"":""img/green_ll/3.jpg"",""time"":160},{""stimulus"":""img/green_ll/4.jpg"",""time"":209},{""stimulus"":""img/green_ll/5.jpg"",""time"":257},{""stimulus"":""img/green_ll/6.jpg"",""time"":301},{""stimulus"":""img/green_ll/7.jpg"",""time"":365},{""stimulus"":""img/green_ll/8.jpg"",""time"":410},{""stimulus"":""img/green_ll/9.jpg"",""time"":461},{""stimulus"":""img/green_ll/10.jpg"",""time"":508},{""stimulus"":""img/green_ll/11.jpg"",""time"":553}]","[]"
"image-keyboard-response","16","40202","0.0-5.0-1.6","5b608617208f1c000100bdeb","bdp_lott","Wed Apr 12 2023 05:27:27 GMT-0400 (Eastern Daylight Time)","258238","red","green","","1592","","","","choice","","img/green_ll/choose11.jpg","1","219","green","0.5","0.5","0.5","l","",""
"animation","17","40803","0.0-5.0-2.6","5b608617208f1c000100bdeb","bdp_lott","Wed Apr 12 2023 05:27:27 GMT-0400 (Eastern Daylight Time)","258238","red","green","","","","","","","","","","219","","","","","","[{""stimulus"":""img/green_ll/1.jpg"",""time"":53},{""stimulus"":""img/green_ll/2.jpg"",""time"":101},{""stimulus"":""img/green_ll/3.jpg"",""time"":152},{""stimulus"":""img/green_ll/4.jpg"",""time"":213},{""stimulus"":""img/green_ll/5.jpg"",""time"":253},{""stimulus"":""img/green_ll/6.jpg"",""time"":302},{""stimulus"":""img/green_ll/7.jpg"",""time"":366},{""stimulus"":""img/green_ll/8.jpg"",""time"":403},{""stimulus"":""img/green_ll/9.jpg"",""time"":455},{""stimulus"":""img/green_ll/10.jpg"",""time"":502},{""stimulus"":""img/green_ll/11.jpg"",""time"":553}]","[]"
"image-keyboard-response","18","41888","0.0-5.0-1.7","5b608617208f1c000100bdeb","bdp_lott","Wed Apr 12 2023 05:27:27 GMT-0400 (Eastern Daylight Time)","258238","red","green","","1084","","","","choice","","img/green_ll/choose11.jpg","2","218","red","0.5","0.5","0.5","w","",""
"animation","19","42495","0.0-5.0-2.7","5b608617208f1c000100bdeb","bdp_lott","Wed Apr 12 2023 05:27:27 GMT-0400 (Eastern Daylight Time)","258238","red","green","","","","","","","","","","218","","","","","","[{""stimulus"":""img/red_lw/1.jpg"",""time"":51},{""stimulus"":""img/red_lw/2.jpg"",""time"":101},{""stimulus"":""img/red_lw/3.jpg"",""time"":151},{""stimulus"":""img/red_lw/4.jpg"",""time"":208},{""stimulus"":""img/red_lw/5.jpg"",""time"":252},{""stimulus"":""img/red_lw/6.jpg"",""time"":302},{""stimulus"":""img/red_lw/7.jpg"",""time"":350},{""stimulus"":""img/red_lw/8.jpg"",""time"":406},{""stimulus"":""img/red_lw/9.jpg"",""time"":451},{""stimulus"":""img/red_lw/10.jpg"",""time"":501},{""stimulus"":""img/red_lw/11.jpg"",""time"":550}]","[]"
"image-keyboard-response","20","44130","0.0-5.0-1.8","5b608617208f1c000100bdeb","bdp_lott","Wed Apr 12 2023 05:27:27 GMT-0400 (Eastern Daylight Time)","258238","red","green","","1635","","","","choice","","img/red_lw/choose11.jpg","2","217","red","0.5","0.5","0.5","l","",""
"animation","21","44731","0.0-5.0-2.8","5b608617208f1c000100bdeb","bdp_lott","Wed Apr 12 2023 05:27:27 GMT-0400 (Eastern Daylight Time)","258238","red","green","","","","","","","","","","217","","","","","","[{""stimulus"":""img/red_ll/1.jpg"",""time"":61},{""stimulus"":""img/red_ll/2.jpg"",""time"":108},{""stimulus"":""img/red_ll/3.jpg"",""time"":153},{""stimulus"":""img/red_ll/4.jpg"",""time"":204},{""stimulus"":""img/red_ll/5.jpg"",""time"":263},{""stimulus"":""img/red_ll/6.jpg"",""time"":301},{""stimulus"":""img/red_ll/7.jpg"",""time"":354},{""stimulus"":""img/red_ll/8.jpg"",""time"":403},{""stimulus"":""img/red_ll/9.jpg"",""time"":454},{""stimulus"":""img/red_ll/10.jpg"",""time"":500},{""stimulus"":""img/red_ll/11.jpg"",""time"":554}]","[]"
"image-keyboard-response","22","45915","0.0-5.0-1.9","5b608617208f1c000100bdeb","bdp_lott","Wed Apr 12 2023 05:27:27 GMT-0400 (Eastern Daylight Time)","258238","red","green","","1183","","","","choice","","img/red_ll/choose11.jpg","1","216","green","0.5","0.5","0.5","w","",""
"animation","23","46515","0.0-5.0-2.9","5b608617208f1c000100bdeb","bdp_lott","Wed Apr 12 2023 05:27:27 GMT-0400 (Eastern Daylight Time)","258238","red","green","","","","","","","","","","216","","","","","","[{""stimulus"":""img/green_wl/1.jpg"",""time"":54},{""stimulus"":""img/green_wl/2.jpg"",""time"":102},{""stimulus"":""img/green_wl/3.jpg"",""time"":153},{""stimulus"":""img/green_wl/4.jpg"",""time"":210},{""stimulus"":""img/green_wl/5.jpg"",""time"":266},{""stimulus"":""img/green_wl/6.jpg"",""time"":315},{""stimulus"":""img/green_wl/7.jpg"",""time"":352},{""stimulus"":""img/green_wl/8.jpg"",""time"":402},{""stimulus"":""img/green_wl/9.jpg"",""time"":451},{""stimulus"":""img/green_wl/10.jpg"",""time"":501},{""stimulus"":""img/green_wl/11.jpg"",""time"":551}]","[]"
"image-keyboard-response","24","47723","0.0-5.0-1.10","5b608617208f1c000100bdeb","bdp_lott","Wed Apr 12 2023 05:27:27 GMT-0400 (Eastern Daylight Time)","258238","red","green","","1207","","","","choice","","img/green_wl/choose11.jpg","2","215","red","0.5","0.5","0.5","w","",""
"animation","25","48339","0.0-5.0-2.10","5b608617208f1c000100bdeb","bdp_lott","Wed Apr 12 2023 05:27:27 GMT-0400 (Eastern Daylight Time)","258238","red","green","","","","","","","","","","215","","","","","","[{""stimulus"":""img/red_ww/1.jpg"",""time"":51},{""stimulus"":""img/red_ww/2.jpg"",""time"":101},{""stimulus"":""img/red_ww/3.jpg"",""time"":155},{""stimulus"":""img/red_ww/4.jpg"",""time"":202},{""stimulus"":""img/red_ww/5.jpg"",""time"":252},{""stimulus"":""img/red_ww/6.jpg"",""time"":301},{""stimulus"":""img/red_ww/7.jpg"",""time"":351},{""stimulus"":""img/red_ww/8.jpg"",""time"":403},{""stimulus"":""img/red_ww/9.jpg"",""time"":463},{""stimulus"":""img/red_ww/10.jpg"",""time"":512},{""stimulus"":""img/red_ww/11.jpg"",""time"":550}]","[]"
"image-keyboard-response","26","49635","0.0-5.0-1.11","5b608617208f1c000100bdeb","bdp_lott","Wed Apr 12 2023 05:27:27 GMT-0400 (Eastern Daylight Time)","258238","red","green","","1296","","","","choice","","img/red_ww/choose11.jpg","1","214","green","0.5","0.5","0.5","w","",""
"animation","27","50242","0.0-5.0-2.11","5b608617208f1c000100bdeb","bdp_lott","Wed Apr 12 2023 05:27:27 GMT-0400 (Eastern Daylight Time)","258238","red","green","","","","","","","","","","214","","","","","","[{""stimulus"":""img/green_ww/1.jpg"",""time"":62},{""stimulus"":""img/green_ww/2.jpg"",""time"":103},{""stimulus"":""img/green_ww/3.jpg"",""time"":154},{""stimulus"":""img/green_ww/4.jpg"",""time"":201},{""stimulus"":""img/green_ww/5.jpg"",""time"":253},{""stimulus"":""img/green_ww/6.jpg"",""time"":304},{""stimulus"":""img/green_ww/7.jpg"",""time"":352},{""stimulus"":""img/green_ww/8.jpg"",""time"":402},{""stimulus"":""img/green_ww/9.jpg"",""time"":463},{""stimulus"":""img/green_ww/10.jpg"",""time"":513},{""stimulus"":""img/green_ww/11.jpg"",""time"":563}]","[]"
"image-keyboard-response","28","51105","0.0-5.0-1.12","5b608617208f1c000100bdeb","bdp_lott","Wed Apr 12 2023 05:27:27 GMT-0400 (Eastern Daylight Time)","258238","red","green","","862","","","","choice","","img/green_ww/choose11.jpg","2","213","red","0.5","0.5","0.5","l","",""
"animation","29","51714","0.0-5.0-2.12","5b608617208f1c000100bdeb","bdp_lott","Wed Apr 12 2023 05:27:27 GMT-0400 (Eastern Daylight Time)","258238","red","green","","","","","","","","","","213","","","","","","[{""stimulus"":""img/red_wl/1.jpg"",""time"":51},{""stimulus"":""img/red_wl/2.jpg"",""time"":101},{""stimulus"":""img/red_wl/3.jpg"",""time"":151},{""stimulus"":""img/red_wl/4.jpg"",""time"":204},{""stimulus"":""img/red_wl/5.jpg"",""time"":255},{""stimulus"":""img/red_wl/6.jpg"",""time"":302},{""stimulus"":""img/red_wl/7.jpg"",""time"":363},{""stimulus"":""img/red_wl/8.jpg"",""time"":405},{""stimulus"":""img/red_wl/9.jpg"",""time"":467},{""stimulus"":""img/red_wl/10.jpg"",""time"":504},{""stimulus"":""img/red_wl/11.jpg"",""time"":553}]","[]"
"image-keyboard-response","30","52567","0.0-5.0-1.13","5b608617208f1c000100bdeb","bdp_lott","Wed Apr 12 2023 05:27:27 GMT-0400 (Eastern Daylight Time)","258238","red","green","","852","","","","choice","","img/red_wl/choose11.jpg","2","212","red","0.5","0.5","0.5","l","",""
"animation","31","53171","0.0-5.0-2.13","5b608617208f1c000100bdeb","bdp_lott","Wed Apr 12 2023 05:27:27 GMT-0400 (Eastern Daylight Time)","258238","red","green","","","","","","","","","","212","","","","","","[{""stimulus"":""img/red_wl/1.jpg"",""time"":52},{""stimulus"":""img/red_wl/2.jpg"",""time"":101},{""stimulus"":""img/red_wl/3.jpg"",""time"":151},{""stimulus"":""img/red_wl/4.jpg"",""time"":201},{""stimulus"":""img/red_wl/5.jpg"",""time"":264},{""stimulus"":""img/red_wl/6.jpg"",""time"":302},{""stimulus"":""img/red_wl/7.jpg"",""time"":356},{""stimulus"":""img/red_wl/8.jpg"",""time"":406},{""stimulus"":""img/red_wl/9.jpg"",""time"":466},{""stimulus"":""img/red_wl/10.jpg"",""time"":504},{""stimulus"":""img/red_wl/11.jpg"",""time"":553}]","[]"
"image-keyboard-response","32","53682","0.0-5.0-1.14","5b608617208f1c000100bdeb","bdp_lott","Wed Apr 12 2023 05:27:27 GMT-0400 (Eastern Daylight Time)","258238","red","green","","510","","","","choice","","img/red_wl/choose11.jpg","1","211","green","0.5","0.5","0.5","l","",""
"animation","33","54283","0.0-5.0-2.14","5b608617208f1c000100bdeb","bdp_lott","Wed Apr 12 2023 05:27:27 GMT-0400 (Eastern Daylight Time)","258238","red","green","","","","","","","","","","211","","","","","","[{""stimulus"":""img/green_ll/1.jpg"",""time"":51},{""stimulus"":""img/green_ll/2.jpg"",""time"":102},{""stimulus"":""img/green_ll/3.jpg"",""time"":151},{""stimulus"":""img/green_ll/4.jpg"",""time"":202},{""stimulus"":""img/green_ll/5.jpg"",""time"":264},{""stimulus"":""img/green_ll/6.jpg"",""time"":310},{""stimulus"":""img/green_ll/7.jpg"",""time"":352},{""stimulus"":""img/green_ll/8.jpg"",""time"":400},{""stimulus"":""img/green_ll/9.jpg"",""time"":452},{""stimulus"":""img/green_ll/10.jpg"",""time"":506},{""stimulus"":""img/green_ll/11.jpg"",""time"":568}]","[]"
"image-keyboard-response","34","55027","0.0-5.0-1.15","5b608617208f1c000100bdeb","bdp_lott","Wed Apr 12 2023 05:27:27 GMT-0400 (Eastern Daylight Time)","258238","red","green","","743","","","","choice","","img/green_ll/choose11.jpg","1","210","green","0.5","0.5","0.5","l","",""
"animation","35","55628","0.0-5.0-2.15","5b608617208f1c000100bdeb","bdp_lott","Wed Apr 12 2023 05:27:27 GMT-0400 (Eastern Daylight Time)","258238","red","green","","","","","","","","","","210","","","","","","[{""stimulus"":""img/green_ll/1.jpg"",""time"":52},{""stimulus"":""img/green_ll/2.jpg"",""time"":102},{""stimulus"":""img/green_ll/3.jpg"",""time"":165},{""stimulus"":""img/green_ll/4.jpg"",""time"":203},{""stimulus"":""img/green_ll/5.jpg"",""time"":252},{""stimulus"":""img/green_ll/6.jpg"",""time"":302},{""stimulus"":""img/green_ll/7.jpg"",""time"":354},{""stimulus"":""img/green_ll/8.jpg"",""time"":413},{""stimulus"":""img/green_ll/9.jpg"",""time"":454},{""stimulus"":""img/green_ll/10.jpg"",""time"":503},{""stimulus"":""img/green_ll/11.jpg"",""time"":552}]","[]"
"image-keyboard-response","36","56557","0.0-5.0-1.16","5b608617208f1c000100bdeb","bdp_lott","Wed Apr 12 2023 05:27:27 GMT-0400 (Eastern Daylight Time)","258238","red","green","","928","","","","choice","","img/green_ll/choose11.jpg","2","209","red","0.5","0.5","0.5","l","",""
"animation","37","57162","0.0-5.0-2.16","5b608617208f1c000100bdeb","bdp_lott","Wed Apr 12 2023 05:27:27 GMT-0400 (Eastern Daylight Time)","258238","red","green","","","","","","","","","","209","","","","","","[{""stimulus"":""img/red_ll/1.jpg"",""time"":50},{""stimulus"":""img/red_ll/2.jpg"",""time"":106},{""stimulus"":""img/red_ll/3.jpg"",""time"":151},{""stimulus"":""img/red_ll/4.jpg"",""time"":207},{""stimulus"":""img/red_ll/5.jpg"",""time"":252},{""stimulus"":""img/red_ll/6.jpg"",""time"":315},{""stimulus"":""img/red_ll/7.jpg"",""time"":365},{""stimulus"":""img/red_ll/8.jpg"",""time"":416},{""stimulus"":""img/red_ll/9.jpg"",""time"":465},{""stimulus"":""img/red_ll/10.jpg"",""time"":512},{""stimulus"":""img/red_ll/11.jpg"",""time"":553}]","[]"
"image-keyboard-response","38","57663","0.0-5.0-1.17","5b608617208f1c000100bdeb","bdp_lott","Wed Apr 12 2023 05:27:27 GMT-0400 (Eastern Daylight Time)","258238","red","green","","500","","","","choice","","img/red_ll/choose11.jpg","1","208","green","0.5","0.5","0.5","w","",""
"animation","39","58265","0.0-5.0-2.17","5b608617208f1c000100bdeb","bdp_lott","Wed Apr 12 2023 05:27:27 GMT-0400 (Eastern Daylight Time)","258238","red","green","","","","","","","","","","208","","","","","","[{""stimulus"":""img/green_wl/1.jpg"",""time"":51},{""stimulus"":""img/green_wl/2.jpg"",""time"":104},{""stimulus"":""img/green_wl/3.jpg"",""time"":158},{""stimulus"":""img/green_wl/4.jpg"",""time"":207},{""stimulus"":""img/green_wl/5.jpg"",""time"":251},{""stimulus"":""img/green_wl/6.jpg"",""time"":301},{""stimulus"":""img/green_wl/7.jpg"",""time"":350},{""stimulus"":""img/green_wl/8.jpg"",""time"":403},{""stimulus"":""img/green_wl/9.jpg"",""time"":452},{""stimulus"":""img/green_wl/10.jpg"",""time"":508},{""stimulus"":""img/green_wl/11.jpg"",""time"":551}]","[]"
"image-keyboard-response","40","59239","0.0-5.0-1.18","5b608617208f1c000100bdeb","bdp_lott","Wed Apr 12 2023 05:27:27 GMT-0400 (Eastern Daylight Time)","258238","red","green","","974","","","","choice","","img/green_wl/choose11.jpg","1","207","green","0.5","0.5","0.5","w","",""
"animation","41","59840","0.0-5.0-2.18","5b608617208f1c000100bdeb","bdp_lott","Wed Apr 12 2023 05:27:27 GMT-0400 (Eastern Daylight Time)","258238","red","green","","","","","","","","","","207","","","","","","[{""stimulus"":""img/green_wl/1.jpg"",""time"":50},{""stimulus"":""img/green_wl/2.jpg"",""time"":113},{""stimulus"":""img/green_wl/3.jpg"",""time"":150},{""stimulus"":""img/green_wl/4.jpg"",""time"":204},{""stimulus"":""img/green_wl/5.jpg"",""time"":253},{""stimulus"":""img/green_wl/6.jpg"",""time"":303},{""stimulus"":""img/green_wl/7.jpg"",""time"":360},{""stimulus"":""img/green_wl/8.jpg"",""time"":408},{""stimulus"":""img/green_wl/9.jpg"",""time"":450},{""stimulus"":""img/green_wl/10.jpg"",""time"":500},{""stimulus"":""img/green_wl/11.jpg"",""time"":553}]","[]"
"image-keyboard-response","42","60609","0.0-5.0-1.19","5b608617208f1c000100bdeb","bdp_lott","Wed Apr 12 2023 05:27:27 GMT-0400 (Eastern Daylight Time)","258238","red","green","","768","","","","choice","","img/green_wl/choose11.jpg","1","206","green","0.5","0.5","0.5","l","",""
"animation","43","61223","0.0-5.0-2.19","5b608617208f1c000100bdeb","bdp_lott","Wed Apr 12 2023 05:27:27 GMT-0400 (Eastern Daylight Time)","258238","red","green","","","","","","","","","","206","","","","","","[{""stimulus"":""img/green_ll/1.jpg"",""time"":66},{""stimulus"":""img/green_ll/2.jpg"",""time"":112},{""stimulus"":""img/green_ll/3.jpg"",""time"":158},{""stimulus"":""img/green_ll/4.jpg"",""time"":202},{""stimulus"":""img/green_ll/5.jpg"",""time"":252},{""stimulus"":""img/green_ll/6.jpg"",""time"":301},{""stimulus"":""img/green_ll/7.jpg"",""time"":364},{""stimulus"":""img/green_ll/8.jpg"",""time"":402},{""stimulus"":""img/green_ll/9.jpg"",""time"":458},{""stimulus"":""img/green_ll/10.jpg"",""time"":501},{""stimulus"":""img/green_ll/11.jpg"",""time"":551}]","[]"
"image-keyboard-response","44","62281","0.0-5.0-1.20","5b608617208f1c000100bdeb","bdp_lott","Wed Apr 12 2023 05:27:27 GMT-0400 (Eastern Daylight Time)","258238","red","green","","1057","","","","choice","","img/green_ll/choose11.jpg","2","205","red","0.5","0.5","0.5","l","",""
"animation","45","62892","0.0-5.0-2.20","5b608617208f1c000100bdeb","bdp_lott","Wed Apr 12 2023 05:27:27 GMT-0400 (Eastern Daylight Time)","258238","red","green","","","","","","","","","","205","","","","","","[{""stimulus"":""img/red_ll/1.jpg"",""time"":53},{""stimulus"":""img/red_ll/2.jpg"",""time"":103},{""stimulus"":""img/red_ll/3.jpg"",""time"":156},{""stimulus"":""img/red_ll/4.jpg"",""time"":201},{""stimulus"":""img/red_ll/5.jpg"",""time"":260},{""stimulus"":""img/red_ll/6.jpg"",""time"":306},{""stimulus"":""img/red_ll/7.jpg"",""time"":352},{""stimulus"":""img/red_ll/8.jpg"",""time"":401},{""stimulus"":""img/red_ll/9.jpg"",""time"":454},{""stimulus"":""img/red_ll/10.jpg"",""time"":504},{""stimulus"":""img/red_ll/11.jpg"",""time"":555}]","[]"
"image-keyboard-response","46","63583","0.0-5.0-1.21","5b608617208f1c000100bdeb","bdp_lott","Wed Apr 12 2023 05:27:27 GMT-0400 (Eastern Daylight Time)","258238","red","green","","690","","","","choice","","img/red_ll/choose11.jpg","2","204","red","0.5","0.5","0.5","l","",""
"animation","47","64188","0.0-5.0-2.21","5b608617208f1c000100bdeb","bdp_lott","Wed Apr 12 2023 05:27:27 GMT-0400 (Eastern Daylight Time)","258238","red","green","","","","","","","","","","204","","","","","","[{""stimulus"":""img/red_ll/1.jpg"",""time"":53},{""stimulus"":""img/red_ll/2.jpg"",""time"":103},{""stimulus"":""img/red_ll/3.jpg"",""time"":162},{""stimulus"":""img/red_ll/4.jpg"",""time"":209},{""stimulus"":""img/red_ll/5.jpg"",""time"":253},{""stimulus"":""img/red_ll/6.jpg"",""time"":305},{""stimulus"":""img/red_ll/7.jpg"",""time"":364},{""stimulus"":""img/red_ll/8.jpg"",""time"":407},{""stimulus"":""img/red_ll/9.jpg"",""time"":455},{""stimulus"":""img/red_ll/10.jpg"",""time"":502},{""stimulus"":""img/red_ll/11.jpg"",""time"":564}]","[]"
"image-keyboard-response","48","64609","0.0-5.0-1.22","5b608617208f1c000100bdeb","bdp_lott","Wed Apr 12 2023 05:27:27 GMT-0400 (Eastern Daylight Time)","258238","red","green","","420","","","","choice","","img/red_ll/choose11.jpg","1","203","green","0.5","0.5","0.5","w","",""
"animation","49","65212","0.0-5.0-2.22","5b608617208f1c000100bdeb","bdp_lott","Wed Apr 12 2023 05:27:27 GMT-0400 (Eastern Daylight Time)","258238","red","green","","","","","","","","","","203","","","","","","[{""stimulus"":""img/green_wl/1.jpg"",""time"":53},{""stimulus"":""img/green_wl/2.jpg"",""time"":110},{""stimulus"":""img/green_wl/3.jpg"",""time"":152},{""stimulus"":""img/green_wl/4.jpg"",""time"":202},{""stimulus"":""img/green_wl/5.jpg"",""time"":259},{""stimulus"":""img/green_wl/6.jpg"",""time"":304},{""stimulus"":""img/green_wl/7.jpg"",""time"":352},{""stimulus"":""img/green_wl/8.jpg"",""time"":401},{""stimulus"":""img/green_wl/9.jpg"",""time"":453},{""stimulus"":""img/green_wl/10.jpg"",""time"":501},{""stimulus"":""img/green_wl/11.jpg"",""time"":553}]","[]"
"image-keyboard-response","50","65820","0.0-5.0-1.23","5b608617208f1c000100bdeb","bdp_lott","Wed Apr 12 2023 05:27:27 GMT-0400 (Eastern Daylight Time)","258238","red","green","","607","","","","choice","","img/green_wl/choose11.jpg","1","202","green","0.5","0.5","0.5","l","",""
"animation","51","66432","0.0-5.0-2.23","5b608617208f1c000100bdeb","bdp_lott","Wed Apr 12 2023 05:27:27 GMT-0400 (Eastern Daylight Time)","258238","red","green","","","","","","","","","","202","","","","","","[{""stimulus"":""img/green_ll/1.jpg"",""time"":53},{""stimulus"":""img/green_ll/2.jpg"",""time"":103},{""stimulus"":""img/green_ll/3.jpg"",""time"":157},{""stimulus"":""img/green_ll/4.jpg"",""time"":207},{""stimulus"":""img/green_ll/5.jpg"",""time"":253},{""stimulus"":""img/green_ll/6.jpg"",""time"":303},{""stimulus"":""img/green_ll/7.jpg"",""time"":357},{""stimulus"":""img/green_ll/8.jpg"",""time"":402},{""stimulus"":""img/green_ll/9.jpg"",""time"":457},{""stimulus"":""img/green_ll/10.jpg"",""time"":502},{""stimulus"":""img/green_ll/11.jpg"",""time"":566}]","[]"
"image-keyboard-response","52","67015","0.0-5.0-1.24","5b608617208f1c000100bdeb","bdp_lott","Wed Apr 12 2023 05:27:27 GMT-0400 (Eastern Daylight Time)","258238","red","green","","582","","","","choice","","img/green_ll/choose11.jpg","1","201","green","0.5","0.5","0.5","l","",""
"animation","53","67616","0.0-5.0-2.24","5b608617208f1c000100bdeb","bdp_lott","Wed Apr 12 2023 05:27:27 GMT-0400 (Eastern Daylight Time)","258238","red","green","","","","","","","","","","201","","","","","","[{""stimulus"":""img/green_ll/1.jpg"",""time"":65},{""stimulus"":""img/green_ll/2.jpg"",""time"":110},{""stimulus"":""img/green_ll/3.jpg"",""time"":158},{""stimulus"":""img/green_ll/4.jpg"",""time"":203},{""stimulus"":""img/green_ll/5.jpg"",""time"":260},{""stimulus"":""img/green_ll/6.jpg"",""time"":309},{""stimulus"":""img/green_ll/7.jpg"",""time"":354},{""stimulus"":""img/green_ll/8.jpg"",""time"":402},{""stimulus"":""img/green_ll/9.jpg"",""time"":451},{""stimulus"":""img/green_ll/10.jpg"",""time"":503},{""stimulus"":""img/green_ll/11.jpg"",""time"":554}]","[]"
"image-keyboard-response","54","68573","0.0-5.0-1.25","5b608617208f1c000100bdeb","bdp_lott","Wed Apr 12 2023 05:27:27 GMT-0400 (Eastern Daylight Time)","258238","red","green","","956","","","","choice","","img/green_ll/choose11.jpg","1","200","green","0.5","0.5","0.5","w","",""
"animation","55","69176","0.0-5.0-2.25","5b608617208f1c000100bdeb","bdp_lott","Wed Apr 12 2023 05:27:27 GMT-0400 (Eastern Daylight Time)","258238","red","green","","","","","","","","","","200","","","","","","[{""stimulus"":""img/green_wl/1.jpg"",""time"":59},{""stimulus"":""img/green_wl/2.jpg"",""time"":103},{""stimulus"":""img/green_wl/3.jpg"",""time"":162},{""stimulus"":""img/green_wl/4.jpg"",""time"":212},{""stimulus"":""img/green_wl/5.jpg"",""time"":251},{""stimulus"":""img/green_wl/6.jpg"",""time"":304},{""stimulus"":""img/green_wl/7.jpg"",""time"":354},{""stimulus"":""img/green_wl/8.jpg"",""time"":404},{""stimulus"":""img/green_wl/9.jpg"",""time"":464},{""stimulus"":""img/green_wl/10.jpg"",""time"":502},{""stimulus"":""img/green_wl/11.jpg"",""time"":555}]","[]"
"image-keyboard-response","56","69938","0.0-5.0-1.26","5b608617208f1c000100bdeb","bdp_lott","Wed Apr 12 2023 05:27:27 GMT-0400 (Eastern Daylight Time)","258238","red","green","","761","","","","choice","","img/green_wl/choose11.jpg","2","199","red","0.5","0.5","0.5","w","",""
"animation","57","70544","0.0-5.0-2.26","5b608617208f1c000100bdeb","bdp_lott","Wed Apr 12 2023 05:27:27 GMT-0400 (Eastern Daylight Time)","258238","red","green","","","","","","","","","","199","","","","","","[{""stimulus"":""img/red_ww/1.jpg"",""time"":52},{""stimulus"":""img/red_ww/2.jpg"",""time"":115},{""stimulus"":""img/red_ww/3.jpg"",""time"":160},{""stimulus"":""img/red_ww/4.jpg"",""time"":205},{""stimulus"":""img/red_ww/5.jpg"",""time"":263},{""stimulus"":""img/red_ww/6.jpg"",""time"":301},{""stimulus"":""img/red_ww/7.jpg"",""time"":360},{""stimulus"":""img/red_ww/8.jpg"",""time"":408},{""stimulus"":""img/red_ww/9.jpg"",""time"":453},{""stimulus"":""img/red_ww/10.jpg"",""time"":501},{""stimulus"":""img/red_ww/11.jpg"",""time"":557}]","[]"
"image-keyboard-response","58","71124","0.0-5.0-1.27","5b608617208f1c000100bdeb","bdp_lott","Wed Apr 12 2023 05:27:27 GMT-0400 (Eastern Daylight Time)","258238","red","green","","579","","","","choice","","img/red_ww/choose11.jpg","2","198","red","0.5","0.5","0.5","l","",""
"animation","59","71735","0.0-5.0-2.27","5b608617208f1c000100bdeb","bdp_lott","Wed Apr 12 2023 05:27:27 GMT-0400 (Eastern Daylight Time)","258238","red","green","","","","","","","","","","198","","","","","","[{""stimulus"":""img/red_wl/1.jpg"",""time"":51},{""stimulus"":""img/red_wl/2.jpg"",""time"":100},{""stimulus"":""img/red_wl/3.jpg"",""time"":153},{""stimulus"":""img/red_wl/4.jpg"",""time"":211},{""stimulus"":""img/red_wl/5.jpg"",""time"":261},{""stimulus"":""img/red_wl/6.jpg"",""time"":311},{""stimulus"":""img/red_wl/7.jpg"",""time"":350},{""stimulus"":""img/red_wl/8.jpg"",""time"":403},{""stimulus"":""img/red_wl/9.jpg"",""time"":452},{""stimulus"":""img/red_wl/10.jpg"",""time"":500},{""stimulus"":""img/red_wl/11.jpg"",""time"":553}]","[]"
"image-keyboard-response","60","72158","0.0-5.0-1.28","5b608617208f1c000100bdeb","bdp_lott","Wed Apr 12 2023 05:27:27 GMT-0400 (Eastern Daylight Time)","258238","red","green","","422","","","","choice","","img/red_wl/choose11.jpg","2","197","red","0.5","0.5","0.5","w","",""
"animation","61","72760","0.0-5.0-2.28","5b608617208f1c000100bdeb","bdp_lott","Wed Apr 12 2023 05:27:27 GMT-0400 (Eastern Daylight Time)","258238","red","green","","","","","","","","","","197","","","","","","[{""stimulus"":""img/red_ww/1.jpg"",""time"":55},{""stimulus"":""img/red_ww/2.jpg"",""time"":105},{""stimulus"":""img/red_ww/3.jpg"",""time"":154},{""stimulus"":""img/red_ww/4.jpg"",""time"":203},{""stimulus"":""img/red_ww/5.jpg"",""time"":257},{""stimulus"":""img/red_ww/6.jpg"",""time"":305},{""stimulus"":""img/red_ww/7.jpg"",""time"":351},{""stimulus"":""img/red_ww/8.jpg"",""time"":413},{""stimulus"":""img/red_ww/9.jpg"",""time"":451},{""stimulus"":""img/red_ww/10.jpg"",""time"":501},{""stimulus"":""img/red_ww/11.jpg"",""time"":565}]","[]"
"image-keyboard-response","62","73335","0.0-5.0-1.29","5b608617208f1c000100bdeb","bdp_lott","Wed Apr 12 2023 05:27:27 GMT-0400 (Eastern Daylight Time)","258238","red","green","","574","","","","choice","","img/red_ww/choose11.jpg","2","196","red","0.5","0.5","0.5","l","",""
"animation","63","73936","0.0-5.0-2.29","5b608617208f1c000100bdeb","bdp_lott","Wed Apr 12 2023 05:27:27 GMT-0400 (Eastern Daylight Time)","258238","red","green","","","","","","","","","","196","","","","","","[{""stimulus"":""img/red_wl/1.jpg"",""time"":52},{""stimulus"":""img/red_wl/2.jpg"",""time"":102},{""stimulus"":""img/red_wl/3.jpg"",""time"":153},{""stimulus"":""img/red_wl/4.jpg"",""time"":204},{""stimulus"":""img/red_wl/5.jpg"",""time"":252},{""stimulus"":""img/red_wl/6.jpg"",""time"":313},{""stimulus"":""img/red_wl/7.jpg"",""time"":351},{""stimulus"":""img/red_wl/8.jpg"",""time"":404},{""stimulus"":""img/red_wl/9.jpg"",""time"":451},{""stimulus"":""img/red_wl/10.jpg"",""time"":505},{""stimulus"":""img/red_wl/11.jpg"",""time"":555}]","[]"
"image-keyboard-response","64","74361","0.0-5.0-1.30","5b608617208f1c000100bdeb","bdp_lott","Wed Apr 12 2023 05:27:27 GMT-0400 (Eastern Daylight Time)","258238","red","green","","424","","","","choice","","img/red_wl/choose11.jpg","2","195","red","0.5","0.5","0.5","l","",""
"animation","65","74965","0.0-5.0-2.30","5b608617208f1c000100bdeb","bdp_lott","Wed Apr 12 2023 05:27:27 GMT-0400 (Eastern Daylight Time)","258238","red","green","","","","","","","","","","195","","","","","","[{""stimulus"":""img/red_wl/1.jpg"",""time"":54},{""stimulus"":""img/red_wl/2.jpg"",""time"":104},{""stimulus"":""img/red_wl/3.jpg"",""time"":158},{""stimulus"":""img/red_wl/4.jpg"",""time"":205},{""stimulus"":""img/red_wl/5.jpg"",""time"":253},{""stimulus"":""img/red_wl/6.jpg"",""time"":301},{""stimulus"":""img/red_wl/7.jpg"",""time"":363},{""stimulus"":""img/red_wl/8.jpg"",""time"":406},{""stimulus"":""img/red_wl/9.jpg"",""time"":455},{""stimulus"":""img/red_wl/10.jpg"",""time"":505},{""stimulus"":""img/red_wl/11.jpg"",""time"":551}]","[]"
"image-keyboard-response","66","75389","0.0-5.0-1.31","5b608617208f1c000100bdeb","bdp_lott","Wed Apr 12 2023 05:27:27 GMT-0400 (Eastern Daylight Time)","258238","red","green","","423","","","","choice","","img/red_wl/choose11.jpg","1","194","green","0.5","0.5","0.5","l","",""
"animation","67","76000","0.0-5.0-2.31","5b608617208f1c000100bdeb","bdp_lott","Wed Apr 12 2023 05:27:27 GMT-0400 (Eastern Daylight Time)","258238","red","green","","","","","","","","","","194","","","","","","[{""stimulus"":""img/green_ll/1.jpg"",""time"":53},{""stimulus"":""img/green_ll/2.jpg"",""time"":113},{""stimulus"":""img/green_ll/3.jpg"",""time"":153},{""stimulus"":""img/green_ll/4.jpg"",""time"":203},{""stimulus"":""img/green_ll/5.jpg"",""time"":251},{""stimulus"":""img/green_ll/6.jpg"",""time"":302},{""stimulus"":""img/green_ll/7.jpg"",""time"":356},{""stimulus"":""img/green_ll/8.jpg"",""time"":416},{""stimulus"":""img/green_ll/9.jpg"",""time"":462},{""stimulus"":""img/green_ll/10.jpg"",""time"":511},{""stimulus"":""img/green_ll/11.jpg"",""time"":551}]","[]"
"image-keyboard-response","68","76350","0.0-5.0-1.32","5b608617208f1c000100bdeb","bdp_lott","Wed Apr 12 2023 05:27:27 GMT-0400 (Eastern Daylight Time)","258238","red","green","","349","","","","choice","","img/green_ll/choose11.jpg","1","193","green","0.5","0.5","0.5","l","",""
"animation","69","76962","0.0-5.0-2.32","5b608617208f1c000100bdeb","bdp_lott","Wed Apr 12 2023 05:27:27 GMT-0400 (Eastern Daylight Time)","258238","red","green","","","","","","","","","","193","","","","","","[{""stimulus"":""img/green_ll/1.jpg"",""time"":51},{""stimulus"":""img/green_ll/2.jpg"",""time"":101},{""stimulus"":""img/green_ll/3.jpg"",""time"":151},{""stimulus"":""img/green_ll/4.jpg"",""time"":209},{""stimulus"":""img/green_ll/5.jpg"",""time"":258},{""stimulus"":""img/green_ll/6.jpg"",""time"":301},{""stimulus"":""img/green_ll/7.jpg"",""time"":355},{""stimulus"":""img/green_ll/8.jpg"",""time"":403},{""stimulus"":""img/green_ll/9.jpg"",""time"":452},{""stimulus"":""img/green_ll/10.jpg"",""time"":512},{""stimulus"":""img/green_ll/11.jpg"",""time"":553}]","[]"
"image-keyboard-response","70","77361","0.0-5.0-1.33","5b608617208f1c000100bdeb","bdp_lott","Wed Apr 12 2023 05:27:27 GMT-0400 (Eastern Daylight Time)","258238","red","green","","399","","","","choice","","img/green_ll/choose11.jpg","1","192","green","0.5","0.5","0.5","l","",""
"animation","71","77965","0.0-5.0-2.33","5b608617208f1c000100bdeb","bdp_lott","Wed Apr 12 2023 05:27:27 GMT-0400 (Eastern Daylight Time)","258238","red","green","","","","","","","","","","192","","","","","","[{""stimulus"":""img/green_ll/1.jpg"",""time"":54},{""stimulus"":""img/green_ll/2.jpg"",""time"":112},{""stimulus"":""img/green_ll/3.jpg"",""time"":166},{""stimulus"":""img/green_ll/4.jpg"",""time"":204},{""stimulus"":""img/green_ll/5.jpg"",""time"":255},{""stimulus"":""img/green_ll/6.jpg"",""time"":304},{""stimulus"":""img/green_ll/7.jpg"",""time"":354},{""stimulus"":""img/green_ll/8.jpg"",""time"":404},{""stimulus"":""img/green_ll/9.jpg"",""time"":454},{""stimulus"":""img/green_ll/10.jpg"",""time"":504},{""stimulus"":""img/green_ll/11.jpg"",""time"":554}]","[]"
"image-keyboard-response","72","78377","0.0-5.0-1.34","5b608617208f1c000100bdeb","bdp_lott","Wed Apr 12 2023 05:27:27 GMT-0400 (Eastern Daylight Time)","258238","red","green","","411","","","","choice","","img/green_ll/choose11.jpg","1","191","green","0.5","0.5","0.5","l","",""
"animation","73","78980","0.0-5.0-2.34","5b608617208f1c000100bdeb","bdp_lott","Wed Apr 12 2023 05:27:27 GMT-0400 (Eastern Daylight Time)","258238","red","green","","","","","","","","","","191","","","","","","[{""stimulus"":""img/green_ll/1.jpg"",""time"":50},{""stimulus"":""img/green_ll/2.jpg"",""time"":112},{""stimulus"":""img/green_ll/3.jpg"",""time"":158},{""stimulus"":""img/green_ll/4.jpg"",""time"":201},{""stimulus"":""img/green_ll/5.jpg"",""time"":257},{""stimulus"":""img/green_ll/6.jpg"",""time"":305},{""stimulus"":""img/green_ll/7.jpg"",""time"":351},{""stimulus"":""img/green_ll/8.jpg"",""time"":403},{""stimulus"":""img/green_ll/9.jpg"",""time"":454},{""stimulus"":""img/green_ll/10.jpg"",""time"":502},{""stimulus"":""img/green_ll/11.jpg"",""time"":551}]","[]"
"image-keyboard-response","74","79590","0.0-5.0-1.35","5b608617208f1c000100bdeb","bdp_lott","Wed Apr 12 2023 05:27:27 GMT-0400 (Eastern Daylight Time)","258238","red","green","","609","","","","choice","","img/green_ll/choose11.jpg","1","190","green","0.5","0.5","0.5","w","",""
"animation","75","80194","0.0-5.0-2.35","5b608617208f1c000100bdeb","bdp_lott","Wed Apr 12 2023 05:27:27 GMT-0400 (Eastern Daylight Time)","258238","red","green","","","","","","","","","","190","","","","","","[{""stimulus"":""img/green_wl/1.jpg"",""time"":51},{""stimulus"":""img/green_wl/2.jpg"",""time"":105},{""stimulus"":""img/green_wl/3.jpg"",""time"":162},{""stimulus"":""img/green_wl/4.jpg"",""time"":204},{""stimulus"":""img/green_wl/5.jpg"",""time"":264},{""stimulus"":""img/green_wl/6.jpg"",""time"":301},{""stimulus"":""img/green_wl/7.jpg"",""time"":355},{""stimulus"":""img/green_wl/8.jpg"",""time"":416},{""stimulus"":""img/green_wl/9.jpg"",""time"":454},{""stimulus"":""img/green_wl/10.jpg"",""time"":508},{""stimulus"":""img/green_wl/11.jpg"",""time"":562}]","[]"
"image-keyboard-response","76","80967","0.0-5.0-1.36","5b608617208f1c000100bdeb","bdp_lott","Wed Apr 12 2023 05:27:27 GMT-0400 (Eastern Daylight Time)","258238","red","green","","773","","","","choice","","img/green_wl/choose11.jpg","2","189","red","0.5","0.5","0.5","w","",""
"animation","77","81570","0.0-5.0-2.36","5b608617208f1c000100bdeb","bdp_lott","Wed Apr 12 2023 05:27:27 GMT-0400 (Eastern Daylight Time)","258238","red","green","","","","","","","","","","189","","","","","","[{""stimulus"":""img/red_ww/1.jpg"",""time"":53},{""stimulus"":""img/red_ww/2.jpg"",""time"":101},{""stimulus"":""img/red_ww/3.jpg"",""time"":160},{""stimulus"":""img/red_ww/4.jpg"",""time"":201},{""stimulus"":""img/red_ww/5.jpg"",""time"":264},{""stimulus"":""img/red_ww/6.jpg"",""time"":300},{""stimulus"":""img/red_ww/7.jpg"",""time"":351},{""stimulus"":""img/red_ww/8.jpg"",""time"":400},{""stimulus"":""img/red_ww/9.jpg"",""time"":451},{""stimulus"":""img/red_ww/10.jpg"",""time"":501},{""stimulus"":""img/red_ww/11.jpg"",""time"":551}]","[]"
"image-keyboard-response","78","82177","0.0-5.0-1.37","5b608617208f1c000100bdeb","bdp_lott","Wed Apr 12 2023 05:27:27 GMT-0400 (Eastern Daylight Time)","258238","red","green","","607","","","","choice","","img/red_ww/choose11.jpg","2","188","red","0.5","0.5","0.5","w","",""
"animation","79","82778","0.0-5.0-2.37","5b608617208f1c000100bdeb","bdp_lott","Wed Apr 12 2023 05:27:27 GMT-0400 (Eastern Daylight Time)","258238","red","green","","","","","","","","","","188","","","","","","[{""stimulus"":""img/red_ww/1.jpg"",""time"":59},{""stimulus"":""img/red_ww/2.jpg"",""time"":105},{""stimulus"":""img/red_ww/3.jpg"",""time"":152},{""stimulus"":""img/red_ww/4.jpg"",""time"":214},{""stimulus"":""img/red_ww/5.jpg"",""time"":259},{""stimulus"":""img/red_ww/6.jpg"",""time"":310},{""stimulus"":""img/red_ww/7.jpg"",""time"":354},{""stimulus"":""img/red_ww/8.jpg"",""time"":403},{""stimulus"":""img/red_ww/9.jpg"",""time"":457},{""stimulus"":""img/red_ww/10.jpg"",""time"":503},{""stimulus"":""img/red_ww/11.jpg"",""time"":559}]","[]"
"image-keyboard-response","80","83206","0.0-5.0-1.38","5b608617208f1c000100bdeb","bdp_lott","Wed Apr 12 2023 05:27:27 GMT-0400 (Eastern Daylight Time)","258238","red","green","","427","","","","choice","","img/red_ww/choose11.jpg","2","187","red","0.5","0.5","0.5","w","",""
"animation","81","83809","0.0-5.0-2.38","5b608617208f1c000100bdeb","bdp_lott","Wed Apr 12 2023 05:27:27 GMT-0400 (Eastern Daylight Time)","258238","red","green","","","","","","","","","","187","","","","","","[{""stimulus"":""img/red_ww/1.jpg"",""time"":59},{""stimulus"":""img/red_ww/2.jpg"",""time"":103},{""stimulus"":""img/red_ww/3.jpg"",""time"":153},{""stimulus"":""img/red_ww/4.jpg"",""time"":214},{""stimulus"":""img/red_ww/5.jpg"",""time"":252},{""stimulus"":""img/red_ww/6.jpg"",""time"":310},{""stimulus"":""img/red_ww/7.jpg"",""time"":356},{""stimulus"":""img/red_ww/8.jpg"",""time"":404},{""stimulus"":""img/red_ww/9.jpg"",""time"":463},{""stimulus"":""img/red_ww/10.jpg"",""time"":513},{""stimulus"":""img/red_ww/11.jpg"",""time"":551}]","[]"
"image-keyboard-response","82","84288","0.0-5.0-1.39","5b608617208f1c000100bdeb","bdp_lott","Wed Apr 12 2023 05:27:27 GMT-0400 (Eastern Daylight Time)","258238","red","green","","478","","","","choice","","img/red_ww/choose11.jpg","2","186","red","0.5","0.5","0.5","l","",""
"animation","83","84899","0.0-5.0-2.39","5b608617208f1c000100bdeb","bdp_lott","Wed Apr 12 2023 05:27:27 GMT-0400 (Eastern Daylight Time)","258238","red","green","","","","","","","","","","186","","","","","","[{""stimulus"":""img/red_wl/1.jpg"",""time"":52},{""stimulus"":""img/red_wl/2.jpg"",""time"":106},{""stimulus"":""img/red_wl/3.jpg"",""time"":152},{""stimulus"":""img/red_wl/4.jpg"",""time"":214},{""stimulus"":""img/red_wl/5.jpg"",""time"":252},{""stimulus"":""img/red_wl/6.jpg"",""time"":301},{""stimulus"":""img/red_wl/7.jpg"",""time"":353},{""stimulus"":""img/red_wl/8.jpg"",""time"":401},{""stimulus"":""img/red_wl/9.jpg"",""time"":453},{""stimulus"":""img/red_wl/10.jpg"",""time"":507},{""stimulus"":""img/red_wl/11.jpg"",""time"":565}]","[]"
"image-keyboard-response","84","85459","0.0-5.0-1.40","5b608617208f1c000100bdeb","bdp_lott","Wed Apr 12 2023 05:27:27 GMT-0400 (Eastern Daylight Time)","258238","red","green","","560","","","","choice","","img/red_wl/choose11.jpg","1","185","green","0.5","0.5","0.5","l","",""
"animation","85","86062","0.0-5.0-2.40","5b608617208f1c000100bdeb","bdp_lott","Wed Apr 12 2023 05:27:27 GMT-0400 (Eastern Daylight Time)","258238","red","green","","","","","","","","","","185","","","","","","[{""stimulus"":""img/green_ll/1.jpg"",""time"":52},{""stimulus"":""img/green_ll/2.jpg"",""time"":103},{""stimulus"":""img/green_ll/3.jpg"",""time"":161},{""stimulus"":""img/green_ll/4.jpg"",""time"":210},{""stimulus"":""img/green_ll/5.jpg"",""time"":252},{""stimulus"":""img/green_ll/6.jpg"",""time"":301},{""stimulus"":""img/green_ll/7.jpg"",""time"":355},{""stimulus"":""img/green_ll/8.jpg"",""time"":404},{""stimulus"":""img/green_ll/9.jpg"",""time"":460},{""stimulus"":""img/green_ll/10.jpg"",""time"":503},{""stimulus"":""img/green_ll/11.jpg"",""time"":553}]","[]"
"image-keyboard-response","86","86469","0.0-5.0-1.41","5b608617208f1c000100bdeb","bdp_lott","Wed Apr 12 2023 05:27:27 GMT-0400 (Eastern Daylight Time)","258238","red","green","","406","","","","choice","","img/green_ll/choose11.jpg","1","184","green","0.5","0.5","0.5","l","",""
"animation","87","87073","0.0-5.0-2.41","5b608617208f1c000100bdeb","bdp_lott","Wed Apr 12 2023 05:27:27 GMT-0400 (Eastern Daylight Time)","258238","red","green","","","","","","","","","","184","","","","","","[{""stimulus"":""img/green_ll/1.jpg"",""time"":55},{""stimulus"":""img/green_ll/2.jpg"",""time"":109},{""stimulus"":""img/green_ll/3.jpg"",""time"":159},{""stimulus"":""img/green_ll/4.jpg"",""time"":201},{""stimulus"":""img/green_ll/5.jpg"",""time"":259},{""stimulus"":""img/green_ll/6.jpg"",""time"":301},{""stimulus"":""img/green_ll/7.jpg"",""time"":361},{""stimulus"":""img/green_ll/8.jpg"",""time"":403},{""stimulus"":""img/green_ll/9.jpg"",""time"":455},{""stimulus"":""img/green_ll/10.jpg"",""time"":516},{""stimulus"":""img/green_ll/11.jpg"",""time"":559}]","[]"
"image-keyboard-response","88","88031","0.0-5.0-1.42","5b608617208f1c000100bdeb","bdp_lott","Wed Apr 12 2023 05:27:27 GMT-0400 (Eastern Daylight Time)","258238","red","green","","956","","","","choice","","img/green_ll/choose11.jpg","2","183","red","0.5","0.5","0.5","l","",""
"animation","89","88632","0.0-5.0-2.42","5b608617208f1c000100bdeb","bdp_lott","Wed Apr 12 2023 05:27:27 GMT-0400 (Eastern Daylight Time)","258238","red","green","","","","","","","","","","183","","","","","","[{""stimulus"":""img/red_ll/1.jpg"",""time"":62},{""stimulus"":""img/red_ll/2.jpg"",""time"":101},{""stimulus"":""img/red_ll/3.jpg"",""time"":151},{""stimulus"":""img/red_ll/4.jpg"",""time"":204},{""stimulus"":""img/red_ll/5.jpg"",""time"":254},{""stimulus"":""img/red_ll/6.jpg"",""time"":304},{""stimulus"":""img/red_ll/7.jpg"",""time"":353},{""stimulus"":""img/red_ll/8.jpg"",""time"":406},{""stimulus"":""img/red_ll/9.jpg"",""time"":460},{""stimulus"":""img/red_ll/10.jpg"",""time"":511},{""stimulus"":""img/red_ll/11.jpg"",""time"":551}]","[]"
"image-keyboard-response","90","89222","0.0-5.0-1.43","5b608617208f1c000100bdeb","bdp_lott","Wed Apr 12 2023 05:27:27 GMT-0400 (Eastern Daylight Time)","258238","red","green","","589","","","","choice","","img/red_ll/choose11.jpg","1","182","green","0.5","0.5","0.5","w","",""
"animation","91","89823","0.0-5.0-2.43","5b608617208f1c000100bdeb","bdp_lott","Wed Apr 12 2023 05:27:27 GMT-0400 (Eastern Daylight Time)","258238","red","green","","","","","","","","","","182","","","","","","[{""stimulus"":""img/green_wl/1.jpg"",""time"":51},{""stimulus"":""img/green_wl/2.jpg"",""time"":114},{""stimulus"":""img/green_wl/3.jpg"",""time"":151},{""stimulus"":""img/green_wl/4.jpg"",""time"":202},{""stimulus"":""img/green_wl/5.jpg"",""time"":250},{""stimulus"":""img/green_wl/6.jpg"",""time"":310},{""stimulus"":""img/green_wl/7.jpg"",""time"":352},{""stimulus"":""img/green_wl/8.jpg"",""time"":403},{""stimulus"":""img/green_wl/9.jpg"",""time"":451},{""stimulus"":""img/green_wl/10.jpg"",""time"":504},{""stimulus"":""img/green_wl/11.jpg"",""time"":559}]","[]"
"image-keyboard-response","92","90505","0.0-5.0-1.44","5b608617208f1c000100bdeb","bdp_lott","Wed Apr 12 2023 05:27:27 GMT-0400 (Eastern Daylight Time)","258238","red","green","","682","","","","choice","","img/green_wl/choose11.jpg","2","181","red","0.5","0.5","0.5","w","",""
"animation","93","91106","0.0-5.0-2.44","5b608617208f1c000100bdeb","bdp_lott","Wed Apr 12 2023 05:27:27 GMT-0400 (Eastern Daylight Time)","258238","red","green","","","","","","","","","","181","","","","","","[{""stimulus"":""img/red_ww/1.jpg"",""time"":50},{""stimulus"":""img/red_ww/2.jpg"",""time"":101},{""stimulus"":""img/red_ww/3.jpg"",""time"":163},{""stimulus"":""img/red_ww/4.jpg"",""time"":201},{""stimulus"":""img/red_ww/5.jpg"",""time"":250},{""stimulus"":""img/red_ww/6.jpg"",""time"":300},{""stimulus"":""img/red_ww/7.jpg"",""time"":367},{""stimulus"":""img/red_ww/8.jpg"",""time"":400},{""stimulus"":""img/red_ww/9.jpg"",""time"":451},{""stimulus"":""img/red_ww/10.jpg"",""time"":500},{""stimulus"":""img/red_ww/11.jpg"",""time"":551}]","[]"
"image-keyboard-response","94","91822","0.0-5.0-1.45","5b608617208f1c000100bdeb","bdp_lott","Wed Apr 12 2023 05:27:27 GMT-0400 (Eastern Daylight Time)","258238","red","green","","715","","","","choice","","img/red_ww/choose11.jpg","1","180","green","0.5","0.5","0.5","l","",""
"animation","95","92422","0.0-5.0-2.45","5b608617208f1c000100bdeb","bdp_lott","Wed Apr 12 2023 05:27:27 GMT-0400 (Eastern Daylight Time)","258238","red","green","","","","","","","","","","180","","","","","","[{""stimulus"":""img/green_lw/1.jpg"",""time"":66},{""stimulus"":""img/green_lw/2.jpg"",""time"":112},{""stimulus"":""img/green_lw/3.jpg"",""time"":151},{""stimulus"":""img/green_lw/4.jpg"",""time"":201},{""stimulus"":""img/green_lw/5.jpg"",""time"":254},{""stimulus"":""img/green_lw/6.jpg"",""time"":304},{""stimulus"":""img/green_lw/7.jpg"",""time"":351},{""stimulus"":""img/green_lw/8.jpg"",""time"":403},{""stimulus"":""img/green_lw/9.jpg"",""time"":467},{""stimulus"":""img/green_lw/10.jpg"",""time"":516},{""stimulus"":""img/green_lw/11.jpg"",""time"":564}]","[]"
"image-keyboard-response","96","93347","0.0-5.0-1.46","5b608617208f1c000100bdeb","bdp_lott","Wed Apr 12 2023 05:27:27 GMT-0400 (Eastern Daylight Time)","258238","red","green","","924","","","","choice","","img/green_lw/choose11.jpg","1","179","green","0.5","0.5","0.5","l","",""
"animation","97","93949","0.0-5.0-2.46","5b608617208f1c000100bdeb","bdp_lott","Wed Apr 12 2023 05:27:27 GMT-0400 (Eastern Daylight Time)","258238","red","green","","","","","","","","","","179","","","","","","[{""stimulus"":""img/green_lw/1.jpg"",""time"":64},{""stimulus"":""img/green_lw/2.jpg"",""time"":100},{""stimulus"":""img/green_lw/3.jpg"",""time"":150},{""stimulus"":""img/green_lw/4.jpg"",""time"":200},{""stimulus"":""img/green_lw/5.jpg"",""time"":254},{""stimulus"":""img/green_lw/6.jpg"",""time"":301},{""stimulus"":""img/green_lw/7.jpg"",""time"":350},{""stimulus"":""img/green_lw/8.jpg"",""time"":400},{""stimulus"":""img/green_lw/9.jpg"",""time"":451},{""stimulus"":""img/green_lw/10.jpg"",""time"":504},{""stimulus"":""img/green_lw/11.jpg"",""time"":553}]","[]"
"image-keyboard-response","98","94441","0.0-5.0-1.47","5b608617208f1c000100bdeb","bdp_lott","Wed Apr 12 2023 05:27:27 GMT-0400 (Eastern Daylight Time)","258238","red","green","","490","","","","choice","","img/green_lw/choose11.jpg","2","178","red","0.5","0.5","0.5","w","",""
"animation","99","95043","0.0-5.0-2.47","5b608617208f1c000100bdeb","bdp_lott","Wed Apr 12 2023 05:27:27 GMT-0400 (Eastern Daylight Time)","258238","red","green","","","","","","","","","","178","","","","","","[{""stimulus"":""img/red_lw/1.jpg"",""time"":53},{""stimulus"":""img/red_lw/2.jpg"",""time"":108},{""stimulus"":""img/red_lw/3.jpg"",""time"":159},{""stimulus"":""img/red_lw/4.jpg"",""time"":201},{""stimulus"":""img/red_lw/5.jpg"",""time"":266},{""stimulus"":""img/red_lw/6.jpg"",""time"":301},{""stimulus"":""img/red_lw/7.jpg"",""time"":352},{""stimulus"":""img/red_lw/8.jpg"",""time"":403},{""stimulus"":""img/red_lw/9.jpg"",""time"":452},{""stimulus"":""img/red_lw/10.jpg"",""time"":506},{""stimulus"":""img/red_lw/11.jpg"",""time"":553}]","[]"
"image-keyboard-response","100","95605","0.0-5.0-1.48","5b608617208f1c000100bdeb","bdp_lott","Wed Apr 12 2023 05:27:27 GMT-0400 (Eastern Daylight Time)","258238","red","green","","561","","","","choice","","img/red_lw/choose11.jpg","2","177","red","0.5","0.5","0.5","w","",""
"animation","101","96207","0.0-5.0-2.48","5b608617208f1c000100bdeb","bdp_lott","Wed Apr 12 2023 05:27:27 GMT-0400 (Eastern Daylight Time)","258238","red","green","","","","","","","","","","177","","","","","","[{""stimulus"":""img/red_lw/1.jpg"",""time"":64},{""stimulus"":""img/red_lw/2.jpg"",""time"":106},{""stimulus"":""img/red_lw/3.jpg"",""time"":152},{""stimulus"":""img/red_lw/4.jpg"",""time"":207},{""stimulus"":""img/red_lw/5.jpg"",""time"":253},{""stimulus"":""img/red_lw/6.jpg"",""time"":301},{""stimulus"":""img/red_lw/7.jpg"",""time"":364},{""stimulus"":""img/red_lw/8.jpg"",""time"":402},{""stimulus"":""img/red_lw/9.jpg"",""time"":459},{""stimulus"":""img/red_lw/10.jpg"",""time"":504},{""stimulus"":""img/red_lw/11.jpg"",""time"":554}]","[]"
"image-keyboard-response","102","96816","0.0-5.0-1.49","5b608617208f1c000100bdeb","bdp_lott","Wed Apr 12 2023 05:27:27 GMT-0400 (Eastern Daylight Time)","258238","red","green","","608","","","","choice","","img/red_lw/choose11.jpg","2","176","red","0.5","0.5","0.5","l","",""
"animation","103","97423","0.0-5.0-2.49","5b608617208f1c000100bdeb","bdp_lott","Wed Apr 12 2023 05:27:27 GMT-0400 (Eastern Daylight Time)","258238","red","green","","","","","","","","","","176","","","","","","[{""stimulus"":""img/red_ll/1.jpg"",""time"":50},{""stimulus"":""img/red_ll/2.jpg"",""time"":115},{""stimulus"":""img/red_ll/3.jpg"",""time"":152},{""stimulus"":""img/red_ll/4.jpg"",""time"":202},{""stimulus"":""img/red_ll/5.jpg"",""time"":252},{""stimulus"":""img/red_ll/6.jpg"",""time"":307},{""stimulus"":""img/red_ll/7.jpg"",""time"":352},{""stimulus"":""img/red_ll/8.jpg"",""time"":400},{""stimulus"":""img/red_ll/9.jpg"",""time"":452},{""stimulus"":""img/red_ll/10.jpg"",""time"":502},{""stimulus"":""img/red_ll/11.jpg"",""time"":551}]","[]"
"image-keyboard-response","104","98257","0.0-5.0-1.50","5b608617208f1c000100bdeb","bdp_lott","Wed Apr 12 2023 05:27:27 GMT-0400 (Eastern Daylight Time)","258238","red","green","","834","","","","choice","","img/red_ll/choose11.jpg","1","175","green","0.5","0.5","0.5","l","",""
"animation","105","98861","0.0-5.0-2.50","5b608617208f1c000100bdeb","bdp_lott","Wed Apr 12 2023 05:27:27 GMT-0400 (Eastern Daylight Time)","258238","red","green","","","","","","","","","","175","","","","","","[{""stimulus"":""img/green_ll/1.jpg"",""time"":58},{""stimulus"":""img/green_ll/2.jpg"",""time"":103},{""stimulus"":""img/green_ll/3.jpg"",""time"":151},{""stimulus"":""img/green_ll/4.jpg"",""time"":202},{""stimulus"":""img/green_ll/5.jpg"",""time"":253},{""stimulus"":""img/green_ll/6.jpg"",""time"":301},{""stimulus"":""img/green_ll/7.jpg"",""time"":361},{""stimulus"":""img/green_ll/8.jpg"",""time"":410},{""stimulus"":""img/green_ll/9.jpg"",""time"":451},{""stimulus"":""img/green_ll/10.jpg"",""time"":501},{""stimulus"":""img/green_ll/11.jpg"",""time"":553}]","[]"
"image-keyboard-response","106","100240","0.0-5.0-1.51","5b608617208f1c000100bdeb","bdp_lott","Wed Apr 12 2023 05:27:27 GMT-0400 (Eastern Daylight Time)","258238","red","green","","1379","","","","choice","","img/green_ll/choose11.jpg","1","174","green","0.5","0.5","0.5","w","",""
"animation","107","100841","0.0-5.0-2.51","5b608617208f1c000100bdeb","bdp_lott","Wed Apr 12 2023 05:27:27 GMT-0400 (Eastern Daylight Time)","258238","red","green","","","","","","","","","","174","","","","","","[{""stimulus"":""img/green_wl/1.jpg"",""time"":53},{""stimulus"":""img/green_wl/2.jpg"",""time"":112},{""stimulus"":""img/green_wl/3.jpg"",""time"":162},{""stimulus"":""img/green_wl/4.jpg"",""time"":205},{""stimulus"":""img/green_wl/5.jpg"",""time"":252},{""stimulus"":""img/green_wl/6.jpg"",""time"":305},{""stimulus"":""img/green_wl/7.jpg"",""time"":352},{""stimulus"":""img/green_wl/8.jpg"",""time"":404},{""stimulus"":""img/green_wl/9.jpg"",""time"":451},{""stimulus"":""img/green_wl/10.jpg"",""time"":503},{""stimulus"":""img/green_wl/11.jpg"",""time"":552}]","[]"
"image-keyboard-response","108","101335","0.0-5.0-1.52","5b608617208f1c000100bdeb","bdp_lott","Wed Apr 12 2023 05:27:27 GMT-0400 (Eastern Daylight Time)","258238","red","green","","493","","","","choice","","img/green_wl/choose11.jpg","1","173","green","0.5","0.5","0.5","l","",""
"animation","109","101948","0.0-5.0-2.52","5b608617208f1c000100bdeb","bdp_lott","Wed Apr 12 2023 05:27:27 GMT-0400 (Eastern Daylight Time)","258238","red","green","","","","","","","","","","173","","","","","","[{""stimulus"":""img/green_ll/1.jpg"",""time"":53},{""stimulus"":""img/green_ll/2.jpg"",""time"":106},{""stimulus"":""img/green_ll/3.jpg"",""time"":153},{""stimulus"":""img/green_ll/4.jpg"",""time"":203},{""stimulus"":""img/green_ll/5.jpg"",""time"":265},{""stimulus"":""img/green_ll/6.jpg"",""time"":303},{""stimulus"":""img/green_ll/7.jpg"",""time"":353},{""stimulus"":""img/green_ll/8.jpg"",""time"":404},{""stimulus"":""img/green_ll/9.jpg"",""time"":451},{""stimulus"":""img/green_ll/10.jpg"",""time"":512},{""stimulus"":""img/green_ll/11.jpg"",""time"":559}]","[]"
"image-keyboard-response","110","102874","0.0-5.0-1.53","5b608617208f1c000100bdeb","bdp_lott","Wed Apr 12 2023 05:27:27 GMT-0400 (Eastern Daylight Time)","258238","red","green","","925","","","","choice","","img/green_ll/choose11.jpg","2","172","red","0.5","0.5","0.5","w","",""
"animation","111","103475","0.0-5.0-2.53","5b608617208f1c000100bdeb","bdp_lott","Wed Apr 12 2023 05:27:27 GMT-0400 (Eastern Daylight Time)","258238","red","green","","","","","","","","","","172","","","","","","[{""stimulus"":""img/red_lw/1.jpg"",""time"":51},{""stimulus"":""img/red_lw/2.jpg"",""time"":111},{""stimulus"":""img/red_lw/3.jpg"",""time"":155},{""stimulus"":""img/red_lw/4.jpg"",""time"":204},{""stimulus"":""img/red_lw/5.jpg"",""time"":264},{""stimulus"":""img/red_lw/6.jpg"",""time"":302},{""stimulus"":""img/red_lw/7.jpg"",""time"":354},{""stimulus"":""img/red_lw/8.jpg"",""time"":403},{""stimulus"":""img/red_lw/9.jpg"",""time"":463},{""stimulus"":""img/red_lw/10.jpg"",""time"":503},{""stimulus"":""img/red_lw/11.jpg"",""time"":553}]","[]"
"image-keyboard-response","112","104691","0.0-5.0-1.54","5b608617208f1c000100bdeb","bdp_lott","Wed Apr 12 2023 05:27:27 GMT-0400 (Eastern Daylight Time)","258238","red","green","","1215","","","","choice","","img/red_lw/choose11.jpg","2","171","red","0.5","0.5","0.5","w","",""
"animation","113","105298","0.0-5.0-2.54","5b608617208f1c000100bdeb","bdp_lott","Wed Apr 12 2023 05:27:27 GMT-0400 (Eastern Daylight Time)","258238","red","green","","","","","","","","","","171","","","","","","[{""stimulus"":""img/red_lw/1.jpg"",""time"":54},{""stimulus"":""img/red_lw/2.jpg"",""time"":112},{""stimulus"":""img/red_lw/3.jpg"",""time"":154},{""stimulus"":""img/red_lw/4.jpg"",""time"":201},{""stimulus"":""img/red_lw/5.jpg"",""time"":253},{""stimulus"":""img/red_lw/6.jpg"",""time"":302},{""stimulus"":""img/red_lw/7.jpg"",""time"":362},{""stimulus"":""img/red_lw/8.jpg"",""time"":409},{""stimulus"":""img/red_lw/9.jpg"",""time"":451},{""stimulus"":""img/red_lw/10.jpg"",""time"":511},{""stimulus"":""img/red_lw/11.jpg"",""time"":553}]","[]"
"image-keyboard-response","114","105807","0.0-5.0-1.55","5b608617208f1c000100bdeb","bdp_lott","Wed Apr 12 2023 05:27:27 GMT-0400 (Eastern Daylight Time)","258238","red","green","","509","","","","choice","","img/red_lw/choose11.jpg","1","170","green","0.5","0.5","0.5","l","",""
"animation","115","106409","0.0-5.0-2.55","5b608617208f1c000100bdeb","bdp_lott","Wed Apr 12 2023 05:27:27 GMT-0400 (Eastern Daylight Time)","258238","red","green","","","","","","","","","","170","","","","","","[{""stimulus"":""img/green_lw/1.jpg"",""time"":54},{""stimulus"":""img/green_lw/2.jpg"",""time"":108},{""stimulus"":""img/green_lw/3.jpg"",""time"":155},{""stimulus"":""img/green_lw/4.jpg"",""time"":202},{""stimulus"":""img/green_lw/5.jpg"",""time"":258},{""stimulus"":""img/green_lw/6.jpg"",""time"":303},{""stimulus"":""img/green_lw/7.jpg"",""time"":352},{""stimulus"":""img/green_lw/8.jpg"",""time"":401},{""stimulus"":""img/green_lw/9.jpg"",""time"":451},{""stimulus"":""img/green_lw/10.jpg"",""time"":502},{""stimulus"":""img/green_lw/11.jpg"",""time"":555}]","[]"
"image-keyboard-response","116","107155","0.0-5.0-1.56","5b608617208f1c000100bdeb","bdp_lott","Wed Apr 12 2023 05:27:27 GMT-0400 (Eastern Daylight Time)","258238","red","green","","745","","","","choice","","img/green_lw/choose11.jpg","2","169","red","0.5","0.5","0.5","w","",""
"animation","117","107755","0.0-5.0-2.56","5b608617208f1c000100bdeb","bdp_lott","Wed Apr 12 2023 05:27:27 GMT-0400 (Eastern Daylight Time)","258238","red","green","","","","","","","","","","169","","","","","","[{""stimulus"":""img/red_lw/1.jpg"",""time"":52},{""stimulus"":""img/red_lw/2.jpg"",""time"":107},{""stimulus"":""img/red_lw/3.jpg"",""time"":158},{""stimulus"":""img/red_lw/4.jpg"",""time"":201},{""stimulus"":""img/red_lw/5.jpg"",""time"":263},{""stimulus"":""img/red_lw/6.jpg"",""time"":302},{""stimulus"":""img/red_lw/7.jpg"",""time"":352},{""stimulus"":""img/red_lw/8.jpg"",""time"":412},{""stimulus"":""img/red_lw/9.jpg"",""time"":462},{""stimulus"":""img/red_lw/10.jpg"",""time"":504},{""stimulus"":""img/red_lw/11.jpg"",""time"":552}]","[]"
"image-keyboard-response","118","108472","0.0-5.0-1.57","5b608617208f1c000100bdeb","bdp_lott","Wed Apr 12 2023 05:27:27 GMT-0400 (Eastern Daylight Time)","258238","red","green","","716","","","","choice","","img/red_lw/choose11.jpg","1","168","green","0.5","0.5","0.5","l","",""
"animation","119","109073","0.0-5.0-2.57","5b608617208f1c000100bdeb","bdp_lott","Wed Apr 12 2023 05:27:27 GMT-0400 (Eastern Daylight Time)","258238","red","green","","","","","","","","","","168","","","","","","[{""stimulus"":""img/green_lw/1.jpg"",""time"":55},{""stimulus"":""img/green_lw/2.jpg"",""time"":107},{""stimulus"":""img/green_lw/3.jpg"",""time"":154},{""stimulus"":""img/green_lw/4.jpg"",""time"":203},{""stimulus"":""img/green_lw/5.jpg"",""time"":266},{""stimulus"":""img/green_lw/6.jpg"",""time"":310},{""stimulus"":""img/green_lw/7.jpg"",""time"":352},{""stimulus"":""img/green_lw/8.jpg"",""time"":401},{""stimulus"":""img/green_lw/9.jpg"",""time"":451},{""stimulus"":""img/green_lw/10.jpg"",""time"":505},{""stimulus"":""img/green_lw/11.jpg"",""time"":551}]","[]"
"image-keyboard-response","120","109472","0.0-5.0-1.58","5b608617208f1c000100bdeb","bdp_lott","Wed Apr 12 2023 05:27:27 GMT-0400 (Eastern Daylight Time)","258238","red","green","","398","","","","choice","","img/green_lw/choose11.jpg","2","167","red","0.5","0.5","0.5","l","",""
"animation","121","110080","0.0-5.0-2.58","5b608617208f1c000100bdeb","bdp_lott","Wed Apr 12 2023 05:27:27 GMT-0400 (Eastern Daylight Time)","258238","red","green","","","","","","","","","","167","","","","","","[{""stimulus"":""img/red_ll/1.jpg"",""time"":60},{""stimulus"":""img/red_ll/2.jpg"",""time"":107},{""stimulus"":""img/red_ll/3.jpg"",""time"":151},{""stimulus"":""img/red_ll/4.jpg"",""time"":214},{""stimulus"":""img/red_ll/5.jpg"",""time"":260},{""stimulus"":""img/red_ll/6.jpg"",""time"":301},{""stimulus"":""img/red_ll/7.jpg"",""time"":351},{""stimulus"":""img/red_ll/8.jpg"",""time"":402},{""stimulus"":""img/red_ll/9.jpg"",""time"":451},{""stimulus"":""img/red_ll/10.jpg"",""time"":512},{""stimulus"":""img/red_ll/11.jpg"",""time"":559}]","[]"
"image-keyboard-response","122","110495","0.0-5.0-1.59","5b608617208f1c000100bdeb","bdp_lott","Wed Apr 12 2023 05:27:27 GMT-0400 (Eastern Daylight Time)","258238","red","green","","414","","","","choice","","img/red_ll/choose11.jpg","2","166","red","0.5","0.5","0.5","w","",""
"animation","123","111098","0.0-5.0-2.59","5b608617208f1c000100bdeb","bdp_lott","Wed Apr 12 2023 05:27:27 GMT-0400 (Eastern Daylight Time)","258238","red","green","","","","","","","","","","166","","","","","","[{""stimulus"":""img/red_lw/1.jpg"",""time"":53},{""stimulus"":""img/red_lw/2.jpg"",""time"":101},{""stimulus"":""img/red_lw/3.jpg"",""time"":151},{""stimulus"":""img/red_lw/4.jpg"",""time"":212},{""stimulus"":""img/red_lw/5.jpg"",""time"":264},{""stimulus"":""img/red_lw/6.jpg"",""time"":301},{""stimulus"":""img/red_lw/7.jpg"",""time"":354},{""stimulus"":""img/red_lw/8.jpg"",""time"":403},{""stimulus"":""img/red_lw/9.jpg"",""time"":464},{""stimulus"":""img/red_lw/10.jpg"",""time"":501},{""stimulus"":""img/red_lw/11.jpg"",""time"":553}]","[]"
"image-keyboard-response","124","111596","0.0-5.0-1.60","5b608617208f1c000100bdeb","bdp_lott","Wed Apr 12 2023 05:27:27 GMT-0400 (Eastern Daylight Time)","258238","red","green","","498","","","","choice","","img/red_lw/choose11.jpg","2","165","red","0.5","0.5","0.5","l","",""
"animation","125","112204","0.0-5.0-2.60","5b608617208f1c000100bdeb","bdp_lott","Wed Apr 12 2023 05:27:27 GMT-0400 (Eastern Daylight Time)","258238","red","green","","","","","","","","","","165","","","","","","[{""stimulus"":""img/red_ll/1.jpg"",""time"":55},{""stimulus"":""img/red_ll/2.jpg"",""time"":100},{""stimulus"":""img/red_ll/3.jpg"",""time"":151},{""stimulus"":""img/red_ll/4.jpg"",""time"":202},{""stimulus"":""img/red_ll/5.jpg"",""time"":258},{""stimulus"":""img/red_ll/6.jpg"",""time"":302},{""stimulus"":""img/red_ll/7.jpg"",""time"":355},{""stimulus"":""img/red_ll/8.jpg"",""time"":402},{""stimulus"":""img/red_ll/9.jpg"",""time"":452},{""stimulus"":""img/red_ll/10.jpg"",""time"":511},{""stimulus"":""img/red_ll/11.jpg"",""time"":562}]","[]"
"image-keyboard-response","126","112585","0.0-5.0-1.61","5b608617208f1c000100bdeb","bdp_lott","Wed Apr 12 2023 05:27:27 GMT-0400 (Eastern Daylight Time)","258238","red","green","","381","","","","choice","","img/red_ll/choose11.jpg","2","164","red","0.5","0.5","0.5","l","",""
"animation","127","113187","0.0-5.0-2.61","5b608617208f1c000100bdeb","bdp_lott","Wed Apr 12 2023 05:27:27 GMT-0400 (Eastern Daylight Time)","258238","red","green","","","","","","","","","","164","","","","","","[{""stimulus"":""img/red_ll/1.jpg"",""time"":63},{""stimulus"":""img/red_ll/2.jpg"",""time"":109},{""stimulus"":""img/red_ll/3.jpg"",""time"":163},{""stimulus"":""img/red_ll/4.jpg"",""time"":202},{""stimulus"":""img/red_ll/5.jpg"",""time"":255},{""stimulus"":""img/red_ll/6.jpg"",""time"":305},{""stimulus"":""img/red_ll/7.jpg"",""time"":351},{""stimulus"":""img/red_ll/8.jpg"",""time"":405},{""stimulus"":""img/red_ll/9.jpg"",""time"":463},{""stimulus"":""img/red_ll/10.jpg"",""time"":505},{""stimulus"":""img/red_ll/11.jpg"",""time"":557}]","[]"
"image-keyboard-response","128","113622","0.0-5.0-1.62","5b608617208f1c000100bdeb","bdp_lott","Wed Apr 12 2023 05:27:27 GMT-0400 (Eastern Daylight Time)","258238","red","green","","434","","","","choice","","img/red_ll/choose11.jpg","1","163","green","0.5","0.5","0.5","w","",""
"animation","129","114223","0.0-5.0-2.62","5b608617208f1c000100bdeb","bdp_lott","Wed Apr 12 2023 05:27:27 GMT-0400 (Eastern Daylight Time)","258238","red","green","","","","","","","","","","163","","","","","","[{""stimulus"":""img/green_wl/1.jpg"",""time"":54},{""stimulus"":""img/green_wl/2.jpg"",""time"":102},{""stimulus"":""img/green_wl/3.jpg"",""time"":164},{""stimulus"":""img/green_wl/4.jpg"",""time"":203},{""stimulus"":""img/green_wl/5.jpg"",""time"":251},{""stimulus"":""img/green_wl/6.jpg"",""time"":316},{""stimulus"":""img/green_wl/7.jpg"",""time"":363},{""stimulus"":""img/green_wl/8.jpg"",""time"":401},{""stimulus"":""img/green_wl/9.jpg"",""time"":451},{""stimulus"":""img/green_wl/10.jpg"",""time"":505},{""stimulus"":""img/green_wl/11.jpg"",""time"":555}]","[]"
"image-keyboard-response","130","114837","0.0-5.0-1.63","5b608617208f1c000100bdeb","bdp_lott","Wed Apr 12 2023 05:27:27 GMT-0400 (Eastern Daylight Time)","258238","red","green","","614","","","","choice","","img/green_wl/choose11.jpg","1","162","green","0.5","0.5","0.5","l","",""
"animation","131","115438","0.0-5.0-2.63","5b608617208f1c000100bdeb","bdp_lott","Wed Apr 12 2023 05:27:27 GMT-0400 (Eastern Daylight Time)","258238","red","green","","","","","","","","","","162","","","","","","[{""stimulus"":""img/green_ll/1.jpg"",""time"":53},{""stimulus"":""img/green_ll/2.jpg"",""time"":103},{""stimulus"":""img/green_ll/3.jpg"",""time"":165},{""stimulus"":""img/green_ll/4.jpg"",""time"":206},{""stimulus"":""img/green_ll/5.jpg"",""time"":253},{""stimulus"":""img/green_ll/6.jpg"",""time"":306},{""stimulus"":""img/green_ll/7.jpg"",""time"":355},{""stimulus"":""img/green_ll/8.jpg"",""time"":405},{""stimulus"":""img/green_ll/9.jpg"",""time"":455},{""stimulus"":""img/green_ll/10.jpg"",""time"":506},{""stimulus"":""img/green_ll/11.jpg"",""time"":552}]","[]"
"image-keyboard-response","132","115947","0.0-5.0-1.64","5b608617208f1c000100bdeb","bdp_lott","Wed Apr 12 2023 05:27:27 GMT-0400 (Eastern Daylight Time)","258238","red","green","","508","","","","choice","","img/green_ll/choose11.jpg","2","161","red","0.5","0.5","0.5","w","",""
"animation","133","116548","0.0-5.0-2.64","5b608617208f1c000100bdeb","bdp_lott","Wed Apr 12 2023 05:27:27 GMT-0400 (Eastern Daylight Time)","258238","red","green","","","","","","","","","","161","","","","","","[{""stimulus"":""img/red_lw/1.jpg"",""time"":55},{""stimulus"":""img/red_lw/2.jpg"",""time"":101},{""stimulus"":""img/red_lw/3.jpg"",""time"":151},{""stimulus"":""img/red_lw/4.jpg"",""time"":202},{""stimulus"":""img/red_lw/5.jpg"",""time"":255},{""stimulus"":""img/red_lw/6.jpg"",""time"":305},{""stimulus"":""img/red_lw/7.jpg"",""time"":351},{""stimulus"":""img/red_lw/8.jpg"",""time"":404},{""stimulus"":""img/red_lw/9.jpg"",""time"":455},{""stimulus"":""img/red_lw/10.jpg"",""time"":502},{""stimulus"":""img/red_lw/11.jpg"",""time"":552}]","[]"
"image-keyboard-response","134","117050","0.0-5.0-1.65","5b608617208f1c000100bdeb","bdp_lott","Wed Apr 12 2023 05:27:27 GMT-0400 (Eastern Daylight Time)","258238","red","green","","501","","","","choice","","img/red_lw/choose11.jpg","2","160","red","0.5","0.5","0.5","w","",""
"animation","135","117655","0.0-5.0-2.65","5b608617208f1c000100bdeb","bdp_lott","Wed Apr 12 2023 05:27:27 GMT-0400 (Eastern Daylight Time)","258238","red","green","","","","","","","","","","160","","","","","","[{""stimulus"":""img/red_lw/1.jpg"",""time"":54},{""stimulus"":""img/red_lw/2.jpg"",""time"":102},{""stimulus"":""img/red_lw/3.jpg"",""time"":152},{""stimulus"":""img/red_lw/4.jpg"",""time"":200},{""stimulus"":""img/red_lw/5.jpg"",""time"":251},{""stimulus"":""img/red_lw/6.jpg"",""time"":310},{""stimulus"":""img/red_lw/7.jpg"",""time"":360},{""stimulus"":""img/red_lw/8.jpg"",""time"":409},{""stimulus"":""img/red_lw/9.jpg"",""time"":452},{""stimulus"":""img/red_lw/10.jpg"",""time"":501},{""stimulus"":""img/red_lw/11.jpg"",""time"":552}]","[]"
"image-keyboard-response","136","118146","0.0-5.0-1.66","5b608617208f1c000100bdeb","bdp_lott","Wed Apr 12 2023 05:27:27 GMT-0400 (Eastern Daylight Time)","258238","red","green","","490","","","","choice","","img/red_lw/choose11.jpg","2","159","red","0.5","0.5","0.5","w","",""
"animation","137","118747","0.0-5.0-2.66","5b608617208f1c000100bdeb","bdp_lott","Wed Apr 12 2023 05:27:27 GMT-0400 (Eastern Daylight Time)","258238","red","green","","","","","","","","","","159","","","","","","[{""stimulus"":""img/red_lw/1.jpg"",""time"":52},{""stimulus"":""img/red_lw/2.jpg"",""time"":110},{""stimulus"":""img/red_lw/3.jpg"",""time"":160},{""stimulus"":""img/red_lw/4.jpg"",""time"":210},{""stimulus"":""img/red_lw/5.jpg"",""time"":253},{""stimulus"":""img/red_lw/6.jpg"",""time"":302},{""stimulus"":""img/red_lw/7.jpg"",""time"":353},{""stimulus"":""img/red_lw/8.jpg"",""time"":403},{""stimulus"":""img/red_lw/9.jpg"",""time"":453},{""stimulus"":""img/red_lw/10.jpg"",""time"":500},{""stimulus"":""img/red_lw/11.jpg"",""time"":559}]","[]"
"image-keyboard-response","138","119201","0.0-5.0-1.67","5b608617208f1c000100bdeb","bdp_lott","Wed Apr 12 2023 05:27:27 GMT-0400 (Eastern Daylight Time)","258238","red","green","","453","","","","choice","","img/red_lw/choose11.jpg","2","158","red","0.5","0.5","0.5","l","",""
"animation","139","119806","0.0-5.0-2.67","5b608617208f1c000100bdeb","bdp_lott","Wed Apr 12 2023 05:27:27 GMT-0400 (Eastern Daylight Time)","258238","red","green","","","","","","","","","","158","","","","","","[{""stimulus"":""img/red_ll/1.jpg"",""time"":52},{""stimulus"":""img/red_ll/2.jpg"",""time"":105},{""stimulus"":""img/red_ll/3.jpg"",""time"":163},{""stimulus"":""img/red_ll/4.jpg"",""time"":201},{""stimulus"":""img/red_ll/5.jpg"",""time"":252},{""stimulus"":""img/red_ll/6.jpg"",""time"":305},{""stimulus"":""img/red_ll/7.jpg"",""time"":351},{""stimulus"":""img/red_ll/8.jpg"",""time"":404},{""stimulus"":""img/red_ll/9.jpg"",""time"":452},{""stimulus"":""img/red_ll/10.jpg"",""time"":505},{""stimulus"":""img/red_ll/11.jpg"",""time"":556}]","[]"
"image-keyboard-response","140","120692","0.0-5.0-1.68","5b608617208f1c000100bdeb","bdp_lott","Wed Apr 12 2023 05:27:27 GMT-0400 (Eastern Daylight Time)","258238","red","green","","885","","","","choice","","img/red_ll/choose11.jpg","1","157","green","0.5","0.5","0.5","l","",""
"animation","141","121292","0.0-5.0-2.68","5b608617208f1c000100bdeb","bdp_lott","Wed Apr 12 2023 05:27:27 GMT-0400 (Eastern Daylight Time)","258238","red","green","","","","","","","","","","157","","","","","","[{""stimulus"":""img/green_ll/1.jpg"",""time"":51},{""stimulus"":""img/green_ll/2.jpg"",""time"":113},{""stimulus"":""img/green_ll/3.jpg"",""time"":152},{""stimulus"":""img/green_ll/4.jpg"",""time"":201},{""stimulus"":""img/green_ll/5.jpg"",""time"":251},{""stimulus"":""img/green_ll/6.jpg"",""time"":314},{""stimulus"":""img/green_ll/7.jpg"",""time"":357},{""stimulus"":""img/green_ll/8.jpg"",""time"":403},{""stimulus"":""img/green_ll/9.jpg"",""time"":464},{""stimulus"":""img/green_ll/10.jpg"",""time"":501},{""stimulus"":""img/green_ll/11.jpg"",""time"":552}]","[]"
"image-keyboard-response","142","121868","0.0-5.0-1.69","5b608617208f1c000100bdeb","bdp_lott","Wed Apr 12 2023 05:27:27 GMT-0400 (Eastern Daylight Time)","258238","red","green","","575","","","","choice","","img/green_ll/choose11.jpg","2","156","red","0.5","0.5","0.5","l","",""
"animation","143","122477","0.0-5.0-2.69","5b608617208f1c000100bdeb","bdp_lott","Wed Apr 12 2023 05:27:27 GMT-0400 (Eastern Daylight Time)","258238","red","green","","","","","","","","","","156","","","","","","[{""stimulus"":""img/red_ll/1.jpg"",""time"":52},{""stimulus"":""img/red_ll/2.jpg"",""time"":102},{""stimulus"":""img/red_ll/3.jpg"",""time"":153},{""stimulus"":""img/red_ll/4.jpg"",""time"":203},{""stimulus"":""img/red_ll/5.jpg"",""time"":253},{""stimulus"":""img/red_ll/6.jpg"",""time"":304},{""stimulus"":""img/red_ll/7.jpg"",""time"":352},{""stimulus"":""img/red_ll/8.jpg"",""time"":404},{""stimulus"":""img/red_ll/9.jpg"",""time"":464},{""stimulus"":""img/red_ll/10.jpg"",""time"":504},{""stimulus"":""img/red_ll/11.jpg"",""time"":558}]","[]"
"image-keyboard-response","144","122746","0.0-5.0-1.70","5b608617208f1c000100bdeb","bdp_lott","Wed Apr 12 2023 05:27:27 GMT-0400 (Eastern Daylight Time)","258238","red","green","","269","","","","choice","","img/red_ll/choose11.jpg","2","155","red","0.5","0.5","0.5","w","",""
"animation","145","123348","0.0-5.0-2.70","5b608617208f1c000100bdeb","bdp_lott","Wed Apr 12 2023 05:27:27 GMT-0400 (Eastern Daylight Time)","258238","red","green","","","","","","","","","","155","","","","","","[{""stimulus"":""img/red_lw/1.jpg"",""time"":52},{""stimulus"":""img/red_lw/2.jpg"",""time"":102},{""stimulus"":""img/red_lw/3.jpg"",""time"":152},{""stimulus"":""img/red_lw/4.jpg"",""time"":202},{""stimulus"":""img/red_lw/5.jpg"",""time"":261},{""stimulus"":""img/red_lw/6.jpg"",""time"":308},{""stimulus"":""img/red_lw/7.jpg"",""time"":353},{""stimulus"":""img/red_lw/8.jpg"",""time"":403},{""stimulus"":""img/red_lw/9.jpg"",""time"":453},{""stimulus"":""img/red_lw/10.jpg"",""time"":502},{""stimulus"":""img/red_lw/11.jpg"",""time"":557}]","[]"
"image-keyboard-response","146","123761","0.0-5.0-1.71","5b608617208f1c000100bdeb","bdp_lott","Wed Apr 12 2023 05:27:27 GMT-0400 (Eastern Daylight Time)","258238","red","green","","412","","","","choice","","img/red_lw/choose11.jpg","2","154","red","0.5","0.5","0.5","w","",""
"animation","147","124364","0.0-5.0-2.71","5b608617208f1c000100bdeb","bdp_lott","Wed Apr 12 2023 05:27:27 GMT-0400 (Eastern Daylight Time)","258238","red","green","","","","","","","","","","154","","","","","","[{""stimulus"":""img/red_lw/1.jpg"",""time"":53},{""stimulus"":""img/red_lw/2.jpg"",""time"":104},{""stimulus"":""img/red_lw/3.jpg"",""time"":154},{""stimulus"":""img/red_lw/4.jpg"",""time"":202},{""stimulus"":""img/red_lw/5.jpg"",""time"":252},{""stimulus"":""img/red_lw/6.jpg"",""time"":312},{""stimulus"":""img/red_lw/7.jpg"",""time"":352},{""stimulus"":""img/red_lw/8.jpg"",""time"":402},{""stimulus"":""img/red_lw/9.jpg"",""time"":459},{""stimulus"":""img/red_lw/10.jpg"",""time"":504},{""stimulus"":""img/red_lw/11.jpg"",""time"":567}]","[]"
"image-keyboard-response","148","124577","0.0-5.0-1.72","5b608617208f1c000100bdeb","bdp_lott","Wed Apr 12 2023 05:27:27 GMT-0400 (Eastern Daylight Time)","258238","red","green","","211","","","","choice","","img/red_lw/choose11.jpg","2","153","red","0.5","0.5","0.5","w","",""
"animation","149","125177","0.0-5.0-2.72","5b608617208f1c000100bdeb","bdp_lott","Wed Apr 12 2023 05:27:27 GMT-0400 (Eastern Daylight Time)","258238","red","green","","","","","","","","","","153","","","","","","[{""stimulus"":""img/red_lw/1.jpg"",""time"":50},{""stimulus"":""img/red_lw/2.jpg"",""time"":105},{""stimulus"":""img/red_lw/3.jpg"",""time"":151},{""stimulus"":""img/red_lw/4.jpg"",""time"":204},{""stimulus"":""img/red_lw/5.jpg"",""time"":255},{""stimulus"":""img/red_lw/6.jpg"",""time"":301},{""stimulus"":""img/red_lw/7.jpg"",""time"":361},{""stimulus"":""img/red_lw/8.jpg"",""time"":405},{""stimulus"":""img/red_lw/9.jpg"",""time"":454},{""stimulus"":""img/red_lw/10.jpg"",""time"":500},{""stimulus"":""img/red_lw/11.jpg"",""time"":554}]","[]"
"image-keyboard-response","150","125444","0.0-5.0-1.73","5b608617208f1c000100bdeb","bdp_lott","Wed Apr 12 2023 05:27:27 GMT-0400 (Eastern Daylight Time)","258238","red","green","","266","","","","choice","","img/red_lw/choose11.jpg","2","152","red","0.5","0.5","0.5","l","",""
"animation","151","126045","0.0-5.0-2.73","5b608617208f1c000100bdeb","bdp_lott","Wed Apr 12 2023 05:27:27 GMT-0400 (Eastern Daylight Time)","258238","red","green","","","","","","","","","","152","","","","","","[{""stimulus"":""img/red_ll/1.jpg"",""time"":54},{""stimulus"":""img/red_ll/2.jpg"",""time"":102},{""stimulus"":""img/red_ll/3.jpg"",""time"":153},{""stimulus"":""img/red_ll/4.jpg"",""time"":204},{""stimulus"":""img/red_ll/5.jpg"",""time"":252},{""stimulus"":""img/red_ll/6.jpg"",""time"":303},{""stimulus"":""img/red_ll/7.jpg"",""time"":353},{""stimulus"":""img/red_ll/8.jpg"",""time"":403},{""stimulus"":""img/red_ll/9.jpg"",""time"":451},{""stimulus"":""img/red_ll/10.jpg"",""time"":516},{""stimulus"":""img/red_ll/11.jpg"",""time"":550}]","[]"
"image-keyboard-response","152","126318","0.0-5.0-1.74","5b608617208f1c000100bdeb","bdp_lott","Wed Apr 12 2023 05:27:27 GMT-0400 (Eastern Daylight Time)","258238","red","green","","273","","","","choice","","img/red_ll/choose11.jpg","2","151","red","0.5","0.5","0.5","l","",""
"animation","153","126924","0.0-5.0-2.74","5b608617208f1c000100bdeb","bdp_lott","Wed Apr 12 2023 05:27:27 GMT-0400 (Eastern Daylight Time)","258238","red","green","","","","","","","","","","151","","","","","","[{""stimulus"":""img/red_ll/1.jpg"",""time"":51},{""stimulus"":""img/red_ll/2.jpg"",""time"":104},{""stimulus"":""img/red_ll/3.jpg"",""time"":152},{""stimulus"":""img/red_ll/4.jpg"",""time"":209},{""stimulus"":""img/red_ll/5.jpg"",""time"":258},{""stimulus"":""img/red_ll/6.jpg"",""time"":301},{""stimulus"":""img/red_ll/7.jpg"",""time"":362},{""stimulus"":""img/red_ll/8.jpg"",""time"":407},{""stimulus"":""img/red_ll/9.jpg"",""time"":461},{""stimulus"":""img/red_ll/10.jpg"",""time"":509},{""stimulus"":""img/red_ll/11.jpg"",""time"":556}]","[]"
"image-keyboard-response","154","127293","0.0-5.0-1.75","5b608617208f1c000100bdeb","bdp_lott","Wed Apr 12 2023 05:27:27 GMT-0400 (Eastern Daylight Time)","258238","red","green","","369","","","","choice","","img/red_ll/choose11.jpg","2","150","red","0.5","0.5","0.5","l","",""
"animation","155","127898","0.0-5.0-2.75","5b608617208f1c000100bdeb","bdp_lott","Wed Apr 12 2023 05:27:27 GMT-0400 (Eastern Daylight Time)","258238","red","green","","","","","","","","","","150","","","","","","[{""stimulus"":""img/red_ll/1.jpg"",""time"":54},{""stimulus"":""img/red_ll/2.jpg"",""time"":100},{""stimulus"":""img/red_ll/3.jpg"",""time"":160},{""stimulus"":""img/red_ll/4.jpg"",""time"":208},{""stimulus"":""img/red_ll/5.jpg"",""time"":256},{""stimulus"":""img/red_ll/6.jpg"",""time"":308},{""stimulus"":""img/red_ll/7.jpg"",""time"":353},{""stimulus"":""img/red_ll/8.jpg"",""time"":401},{""stimulus"":""img/red_ll/9.jpg"",""time"":452},{""stimulus"":""img/red_ll/10.jpg"",""time"":511},{""stimulus"":""img/red_ll/11.jpg"",""time"":558}]","[]"
"image-keyboard-response","156","128186","0.0-5.0-1.76","5b608617208f1c000100bdeb","bdp_lott","Wed Apr 12 2023 05:27:27 GMT-0400 (Eastern Daylight Time)","258238","red","green","","288","","","","choice","","img/red_ll/choose11.jpg","2","149","red","0.5","0.1","0.5","w","",""
"animation","157","128795","0.0-5.0-2.76","5b608617208f1c000100bdeb","bdp_lott","Wed Apr 12 2023 05:27:27 GMT-0400 (Eastern Daylight Time)","258238","red","green","","","","","","","","","","149","","","","","","[{""stimulus"":""img/red_lw/1.jpg"",""time"":51},{""stimulus"":""img/red_lw/2.jpg"",""time"":101},{""stimulus"":""img/red_lw/3.jpg"",""time"":160},{""stimulus"":""img/red_lw/4.jpg"",""time"":204},{""stimulus"":""img/red_lw/5.jpg"",""time"":264},{""stimulus"":""img/red_lw/6.jpg"",""time"":301},{""stimulus"":""img/red_lw/7.jpg"",""time"":351},{""stimulus"":""img/red_lw/8.jpg"",""time"":404},{""stimulus"":""img/red_lw/9.jpg"",""time"":459},{""stimulus"":""img/red_lw/10.jpg"",""time"":504},{""stimulus"":""img/red_lw/11.jpg"",""time"":554}]","[]"
"image-keyboard-response","158","129324","0.0-5.0-1.77","5b608617208f1c000100bdeb","bdp_lott","Wed Apr 12 2023 05:27:27 GMT-0400 (Eastern Daylight Time)","258238","red","green","","528","","","","choice","","img/red_lw/choose11.jpg","2","148","red","0.5","0.1","0.5","w","",""
"animation","159","129934","0.0-5.0-2.77","5b608617208f1c000100bdeb","bdp_lott","Wed Apr 12 2023 05:27:27 GMT-0400 (Eastern Daylight Time)","258238","red","green","","","","","","","","","","148","","","","","","[{""stimulus"":""img/red_lw/1.jpg"",""time"":51},{""stimulus"":""img/red_lw/2.jpg"",""time"":117},{""stimulus"":""img/red_lw/3.jpg"",""time"":158},{""stimulus"":""img/red_lw/4.jpg"",""time"":201},{""stimulus"":""img/red_lw/5.jpg"",""time"":261},{""stimulus"":""img/red_lw/6.jpg"",""time"":302},{""stimulus"":""img/red_lw/7.jpg"",""time"":355},{""stimulus"":""img/red_lw/8.jpg"",""time"":402},{""stimulus"":""img/red_lw/9.jpg"",""time"":452},{""stimulus"":""img/red_lw/10.jpg"",""time"":501},{""stimulus"":""img/red_lw/11.jpg"",""time"":551}]","[]"
"image-keyboard-response","160","130449","0.0-5.0-1.78","5b608617208f1c000100bdeb","bdp_lott","Wed Apr 12 2023 05:27:27 GMT-0400 (Eastern Daylight Time)","258238","red","green","","514","","","","choice","","img/red_lw/choose11.jpg","2","147","red","0.5","0.1","0.5","l","",""
"animation","161","131052","0.0-5.0-2.78","5b608617208f1c000100bdeb","bdp_lott","Wed Apr 12 2023 05:27:27 GMT-0400 (Eastern Daylight Time)","258238","red","green","","","","","","","","","","147","","","","","","[{""stimulus"":""img/red_ll/1.jpg"",""time"":64},{""stimulus"":""img/red_ll/2.jpg"",""time"":108},{""stimulus"":""img/red_ll/3.jpg"",""time"":157},{""stimulus"":""img/red_ll/4.jpg"",""time"":202},{""stimulus"":""img/red_ll/5.jpg"",""time"":254},{""stimulus"":""img/red_ll/6.jpg"",""time"":304},{""stimulus"":""img/red_ll/7.jpg"",""time"":353},{""stimulus"":""img/red_ll/8.jpg"",""time"":403},{""stimulus"":""img/red_ll/9.jpg"",""time"":453},{""stimulus"":""img/red_ll/10.jpg"",""time"":502},{""stimulus"":""img/red_ll/11.jpg"",""time"":552}]","[]"
"image-keyboard-response","162","131268","0.0-5.0-1.79","5b608617208f1c000100bdeb","bdp_lott","Wed Apr 12 2023 05:27:27 GMT-0400 (Eastern Daylight Time)","258238","red","green","","215","","","","choice","","img/red_ll/choose11.jpg","2","146","red","0.5","0.1","0.5","l","",""
"animation","163","131869","0.0-5.0-2.79","5b608617208f1c000100bdeb","bdp_lott","Wed Apr 12 2023 05:27:27 GMT-0400 (Eastern Daylight Time)","258238","red","green","","","","","","","","","","146","","","","","","[{""stimulus"":""img/red_ll/1.jpg"",""time"":51},{""stimulus"":""img/red_ll/2.jpg"",""time"":102},{""stimulus"":""img/red_ll/3.jpg"",""time"":151},{""stimulus"":""img/red_ll/4.jpg"",""time"":203},{""stimulus"":""img/red_ll/5.jpg"",""time"":254},{""stimulus"":""img/red_ll/6.jpg"",""time"":304},{""stimulus"":""img/red_ll/7.jpg"",""time"":354},{""stimulus"":""img/red_ll/8.jpg"",""time"":409},{""stimulus"":""img/red_ll/9.jpg"",""time"":453},{""stimulus"":""img/red_ll/10.jpg"",""time"":504},{""stimulus"":""img/red_ll/11.jpg"",""time"":551}]","[]"
"image-keyboard-response","164","132113","0.0-5.0-1.80","5b608617208f1c000100bdeb","bdp_lott","Wed Apr 12 2023 05:27:27 GMT-0400 (Eastern Daylight Time)","258238","red","green","","243","","","","choice","","img/red_ll/choose11.jpg","2","145","red","0.5","0.1","0.5","l","",""
"animation","165","132714","0.0-5.0-2.80","5b608617208f1c000100bdeb","bdp_lott","Wed Apr 12 2023 05:27:27 GMT-0400 (Eastern Daylight Time)","258238","red","green","","","","","","","","","","145","","","","","","[{""stimulus"":""img/red_ll/1.jpg"",""time"":52},{""stimulus"":""img/red_ll/2.jpg"",""time"":101},{""stimulus"":""img/red_ll/3.jpg"",""time"":161},{""stimulus"":""img/red_ll/4.jpg"",""time"":201},{""stimulus"":""img/red_ll/5.jpg"",""time"":251},{""stimulus"":""img/red_ll/6.jpg"",""time"":301},{""stimulus"":""img/red_ll/7.jpg"",""time"":360},{""stimulus"":""img/red_ll/8.jpg"",""time"":407},{""stimulus"":""img/red_ll/9.jpg"",""time"":453},{""stimulus"":""img/red_ll/10.jpg"",""time"":508},{""stimulus"":""img/red_ll/11.jpg"",""time"":557}]","[]"
"image-keyboard-response","166","132972","0.0-5.0-1.81","5b608617208f1c000100bdeb","bdp_lott","Wed Apr 12 2023 05:27:27 GMT-0400 (Eastern Daylight Time)","258238","red","green","","257","","","","choice","","img/red_ll/choose11.jpg","2","144","red","0.5","0.1","0.5","w","",""
"animation","167","133572","0.0-5.0-2.81","5b608617208f1c000100bdeb","bdp_lott","Wed Apr 12 2023 05:27:27 GMT-0400 (Eastern Daylight Time)","258238","red","green","","","","","","","","","","144","","","","","","[{""stimulus"":""img/red_lw/1.jpg"",""time"":62},{""stimulus"":""img/red_lw/2.jpg"",""time"":102},{""stimulus"":""img/red_lw/3.jpg"",""time"":153},{""stimulus"":""img/red_lw/4.jpg"",""time"":206},{""stimulus"":""img/red_lw/5.jpg"",""time"":263},{""stimulus"":""img/red_lw/6.jpg"",""time"":314},{""stimulus"":""img/red_lw/7.jpg"",""time"":359},{""stimulus"":""img/red_lw/8.jpg"",""time"":402},{""stimulus"":""img/red_lw/9.jpg"",""time"":452},{""stimulus"":""img/red_lw/10.jpg"",""time"":512},{""stimulus"":""img/red_lw/11.jpg"",""time"":559}]","[]"
"image-keyboard-response","168","134108","0.0-5.0-1.82","5b608617208f1c000100bdeb","bdp_lott","Wed Apr 12 2023 05:27:27 GMT-0400 (Eastern Daylight Time)","258238","red","green","","535","","","","choice","","img/red_lw/choose11.jpg","2","143","red","0.5","0.1","0.5","w","",""
"animation","169","134709","0.0-5.0-2.82","5b608617208f1c000100bdeb","bdp_lott","Wed Apr 12 2023 05:27:27 GMT-0400 (Eastern Daylight Time)","258238","red","green","","","","","","","","","","143","","","","","","[{""stimulus"":""img/red_lw/1.jpg"",""time"":62},{""stimulus"":""img/red_lw/2.jpg"",""time"":101},{""stimulus"":""img/red_lw/3.jpg"",""time"":152},{""stimulus"":""img/red_lw/4.jpg"",""time"":204},{""stimulus"":""img/red_lw/5.jpg"",""time"":252},{""stimulus"":""img/red_lw/6.jpg"",""time"":304},{""stimulus"":""img/red_lw/7.jpg"",""time"":365},{""stimulus"":""img/red_lw/8.jpg"",""time"":411},{""stimulus"":""img/red_lw/9.jpg"",""time"":454},{""stimulus"":""img/red_lw/10.jpg"",""time"":501},{""stimulus"":""img/red_lw/11.jpg"",""time"":551}]","[]"
"image-keyboard-response","170","134905","0.0-5.0-1.83","5b608617208f1c000100bdeb","bdp_lott","Wed Apr 12 2023 05:27:27 GMT-0400 (Eastern Daylight Time)","258238","red","green","","195","","","","choice","","img/red_lw/choose11.jpg","2","142","red","0.5","0.1","0.5","w","",""
"animation","171","135516","0.0-5.0-2.83","5b608617208f1c000100bdeb","bdp_lott","Wed Apr 12 2023 05:27:27 GMT-0400 (Eastern Daylight Time)","258238","red","green","","","","","","","","","","142","","","","","","[{""stimulus"":""img/red_lw/1.jpg"",""time"":59},{""stimulus"":""img/red_lw/2.jpg"",""time"":101},{""stimulus"":""img/red_lw/3.jpg"",""time"":164},{""stimulus"":""img/red_lw/4.jpg"",""time"":205},{""stimulus"":""img/red_lw/5.jpg"",""time"":252},{""stimulus"":""img/red_lw/6.jpg"",""time"":302},{""stimulus"":""img/red_lw/7.jpg"",""time"":358},{""stimulus"":""img/red_lw/8.jpg"",""time"":402},{""stimulus"":""img/red_lw/9.jpg"",""time"":451},{""stimulus"":""img/red_lw/10.jpg"",""time"":504},{""stimulus"":""img/red_lw/11.jpg"",""time"":565}]","[]"
"image-keyboard-response","172","135679","0.0-5.0-1.84","5b608617208f1c000100bdeb","bdp_lott","Wed Apr 12 2023 05:27:27 GMT-0400 (Eastern Daylight Time)","258238","red","green","","162","","","","choice","","img/red_lw/choose11.jpg","2","141","red","0.5","0.1","0.5","l","",""
"animation","173","136283","0.0-5.0-2.84","5b608617208f1c000100bdeb","bdp_lott","Wed Apr 12 2023 05:27:27 GMT-0400 (Eastern Daylight Time)","258238","red","green","","","","","","","","","","141","","","","","","[{""stimulus"":""img/red_ll/1.jpg"",""time"":52},{""stimulus"":""img/red_ll/2.jpg"",""time"":102},{""stimulus"":""img/red_ll/3.jpg"",""time"":163},{""stimulus"":""img/red_ll/4.jpg"",""time"":205},{""stimulus"":""img/red_ll/5.jpg"",""time"":263},{""stimulus"":""img/red_ll/6.jpg"",""time"":302},{""stimulus"":""img/red_ll/7.jpg"",""time"":353},{""stimulus"":""img/red_ll/8.jpg"",""time"":403},{""stimulus"":""img/red_ll/9.jpg"",""time"":452},{""stimulus"":""img/red_ll/10.jpg"",""time"":502},{""stimulus"":""img/red_ll/11.jpg"",""time"":551}]","[]"
"image-keyboard-response","174","136565","0.0-5.0-1.85","5b608617208f1c000100bdeb","bdp_lott","Wed Apr 12 2023 05:27:27 GMT-0400 (Eastern Daylight Time)","258238","red","green","","281","","","","choice","","img/red_ll/choose11.jpg","2","140","red","0.5","0.1","0.5","w","",""
"animation","175","137168","0.0-5.0-2.85","5b608617208f1c000100bdeb","bdp_lott","Wed Apr 12 2023 05:27:27 GMT-0400 (Eastern Daylight Time)","258238","red","green","","","","","","","","","","140","","","","","","[{""stimulus"":""img/red_lw/1.jpg"",""time"":54},{""stimulus"":""img/red_lw/2.jpg"",""time"":102},{""stimulus"":""img/red_lw/3.jpg"",""time"":163},{""stimulus"":""img/red_lw/4.jpg"",""time"":205},{""stimulus"":""img/red_lw/5.jpg"",""time"":263},{""stimulus"":""img/red_lw/6.jpg"",""time"":305},{""stimulus"":""img/red_lw/7.jpg"",""time"":362},{""stimulus"":""img/red_lw/8.jpg"",""time"":409},{""stimulus"":""img/red_lw/9.jpg"",""time"":455},{""stimulus"":""img/red_lw/10.jpg"",""time"":501},{""stimulus"":""img/red_lw/11.jpg"",""time"":566}]","[]"
"image-keyboard-response","176","137401","0.0-5.0-1.86","5b608617208f1c000100bdeb","bdp_lott","Wed Apr 12 2023 05:27:27 GMT-0400 (Eastern Daylight Time)","258238","red","green","","232","","","","choice","","img/red_lw/choose11.jpg","2","139","red","0.5","0.1","0.5","l","",""
"animation","177","138004","0.0-5.0-2.86","5b608617208f1c000100bdeb","bdp_lott","Wed Apr 12 2023 05:27:27 GMT-0400 (Eastern Daylight Time)","258238","red","green","","","","","","","","","","139","","","","","","[{""stimulus"":""img/red_ll/1.jpg"",""time"":63},{""stimulus"":""img/red_ll/2.jpg"",""time"":101},{""stimulus"":""img/red_ll/3.jpg"",""time"":151},{""stimulus"":""img/red_ll/4.jpg"",""time"":201},{""stimulus"":""img/red_ll/5.jpg"",""time"":253},{""stimulus"":""img/red_ll/6.jpg"",""time"":303},{""stimulus"":""img/red_ll/7.jpg"",""time"":354},{""stimulus"":""img/red_ll/8.jpg"",""time"":405},{""stimulus"":""img/red_ll/9.jpg"",""time"":455},{""stimulus"":""img/red_ll/10.jpg"",""time"":516},{""stimulus"":""img/red_ll/11.jpg"",""time"":563}]","[]"
"image-keyboard-response","178","138200","0.0-5.0-1.87","5b608617208f1c000100bdeb","bdp_lott","Wed Apr 12 2023 05:27:27 GMT-0400 (Eastern Daylight Time)","258238","red","green","","196","","","","choice","","img/red_ll/choose11.jpg","2","138","red","0.5","0.1","0.5","w","",""
"animation","179","138806","0.0-5.0-2.87","5b608617208f1c000100bdeb","bdp_lott","Wed Apr 12 2023 05:27:27 GMT-0400 (Eastern Daylight Time)","258238","red","green","","","","","","","","","","138","","","","","","[{""stimulus"":""img/red_lw/1.jpg"",""time"":52},{""stimulus"":""img/red_lw/2.jpg"",""time"":103},{""stimulus"":""img/red_lw/3.jpg"",""time"":151},{""stimulus"":""img/red_lw/4.jpg"",""time"":202},{""stimulus"":""img/red_lw/5.jpg"",""time"":264},{""stimulus"":""img/red_lw/6.jpg"",""time"":301},{""stimulus"":""img/red_lw/7.jpg"",""time"":359},{""stimulus"":""img/red_lw/8.jpg"",""time"":416},{""stimulus"":""img/red_lw/9.jpg"",""time"":461},{""stimulus"":""img/red_lw/10.jpg"",""time"":502},{""stimulus"":""img/red_lw/11.jpg"",""time"":550}]","[]"
"image-keyboard-response","180","139062","0.0-5.0-1.88","5b608617208f1c000100bdeb","bdp_lott","Wed Apr 12 2023 05:27:27 GMT-0400 (Eastern Daylight Time)","258238","red","green","","256","","","","choice","","img/red_lw/choose11.jpg","2","137","red","0.5","0.1","0.5","w","",""
"animation","181","139663","0.0-5.0-2.88","5b608617208f1c000100bdeb","bdp_lott","Wed Apr 12 2023 05:27:27 GMT-0400 (Eastern Daylight Time)","258238","red","green","","","","","","","","","","137","","","","","","[{""stimulus"":""img/red_lw/1.jpg"",""time"":69},{""stimulus"":""img/red_lw/2.jpg"",""time"":102},{""stimulus"":""img/red_lw/3.jpg"",""time"":153},{""stimulus"":""img/red_lw/4.jpg"",""time"":203},{""stimulus"":""img/red_lw/5.jpg"",""time"":253},{""stimulus"":""img/red_lw/6.jpg"",""time"":302},{""stimulus"":""img/red_lw/7.jpg"",""time"":364},{""stimulus"":""img/red_lw/8.jpg"",""time"":402},{""stimulus"":""img/red_lw/9.jpg"",""time"":464},{""stimulus"":""img/red_lw/10.jpg"",""time"":508},{""stimulus"":""img/red_lw/11.jpg"",""time"":560}]","[]"
"image-keyboard-response","182","139902","0.0-5.0-1.89","5b608617208f1c000100bdeb","bdp_lott","Wed Apr 12 2023 05:27:27 GMT-0400 (Eastern Daylight Time)","258238","red","green","","238","","","","choice","","img/red_lw/choose11.jpg","2","136","red","0.5","0.1","0.5","l","",""
"animation","183","140503","0.0-5.0-2.89","5b608617208f1c000100bdeb","bdp_lott","Wed Apr 12 2023 05:27:27 GMT-0400 (Eastern Daylight Time)","258238","red","green","","","","","","","","","","136","","","","","","[{""stimulus"":""img/red_ll/1.jpg"",""time"":59},{""stimulus"":""img/red_ll/2.jpg"",""time"":109},{""stimulus"":""img/red_ll/3.jpg"",""time"":151},{""stimulus"":""img/red_ll/4.jpg"",""time"":204},{""stimulus"":""img/red_ll/5.jpg"",""time"":254},{""stimulus"":""img/red_ll/6.jpg"",""time"":301},{""stimulus"":""img/red_ll/7.jpg"",""time"":355},{""stimulus"":""img/red_ll/8.jpg"",""time"":401},{""stimulus"":""img/red_ll/9.jpg"",""time"":453},{""stimulus"":""img/red_ll/10.jpg"",""time"":502},{""stimulus"":""img/red_ll/11.jpg"",""time"":563}]","[]"
"image-keyboard-response","184","140789","0.0-5.0-1.90","5b608617208f1c000100bdeb","bdp_lott","Wed Apr 12 2023 05:27:27 GMT-0400 (Eastern Daylight Time)","258238","red","green","","285","","","","choice","","img/red_ll/choose11.jpg","2","135","red","0.5","0.1","0.5","l","",""
"animation","185","141390","0.0-5.0-2.90","5b608617208f1c000100bdeb","bdp_lott","Wed Apr 12 2023 05:27:27 GMT-0400 (Eastern Daylight Time)","258238","red","green","","","","","","","","","","135","","","","","","[{""stimulus"":""img/red_ll/1.jpg"",""time"":65},{""stimulus"":""img/red_ll/2.jpg"",""time"":101},{""stimulus"":""img/red_ll/3.jpg"",""time"":152},{""stimulus"":""img/red_ll/4.jpg"",""time"":210},{""stimulus"":""img/red_ll/5.jpg"",""time"":262},{""stimulus"":""img/red_ll/6.jpg"",""time"":307},{""stimulus"":""img/red_ll/7.jpg"",""time"":359},{""stimulus"":""img/red_ll/8.jpg"",""time"":402},{""stimulus"":""img/red_ll/9.jpg"",""time"":454},{""stimulus"":""img/red_ll/10.jpg"",""time"":504},{""stimulus"":""img/red_ll/11.jpg"",""time"":552}]","[]"
"image-keyboard-response","186","141811","0.0-5.0-1.91","5b608617208f1c000100bdeb","bdp_lott","Wed Apr 12 2023 05:27:27 GMT-0400 (Eastern Daylight Time)","258238","red","green","","419","","","","choice","","img/red_ll/choose11.jpg","2","134","red","0.5","0.1","0.5","w","",""
"animation","187","142413","0.0-5.0-2.91","5b608617208f1c000100bdeb","bdp_lott","Wed Apr 12 2023 05:27:27 GMT-0400 (Eastern Daylight Time)","258238","red","green","","","","","","","","","","134","","","","","","[{""stimulus"":""img/red_lw/1.jpg"",""time"":58},{""stimulus"":""img/red_lw/2.jpg"",""time"":101},{""stimulus"":""img/red_lw/3.jpg"",""time"":162},{""stimulus"":""img/red_lw/4.jpg"",""time"":210},{""stimulus"":""img/red_lw/5.jpg"",""time"":254},{""stimulus"":""img/red_lw/6.jpg"",""time"":302},{""stimulus"":""img/red_lw/7.jpg"",""time"":352},{""stimulus"":""img/red_lw/8.jpg"",""time"":402},{""stimulus"":""img/red_lw/9.jpg"",""time"":455},{""stimulus"":""img/red_lw/10.jpg"",""time"":504},{""stimulus"":""img/red_lw/11.jpg"",""time"":553}]","[]"
"image-keyboard-response","188","142660","0.0-5.0-1.92","5b608617208f1c000100bdeb","bdp_lott","Wed Apr 12 2023 05:27:27 GMT-0400 (Eastern Daylight Time)","258238","red","green","","246","","","","choice","","img/red_lw/choose11.jpg","2","133","red","0.5","0.1","0.5","l","",""
"animation","189","143264","0.0-5.0-2.92","5b608617208f1c000100bdeb","bdp_lott","Wed Apr 12 2023 05:27:27 GMT-0400 (Eastern Daylight Time)","258238","red","green","","","","","","","","","","133","","","","","","[{""stimulus"":""img/red_ll/1.jpg"",""time"":63},{""stimulus"":""img/red_ll/2.jpg"",""time"":101},{""stimulus"":""img/red_ll/3.jpg"",""time"":162},{""stimulus"":""img/red_ll/4.jpg"",""time"":208},{""stimulus"":""img/red_ll/5.jpg"",""time"":251},{""stimulus"":""img/red_ll/6.jpg"",""time"":301},{""stimulus"":""img/red_ll/7.jpg"",""time"":355},{""stimulus"":""img/red_ll/8.jpg"",""time"":401},{""stimulus"":""img/red_ll/9.jpg"",""time"":452},{""stimulus"":""img/red_ll/10.jpg"",""time"":502},{""stimulus"":""img/red_ll/11.jpg"",""time"":551}]","[]"
"image-keyboard-response","190","143837","0.0-5.0-1.93","5b608617208f1c000100bdeb","bdp_lott","Wed Apr 12 2023 05:27:27 GMT-0400 (Eastern Daylight Time)","258238","red","green","","572","","","","choice","","img/red_ll/choose11.jpg","2","132","red","0.5","0.1","0.5","w","",""
"animation","191","144437","0.0-5.0-2.93","5b608617208f1c000100bdeb","bdp_lott","Wed Apr 12 2023 05:27:27 GMT-0400 (Eastern Daylight Time)","258238","red","green","","","","","","","","","","132","","","","","","[{""stimulus"":""img/red_lw/1.jpg"",""time"":52},{""stimulus"":""img/red_lw/2.jpg"",""time"":111},{""stimulus"":""img/red_lw/3.jpg"",""time"":157},{""stimulus"":""img/red_lw/4.jpg"",""time"":204},{""stimulus"":""img/red_lw/5.jpg"",""time"":251},{""stimulus"":""img/red_lw/6.jpg"",""time"":302},{""stimulus"":""img/red_lw/7.jpg"",""time"":352},{""stimulus"":""img/red_lw/8.jpg"",""time"":404},{""stimulus"":""img/red_lw/9.jpg"",""time"":452},{""stimulus"":""img/red_lw/10.jpg"",""time"":505},{""stimulus"":""img/red_lw/11.jpg"",""time"":552}]","[]"
"image-keyboard-response","192","144669","0.0-5.0-1.94","5b608617208f1c000100bdeb","bdp_lott","Wed Apr 12 2023 05:27:27 GMT-0400 (Eastern Daylight Time)","258238","red","green","","231","","","","choice","","img/red_lw/choose11.jpg","2","131","red","0.5","0.1","0.5","w","",""
