"trial_type","trial_index","time_elapsed","internal_node_id","subject_id","task","startTime","totalTime","fairMachine","unfairMachine","view_history","rt","event","trial","time","trialtype","success","stimulus","key_press","roundsLeft","chosen","pFairMachWin","pUnfairMachWin","pTrialWin","outcome","animation_sequence","responses"
"pavlovia","0","1","0.0-0.0","60fcf7102d7c9907d95a0920","bdp_lott","Thu Apr 13 2023 09:57:49 GMT-0700 (PDT)","288018","green","red","","","","","","","","","","","","","","","","",""
"instructions","1","1763","0.0-1.0","60fcf7102d7c9907d95a0920","bdp_lott","Thu Apr 13 2023 09:57:49 GMT-0700 (PDT)","288018","green","red","[{""page_index"":0,""viewing_time"":1760}]","1761","","","","","","","","","","","","","","",""
"","","","","60fcf7102d7c9907d95a0920","bdp_lott","Thu Apr 13 2023 09:57:49 GMT-0700 (PDT)","288018","green","red","","","fullscreenenter","2","3560","fullscreenenter","","","","","","","","","","",""
"fullscreen","2","4522","0.0-2.0","60fcf7102d7c9907d95a0920","bdp_lott","Thu Apr 13 2023 09:57:49 GMT-0700 (PDT)","288018","green","red","","","","","","","true","","","","","","","","","",""
"instructions","3","19641","0.0-4.0","60fcf7102d7c9907d95a0920","bdp_lott","Thu Apr 13 2023 09:57:49 GMT-0700 (PDT)","288018","green","red","[{""page_index"":0,""viewing_time"":15116}]","15117","","","","","","","","","","","","","","",""
"image-keyboard-response","4","22014","0.0-5.0-1.0","60fcf7102d7c9907d95a0920","bdp_lott","Thu Apr 13 2023 09:57:49 GMT-0700 (PDT)","288018","green","red","","2370","","","","choice","","img/red_ll/initchoose11.jpg","1","225","green","0.5","0.5","0.5","l","",""
"animation","5","22628","0.0-5.0-2.0","60fcf7102d7c9907d95a0920","bdp_lott","Thu Apr 13 2023 09:57:49 GMT-0700 (PDT)","288018","green","red","","","","","","","","","","225","","","","","","[{""stimulus"":""img/green_ll/1.jpg"",""time"":51},{""stimulus"":""img/green_ll/2.jpg"",""time"":102},{""stimulus"":""img/green_ll/3.jpg"",""time"":153},{""stimulus"":""img/green_ll/4.jpg"",""time"":205},{""stimulus"":""img/green_ll/5.jpg"",""time"":255},{""stimulus"":""img/green_ll/6.jpg"",""time"":306},{""stimulus"":""img/green_ll/7.jpg"",""time"":357},{""stimulus"":""img/green_ll/8.jpg"",""time"":408},{""stimulus"":""img/green_ll/9.jpg"",""time"":459},{""stimulus"":""img/green_ll/10.jpg"",""time"":510},{""stimulus"":""img/green_ll/11.jpg"",""time"":561}]","[]"
"image-keyboard-response","6","24291","0.0-5.0-1.1","60fcf7102d7c9907d95a0920","bdp_lott","Thu Apr 13 2023 09:57:49 GMT-0700 (PDT)","288018","green","red","","1661","","","","choice","","img/green_ll/choose11.jpg","2","224","red","0.5","0.5","0.5","w","",""
"animation","7","24903","0.0-5.0-2.1","60fcf7102d7c9907d95a0920","bdp_lott","Thu Apr 13 2023 09:57:49 GMT-0700 (PDT)","288018","green","red","","","","","","","","","","224","","","","","","[{""stimulus"":""img/red_lw/1.jpg"",""time"":51},{""stimulus"":""img/red_lw/2.jpg"",""time"":102},{""stimulus"":""img/red_lw/3.jpg"",""time"":153},{""stimulus"":""img/red_lw/4.jpg"",""time"":204},{""stimulus"":""img/red_lw/5.jpg"",""time"":255},{""stimulus"":""img/red_lw/6.jpg"",""time"":306},{""stimulus"":""img/red_lw/7.jpg"",""time"":357},{""stimulus"":""img/red_lw/8.jpg"",""time"":408},{""stimulus"":""img/red_lw/9.jpg"",""time"":459},{""stimulus"":""img/red_lw/10.jpg"",""time"":510},{""stimulus"":""img/red_lw/11.jpg"",""time"":560}]","[]"
"image-keyboard-response","8","26527","0.0-5.0-1.2","60fcf7102d7c9907d95a0920","bdp_lott","Thu Apr 13 2023 09:57:49 GMT-0700 (PDT)","288018","green","red","","1622","","","","choice","","img/red_lw/choose11.jpg","2","223","red","0.5","0.5","0.5","w","",""
"animation","9","27138","0.0-5.0-2.2","60fcf7102d7c9907d95a0920","bdp_lott","Thu Apr 13 2023 09:57:49 GMT-0700 (PDT)","288018","green","red","","","","","","","","","","223","","","","","","[{""stimulus"":""img/red_lw/1.jpg"",""time"":51},{""stimulus"":""img/red_lw/2.jpg"",""time"":101},{""stimulus"":""img/red_lw/3.jpg"",""time"":152},{""stimulus"":""img/red_lw/4.jpg"",""time"":203},{""stimulus"":""img/red_lw/5.jpg"",""time"":254},{""stimulus"":""img/red_lw/6.jpg"",""time"":305},{""stimulus"":""img/red_lw/7.jpg"",""time"":356},{""stimulus"":""img/red_lw/8.jpg"",""time"":407},{""stimulus"":""img/red_lw/9.jpg"",""time"":458},{""stimulus"":""img/red_lw/10.jpg"",""time"":509},{""stimulus"":""img/red_lw/11.jpg"",""time"":559}]","[]"
"image-keyboard-response","10","28318","0.0-5.0-1.3","60fcf7102d7c9907d95a0920","bdp_lott","Thu Apr 13 2023 09:57:49 GMT-0700 (PDT)","288018","green","red","","1178","","","","choice","","img/red_lw/choose11.jpg","2","222","red","0.5","0.5","0.5","l","",""
"animation","11","28930","0.0-5.0-2.3","60fcf7102d7c9907d95a0920","bdp_lott","Thu Apr 13 2023 09:57:49 GMT-0700 (PDT)","288018","green","red","","","","","","","","","","222","","","","","","[{""stimulus"":""img/red_ll/1.jpg"",""time"":52},{""stimulus"":""img/red_ll/2.jpg"",""time"":102},{""stimulus"":""img/red_ll/3.jpg"",""time"":154},{""stimulus"":""img/red_ll/4.jpg"",""time"":205},{""stimulus"":""img/red_ll/5.jpg"",""time"":256},{""stimulus"":""img/red_ll/6.jpg"",""time"":307},{""stimulus"":""img/red_ll/7.jpg"",""time"":358},{""stimulus"":""img/red_ll/8.jpg"",""time"":409},{""stimulus"":""img/red_ll/9.jpg"",""time"":460},{""stimulus"":""img/red_ll/10.jpg"",""time"":511},{""stimulus"":""img/red_ll/11.jpg"",""time"":561}]","[]"
"image-keyboard-response","12","29660","0.0-5.0-1.4","60fcf7102d7c9907d95a0920","bdp_lott","Thu Apr 13 2023 09:57:49 GMT-0700 (PDT)","288018","green","red","","727","","","","choice","","img/red_ll/choose11.jpg","1","221","green","0.5","0.5","0.5","w","",""
"animation","13","30273","0.0-5.0-2.4","60fcf7102d7c9907d95a0920","bdp_lott","Thu Apr 13 2023 09:57:49 GMT-0700 (PDT)","288018","green","red","","","","","","","","","","221","","","","","","[{""stimulus"":""img/green_wl/1.jpg"",""time"":51},{""stimulus"":""img/green_wl/2.jpg"",""time"":102},{""stimulus"":""img/green_wl/3.jpg"",""time"":153},{""stimulus"":""img/green_wl/4.jpg"",""time"":204},{""stimulus"":""img/green_wl/5.jpg"",""time"":255},{""stimulus"":""img/green_wl/6.jpg"",""time"":306},{""stimulus"":""img/green_wl/7.jpg"",""time"":357},{""stimulus"":""img/green_wl/8.jpg"",""time"":408},{""stimulus"":""img/green_wl/9.jpg"",""time"":459},{""stimulus"":""img/green_wl/10.jpg"",""time"":510},{""stimulus"":""img/green_wl/11.jpg"",""time"":561}]","[]"
"image-keyboard-response","14","31084","0.0-5.0-1.5","60fcf7102d7c9907d95a0920","bdp_lott","Thu Apr 13 2023 09:57:49 GMT-0700 (PDT)","288018","green","red","","809","","","","choice","","img/green_wl/choose11.jpg","1","220","green","0.5","0.5","0.5","l","",""
"animation","15","31697","0.0-5.0-2.5","60fcf7102d7c9907d95a0920","bdp_lott","Thu Apr 13 2023 09:57:49 GMT-0700 (PDT)","288018","green","red","","","","","","","","","","220","","","","","","[{""stimulus"":""img/green_ll/1.jpg"",""time"":52},{""stimulus"":""img/green_ll/2.jpg"",""time"":103},{""stimulus"":""img/green_ll/3.jpg"",""time"":153},{""stimulus"":""img/green_ll/4.jpg"",""time"":204},{""stimulus"":""img/green_ll/5.jpg"",""time"":255},{""stimulus"":""img/green_ll/6.jpg"",""time"":306},{""stimulus"":""img/green_ll/7.jpg"",""time"":357},{""stimulus"":""img/green_ll/8.jpg"",""time"":409},{""stimulus"":""img/green_ll/9.jpg"",""time"":460},{""stimulus"":""img/green_ll/10.jpg"",""time"":511},{""stimulus"":""img/green_ll/11.jpg"",""time"":562}]","[]"
"image-keyboard-response","16","32440","0.0-5.0-1.6","60fcf7102d7c9907d95a0920","bdp_lott","Thu Apr 13 2023 09:57:49 GMT-0700 (PDT)","288018","green","red","","741","","","","choice","","img/green_ll/choose11.jpg","2","219","red","0.5","0.5","0.5","l","",""
"animation","17","33053","0.0-5.0-2.6","60fcf7102d7c9907d95a0920","bdp_lott","Thu Apr 13 2023 09:57:49 GMT-0700 (PDT)","288018","green","red","","","","","","","","","","219","","","","","","[{""stimulus"":""img/red_ll/1.jpg"",""time"":52},{""stimulus"":""img/red_ll/2.jpg"",""time"":103},{""stimulus"":""img/red_ll/3.jpg"",""time"":154},{""stimulus"":""img/red_ll/4.jpg"",""time"":205},{""stimulus"":""img/red_ll/5.jpg"",""time"":255},{""stimulus"":""img/red_ll/6.jpg"",""time"":307},{""stimulus"":""img/red_ll/7.jpg"",""time"":358},{""stimulus"":""img/red_ll/8.jpg"",""time"":409},{""stimulus"":""img/red_ll/9.jpg"",""time"":460},{""stimulus"":""img/red_ll/10.jpg"",""time"":511},{""stimulus"":""img/red_ll/11.jpg"",""time"":562}]","[]"
"image-keyboard-response","18","34228","0.0-5.0-1.7","60fcf7102d7c9907d95a0920","bdp_lott","Thu Apr 13 2023 09:57:49 GMT-0700 (PDT)","288018","green","red","","1174","","","","choice","","img/red_ll/choose11.jpg","1","218","green","0.5","0.5","0.5","w","",""
"animation","19","34841","0.0-5.0-2.7","60fcf7102d7c9907d95a0920","bdp_lott","Thu Apr 13 2023 09:57:49 GMT-0700 (PDT)","288018","green","red","","","","","","","","","","218","","","","","","[{""stimulus"":""img/green_wl/1.jpg"",""time"":55},{""stimulus"":""img/green_wl/2.jpg"",""time"":103},{""stimulus"":""img/green_wl/3.jpg"",""time"":153},{""stimulus"":""img/green_wl/4.jpg"",""time"":204},{""stimulus"":""img/green_wl/5.jpg"",""time"":255},{""stimulus"":""img/green_wl/6.jpg"",""time"":306},{""stimulus"":""img/green_wl/7.jpg"",""time"":358},{""stimulus"":""img/green_wl/8.jpg"",""time"":408},{""stimulus"":""img/green_wl/9.jpg"",""time"":459},{""stimulus"":""img/green_wl/10.jpg"",""time"":510},{""stimulus"":""img/green_wl/11.jpg"",""time"":561}]","[]"
"image-keyboard-response","20","36148","0.0-5.0-1.8","60fcf7102d7c9907d95a0920","bdp_lott","Thu Apr 13 2023 09:57:49 GMT-0700 (PDT)","288018","green","red","","1306","","","","choice","","img/green_wl/choose11.jpg","2","217","red","0.5","0.5","0.5","l","",""
"animation","21","36762","0.0-5.0-2.8","60fcf7102d7c9907d95a0920","bdp_lott","Thu Apr 13 2023 09:57:49 GMT-0700 (PDT)","288018","green","red","","","","","","","","","","217","","","","","","[{""stimulus"":""img/red_wl/1.jpg"",""time"":52},{""stimulus"":""img/red_wl/2.jpg"",""time"":103},{""stimulus"":""img/red_wl/3.jpg"",""time"":154},{""stimulus"":""img/red_wl/4.jpg"",""time"":205},{""stimulus"":""img/red_wl/5.jpg"",""time"":256},{""stimulus"":""img/red_wl/6.jpg"",""time"":307},{""stimulus"":""img/red_wl/7.jpg"",""time"":358},{""stimulus"":""img/red_wl/8.jpg"",""time"":409},{""stimulus"":""img/red_wl/9.jpg"",""time"":460},{""stimulus"":""img/red_wl/10.jpg"",""time"":511},{""stimulus"":""img/red_wl/11.jpg"",""time"":562}]","[]"
"image-keyboard-response","22","37566","0.0-5.0-1.9","60fcf7102d7c9907d95a0920","bdp_lott","Thu Apr 13 2023 09:57:49 GMT-0700 (PDT)","288018","green","red","","802","","","","choice","","img/red_wl/choose11.jpg","1","216","green","0.5","0.5","0.5","w","",""
"animation","23","38179","0.0-5.0-2.9","60fcf7102d7c9907d95a0920","bdp_lott","Thu Apr 13 2023 09:57:49 GMT-0700 (PDT)","288018","green","red","","","","","","","","","","216","","","","","","[{""stimulus"":""img/green_wl/1.jpg"",""time"":52},{""stimulus"":""img/green_wl/2.jpg"",""time"":103},{""stimulus"":""img/green_wl/3.jpg"",""time"":154},{""stimulus"":""img/green_wl/4.jpg"",""time"":205},{""stimulus"":""img/green_wl/5.jpg"",""time"":256},{""stimulus"":""img/green_wl/6.jpg"",""time"":307},{""stimulus"":""img/green_wl/7.jpg"",""time"":358},{""stimulus"":""img/green_wl/8.jpg"",""time"":409},{""stimulus"":""img/green_wl/9.jpg"",""time"":460},{""stimulus"":""img/green_wl/10.jpg"",""time"":511},{""stimulus"":""img/green_wl/11.jpg"",""time"":562}]","[]"
"image-keyboard-response","24","39545","0.0-5.0-1.10","60fcf7102d7c9907d95a0920","bdp_lott","Thu Apr 13 2023 09:57:49 GMT-0700 (PDT)","288018","green","red","","1364","","","","choice","","img/green_wl/choose11.jpg","2","215","red","0.5","0.5","0.5","l","",""
"animation","25","40157","0.0-5.0-2.10","60fcf7102d7c9907d95a0920","bdp_lott","Thu Apr 13 2023 09:57:49 GMT-0700 (PDT)","288018","green","red","","","","","","","","","","215","","","","","","[{""stimulus"":""img/red_wl/1.jpg"",""time"":52},{""stimulus"":""img/red_wl/2.jpg"",""time"":102},{""stimulus"":""img/red_wl/3.jpg"",""time"":153},{""stimulus"":""img/red_wl/4.jpg"",""time"":204},{""stimulus"":""img/red_wl/5.jpg"",""time"":255},{""stimulus"":""img/red_wl/6.jpg"",""time"":307},{""stimulus"":""img/red_wl/7.jpg"",""time"":358},{""stimulus"":""img/red_wl/8.jpg"",""time"":409},{""stimulus"":""img/red_wl/9.jpg"",""time"":459},{""stimulus"":""img/red_wl/10.jpg"",""time"":510},{""stimulus"":""img/red_wl/11.jpg"",""time"":561}]","[]"
"image-keyboard-response","26","41603","0.0-5.0-1.11","60fcf7102d7c9907d95a0920","bdp_lott","Thu Apr 13 2023 09:57:49 GMT-0700 (PDT)","288018","green","red","","1444","","","","choice","","img/red_wl/choose11.jpg","2","214","red","0.5","0.5","0.5","l","",""
"animation","27","42216","0.0-5.0-2.11","60fcf7102d7c9907d95a0920","bdp_lott","Thu Apr 13 2023 09:57:49 GMT-0700 (PDT)","288018","green","red","","","","","","","","","","214","","","","","","[{""stimulus"":""img/red_wl/1.jpg"",""time"":52},{""stimulus"":""img/red_wl/2.jpg"",""time"":103},{""stimulus"":""img/red_wl/3.jpg"",""time"":154},{""stimulus"":""img/red_wl/4.jpg"",""time"":205},{""stimulus"":""img/red_wl/5.jpg"",""time"":256},{""stimulus"":""img/red_wl/6.jpg"",""time"":307},{""stimulus"":""img/red_wl/7.jpg"",""time"":358},{""stimulus"":""img/red_wl/8.jpg"",""time"":409},{""stimulus"":""img/red_wl/9.jpg"",""time"":460},{""stimulus"":""img/red_wl/10.jpg"",""time"":511},{""stimulus"":""img/red_wl/11.jpg"",""time"":562}]","[]"
"image-keyboard-response","28","42551","0.0-5.0-1.12","60fcf7102d7c9907d95a0920","bdp_lott","Thu Apr 13 2023 09:57:49 GMT-0700 (PDT)","288018","green","red","","332","","","","choice","","img/red_wl/choose11.jpg","1","213","green","0.5","0.5","0.5","l","",""
"animation","29","43163","0.0-5.0-2.12","60fcf7102d7c9907d95a0920","bdp_lott","Thu Apr 13 2023 09:57:49 GMT-0700 (PDT)","288018","green","red","","","","","","","","","","213","","","","","","[{""stimulus"":""img/green_ll/1.jpg"",""time"":52},{""stimulus"":""img/green_ll/2.jpg"",""time"":103},{""stimulus"":""img/green_ll/3.jpg"",""time"":153},{""stimulus"":""img/green_ll/4.jpg"",""time"":204},{""stimulus"":""img/green_ll/5.jpg"",""time"":255},{""stimulus"":""img/green_ll/6.jpg"",""time"":306},{""stimulus"":""img/green_ll/7.jpg"",""time"":357},{""stimulus"":""img/green_ll/8.jpg"",""time"":408},{""stimulus"":""img/green_ll/9.jpg"",""time"":459},{""stimulus"":""img/green_ll/10.jpg"",""time"":511},{""stimulus"":""img/green_ll/11.jpg"",""time"":561}]","[]"
"image-keyboard-response","30","44052","0.0-5.0-1.13","60fcf7102d7c9907d95a0920","bdp_lott","Thu Apr 13 2023 09:57:49 GMT-0700 (PDT)","288018","green","red","","887","","","","choice","","img/green_ll/choose11.jpg","1","212","green","0.5","0.5","0.5","l","",""
"animation","31","44664","0.0-5.0-2.13","60fcf7102d7c9907d95a0920","bdp_lott","Thu Apr 13 2023 09:57:49 GMT-0700 (PDT)","288018","green","red","","","","","","","","","","212","","","","","","[{""stimulus"":""img/green_ll/1.jpg"",""time"":51},{""stimulus"":""img/green_ll/2.jpg"",""time"":102},{""stimulus"":""img/green_ll/3.jpg"",""time"":153},{""stimulus"":""img/green_ll/4.jpg"",""time"":204},{""stimulus"":""img/green_ll/5.jpg"",""time"":255},{""stimulus"":""img/green_ll/6.jpg"",""time"":306},{""stimulus"":""img/green_ll/7.jpg"",""time"":357},{""stimulus"":""img/green_ll/8.jpg"",""time"":408},{""stimulus"":""img/green_ll/9.jpg"",""time"":459},{""stimulus"":""img/green_ll/10.jpg"",""time"":510},{""stimulus"":""img/green_ll/11.jpg"",""time"":561}]","[]"
"image-keyboard-response","32","45229","0.0-5.0-1.14","60fcf7102d7c9907d95a0920","bdp_lott","Thu Apr 13 2023 09:57:49 GMT-0700 (PDT)","288018","green","red","","563","","","","choice","","img/green_ll/choose11.jpg","1","211","green","0.5","0.5","0.5","w","",""
"animation","33","45843","0.0-5.0-2.14","60fcf7102d7c9907d95a0920","bdp_lott","Thu Apr 13 2023 09:57:49 GMT-0700 (PDT)","288018","green","red","","","","","","","","","","211","","","","","","[{""stimulus"":""img/green_wl/1.jpg"",""time"":51},{""stimulus"":""img/green_wl/2.jpg"",""time"":102},{""stimulus"":""img/green_wl/3.jpg"",""time"":153},{""stimulus"":""img/green_wl/4.jpg"",""time"":204},{""stimulus"":""img/green_wl/5.jpg"",""time"":255},{""stimulus"":""img/green_wl/6.jpg"",""time"":306},{""stimulus"":""img/green_wl/7.jpg"",""time"":357},{""stimulus"":""img/green_wl/8.jpg"",""time"":408},{""stimulus"":""img/green_wl/9.jpg"",""time"":459},{""stimulus"":""img/green_wl/10.jpg"",""time"":511},{""stimulus"":""img/green_wl/11.jpg"",""time"":562}]","[]"
"image-keyboard-response","34","46908","0.0-5.0-1.15","60fcf7102d7c9907d95a0920","bdp_lott","Thu Apr 13 2023 09:57:49 GMT-0700 (PDT)","288018","green","red","","1064","","","","choice","","img/green_wl/choose11.jpg","1","210","green","0.5","0.5","0.5","w","",""
"animation","35","47521","0.0-5.0-2.15","60fcf7102d7c9907d95a0920","bdp_lott","Thu Apr 13 2023 09:57:49 GMT-0700 (PDT)","288018","green","red","","","","","","","","","","210","","","","","","[{""stimulus"":""img/green_wl/1.jpg"",""time"":52},{""stimulus"":""img/green_wl/2.jpg"",""time"":102},{""stimulus"":""img/green_wl/3.jpg"",""time"":153},{""stimulus"":""img/green_wl/4.jpg"",""time"":204},{""stimulus"":""img/green_wl/5.jpg"",""time"":255},{""stimulus"":""img/green_wl/6.jpg"",""time"":306},{""stimulus"":""img/green_wl/7.jpg"",""time"":357},{""stimulus"":""img/green_wl/8.jpg"",""time"":408},{""stimulus"":""img/green_wl/9.jpg"",""time"":459},{""stimulus"":""img/green_wl/10.jpg"",""time"":510},{""stimulus"":""img/green_wl/11.jpg"",""time"":561}]","[]"
"image-keyboard-response","36","48136","0.0-5.0-1.16","60fcf7102d7c9907d95a0920","bdp_lott","Thu Apr 13 2023 09:57:49 GMT-0700 (PDT)","288018","green","red","","613","","","","choice","","img/green_wl/choose11.jpg","1","209","green","0.5","0.5","0.5","l","",""
"animation","37","48747","0.0-5.0-2.16","60fcf7102d7c9907d95a0920","bdp_lott","Thu Apr 13 2023 09:57:49 GMT-0700 (PDT)","288018","green","red","","","","","","","","","","209","","","","","","[{""stimulus"":""img/green_ll/1.jpg"",""time"":52},{""stimulus"":""img/green_ll/2.jpg"",""time"":103},{""stimulus"":""img/green_ll/3.jpg"",""time"":154},{""stimulus"":""img/green_ll/4.jpg"",""time"":205},{""stimulus"":""img/green_ll/5.jpg"",""time"":255},{""stimulus"":""img/green_ll/6.jpg"",""time"":306},{""stimulus"":""img/green_ll/7.jpg"",""time"":356},{""stimulus"":""img/green_ll/8.jpg"",""time"":407},{""stimulus"":""img/green_ll/9.jpg"",""time"":458},{""stimulus"":""img/green_ll/10.jpg"",""time"":510},{""stimulus"":""img/green_ll/11.jpg"",""time"":560}]","[]"
"image-keyboard-response","38","49253","0.0-5.0-1.17","60fcf7102d7c9907d95a0920","bdp_lott","Thu Apr 13 2023 09:57:49 GMT-0700 (PDT)","288018","green","red","","505","","","","choice","","img/green_ll/choose11.jpg","1","208","green","0.5","0.5","0.5","l","",""
"animation","39","49867","0.0-5.0-2.17","60fcf7102d7c9907d95a0920","bdp_lott","Thu Apr 13 2023 09:57:49 GMT-0700 (PDT)","288018","green","red","","","","","","","","","","208","","","","","","[{""stimulus"":""img/green_ll/1.jpg"",""time"":52},{""stimulus"":""img/green_ll/2.jpg"",""time"":103},{""stimulus"":""img/green_ll/3.jpg"",""time"":154},{""stimulus"":""img/green_ll/4.jpg"",""time"":205},{""stimulus"":""img/green_ll/5.jpg"",""time"":256},{""stimulus"":""img/green_ll/6.jpg"",""time"":307},{""stimulus"":""img/green_ll/7.jpg"",""time"":358},{""stimulus"":""img/green_ll/8.jpg"",""time"":408},{""stimulus"":""img/green_ll/9.jpg"",""time"":459},{""stimulus"":""img/green_ll/10.jpg"",""time"":510},{""stimulus"":""img/green_ll/11.jpg"",""time"":561}]","[]"
"image-keyboard-response","40","50500","0.0-5.0-1.18","60fcf7102d7c9907d95a0920","bdp_lott","Thu Apr 13 2023 09:57:49 GMT-0700 (PDT)","288018","green","red","","631","","","","choice","","img/green_ll/choose11.jpg","1","207","green","0.5","0.5","0.5","l","",""
"animation","41","51113","0.0-5.0-2.18","60fcf7102d7c9907d95a0920","bdp_lott","Thu Apr 13 2023 09:57:49 GMT-0700 (PDT)","288018","green","red","","","","","","","","","","207","","","","","","[{""stimulus"":""img/green_ll/1.jpg"",""time"":51},{""stimulus"":""img/green_ll/2.jpg"",""time"":102},{""stimulus"":""img/green_ll/3.jpg"",""time"":153},{""stimulus"":""img/green_ll/4.jpg"",""time"":204},{""stimulus"":""img/green_ll/5.jpg"",""time"":255},{""stimulus"":""img/green_ll/6.jpg"",""time"":306},{""stimulus"":""img/green_ll/7.jpg"",""time"":357},{""stimulus"":""img/green_ll/8.jpg"",""time"":408},{""stimulus"":""img/green_ll/9.jpg"",""time"":459},{""stimulus"":""img/green_ll/10.jpg"",""time"":510},{""stimulus"":""img/green_ll/11.jpg"",""time"":561}]","[]"
"image-keyboard-response","42","51496","0.0-5.0-1.19","60fcf7102d7c9907d95a0920","bdp_lott","Thu Apr 13 2023 09:57:49 GMT-0700 (PDT)","288018","green","red","","381","","","","choice","","img/green_ll/choose11.jpg","1","206","green","0.5","0.5","0.5","w","",""
"animation","43","52108","0.0-5.0-2.19","60fcf7102d7c9907d95a0920","bdp_lott","Thu Apr 13 2023 09:57:49 GMT-0700 (PDT)","288018","green","red","","","","","","","","","","206","","","","","","[{""stimulus"":""img/green_wl/1.jpg"",""time"":52},{""stimulus"":""img/green_wl/2.jpg"",""time"":103},{""stimulus"":""img/green_wl/3.jpg"",""time"":154},{""stimulus"":""img/green_wl/4.jpg"",""time"":205},{""stimulus"":""img/green_wl/5.jpg"",""time"":256},{""stimulus"":""img/green_wl/6.jpg"",""time"":307},{""stimulus"":""img/green_wl/7.jpg"",""time"":357},{""stimulus"":""img/green_wl/8.jpg"",""time"":408},{""stimulus"":""img/green_wl/9.jpg"",""time"":459},{""stimulus"":""img/green_wl/10.jpg"",""time"":510},{""stimulus"":""img/green_wl/11.jpg"",""time"":561}]","[]"
"image-keyboard-response","44","52990","0.0-5.0-1.20","60fcf7102d7c9907d95a0920","bdp_lott","Thu Apr 13 2023 09:57:49 GMT-0700 (PDT)","288018","green","red","","881","","","","choice","","img/green_wl/choose11.jpg","1","205","green","0.5","0.5","0.5","w","",""
"animation","45","53602","0.0-5.0-2.20","60fcf7102d7c9907d95a0920","bdp_lott","Thu Apr 13 2023 09:57:49 GMT-0700 (PDT)","288018","green","red","","","","","","","","","","205","","","","","","[{""stimulus"":""img/green_wl/1.jpg"",""time"":51},{""stimulus"":""img/green_wl/2.jpg"",""time"":102},{""stimulus"":""img/green_wl/3.jpg"",""time"":153},{""stimulus"":""img/green_wl/4.jpg"",""time"":204},{""stimulus"":""img/green_wl/5.jpg"",""time"":255},{""stimulus"":""img/green_wl/6.jpg"",""time"":306},{""stimulus"":""img/green_wl/7.jpg"",""time"":357},{""stimulus"":""img/green_wl/8.jpg"",""time"":407},{""stimulus"":""img/green_wl/9.jpg"",""time"":458},{""stimulus"":""img/green_wl/10.jpg"",""time"":509},{""stimulus"":""img/green_wl/11.jpg"",""time"":560}]","[]"
"image-keyboard-response","46","54392","0.0-5.0-1.21","60fcf7102d7c9907d95a0920","bdp_lott","Thu Apr 13 2023 09:57:49 GMT-0700 (PDT)","288018","green","red","","789","","","","choice","","img/green_wl/choose11.jpg","2","204","red","0.5","0.5","0.5","l","",""
"animation","47","55006","0.0-5.0-2.21","60fcf7102d7c9907d95a0920","bdp_lott","Thu Apr 13 2023 09:57:49 GMT-0700 (PDT)","288018","green","red","","","","","","","","","","204","","","","","","[{""stimulus"":""img/red_wl/1.jpg"",""time"":52},{""stimulus"":""img/red_wl/2.jpg"",""time"":103},{""stimulus"":""img/red_wl/3.jpg"",""time"":154},{""stimulus"":""img/red_wl/4.jpg"",""time"":205},{""stimulus"":""img/red_wl/5.jpg"",""time"":256},{""stimulus"":""img/red_wl/6.jpg"",""time"":307},{""stimulus"":""img/red_wl/7.jpg"",""time"":358},{""stimulus"":""img/red_wl/8.jpg"",""time"":409},{""stimulus"":""img/red_wl/9.jpg"",""time"":460},{""stimulus"":""img/red_wl/10.jpg"",""time"":511},{""stimulus"":""img/red_wl/11.jpg"",""time"":562}]","[]"
"image-keyboard-response","48","55356","0.0-5.0-1.22","60fcf7102d7c9907d95a0920","bdp_lott","Thu Apr 13 2023 09:57:49 GMT-0700 (PDT)","288018","green","red","","348","","","","choice","","img/red_wl/choose11.jpg","2","203","red","0.5","0.5","0.5","l","",""
"animation","49","55968","0.0-5.0-2.22","60fcf7102d7c9907d95a0920","bdp_lott","Thu Apr 13 2023 09:57:49 GMT-0700 (PDT)","288018","green","red","","","","","","","","","","203","","","","","","[{""stimulus"":""img/red_wl/1.jpg"",""time"":52},{""stimulus"":""img/red_wl/2.jpg"",""time"":103},{""stimulus"":""img/red_wl/3.jpg"",""time"":154},{""stimulus"":""img/red_wl/4.jpg"",""time"":205},{""stimulus"":""img/red_wl/5.jpg"",""time"":256},{""stimulus"":""img/red_wl/6.jpg"",""time"":306},{""stimulus"":""img/red_wl/7.jpg"",""time"":357},{""stimulus"":""img/red_wl/8.jpg"",""time"":408},{""stimulus"":""img/red_wl/9.jpg"",""time"":460},{""stimulus"":""img/red_wl/10.jpg"",""time"":511},{""stimulus"":""img/red_wl/11.jpg"",""time"":562}]","[]"
"image-keyboard-response","50","56310","0.0-5.0-1.23","60fcf7102d7c9907d95a0920","bdp_lott","Thu Apr 13 2023 09:57:49 GMT-0700 (PDT)","288018","green","red","","340","","","","choice","","img/red_wl/choose11.jpg","2","202","red","0.5","0.5","0.5","l","",""
"animation","51","56922","0.0-5.0-2.23","60fcf7102d7c9907d95a0920","bdp_lott","Thu Apr 13 2023 09:57:49 GMT-0700 (PDT)","288018","green","red","","","","","","","","","","202","","","","","","[{""stimulus"":""img/red_wl/1.jpg"",""time"":51},{""stimulus"":""img/red_wl/2.jpg"",""time"":101},{""stimulus"":""img/red_wl/3.jpg"",""time"":152},{""stimulus"":""img/red_wl/4.jpg"",""time"":203},{""stimulus"":""img/red_wl/5.jpg"",""time"":254},{""stimulus"":""img/red_wl/6.jpg"",""time"":305},{""stimulus"":""img/red_wl/7.jpg"",""time"":356},{""stimulus"":""img/red_wl/8.jpg"",""time"":407},{""stimulus"":""img/red_wl/9.jpg"",""time"":458},{""stimulus"":""img/red_wl/10.jpg"",""time"":509},{""stimulus"":""img/red_wl/11.jpg"",""time"":560}]","[]"
"image-keyboard-response","52","57273","0.0-5.0-1.24","60fcf7102d7c9907d95a0920","bdp_lott","Thu Apr 13 2023 09:57:49 GMT-0700 (PDT)","288018","green","red","","350","","","","choice","","img/red_wl/choose11.jpg","2","201","red","0.5","0.5","0.5","w","",""
"animation","53","57886","0.0-5.0-2.24","60fcf7102d7c9907d95a0920","bdp_lott","Thu Apr 13 2023 09:57:49 GMT-0700 (PDT)","288018","green","red","","","","","","","","","","201","","","","","","[{""stimulus"":""img/red_ww/1.jpg"",""time"":52},{""stimulus"":""img/red_ww/2.jpg"",""time"":103},{""stimulus"":""img/red_ww/3.jpg"",""time"":154},{""stimulus"":""img/red_ww/4.jpg"",""time"":205},{""stimulus"":""img/red_ww/5.jpg"",""time"":255},{""stimulus"":""img/red_ww/6.jpg"",""time"":306},{""stimulus"":""img/red_ww/7.jpg"",""time"":357},{""stimulus"":""img/red_ww/8.jpg"",""time"":408},{""stimulus"":""img/red_ww/9.jpg"",""time"":459},{""stimulus"":""img/red_ww/10.jpg"",""time"":510},{""stimulus"":""img/red_ww/11.jpg"",""time"":561}]","[]"
"image-keyboard-response","54","58196","0.0-5.0-1.25","60fcf7102d7c9907d95a0920","bdp_lott","Thu Apr 13 2023 09:57:49 GMT-0700 (PDT)","288018","green","red","","308","","","","choice","","img/red_ww/choose11.jpg","2","200","red","0.5","0.5","0.5","l","",""
"animation","55","58808","0.0-5.0-2.25","60fcf7102d7c9907d95a0920","bdp_lott","Thu Apr 13 2023 09:57:49 GMT-0700 (PDT)","288018","green","red","","","","","","","","","","200","","","","","","[{""stimulus"":""img/red_wl/1.jpg"",""time"":51},{""stimulus"":""img/red_wl/2.jpg"",""time"":102},{""stimulus"":""img/red_wl/3.jpg"",""time"":154},{""stimulus"":""img/red_wl/4.jpg"",""time"":204},{""stimulus"":""img/red_wl/5.jpg"",""time"":254},{""stimulus"":""img/red_wl/6.jpg"",""time"":305},{""stimulus"":""img/red_wl/7.jpg"",""time"":356},{""stimulus"":""img/red_wl/8.jpg"",""time"":407},{""stimulus"":""img/red_wl/9.jpg"",""time"":458},{""stimulus"":""img/red_wl/10.jpg"",""time"":509},{""stimulus"":""img/red_wl/11.jpg"",""time"":560}]","[]"
"image-keyboard-response","56","59013","0.0-5.0-1.26","60fcf7102d7c9907d95a0920","bdp_lott","Thu Apr 13 2023 09:57:49 GMT-0700 (PDT)","288018","green","red","","204","","","","choice","","img/red_wl/choose11.jpg","2","199","red","0.5","0.5","0.5","w","",""
"animation","57","59625","0.0-5.0-2.26","60fcf7102d7c9907d95a0920","bdp_lott","Thu Apr 13 2023 09:57:49 GMT-0700 (PDT)","288018","green","red","","","","","","","","","","199","","","","","","[{""stimulus"":""img/red_ww/1.jpg"",""time"":51},{""stimulus"":""img/red_ww/2.jpg"",""time"":102},{""stimulus"":""img/red_ww/3.jpg"",""time"":153},{""stimulus"":""img/red_ww/4.jpg"",""time"":204},{""stimulus"":""img/red_ww/5.jpg"",""time"":255},{""stimulus"":""img/red_ww/6.jpg"",""time"":306},{""stimulus"":""img/red_ww/7.jpg"",""time"":357},{""stimulus"":""img/red_ww/8.jpg"",""time"":408},{""stimulus"":""img/red_ww/9.jpg"",""time"":458},{""stimulus"":""img/red_ww/10.jpg"",""time"":509},{""stimulus"":""img/red_ww/11.jpg"",""time"":560}]","[]"
"image-keyboard-response","58","59837","0.0-5.0-1.27","60fcf7102d7c9907d95a0920","bdp_lott","Thu Apr 13 2023 09:57:49 GMT-0700 (PDT)","288018","green","red","","211","","","","choice","","img/red_ww/choose11.jpg","2","198","red","0.5","0.5","0.5","l","",""
"animation","59","60449","0.0-5.0-2.27","60fcf7102d7c9907d95a0920","bdp_lott","Thu Apr 13 2023 09:57:49 GMT-0700 (PDT)","288018","green","red","","","","","","","","","","198","","","","","","[{""stimulus"":""img/red_wl/1.jpg"",""time"":50},{""stimulus"":""img/red_wl/2.jpg"",""time"":102},{""stimulus"":""img/red_wl/3.jpg"",""time"":153},{""stimulus"":""img/red_wl/4.jpg"",""time"":204},{""stimulus"":""img/red_wl/5.jpg"",""time"":255},{""stimulus"":""img/red_wl/6.jpg"",""time"":306},{""stimulus"":""img/red_wl/7.jpg"",""time"":356},{""stimulus"":""img/red_wl/8.jpg"",""time"":408},{""stimulus"":""img/red_wl/9.jpg"",""time"":458},{""stimulus"":""img/red_wl/10.jpg"",""time"":509},{""stimulus"":""img/red_wl/11.jpg"",""time"":560}]","[]"
"image-keyboard-response","60","60713","0.0-5.0-1.28","60fcf7102d7c9907d95a0920","bdp_lott","Thu Apr 13 2023 09:57:49 GMT-0700 (PDT)","288018","green","red","","263","","","","choice","","img/red_wl/choose11.jpg","2","197","red","0.5","0.5","0.5","l","",""
"animation","61","61326","0.0-5.0-2.28","60fcf7102d7c9907d95a0920","bdp_lott","Thu Apr 13 2023 09:57:49 GMT-0700 (PDT)","288018","green","red","","","","","","","","","","197","","","","","","[{""stimulus"":""img/red_wl/1.jpg"",""time"":51},{""stimulus"":""img/red_wl/2.jpg"",""time"":102},{""stimulus"":""img/red_wl/3.jpg"",""time"":153},{""stimulus"":""img/red_wl/4.jpg"",""time"":204},{""stimulus"":""img/red_wl/5.jpg"",""time"":255},{""stimulus"":""img/red_wl/6.jpg"",""time"":306},{""stimulus"":""img/red_wl/7.jpg"",""time"":357},{""stimulus"":""img/red_wl/8.jpg"",""time"":408},{""stimulus"":""img/red_wl/9.jpg"",""time"":459},{""stimulus"":""img/red_wl/10.jpg"",""time"":510},{""stimulus"":""img/red_wl/11.jpg"",""time"":561}]","[]"
"image-keyboard-response","62","61722","0.0-5.0-1.29","60fcf7102d7c9907d95a0920","bdp_lott","Thu Apr 13 2023 09:57:49 GMT-0700 (PDT)","288018","green","red","","395","","","","choice","","img/red_wl/choose11.jpg","2","196","red","0.5","0.5","0.5","l","",""
"animation","63","62333","0.0-5.0-2.29","60fcf7102d7c9907d95a0920","bdp_lott","Thu Apr 13 2023 09:57:49 GMT-0700 (PDT)","288018","green","red","","","","","","","","","","196","","","","","","[{""stimulus"":""img/red_wl/1.jpg"",""time"":51},{""stimulus"":""img/red_wl/2.jpg"",""time"":102},{""stimulus"":""img/red_wl/3.jpg"",""time"":153},{""stimulus"":""img/red_wl/4.jpg"",""time"":204},{""stimulus"":""img/red_wl/5.jpg"",""time"":255},{""stimulus"":""img/red_wl/6.jpg"",""time"":306},{""stimulus"":""img/red_wl/7.jpg"",""time"":356},{""stimulus"":""img/red_wl/8.jpg"",""time"":406},{""stimulus"":""img/red_wl/9.jpg"",""time"":457},{""stimulus"":""img/red_wl/10.jpg"",""time"":508},{""stimulus"":""img/red_wl/11.jpg"",""time"":559}]","[]"
"image-keyboard-response","64","62615","0.0-5.0-1.30","60fcf7102d7c9907d95a0920","bdp_lott","Thu Apr 13 2023 09:57:49 GMT-0700 (PDT)","288018","green","red","","281","","","","choice","","img/red_wl/choose11.jpg","2","195","red","0.5","0.5","0.5","l","",""
"animation","65","63228","0.0-5.0-2.30","60fcf7102d7c9907d95a0920","bdp_lott","Thu Apr 13 2023 09:57:49 GMT-0700 (PDT)","288018","green","red","","","","","","","","","","195","","","","","","[{""stimulus"":""img/red_wl/1.jpg"",""time"":52},{""stimulus"":""img/red_wl/2.jpg"",""time"":102},{""stimulus"":""img/red_wl/3.jpg"",""time"":153},{""stimulus"":""img/red_wl/4.jpg"",""time"":205},{""stimulus"":""img/red_wl/5.jpg"",""time"":255},{""stimulus"":""img/red_wl/6.jpg"",""time"":306},{""stimulus"":""img/red_wl/7.jpg"",""time"":357},{""stimulus"":""img/red_wl/8.jpg"",""time"":408},{""stimulus"":""img/red_wl/9.jpg"",""time"":459},{""stimulus"":""img/red_wl/10.jpg"",""time"":510},{""stimulus"":""img/red_wl/11.jpg"",""time"":561}]","[]"
"image-keyboard-response","66","63934","0.0-5.0-1.31","60fcf7102d7c9907d95a0920","bdp_lott","Thu Apr 13 2023 09:57:49 GMT-0700 (PDT)","288018","green","red","","705","","","","choice","","img/red_wl/choose11.jpg","1","194","green","0.5","0.5","0.5","l","",""
"animation","67","64547","0.0-5.0-2.31","60fcf7102d7c9907d95a0920","bdp_lott","Thu Apr 13 2023 09:57:49 GMT-0700 (PDT)","288018","green","red","","","","","","","","","","194","","","","","","[{""stimulus"":""img/green_ll/1.jpg"",""time"":51},{""stimulus"":""img/green_ll/2.jpg"",""time"":102},{""stimulus"":""img/green_ll/3.jpg"",""time"":152},{""stimulus"":""img/green_ll/4.jpg"",""time"":204},{""stimulus"":""img/green_ll/5.jpg"",""time"":255},{""stimulus"":""img/green_ll/6.jpg"",""time"":306},{""stimulus"":""img/green_ll/7.jpg"",""time"":357},{""stimulus"":""img/green_ll/8.jpg"",""time"":408},{""stimulus"":""img/green_ll/9.jpg"",""time"":459},{""stimulus"":""img/green_ll/10.jpg"",""time"":510},{""stimulus"":""img/green_ll/11.jpg"",""time"":561}]","[]"
"image-keyboard-response","68","64830","0.0-5.0-1.32","60fcf7102d7c9907d95a0920","bdp_lott","Thu Apr 13 2023 09:57:49 GMT-0700 (PDT)","288018","green","red","","282","","","","choice","","img/green_ll/choose11.jpg","1","193","green","0.5","0.5","0.5","w","",""
"animation","69","65443","0.0-5.0-2.32","60fcf7102d7c9907d95a0920","bdp_lott","Thu Apr 13 2023 09:57:49 GMT-0700 (PDT)","288018","green","red","","","","","","","","","","193","","","","","","[{""stimulus"":""img/green_wl/1.jpg"",""time"":51},{""stimulus"":""img/green_wl/2.jpg"",""time"":102},{""stimulus"":""img/green_wl/3.jpg"",""time"":153},{""stimulus"":""img/green_wl/4.jpg"",""time"":204},{""stimulus"":""img/green_wl/5.jpg"",""time"":255},{""stimulus"":""img/green_wl/6.jpg"",""time"":309},{""stimulus"":""img/green_wl/7.jpg"",""time"":356},{""stimulus"":""img/green_wl/8.jpg"",""time"":407},{""stimulus"":""img/green_wl/9.jpg"",""time"":459},{""stimulus"":""img/green_wl/10.jpg"",""time"":510},{""stimulus"":""img/green_wl/11.jpg"",""time"":561}]","[]"
"image-keyboard-response","70","66073","0.0-5.0-1.33","60fcf7102d7c9907d95a0920","bdp_lott","Thu Apr 13 2023 09:57:49 GMT-0700 (PDT)","288018","green","red","","628","","","","choice","","img/green_wl/choose11.jpg","1","192","green","0.5","0.5","0.5","l","",""
"animation","71","66686","0.0-5.0-2.33","60fcf7102d7c9907d95a0920","bdp_lott","Thu Apr 13 2023 09:57:49 GMT-0700 (PDT)","288018","green","red","","","","","","","","","","192","","","","","","[{""stimulus"":""img/green_ll/1.jpg"",""time"":52},{""stimulus"":""img/green_ll/2.jpg"",""time"":103},{""stimulus"":""img/green_ll/3.jpg"",""time"":154},{""stimulus"":""img/green_ll/4.jpg"",""time"":205},{""stimulus"":""img/green_ll/5.jpg"",""time"":255},{""stimulus"":""img/green_ll/6.jpg"",""time"":306},{""stimulus"":""img/green_ll/7.jpg"",""time"":357},{""stimulus"":""img/green_ll/8.jpg"",""time"":408},{""stimulus"":""img/green_ll/9.jpg"",""time"":459},{""stimulus"":""img/green_ll/10.jpg"",""time"":510},{""stimulus"":""img/green_ll/11.jpg"",""time"":562}]","[]"
"image-keyboard-response","72","67048","0.0-5.0-1.34","60fcf7102d7c9907d95a0920","bdp_lott","Thu Apr 13 2023 09:57:49 GMT-0700 (PDT)","288018","green","red","","359","","","","choice","","img/green_ll/choose11.jpg","1","191","green","0.5","0.5","0.5","w","",""
"animation","73","67660","0.0-5.0-2.34","60fcf7102d7c9907d95a0920","bdp_lott","Thu Apr 13 2023 09:57:49 GMT-0700 (PDT)","288018","green","red","","","","","","","","","","191","","","","","","[{""stimulus"":""img/green_wl/1.jpg"",""time"":52},{""stimulus"":""img/green_wl/2.jpg"",""time"":102},{""stimulus"":""img/green_wl/3.jpg"",""time"":154},{""stimulus"":""img/green_wl/4.jpg"",""time"":205},{""stimulus"":""img/green_wl/5.jpg"",""time"":256},{""stimulus"":""img/green_wl/6.jpg"",""time"":306},{""stimulus"":""img/green_wl/7.jpg"",""time"":357},{""stimulus"":""img/green_wl/8.jpg"",""time"":408},{""stimulus"":""img/green_wl/9.jpg"",""time"":459},{""stimulus"":""img/green_wl/10.jpg"",""time"":510},{""stimulus"":""img/green_wl/11.jpg"",""time"":561}]","[]"
"image-keyboard-response","74","68007","0.0-5.0-1.35","60fcf7102d7c9907d95a0920","bdp_lott","Thu Apr 13 2023 09:57:49 GMT-0700 (PDT)","288018","green","red","","345","","","","choice","","img/green_wl/choose11.jpg","1","190","green","0.5","0.5","0.5","w","",""
"animation","75","68619","0.0-5.0-2.35","60fcf7102d7c9907d95a0920","bdp_lott","Thu Apr 13 2023 09:57:49 GMT-0700 (PDT)","288018","green","red","","","","","","","","","","190","","","","","","[{""stimulus"":""img/green_wl/1.jpg"",""time"":51},{""stimulus"":""img/green_wl/2.jpg"",""time"":102},{""stimulus"":""img/green_wl/3.jpg"",""time"":153},{""stimulus"":""img/green_wl/4.jpg"",""time"":204},{""stimulus"":""img/green_wl/5.jpg"",""time"":254},{""stimulus"":""img/green_wl/6.jpg"",""time"":305},{""stimulus"":""img/green_wl/7.jpg"",""time"":356},{""stimulus"":""img/green_wl/8.jpg"",""time"":407},{""stimulus"":""img/green_wl/9.jpg"",""time"":458},{""stimulus"":""img/green_wl/10.jpg"",""time"":509},{""stimulus"":""img/green_wl/11.jpg"",""time"":560}]","[]"
"image-keyboard-response","76","69045","0.0-5.0-1.36","60fcf7102d7c9907d95a0920","bdp_lott","Thu Apr 13 2023 09:57:49 GMT-0700 (PDT)","288018","green","red","","425","","","","choice","","img/green_wl/choose11.jpg","1","189","green","0.5","0.5","0.5","l","",""
"animation","77","69658","0.0-5.0-2.36","60fcf7102d7c9907d95a0920","bdp_lott","Thu Apr 13 2023 09:57:49 GMT-0700 (PDT)","288018","green","red","","","","","","","","","","189","","","","","","[{""stimulus"":""img/green_ll/1.jpg"",""time"":51},{""stimulus"":""img/green_ll/2.jpg"",""time"":102},{""stimulus"":""img/green_ll/3.jpg"",""time"":153},{""stimulus"":""img/green_ll/4.jpg"",""time"":204},{""stimulus"":""img/green_ll/5.jpg"",""time"":256},{""stimulus"":""img/green_ll/6.jpg"",""time"":307},{""stimulus"":""img/green_ll/7.jpg"",""time"":358},{""stimulus"":""img/green_ll/8.jpg"",""time"":408},{""stimulus"":""img/green_ll/9.jpg"",""time"":459},{""stimulus"":""img/green_ll/10.jpg"",""time"":510},{""stimulus"":""img/green_ll/11.jpg"",""time"":561}]","[]"
"image-keyboard-response","78","70342","0.0-5.0-1.37","60fcf7102d7c9907d95a0920","bdp_lott","Thu Apr 13 2023 09:57:49 GMT-0700 (PDT)","288018","green","red","","683","","","","choice","","img/green_ll/choose11.jpg","1","188","green","0.5","0.5","0.5","w","",""
"animation","79","70955","0.0-5.0-2.37","60fcf7102d7c9907d95a0920","bdp_lott","Thu Apr 13 2023 09:57:49 GMT-0700 (PDT)","288018","green","red","","","","","","","","","","188","","","","","","[{""stimulus"":""img/green_wl/1.jpg"",""time"":52},{""stimulus"":""img/green_wl/2.jpg"",""time"":103},{""stimulus"":""img/green_wl/3.jpg"",""time"":154},{""stimulus"":""img/green_wl/4.jpg"",""time"":205},{""stimulus"":""img/green_wl/5.jpg"",""time"":256},{""stimulus"":""img/green_wl/6.jpg"",""time"":307},{""stimulus"":""img/green_wl/7.jpg"",""time"":358},{""stimulus"":""img/green_wl/8.jpg"",""time"":408},{""stimulus"":""img/green_wl/9.jpg"",""time"":459},{""stimulus"":""img/green_wl/10.jpg"",""time"":510},{""stimulus"":""img/green_wl/11.jpg"",""time"":561}]","[]"
"image-keyboard-response","80","71456","0.0-5.0-1.38","60fcf7102d7c9907d95a0920","bdp_lott","Thu Apr 13 2023 09:57:49 GMT-0700 (PDT)","288018","green","red","","500","","","","choice","","img/green_wl/choose11.jpg","1","187","green","0.5","0.5","0.5","w","",""
"animation","81","72070","0.0-5.0-2.38","60fcf7102d7c9907d95a0920","bdp_lott","Thu Apr 13 2023 09:57:49 GMT-0700 (PDT)","288018","green","red","","","","","","","","","","187","","","","","","[{""stimulus"":""img/green_wl/1.jpg"",""time"":52},{""stimulus"":""img/green_wl/2.jpg"",""time"":103},{""stimulus"":""img/green_wl/3.jpg"",""time"":154},{""stimulus"":""img/green_wl/4.jpg"",""time"":205},{""stimulus"":""img/green_wl/5.jpg"",""time"":255},{""stimulus"":""img/green_wl/6.jpg"",""time"":307},{""stimulus"":""img/green_wl/7.jpg"",""time"":358},{""stimulus"":""img/green_wl/8.jpg"",""time"":409},{""stimulus"":""img/green_wl/9.jpg"",""time"":460},{""stimulus"":""img/green_wl/10.jpg"",""time"":511},{""stimulus"":""img/green_wl/11.jpg"",""time"":562}]","[]"
"image-keyboard-response","82","72720","0.0-5.0-1.39","60fcf7102d7c9907d95a0920","bdp_lott","Thu Apr 13 2023 09:57:49 GMT-0700 (PDT)","288018","green","red","","649","","","","choice","","img/green_wl/choose11.jpg","1","186","green","0.5","0.5","0.5","l","",""
"animation","83","73333","0.0-5.0-2.39","60fcf7102d7c9907d95a0920","bdp_lott","Thu Apr 13 2023 09:57:49 GMT-0700 (PDT)","288018","green","red","","","","","","","","","","186","","","","","","[{""stimulus"":""img/green_ll/1.jpg"",""time"":52},{""stimulus"":""img/green_ll/2.jpg"",""time"":103},{""stimulus"":""img/green_ll/3.jpg"",""time"":154},{""stimulus"":""img/green_ll/4.jpg"",""time"":205},{""stimulus"":""img/green_ll/5.jpg"",""time"":256},{""stimulus"":""img/green_ll/6.jpg"",""time"":307},{""stimulus"":""img/green_ll/7.jpg"",""time"":358},{""stimulus"":""img/green_ll/8.jpg"",""time"":408},{""stimulus"":""img/green_ll/9.jpg"",""time"":459},{""stimulus"":""img/green_ll/10.jpg"",""time"":510},{""stimulus"":""img/green_ll/11.jpg"",""time"":561}]","[]"
"image-keyboard-response","84","73707","0.0-5.0-1.40","60fcf7102d7c9907d95a0920","bdp_lott","Thu Apr 13 2023 09:57:49 GMT-0700 (PDT)","288018","green","red","","373","","","","choice","","img/green_ll/choose11.jpg","1","185","green","0.5","0.5","0.5","w","",""
"animation","85","74320","0.0-5.0-2.40","60fcf7102d7c9907d95a0920","bdp_lott","Thu Apr 13 2023 09:57:49 GMT-0700 (PDT)","288018","green","red","","","","","","","","","","185","","","","","","[{""stimulus"":""img/green_wl/1.jpg"",""time"":52},{""stimulus"":""img/green_wl/2.jpg"",""time"":103},{""stimulus"":""img/green_wl/3.jpg"",""time"":154},{""stimulus"":""img/green_wl/4.jpg"",""time"":204},{""stimulus"":""img/green_wl/5.jpg"",""time"":256},{""stimulus"":""img/green_wl/6.jpg"",""time"":307},{""stimulus"":""img/green_wl/7.jpg"",""time"":357},{""stimulus"":""img/green_wl/8.jpg"",""time"":408},{""stimulus"":""img/green_wl/9.jpg"",""time"":459},{""stimulus"":""img/green_wl/10.jpg"",""time"":510},{""stimulus"":""img/green_wl/11.jpg"",""time"":561}]","[]"
"image-keyboard-response","86","74849","0.0-5.0-1.41","60fcf7102d7c9907d95a0920","bdp_lott","Thu Apr 13 2023 09:57:49 GMT-0700 (PDT)","288018","green","red","","528","","","","choice","","img/green_wl/choose11.jpg","1","184","green","0.5","0.5","0.5","l","",""
"animation","87","75462","0.0-5.0-2.41","60fcf7102d7c9907d95a0920","bdp_lott","Thu Apr 13 2023 09:57:49 GMT-0700 (PDT)","288018","green","red","","","","","","","","","","184","","","","","","[{""stimulus"":""img/green_ll/1.jpg"",""time"":51},{""stimulus"":""img/green_ll/2.jpg"",""time"":102},{""stimulus"":""img/green_ll/3.jpg"",""time"":153},{""stimulus"":""img/green_ll/4.jpg"",""time"":204},{""stimulus"":""img/green_ll/5.jpg"",""time"":254},{""stimulus"":""img/green_ll/6.jpg"",""time"":305},{""stimulus"":""img/green_ll/7.jpg"",""time"":356},{""stimulus"":""img/green_ll/8.jpg"",""time"":407},{""stimulus"":""img/green_ll/9.jpg"",""time"":459},{""stimulus"":""img/green_ll/10.jpg"",""time"":510},{""stimulus"":""img/green_ll/11.jpg"",""time"":561}]","[]"
"image-keyboard-response","88","76352","0.0-5.0-1.42","60fcf7102d7c9907d95a0920","bdp_lott","Thu Apr 13 2023 09:57:49 GMT-0700 (PDT)","288018","green","red","","889","","","","choice","","img/green_ll/choose11.jpg","1","183","green","0.5","0.5","0.5","l","",""
"animation","89","76965","0.0-5.0-2.42","60fcf7102d7c9907d95a0920","bdp_lott","Thu Apr 13 2023 09:57:49 GMT-0700 (PDT)","288018","green","red","","","","","","","","","","183","","","","","","[{""stimulus"":""img/green_ll/1.jpg"",""time"":52},{""stimulus"":""img/green_ll/2.jpg"",""time"":103},{""stimulus"":""img/green_ll/3.jpg"",""time"":154},{""stimulus"":""img/green_ll/4.jpg"",""time"":205},{""stimulus"":""img/green_ll/5.jpg"",""time"":256},{""stimulus"":""img/green_ll/6.jpg"",""time"":307},{""stimulus"":""img/green_ll/7.jpg"",""time"":358},{""stimulus"":""img/green_ll/8.jpg"",""time"":409},{""stimulus"":""img/green_ll/9.jpg"",""time"":459},{""stimulus"":""img/green_ll/10.jpg"",""time"":510},{""stimulus"":""img/green_ll/11.jpg"",""time"":562}]","[]"
"image-keyboard-response","90","77372","0.0-5.0-1.43","60fcf7102d7c9907d95a0920","bdp_lott","Thu Apr 13 2023 09:57:49 GMT-0700 (PDT)","288018","green","red","","404","","","","choice","","img/green_ll/choose11.jpg","2","182","red","0.5","0.5","0.5","l","",""
"animation","91","77984","0.0-5.0-2.43","60fcf7102d7c9907d95a0920","bdp_lott","Thu Apr 13 2023 09:57:49 GMT-0700 (PDT)","288018","green","red","","","","","","","","","","182","","","","","","[{""stimulus"":""img/red_ll/1.jpg"",""time"":54},{""stimulus"":""img/red_ll/2.jpg"",""time"":103},{""stimulus"":""img/red_ll/3.jpg"",""time"":154},{""stimulus"":""img/red_ll/4.jpg"",""time"":205},{""stimulus"":""img/red_ll/5.jpg"",""time"":256},{""stimulus"":""img/red_ll/6.jpg"",""time"":307},{""stimulus"":""img/red_ll/7.jpg"",""time"":357},{""stimulus"":""img/red_ll/8.jpg"",""time"":408},{""stimulus"":""img/red_ll/9.jpg"",""time"":459},{""stimulus"":""img/red_ll/10.jpg"",""time"":510},{""stimulus"":""img/red_ll/11.jpg"",""time"":561}]","[]"
"image-keyboard-response","92","78296","0.0-5.0-1.44","60fcf7102d7c9907d95a0920","bdp_lott","Thu Apr 13 2023 09:57:49 GMT-0700 (PDT)","288018","green","red","","310","","","","choice","","img/red_ll/choose11.jpg","2","181","red","0.5","0.5","0.5","l","",""
"animation","93","78909","0.0-5.0-2.44","60fcf7102d7c9907d95a0920","bdp_lott","Thu Apr 13 2023 09:57:49 GMT-0700 (PDT)","288018","green","red","","","","","","","","","","181","","","","","","[{""stimulus"":""img/red_ll/1.jpg"",""time"":52},{""stimulus"":""img/red_ll/2.jpg"",""time"":103},{""stimulus"":""img/red_ll/3.jpg"",""time"":153},{""stimulus"":""img/red_ll/4.jpg"",""time"":204},{""stimulus"":""img/red_ll/5.jpg"",""time"":255},{""stimulus"":""img/red_ll/6.jpg"",""time"":306},{""stimulus"":""img/red_ll/7.jpg"",""time"":357},{""stimulus"":""img/red_ll/8.jpg"",""time"":408},{""stimulus"":""img/red_ll/9.jpg"",""time"":459},{""stimulus"":""img/red_ll/10.jpg"",""time"":510},{""stimulus"":""img/red_ll/11.jpg"",""time"":561}]","[]"
"image-keyboard-response","94","79207","0.0-5.0-1.45","60fcf7102d7c9907d95a0920","bdp_lott","Thu Apr 13 2023 09:57:49 GMT-0700 (PDT)","288018","green","red","","295","","","","choice","","img/red_ll/choose11.jpg","2","180","red","0.5","0.5","0.5","w","",""
"animation","95","79819","0.0-5.0-2.45","60fcf7102d7c9907d95a0920","bdp_lott","Thu Apr 13 2023 09:57:49 GMT-0700 (PDT)","288018","green","red","","","","","","","","","","180","","","","","","[{""stimulus"":""img/red_lw/1.jpg"",""time"":51},{""stimulus"":""img/red_lw/2.jpg"",""time"":102},{""stimulus"":""img/red_lw/3.jpg"",""time"":153},{""stimulus"":""img/red_lw/4.jpg"",""time"":204},{""stimulus"":""img/red_lw/5.jpg"",""time"":254},{""stimulus"":""img/red_lw/6.jpg"",""time"":305},{""stimulus"":""img/red_lw/7.jpg"",""time"":356},{""stimulus"":""img/red_lw/8.jpg"",""time"":407},{""stimulus"":""img/red_lw/9.jpg"",""time"":458},{""stimulus"":""img/red_lw/10.jpg"",""time"":509},{""stimulus"":""img/red_lw/11.jpg"",""time"":560}]","[]"
"image-keyboard-response","96","80401","0.0-5.0-1.46","60fcf7102d7c9907d95a0920","bdp_lott","Thu Apr 13 2023 09:57:49 GMT-0700 (PDT)","288018","green","red","","580","","","","choice","","img/red_lw/choose11.jpg","2","179","red","0.5","0.5","0.5","w","",""
"animation","97","81013","0.0-5.0-2.46","60fcf7102d7c9907d95a0920","bdp_lott","Thu Apr 13 2023 09:57:49 GMT-0700 (PDT)","288018","green","red","","","","","","","","","","179","","","","","","[{""stimulus"":""img/red_lw/1.jpg"",""time"":51},{""stimulus"":""img/red_lw/2.jpg"",""time"":102},{""stimulus"":""img/red_lw/3.jpg"",""time"":152},{""stimulus"":""img/red_lw/4.jpg"",""time"":203},{""stimulus"":""img/red_lw/5.jpg"",""time"":254},{""stimulus"":""img/red_lw/6.jpg"",""time"":305},{""stimulus"":""img/red_lw/7.jpg"",""time"":356},{""stimulus"":""img/red_lw/8.jpg"",""time"":407},{""stimulus"":""img/red_lw/9.jpg"",""time"":458},{""stimulus"":""img/red_lw/10.jpg"",""time"":509},{""stimulus"":""img/red_lw/11.jpg"",""time"":560}]","[]"
"image-keyboard-response","98","81622","0.0-5.0-1.47","60fcf7102d7c9907d95a0920","bdp_lott","Thu Apr 13 2023 09:57:49 GMT-0700 (PDT)","288018","green","red","","606","","","","choice","","img/red_lw/choose11.jpg","2","178","red","0.5","0.5","0.5","l","",""
"animation","99","82234","0.0-5.0-2.47","60fcf7102d7c9907d95a0920","bdp_lott","Thu Apr 13 2023 09:57:49 GMT-0700 (PDT)","288018","green","red","","","","","","","","","","178","","","","","","[{""stimulus"":""img/red_ll/1.jpg"",""time"":52},{""stimulus"":""img/red_ll/2.jpg"",""time"":103},{""stimulus"":""img/red_ll/3.jpg"",""time"":154},{""stimulus"":""img/red_ll/4.jpg"",""time"":205},{""stimulus"":""img/red_ll/5.jpg"",""time"":256},{""stimulus"":""img/red_ll/6.jpg"",""time"":307},{""stimulus"":""img/red_ll/7.jpg"",""time"":357},{""stimulus"":""img/red_ll/8.jpg"",""time"":408},{""stimulus"":""img/red_ll/9.jpg"",""time"":459},{""stimulus"":""img/red_ll/10.jpg"",""time"":510},{""stimulus"":""img/red_ll/11.jpg"",""time"":561}]","[]"
"image-keyboard-response","100","82715","0.0-5.0-1.48","60fcf7102d7c9907d95a0920","bdp_lott","Thu Apr 13 2023 09:57:49 GMT-0700 (PDT)","288018","green","red","","480","","","","choice","","img/red_ll/choose11.jpg","2","177","red","0.5","0.5","0.5","w","",""
"animation","101","83328","0.0-5.0-2.48","60fcf7102d7c9907d95a0920","bdp_lott","Thu Apr 13 2023 09:57:49 GMT-0700 (PDT)","288018","green","red","","","","","","","","","","177","","","","","","[{""stimulus"":""img/red_lw/1.jpg"",""time"":51},{""stimulus"":""img/red_lw/2.jpg"",""time"":102},{""stimulus"":""img/red_lw/3.jpg"",""time"":153},{""stimulus"":""img/red_lw/4.jpg"",""time"":204},{""stimulus"":""img/red_lw/5.jpg"",""time"":255},{""stimulus"":""img/red_lw/6.jpg"",""time"":306},{""stimulus"":""img/red_lw/7.jpg"",""time"":357},{""stimulus"":""img/red_lw/8.jpg"",""time"":408},{""stimulus"":""img/red_lw/9.jpg"",""time"":459},{""stimulus"":""img/red_lw/10.jpg"",""time"":510},{""stimulus"":""img/red_lw/11.jpg"",""time"":561}]","[]"
"image-keyboard-response","102","83729","0.0-5.0-1.49","60fcf7102d7c9907d95a0920","bdp_lott","Thu Apr 13 2023 09:57:49 GMT-0700 (PDT)","288018","green","red","","399","","","","choice","","img/red_lw/choose11.jpg","2","176","red","0.5","0.5","0.5","l","",""
"animation","103","84340","0.0-5.0-2.49","60fcf7102d7c9907d95a0920","bdp_lott","Thu Apr 13 2023 09:57:49 GMT-0700 (PDT)","288018","green","red","","","","","","","","","","176","","","","","","[{""stimulus"":""img/red_ll/1.jpg"",""time"":52},{""stimulus"":""img/red_ll/2.jpg"",""time"":103},{""stimulus"":""img/red_ll/3.jpg"",""time"":154},{""stimulus"":""img/red_ll/4.jpg"",""time"":205},{""stimulus"":""img/red_ll/5.jpg"",""time"":256},{""stimulus"":""img/red_ll/6.jpg"",""time"":307},{""stimulus"":""img/red_ll/7.jpg"",""time"":358},{""stimulus"":""img/red_ll/8.jpg"",""time"":408},{""stimulus"":""img/red_ll/9.jpg"",""time"":459},{""stimulus"":""img/red_ll/10.jpg"",""time"":510},{""stimulus"":""img/red_ll/11.jpg"",""time"":561}]","[]"
"image-keyboard-response","104","84769","0.0-5.0-1.50","60fcf7102d7c9907d95a0920","bdp_lott","Thu Apr 13 2023 09:57:49 GMT-0700 (PDT)","288018","green","red","","427","","","","choice","","img/red_ll/choose11.jpg","2","175","red","0.5","0.5","0.5","w","",""
"animation","105","85382","0.0-5.0-2.50","60fcf7102d7c9907d95a0920","bdp_lott","Thu Apr 13 2023 09:57:49 GMT-0700 (PDT)","288018","green","red","","","","","","","","","","175","","","","","","[{""stimulus"":""img/red_lw/1.jpg"",""time"":51},{""stimulus"":""img/red_lw/2.jpg"",""time"":102},{""stimulus"":""img/red_lw/3.jpg"",""time"":153},{""stimulus"":""img/red_lw/4.jpg"",""time"":204},{""stimulus"":""img/red_lw/5.jpg"",""time"":255},{""stimulus"":""img/red_lw/6.jpg"",""time"":306},{""stimulus"":""img/red_lw/7.jpg"",""time"":357},{""stimulus"":""img/red_lw/8.jpg"",""time"":408},{""stimulus"":""img/red_lw/9.jpg"",""time"":459},{""stimulus"":""img/red_lw/10.jpg"",""time"":510},{""stimulus"":""img/red_lw/11.jpg"",""time"":561}]","[]"
"image-keyboard-response","106","86670","0.0-5.0-1.51","60fcf7102d7c9907d95a0920","bdp_lott","Thu Apr 13 2023 09:57:49 GMT-0700 (PDT)","288018","green","red","","1287","","","","choice","","img/red_lw/choose11.jpg","2","174","red","0.5","0.5","0.5","l","",""
"animation","107","87283","0.0-5.0-2.51","60fcf7102d7c9907d95a0920","bdp_lott","Thu Apr 13 2023 09:57:49 GMT-0700 (PDT)","288018","green","red","","","","","","","","","","174","","","","","","[{""stimulus"":""img/red_ll/1.jpg"",""time"":52},{""stimulus"":""img/red_ll/2.jpg"",""time"":103},{""stimulus"":""img/red_ll/3.jpg"",""time"":154},{""stimulus"":""img/red_ll/4.jpg"",""time"":205},{""stimulus"":""img/red_ll/5.jpg"",""time"":256},{""stimulus"":""img/red_ll/6.jpg"",""time"":307},{""stimulus"":""img/red_ll/7.jpg"",""time"":358},{""stimulus"":""img/red_ll/8.jpg"",""time"":409},{""stimulus"":""img/red_ll/9.jpg"",""time"":460},{""stimulus"":""img/red_ll/10.jpg"",""time"":511},{""stimulus"":""img/red_ll/11.jpg"",""time"":562}]","[]"
"image-keyboard-response","108","87910","0.0-5.0-1.52","60fcf7102d7c9907d95a0920","bdp_lott","Thu Apr 13 2023 09:57:49 GMT-0700 (PDT)","288018","green","red","","626","","","","choice","","img/red_ll/choose11.jpg","2","173","red","0.5","0.5","0.5","l","",""
"animation","109","88523","0.0-5.0-2.52","60fcf7102d7c9907d95a0920","bdp_lott","Thu Apr 13 2023 09:57:49 GMT-0700 (PDT)","288018","green","red","","","","","","","","","","173","","","","","","[{""stimulus"":""img/red_ll/1.jpg"",""time"":51},{""stimulus"":""img/red_ll/2.jpg"",""time"":101},{""stimulus"":""img/red_ll/3.jpg"",""time"":153},{""stimulus"":""img/red_ll/4.jpg"",""time"":204},{""stimulus"":""img/red_ll/5.jpg"",""time"":255},{""stimulus"":""img/red_ll/6.jpg"",""time"":306},{""stimulus"":""img/red_ll/7.jpg"",""time"":357},{""stimulus"":""img/red_ll/8.jpg"",""time"":408},{""stimulus"":""img/red_ll/9.jpg"",""time"":459},{""stimulus"":""img/red_ll/10.jpg"",""time"":510},{""stimulus"":""img/red_ll/11.jpg"",""time"":561}]","[]"
"image-keyboard-response","110","88882","0.0-5.0-1.53","60fcf7102d7c9907d95a0920","bdp_lott","Thu Apr 13 2023 09:57:49 GMT-0700 (PDT)","288018","green","red","","357","","","","choice","","img/red_ll/choose11.jpg","2","172","red","0.5","0.5","0.5","w","",""
"animation","111","89494","0.0-5.0-2.53","60fcf7102d7c9907d95a0920","bdp_lott","Thu Apr 13 2023 09:57:49 GMT-0700 (PDT)","288018","green","red","","","","","","","","","","172","","","","","","[{""stimulus"":""img/red_lw/1.jpg"",""time"":52},{""stimulus"":""img/red_lw/2.jpg"",""time"":103},{""stimulus"":""img/red_lw/3.jpg"",""time"":154},{""stimulus"":""img/red_lw/4.jpg"",""time"":205},{""stimulus"":""img/red_lw/5.jpg"",""time"":255},{""stimulus"":""img/red_lw/6.jpg"",""time"":306},{""stimulus"":""img/red_lw/7.jpg"",""time"":357},{""stimulus"":""img/red_lw/8.jpg"",""time"":408},{""stimulus"":""img/red_lw/9.jpg"",""time"":459},{""stimulus"":""img/red_lw/10.jpg"",""time"":510},{""stimulus"":""img/red_lw/11.jpg"",""time"":561}]","[]"
"image-keyboard-response","112","90107","0.0-5.0-1.54","60fcf7102d7c9907d95a0920","bdp_lott","Thu Apr 13 2023 09:57:49 GMT-0700 (PDT)","288018","green","red","","611","","","","choice","","img/red_lw/choose11.jpg","2","171","red","0.5","0.5","0.5","w","",""
"animation","113","90719","0.0-5.0-2.54","60fcf7102d7c9907d95a0920","bdp_lott","Thu Apr 13 2023 09:57:49 GMT-0700 (PDT)","288018","green","red","","","","","","","","","","171","","","","","","[{""stimulus"":""img/red_lw/1.jpg"",""time"":50},{""stimulus"":""img/red_lw/2.jpg"",""time"":101},{""stimulus"":""img/red_lw/3.jpg"",""time"":152},{""stimulus"":""img/red_lw/4.jpg"",""time"":203},{""stimulus"":""img/red_lw/5.jpg"",""time"":254},{""stimulus"":""img/red_lw/6.jpg"",""time"":305},{""stimulus"":""img/red_lw/7.jpg"",""time"":356},{""stimulus"":""img/red_lw/8.jpg"",""time"":407},{""stimulus"":""img/red_lw/9.jpg"",""time"":458},{""stimulus"":""img/red_lw/10.jpg"",""time"":510},{""stimulus"":""img/red_lw/11.jpg"",""time"":561}]","[]"
"image-keyboard-response","114","91825","0.0-5.0-1.55","60fcf7102d7c9907d95a0920","bdp_lott","Thu Apr 13 2023 09:57:49 GMT-0700 (PDT)","288018","green","red","","1105","","","","choice","","img/red_lw/choose11.jpg","2","170","red","0.5","0.5","0.5","w","",""
"animation","115","92436","0.0-5.0-2.55","60fcf7102d7c9907d95a0920","bdp_lott","Thu Apr 13 2023 09:57:49 GMT-0700 (PDT)","288018","green","red","","","","","","","","","","170","","","","","","[{""stimulus"":""img/red_lw/1.jpg"",""time"":52},{""stimulus"":""img/red_lw/2.jpg"",""time"":103},{""stimulus"":""img/red_lw/3.jpg"",""time"":153},{""stimulus"":""img/red_lw/4.jpg"",""time"":204},{""stimulus"":""img/red_lw/5.jpg"",""time"":255},{""stimulus"":""img/red_lw/6.jpg"",""time"":306},{""stimulus"":""img/red_lw/7.jpg"",""time"":357},{""stimulus"":""img/red_lw/8.jpg"",""time"":408},{""stimulus"":""img/red_lw/9.jpg"",""time"":458},{""stimulus"":""img/red_lw/10.jpg"",""time"":510},{""stimulus"":""img/red_lw/11.jpg"",""time"":561}]","[]"
"image-keyboard-response","116","93682","0.0-5.0-1.56","60fcf7102d7c9907d95a0920","bdp_lott","Thu Apr 13 2023 09:57:49 GMT-0700 (PDT)","288018","green","red","","1245","","","","choice","","img/red_lw/choose11.jpg","2","169","red","0.5","0.5","0.5","l","",""
"animation","117","94297","0.0-5.0-2.56","60fcf7102d7c9907d95a0920","bdp_lott","Thu Apr 13 2023 09:57:49 GMT-0700 (PDT)","288018","green","red","","","","","","","","","","169","","","","","","[{""stimulus"":""img/red_ll/1.jpg"",""time"":52},{""stimulus"":""img/red_ll/2.jpg"",""time"":103},{""stimulus"":""img/red_ll/3.jpg"",""time"":154},{""stimulus"":""img/red_ll/4.jpg"",""time"":205},{""stimulus"":""img/red_ll/5.jpg"",""time"":255},{""stimulus"":""img/red_ll/6.jpg"",""time"":306},{""stimulus"":""img/red_ll/7.jpg"",""time"":357},{""stimulus"":""img/red_ll/8.jpg"",""time"":408},{""stimulus"":""img/red_ll/9.jpg"",""time"":459},{""stimulus"":""img/red_ll/10.jpg"",""time"":510},{""stimulus"":""img/red_ll/11.jpg"",""time"":561}]","[]"
"image-keyboard-response","118","94848","0.0-5.0-1.57","60fcf7102d7c9907d95a0920","bdp_lott","Thu Apr 13 2023 09:57:49 GMT-0700 (PDT)","288018","green","red","","550","","","","choice","","img/red_ll/choose11.jpg","2","168","red","0.5","0.5","0.5","l","",""
"animation","119","95459","0.0-5.0-2.57","60fcf7102d7c9907d95a0920","bdp_lott","Thu Apr 13 2023 09:57:49 GMT-0700 (PDT)","288018","green","red","","","","","","","","","","168","","","","","","[{""stimulus"":""img/red_ll/1.jpg"",""time"":52},{""stimulus"":""img/red_ll/2.jpg"",""time"":102},{""stimulus"":""img/red_ll/3.jpg"",""time"":154},{""stimulus"":""img/red_ll/4.jpg"",""time"":204},{""stimulus"":""img/red_ll/5.jpg"",""time"":254},{""stimulus"":""img/red_ll/6.jpg"",""time"":305},{""stimulus"":""img/red_ll/7.jpg"",""time"":355},{""stimulus"":""img/red_ll/8.jpg"",""time"":406},{""stimulus"":""img/red_ll/9.jpg"",""time"":457},{""stimulus"":""img/red_ll/10.jpg"",""time"":508},{""stimulus"":""img/red_ll/11.jpg"",""time"":559}]","[]"
"image-keyboard-response","120","96241","0.0-5.0-1.58","60fcf7102d7c9907d95a0920","bdp_lott","Thu Apr 13 2023 09:57:49 GMT-0700 (PDT)","288018","green","red","","780","","","","choice","","img/red_ll/choose11.jpg","2","167","red","0.5","0.5","0.5","w","",""
"animation","121","96854","0.0-5.0-2.58","60fcf7102d7c9907d95a0920","bdp_lott","Thu Apr 13 2023 09:57:49 GMT-0700 (PDT)","288018","green","red","","","","","","","","","","167","","","","","","[{""stimulus"":""img/red_lw/1.jpg"",""time"":51},{""stimulus"":""img/red_lw/2.jpg"",""time"":102},{""stimulus"":""img/red_lw/3.jpg"",""time"":153},{""stimulus"":""img/red_lw/4.jpg"",""time"":204},{""stimulus"":""img/red_lw/5.jpg"",""time"":255},{""stimulus"":""img/red_lw/6.jpg"",""time"":306},{""stimulus"":""img/red_lw/7.jpg"",""time"":357},{""stimulus"":""img/red_lw/8.jpg"",""time"":408},{""stimulus"":""img/red_lw/9.jpg"",""time"":459},{""stimulus"":""img/red_lw/10.jpg"",""time"":510},{""stimulus"":""img/red_lw/11.jpg"",""time"":561}]","[]"
"image-keyboard-response","122","97835","0.0-5.0-1.59","60fcf7102d7c9907d95a0920","bdp_lott","Thu Apr 13 2023 09:57:49 GMT-0700 (PDT)","288018","green","red","","980","","","","choice","","img/red_lw/choose11.jpg","2","166","red","0.5","0.5","0.5","w","",""
"animation","123","98449","0.0-5.0-2.59","60fcf7102d7c9907d95a0920","bdp_lott","Thu Apr 13 2023 09:57:49 GMT-0700 (PDT)","288018","green","red","","","","","","","","","","166","","","","","","[{""stimulus"":""img/red_lw/1.jpg"",""time"":52},{""stimulus"":""img/red_lw/2.jpg"",""time"":103},{""stimulus"":""img/red_lw/3.jpg"",""time"":154},{""stimulus"":""img/red_lw/4.jpg"",""time"":205},{""stimulus"":""img/red_lw/5.jpg"",""time"":256},{""stimulus"":""img/red_lw/6.jpg"",""time"":307},{""stimulus"":""img/red_lw/7.jpg"",""time"":358},{""stimulus"":""img/red_lw/8.jpg"",""time"":409},{""stimulus"":""img/red_lw/9.jpg"",""time"":460},{""stimulus"":""img/red_lw/10.jpg"",""time"":511},{""stimulus"":""img/red_lw/11.jpg"",""time"":562}]","[]"
"image-keyboard-response","124","98733","0.0-5.0-1.60","60fcf7102d7c9907d95a0920","bdp_lott","Thu Apr 13 2023 09:57:49 GMT-0700 (PDT)","288018","green","red","","283","","","","choice","","img/red_lw/choose11.jpg","2","165","red","0.5","0.5","0.5","w","",""
"animation","125","99346","0.0-5.0-2.60","60fcf7102d7c9907d95a0920","bdp_lott","Thu Apr 13 2023 09:57:49 GMT-0700 (PDT)","288018","green","red","","","","","","","","","","165","","","","","","[{""stimulus"":""img/red_lw/1.jpg"",""time"":51},{""stimulus"":""img/red_lw/2.jpg"",""time"":102},{""stimulus"":""img/red_lw/3.jpg"",""time"":153},{""stimulus"":""img/red_lw/4.jpg"",""time"":204},{""stimulus"":""img/red_lw/5.jpg"",""time"":256},{""stimulus"":""img/red_lw/6.jpg"",""time"":306},{""stimulus"":""img/red_lw/7.jpg"",""time"":357},{""stimulus"":""img/red_lw/8.jpg"",""time"":408},{""stimulus"":""img/red_lw/9.jpg"",""time"":459},{""stimulus"":""img/red_lw/10.jpg"",""time"":510},{""stimulus"":""img/red_lw/11.jpg"",""time"":561}]","[]"
"image-keyboard-response","126","99870","0.0-5.0-1.61","60fcf7102d7c9907d95a0920","bdp_lott","Thu Apr 13 2023 09:57:49 GMT-0700 (PDT)","288018","green","red","","522","","","","choice","","img/red_lw/choose11.jpg","2","164","red","0.5","0.5","0.5","w","",""
"animation","127","100481","0.0-5.0-2.61","60fcf7102d7c9907d95a0920","bdp_lott","Thu Apr 13 2023 09:57:49 GMT-0700 (PDT)","288018","green","red","","","","","","","","","","164","","","","","","[{""stimulus"":""img/red_lw/1.jpg"",""time"":51},{""stimulus"":""img/red_lw/2.jpg"",""time"":102},{""stimulus"":""img/red_lw/3.jpg"",""time"":153},{""stimulus"":""img/red_lw/4.jpg"",""time"":204},{""stimulus"":""img/red_lw/5.jpg"",""time"":255},{""stimulus"":""img/red_lw/6.jpg"",""time"":306},{""stimulus"":""img/red_lw/7.jpg"",""time"":357},{""stimulus"":""img/red_lw/8.jpg"",""time"":408},{""stimulus"":""img/red_lw/9.jpg"",""time"":458},{""stimulus"":""img/red_lw/10.jpg"",""time"":509},{""stimulus"":""img/red_lw/11.jpg"",""time"":560}]","[]"
"image-keyboard-response","128","101171","0.0-5.0-1.62","60fcf7102d7c9907d95a0920","bdp_lott","Thu Apr 13 2023 09:57:49 GMT-0700 (PDT)","288018","green","red","","688","","","","choice","","img/red_lw/choose11.jpg","2","163","red","0.5","0.5","0.5","w","",""
"animation","129","101782","0.0-5.0-2.62","60fcf7102d7c9907d95a0920","bdp_lott","Thu Apr 13 2023 09:57:49 GMT-0700 (PDT)","288018","green","red","","","","","","","","","","163","","","","","","[{""stimulus"":""img/red_lw/1.jpg"",""time"":52},{""stimulus"":""img/red_lw/2.jpg"",""time"":103},{""stimulus"":""img/red_lw/3.jpg"",""time"":153},{""stimulus"":""img/red_lw/4.jpg"",""time"":205},{""stimulus"":""img/red_lw/5.jpg"",""time"":256},{""stimulus"":""img/red_lw/6.jpg"",""time"":307},{""stimulus"":""img/red_lw/7.jpg"",""time"":357},{""stimulus"":""img/red_lw/8.jpg"",""time"":407},{""stimulus"":""img/red_lw/9.jpg"",""time"":458},{""stimulus"":""img/red_lw/10.jpg"",""time"":509},{""stimulus"":""img/red_lw/11.jpg"",""time"":560}]","[]"
"image-keyboard-response","130","102542","0.0-5.0-1.63","60fcf7102d7c9907d95a0920","bdp_lott","Thu Apr 13 2023 09:57:49 GMT-0700 (PDT)","288018","green","red","","759","","","","choice","","img/red_lw/choose11.jpg","2","162","red","0.5","0.5","0.5","w","",""
"animation","131","103156","0.0-5.0-2.63","60fcf7102d7c9907d95a0920","bdp_lott","Thu Apr 13 2023 09:57:49 GMT-0700 (PDT)","288018","green","red","","","","","","","","","","162","","","","","","[{""stimulus"":""img/red_lw/1.jpg"",""time"":52},{""stimulus"":""img/red_lw/2.jpg"",""time"":103},{""stimulus"":""img/red_lw/3.jpg"",""time"":154},{""stimulus"":""img/red_lw/4.jpg"",""time"":205},{""stimulus"":""img/red_lw/5.jpg"",""time"":256},{""stimulus"":""img/red_lw/6.jpg"",""time"":307},{""stimulus"":""img/red_lw/7.jpg"",""time"":358},{""stimulus"":""img/red_lw/8.jpg"",""time"":409},{""stimulus"":""img/red_lw/9.jpg"",""time"":460},{""stimulus"":""img/red_lw/10.jpg"",""time"":511},{""stimulus"":""img/red_lw/11.jpg"",""time"":562}]","[]"
"image-keyboard-response","132","104306","0.0-5.0-1.64","60fcf7102d7c9907d95a0920","bdp_lott","Thu Apr 13 2023 09:57:49 GMT-0700 (PDT)","288018","green","red","","1148","","","","choice","","img/red_lw/choose11.jpg","2","161","red","0.5","0.5","0.5","l","",""
"animation","133","104919","0.0-5.0-2.64","60fcf7102d7c9907d95a0920","bdp_lott","Thu Apr 13 2023 09:57:49 GMT-0700 (PDT)","288018","green","red","","","","","","","","","","161","","","","","","[{""stimulus"":""img/red_ll/1.jpg"",""time"":51},{""stimulus"":""img/red_ll/2.jpg"",""time"":102},{""stimulus"":""img/red_ll/3.jpg"",""time"":153},{""stimulus"":""img/red_ll/4.jpg"",""time"":204},{""stimulus"":""img/red_ll/5.jpg"",""time"":255},{""stimulus"":""img/red_ll/6.jpg"",""time"":305},{""stimulus"":""img/red_ll/7.jpg"",""time"":356},{""stimulus"":""img/red_ll/8.jpg"",""time"":407},{""stimulus"":""img/red_ll/9.jpg"",""time"":459},{""stimulus"":""img/red_ll/10.jpg"",""time"":510},{""stimulus"":""img/red_ll/11.jpg"",""time"":561}]","[]"
"image-keyboard-response","134","105797","0.0-5.0-1.65","60fcf7102d7c9907d95a0920","bdp_lott","Thu Apr 13 2023 09:57:49 GMT-0700 (PDT)","288018","green","red","","876","","","","choice","","img/red_ll/choose11.jpg","2","160","red","0.5","0.5","0.5","l","",""
"animation","135","106408","0.0-5.0-2.65","60fcf7102d7c9907d95a0920","bdp_lott","Thu Apr 13 2023 09:57:49 GMT-0700 (PDT)","288018","green","red","","","","","","","","","","160","","","","","","[{""stimulus"":""img/red_ll/1.jpg"",""time"":52},{""stimulus"":""img/red_ll/2.jpg"",""time"":103},{""stimulus"":""img/red_ll/3.jpg"",""time"":153},{""stimulus"":""img/red_ll/4.jpg"",""time"":204},{""stimulus"":""img/red_ll/5.jpg"",""time"":255},{""stimulus"":""img/red_ll/6.jpg"",""time"":306},{""stimulus"":""img/red_ll/7.jpg"",""time"":357},{""stimulus"":""img/red_ll/8.jpg"",""time"":407},{""stimulus"":""img/red_ll/9.jpg"",""time"":458},{""stimulus"":""img/red_ll/10.jpg"",""time"":509},{""stimulus"":""img/red_ll/11.jpg"",""time"":560}]","[]"
"image-keyboard-response","136","106765","0.0-5.0-1.66","60fcf7102d7c9907d95a0920","bdp_lott","Thu Apr 13 2023 09:57:49 GMT-0700 (PDT)","288018","green","red","","356","","","","choice","","img/red_ll/choose11.jpg","2","159","red","0.5","0.5","0.5","l","",""
"animation","137","107378","0.0-5.0-2.66","60fcf7102d7c9907d95a0920","bdp_lott","Thu Apr 13 2023 09:57:49 GMT-0700 (PDT)","288018","green","red","","","","","","","","","","159","","","","","","[{""stimulus"":""img/red_ll/1.jpg"",""time"":51},{""stimulus"":""img/red_ll/2.jpg"",""time"":102},{""stimulus"":""img/red_ll/3.jpg"",""time"":153},{""stimulus"":""img/red_ll/4.jpg"",""time"":204},{""stimulus"":""img/red_ll/5.jpg"",""time"":255},{""stimulus"":""img/red_ll/6.jpg"",""time"":306},{""stimulus"":""img/red_ll/7.jpg"",""time"":357},{""stimulus"":""img/red_ll/8.jpg"",""time"":408},{""stimulus"":""img/red_ll/9.jpg"",""time"":459},{""stimulus"":""img/red_ll/10.jpg"",""time"":510},{""stimulus"":""img/red_ll/11.jpg"",""time"":561}]","[]"
"image-keyboard-response","138","110059","0.0-5.0-1.67","60fcf7102d7c9907d95a0920","bdp_lott","Thu Apr 13 2023 09:57:49 GMT-0700 (PDT)","288018","green","red","","2680","","","","choice","","img/red_ll/choose11.jpg","2","158","red","0.5","0.5","0.5","l","",""
"animation","139","110672","0.0-5.0-2.67","60fcf7102d7c9907d95a0920","bdp_lott","Thu Apr 13 2023 09:57:49 GMT-0700 (PDT)","288018","green","red","","","","","","","","","","158","","","","","","[{""stimulus"":""img/red_ll/1.jpg"",""time"":51},{""stimulus"":""img/red_ll/2.jpg"",""time"":102},{""stimulus"":""img/red_ll/3.jpg"",""time"":153},{""stimulus"":""img/red_ll/4.jpg"",""time"":204},{""stimulus"":""img/red_ll/5.jpg"",""time"":255},{""stimulus"":""img/red_ll/6.jpg"",""time"":306},{""stimulus"":""img/red_ll/7.jpg"",""time"":357},{""stimulus"":""img/red_ll/8.jpg"",""time"":408},{""stimulus"":""img/red_ll/9.jpg"",""time"":459},{""stimulus"":""img/red_ll/10.jpg"",""time"":510},{""stimulus"":""img/red_ll/11.jpg"",""time"":560}]","[]"
"image-keyboard-response","140","110996","0.0-5.0-1.68","60fcf7102d7c9907d95a0920","bdp_lott","Thu Apr 13 2023 09:57:49 GMT-0700 (PDT)","288018","green","red","","322","","","","choice","","img/red_ll/choose11.jpg","2","157","red","0.5","0.5","0.5","l","",""
"animation","141","111608","0.0-5.0-2.68","60fcf7102d7c9907d95a0920","bdp_lott","Thu Apr 13 2023 09:57:49 GMT-0700 (PDT)","288018","green","red","","","","","","","","","","157","","","","","","[{""stimulus"":""img/red_ll/1.jpg"",""time"":51},{""stimulus"":""img/red_ll/2.jpg"",""time"":102},{""stimulus"":""img/red_ll/3.jpg"",""time"":153},{""stimulus"":""img/red_ll/4.jpg"",""time"":203},{""stimulus"":""img/red_ll/5.jpg"",""time"":254},{""stimulus"":""img/red_ll/6.jpg"",""time"":305},{""stimulus"":""img/red_ll/7.jpg"",""time"":357},{""stimulus"":""img/red_ll/8.jpg"",""time"":407},{""stimulus"":""img/red_ll/9.jpg"",""time"":458},{""stimulus"":""img/red_ll/10.jpg"",""time"":509},{""stimulus"":""img/red_ll/11.jpg"",""time"":560}]","[]"
"image-keyboard-response","142","112098","0.0-5.0-1.69","60fcf7102d7c9907d95a0920","bdp_lott","Thu Apr 13 2023 09:57:49 GMT-0700 (PDT)","288018","green","red","","489","","","","choice","","img/red_ll/choose11.jpg","1","156","green","0.5","0.5","0.5","w","",""
"animation","143","112710","0.0-5.0-2.69","60fcf7102d7c9907d95a0920","bdp_lott","Thu Apr 13 2023 09:57:49 GMT-0700 (PDT)","288018","green","red","","","","","","","","","","156","","","","","","[{""stimulus"":""img/green_wl/1.jpg"",""time"":52},{""stimulus"":""img/green_wl/2.jpg"",""time"":102},{""stimulus"":""img/green_wl/3.jpg"",""time"":153},{""stimulus"":""img/green_wl/4.jpg"",""time"":204},{""stimulus"":""img/green_wl/5.jpg"",""time"":255},{""stimulus"":""img/green_wl/6.jpg"",""time"":305},{""stimulus"":""img/green_wl/7.jpg"",""time"":356},{""stimulus"":""img/green_wl/8.jpg"",""time"":407},{""stimulus"":""img/green_wl/9.jpg"",""time"":458},{""stimulus"":""img/green_wl/10.jpg"",""time"":509},{""stimulus"":""img/green_wl/11.jpg"",""time"":560}]","[]"
"image-keyboard-response","144","119797","0.0-5.0-1.70","60fcf7102d7c9907d95a0920","bdp_lott","Thu Apr 13 2023 09:57:49 GMT-0700 (PDT)","288018","green","red","","7086","","","","choice","","img/green_wl/choose11.jpg","1","155","green","0.5","0.5","0.5","w","",""
"animation","145","120410","0.0-5.0-2.70","60fcf7102d7c9907d95a0920","bdp_lott","Thu Apr 13 2023 09:57:49 GMT-0700 (PDT)","288018","green","red","","","","","","","","","","155","","","","","","[{""stimulus"":""img/green_wl/1.jpg"",""time"":52},{""stimulus"":""img/green_wl/2.jpg"",""time"":103},{""stimulus"":""img/green_wl/3.jpg"",""time"":154},{""stimulus"":""img/green_wl/4.jpg"",""time"":205},{""stimulus"":""img/green_wl/5.jpg"",""time"":256},{""stimulus"":""img/green_wl/6.jpg"",""time"":306},{""stimulus"":""img/green_wl/7.jpg"",""time"":357},{""stimulus"":""img/green_wl/8.jpg"",""time"":408},{""stimulus"":""img/green_wl/9.jpg"",""time"":459},{""stimulus"":""img/green_wl/10.jpg"",""time"":510},{""stimulus"":""img/green_wl/11.jpg"",""time"":561}]","[]"
"image-keyboard-response","146","121104","0.0-5.0-1.71","60fcf7102d7c9907d95a0920","bdp_lott","Thu Apr 13 2023 09:57:49 GMT-0700 (PDT)","288018","green","red","","692","","","","choice","","img/green_wl/choose11.jpg","2","154","red","0.5","0.5","0.5","w","",""
"animation","147","121717","0.0-5.0-2.71","60fcf7102d7c9907d95a0920","bdp_lott","Thu Apr 13 2023 09:57:49 GMT-0700 (PDT)","288018","green","red","","","","","","","","","","154","","","","","","[{""stimulus"":""img/red_ww/1.jpg"",""time"":52},{""stimulus"":""img/red_ww/2.jpg"",""time"":102},{""stimulus"":""img/red_ww/3.jpg"",""time"":154},{""stimulus"":""img/red_ww/4.jpg"",""time"":205},{""stimulus"":""img/red_ww/5.jpg"",""time"":256},{""stimulus"":""img/red_ww/6.jpg"",""time"":307},{""stimulus"":""img/red_ww/7.jpg"",""time"":357},{""stimulus"":""img/red_ww/8.jpg"",""time"":408},{""stimulus"":""img/red_ww/9.jpg"",""time"":459},{""stimulus"":""img/red_ww/10.jpg"",""time"":510},{""stimulus"":""img/red_ww/11.jpg"",""time"":561}]","[]"
"image-keyboard-response","148","123429","0.0-5.0-1.72","60fcf7102d7c9907d95a0920","bdp_lott","Thu Apr 13 2023 09:57:49 GMT-0700 (PDT)","288018","green","red","","1711","","","","choice","","img/red_ww/choose11.jpg","1","153","green","0.5","0.5","0.5","l","",""
"animation","149","124043","0.0-5.0-2.72","60fcf7102d7c9907d95a0920","bdp_lott","Thu Apr 13 2023 09:57:49 GMT-0700 (PDT)","288018","green","red","","","","","","","","","","153","","","","","","[{""stimulus"":""img/green_lw/1.jpg"",""time"":52},{""stimulus"":""img/green_lw/2.jpg"",""time"":103},{""stimulus"":""img/green_lw/3.jpg"",""time"":154},{""stimulus"":""img/green_lw/4.jpg"",""time"":205},{""stimulus"":""img/green_lw/5.jpg"",""time"":256},{""stimulus"":""img/green_lw/6.jpg"",""time"":307},{""stimulus"":""img/green_lw/7.jpg"",""time"":357},{""stimulus"":""img/green_lw/8.jpg"",""time"":408},{""stimulus"":""img/green_lw/9.jpg"",""time"":459},{""stimulus"":""img/green_lw/10.jpg"",""time"":511},{""stimulus"":""img/green_lw/11.jpg"",""time"":562}]","[]"
"image-keyboard-response","150","125094","0.0-5.0-1.73","60fcf7102d7c9907d95a0920","bdp_lott","Thu Apr 13 2023 09:57:49 GMT-0700 (PDT)","288018","green","red","","1050","","","","choice","","img/green_lw/choose11.jpg","1","152","green","0.5","0.5","0.5","l","",""
"animation","151","125706","0.0-5.0-2.73","60fcf7102d7c9907d95a0920","bdp_lott","Thu Apr 13 2023 09:57:49 GMT-0700 (PDT)","288018","green","red","","","","","","","","","","152","","","","","","[{""stimulus"":""img/green_lw/1.jpg"",""time"":51},{""stimulus"":""img/green_lw/2.jpg"",""time"":101},{""stimulus"":""img/green_lw/3.jpg"",""time"":152},{""stimulus"":""img/green_lw/4.jpg"",""time"":203},{""stimulus"":""img/green_lw/5.jpg"",""time"":254},{""stimulus"":""img/green_lw/6.jpg"",""time"":305},{""stimulus"":""img/green_lw/7.jpg"",""time"":356},{""stimulus"":""img/green_lw/8.jpg"",""time"":407},{""stimulus"":""img/green_lw/9.jpg"",""time"":458},{""stimulus"":""img/green_lw/10.jpg"",""time"":509},{""stimulus"":""img/green_lw/11.jpg"",""time"":560}]","[]"
"image-keyboard-response","152","125865","0.0-5.0-1.74","60fcf7102d7c9907d95a0920","bdp_lott","Thu Apr 13 2023 09:57:49 GMT-0700 (PDT)","288018","green","red","","158","","","","choice","","img/green_lw/choose11.jpg","2","151","red","0.5","0.5","0.5","w","",""
"animation","153","126477","0.0-5.0-2.74","60fcf7102d7c9907d95a0920","bdp_lott","Thu Apr 13 2023 09:57:49 GMT-0700 (PDT)","288018","green","red","","","","","","","","","","151","","","","","","[{""stimulus"":""img/red_lw/1.jpg"",""time"":52},{""stimulus"":""img/red_lw/2.jpg"",""time"":101},{""stimulus"":""img/red_lw/3.jpg"",""time"":152},{""stimulus"":""img/red_lw/4.jpg"",""time"":204},{""stimulus"":""img/red_lw/5.jpg"",""time"":255},{""stimulus"":""img/red_lw/6.jpg"",""time"":306},{""stimulus"":""img/red_lw/7.jpg"",""time"":357},{""stimulus"":""img/red_lw/8.jpg"",""time"":408},{""stimulus"":""img/red_lw/9.jpg"",""time"":459},{""stimulus"":""img/red_lw/10.jpg"",""time"":510},{""stimulus"":""img/red_lw/11.jpg"",""time"":561}]","[]"
"image-keyboard-response","154","126986","0.0-5.0-1.75","60fcf7102d7c9907d95a0920","bdp_lott","Thu Apr 13 2023 09:57:49 GMT-0700 (PDT)","288018","green","red","","508","","","","choice","","img/red_lw/choose11.jpg","2","150","red","0.5","0.5","0.5","l","",""
"animation","155","127599","0.0-5.0-2.75","60fcf7102d7c9907d95a0920","bdp_lott","Thu Apr 13 2023 09:57:49 GMT-0700 (PDT)","288018","green","red","","","","","","","","","","150","","","","","","[{""stimulus"":""img/red_ll/1.jpg"",""time"":51},{""stimulus"":""img/red_ll/2.jpg"",""time"":102},{""stimulus"":""img/red_ll/3.jpg"",""time"":153},{""stimulus"":""img/red_ll/4.jpg"",""time"":203},{""stimulus"":""img/red_ll/5.jpg"",""time"":254},{""stimulus"":""img/red_ll/6.jpg"",""time"":305},{""stimulus"":""img/red_ll/7.jpg"",""time"":357},{""stimulus"":""img/red_ll/8.jpg"",""time"":408},{""stimulus"":""img/red_ll/9.jpg"",""time"":459},{""stimulus"":""img/red_ll/10.jpg"",""time"":510},{""stimulus"":""img/red_ll/11.jpg"",""time"":561}]","[]"
"image-keyboard-response","156","127902","0.0-5.0-1.76","60fcf7102d7c9907d95a0920","bdp_lott","Thu Apr 13 2023 09:57:49 GMT-0700 (PDT)","288018","green","red","","302","","","","choice","","img/red_ll/choose11.jpg","2","149","red","0.5","0.1","0.1","l","",""
"animation","157","128516","0.0-5.0-2.76","60fcf7102d7c9907d95a0920","bdp_lott","Thu Apr 13 2023 09:57:49 GMT-0700 (PDT)","288018","green","red","","","","","","","","","","149","","","","","","[{""stimulus"":""img/red_ll/1.jpg"",""time"":52},{""stimulus"":""img/red_ll/2.jpg"",""time"":103},{""stimulus"":""img/red_ll/3.jpg"",""time"":153},{""stimulus"":""img/red_ll/4.jpg"",""time"":204},{""stimulus"":""img/red_ll/5.jpg"",""time"":256},{""stimulus"":""img/red_ll/6.jpg"",""time"":307},{""stimulus"":""img/red_ll/7.jpg"",""time"":358},{""stimulus"":""img/red_ll/8.jpg"",""time"":409},{""stimulus"":""img/red_ll/9.jpg"",""time"":459},{""stimulus"":""img/red_ll/10.jpg"",""time"":510},{""stimulus"":""img/red_ll/11.jpg"",""time"":561}]","[]"
"image-keyboard-response","158","128645","0.0-5.0-1.77","60fcf7102d7c9907d95a0920","bdp_lott","Thu Apr 13 2023 09:57:49 GMT-0700 (PDT)","288018","green","red","","127","","","","choice","","img/red_ll/choose11.jpg","2","148","red","0.5","0.1","0.1","l","",""
"animation","159","129257","0.0-5.0-2.77","60fcf7102d7c9907d95a0920","bdp_lott","Thu Apr 13 2023 09:57:49 GMT-0700 (PDT)","288018","green","red","","","","","","","","","","148","","","","","","[{""stimulus"":""img/red_ll/1.jpg"",""time"":52},{""stimulus"":""img/red_ll/2.jpg"",""time"":103},{""stimulus"":""img/red_ll/3.jpg"",""time"":154},{""stimulus"":""img/red_ll/4.jpg"",""time"":205},{""stimulus"":""img/red_ll/5.jpg"",""time"":256},{""stimulus"":""img/red_ll/6.jpg"",""time"":307},{""stimulus"":""img/red_ll/7.jpg"",""time"":358},{""stimulus"":""img/red_ll/8.jpg"",""time"":409},{""stimulus"":""img/red_ll/9.jpg"",""time"":459},{""stimulus"":""img/red_ll/10.jpg"",""time"":510},{""stimulus"":""img/red_ll/11.jpg"",""time"":561}]","[]"
"image-keyboard-response","160","129566","0.0-5.0-1.78","60fcf7102d7c9907d95a0920","bdp_lott","Thu Apr 13 2023 09:57:49 GMT-0700 (PDT)","288018","green","red","","308","","","","choice","","img/red_ll/choose11.jpg","2","147","red","0.5","0.1","0.1","l","",""
"animation","161","130177","0.0-5.0-2.78","60fcf7102d7c9907d95a0920","bdp_lott","Thu Apr 13 2023 09:57:49 GMT-0700 (PDT)","288018","green","red","","","","","","","","","","147","","","","","","[{""stimulus"":""img/red_ll/1.jpg"",""time"":52},{""stimulus"":""img/red_ll/2.jpg"",""time"":103},{""stimulus"":""img/red_ll/3.jpg"",""time"":154},{""stimulus"":""img/red_ll/4.jpg"",""time"":204},{""stimulus"":""img/red_ll/5.jpg"",""time"":255},{""stimulus"":""img/red_ll/6.jpg"",""time"":306},{""stimulus"":""img/red_ll/7.jpg"",""time"":357},{""stimulus"":""img/red_ll/8.jpg"",""time"":408},{""stimulus"":""img/red_ll/9.jpg"",""time"":459},{""stimulus"":""img/red_ll/10.jpg"",""time"":510},{""stimulus"":""img/red_ll/11.jpg"",""time"":560}]","[]"
"image-keyboard-response","162","130248","0.0-5.0-1.79","60fcf7102d7c9907d95a0920","bdp_lott","Thu Apr 13 2023 09:57:49 GMT-0700 (PDT)","288018","green","red","","70","","","","choice","","img/red_ll/choose11.jpg","1","146","green","0.5","0.1","0.5","w","",""
"animation","163","130861","0.0-5.0-2.79","60fcf7102d7c9907d95a0920","bdp_lott","Thu Apr 13 2023 09:57:49 GMT-0700 (PDT)","288018","green","red","","","","","","","","","","146","","","","","","[{""stimulus"":""img/green_wl/1.jpg"",""time"":51},{""stimulus"":""img/green_wl/2.jpg"",""time"":102},{""stimulus"":""img/green_wl/3.jpg"",""time"":153},{""stimulus"":""img/green_wl/4.jpg"",""time"":204},{""stimulus"":""img/green_wl/5.jpg"",""time"":255},{""stimulus"":""img/green_wl/6.jpg"",""time"":306},{""stimulus"":""img/green_wl/7.jpg"",""time"":357},{""stimulus"":""img/green_wl/8.jpg"",""time"":408},{""stimulus"":""img/green_wl/9.jpg"",""time"":459},{""stimulus"":""img/green_wl/10.jpg"",""time"":510},{""stimulus"":""img/green_wl/11.jpg"",""time"":560}]","[]"
"image-keyboard-response","164","131384","0.0-5.0-1.80","60fcf7102d7c9907d95a0920","bdp_lott","Thu Apr 13 2023 09:57:49 GMT-0700 (PDT)","288018","green","red","","523","","","","choice","","img/green_wl/choose11.jpg","1","145","green","0.5","0.1","0.5","w","",""
"animation","165","131997","0.0-5.0-2.80","60fcf7102d7c9907d95a0920","bdp_lott","Thu Apr 13 2023 09:57:49 GMT-0700 (PDT)","288018","green","red","","","","","","","","","","145","","","","","","[{""stimulus"":""img/green_wl/1.jpg"",""time"":51},{""stimulus"":""img/green_wl/2.jpg"",""time"":102},{""stimulus"":""img/green_wl/3.jpg"",""time"":153},{""stimulus"":""img/green_wl/4.jpg"",""time"":204},{""stimulus"":""img/green_wl/5.jpg"",""time"":256},{""stimulus"":""img/green_wl/6.jpg"",""time"":306},{""stimulus"":""img/green_wl/7.jpg"",""time"":357},{""stimulus"":""img/green_wl/8.jpg"",""time"":408},{""stimulus"":""img/green_wl/9.jpg"",""time"":459},{""stimulus"":""img/green_wl/10.jpg"",""time"":510},{""stimulus"":""img/green_wl/11.jpg"",""time"":561}]","[]"
"image-keyboard-response","166","132261","0.0-5.0-1.81","60fcf7102d7c9907d95a0920","bdp_lott","Thu Apr 13 2023 09:57:49 GMT-0700 (PDT)","288018","green","red","","262","","","","choice","","img/green_wl/choose11.jpg","1","144","green","0.5","0.1","0.5","w","",""
"animation","167","132872","0.0-5.0-2.81","60fcf7102d7c9907d95a0920","bdp_lott","Thu Apr 13 2023 09:57:49 GMT-0700 (PDT)","288018","green","red","","","","","","","","","","144","","","","","","[{""stimulus"":""img/green_wl/1.jpg"",""time"":52},{""stimulus"":""img/green_wl/2.jpg"",""time"":103},{""stimulus"":""img/green_wl/3.jpg"",""time"":153},{""stimulus"":""img/green_wl/4.jpg"",""time"":204},{""stimulus"":""img/green_wl/5.jpg"",""time"":255},{""stimulus"":""img/green_wl/6.jpg"",""time"":306},{""stimulus"":""img/green_wl/7.jpg"",""time"":357},{""stimulus"":""img/green_wl/8.jpg"",""time"":408},{""stimulus"":""img/green_wl/9.jpg"",""time"":459},{""stimulus"":""img/green_wl/10.jpg"",""time"":510},{""stimulus"":""img/green_wl/11.jpg"",""time"":561}]","[]"
"image-keyboard-response","168","133199","0.0-5.0-1.82","60fcf7102d7c9907d95a0920","bdp_lott","Thu Apr 13 2023 09:57:49 GMT-0700 (PDT)","288018","green","red","","325","","","","choice","","img/green_wl/choose11.jpg","1","143","green","0.5","0.1","0.5","w","",""
"animation","169","133814","0.0-5.0-2.82","60fcf7102d7c9907d95a0920","bdp_lott","Thu Apr 13 2023 09:57:49 GMT-0700 (PDT)","288018","green","red","","","","","","","","","","143","","","","","","[{""stimulus"":""img/green_wl/1.jpg"",""time"":51},{""stimulus"":""img/green_wl/2.jpg"",""time"":103},{""stimulus"":""img/green_wl/3.jpg"",""time"":153},{""stimulus"":""img/green_wl/4.jpg"",""time"":204},{""stimulus"":""img/green_wl/5.jpg"",""time"":255},{""stimulus"":""img/green_wl/6.jpg"",""time"":306},{""stimulus"":""img/green_wl/7.jpg"",""time"":357},{""stimulus"":""img/green_wl/8.jpg"",""time"":407},{""stimulus"":""img/green_wl/9.jpg"",""time"":458},{""stimulus"":""img/green_wl/10.jpg"",""time"":510},{""stimulus"":""img/green_wl/11.jpg"",""time"":561}]","[]"
"image-keyboard-response","170","134093","0.0-5.0-1.83","60fcf7102d7c9907d95a0920","bdp_lott","Thu Apr 13 2023 09:57:49 GMT-0700 (PDT)","288018","green","red","","275","","","","choice","","img/green_wl/choose11.jpg","1","142","green","0.5","0.1","0.5","l","",""
"animation","171","134707","0.0-5.0-2.83","60fcf7102d7c9907d95a0920","bdp_lott","Thu Apr 13 2023 09:57:49 GMT-0700 (PDT)","288018","green","red","","","","","","","","","","142","","","","","","[{""stimulus"":""img/green_ll/1.jpg"",""time"":52},{""stimulus"":""img/green_ll/2.jpg"",""time"":103},{""stimulus"":""img/green_ll/3.jpg"",""time"":154},{""stimulus"":""img/green_ll/4.jpg"",""time"":205},{""stimulus"":""img/green_ll/5.jpg"",""time"":256},{""stimulus"":""img/green_ll/6.jpg"",""time"":307},{""stimulus"":""img/green_ll/7.jpg"",""time"":358},{""stimulus"":""img/green_ll/8.jpg"",""time"":409},{""stimulus"":""img/green_ll/9.jpg"",""time"":460},{""stimulus"":""img/green_ll/10.jpg"",""time"":511},{""stimulus"":""img/green_ll/11.jpg"",""time"":562}]","[]"
"image-keyboard-response","172","135007","0.0-5.0-1.84","60fcf7102d7c9907d95a0920","bdp_lott","Thu Apr 13 2023 09:57:49 GMT-0700 (PDT)","288018","green","red","","299","","","","choice","","img/green_ll/choose11.jpg","1","141","green","0.5","0.1","0.5","w","",""
"animation","173","135621","0.0-5.0-2.84","60fcf7102d7c9907d95a0920","bdp_lott","Thu Apr 13 2023 09:57:49 GMT-0700 (PDT)","288018","green","red","","","","","","","","","","141","","","","","","[{""stimulus"":""img/green_wl/1.jpg"",""time"":51},{""stimulus"":""img/green_wl/2.jpg"",""time"":102},{""stimulus"":""img/green_wl/3.jpg"",""time"":153},{""stimulus"":""img/green_wl/4.jpg"",""time"":204},{""stimulus"":""img/green_wl/5.jpg"",""time"":255},{""stimulus"":""img/green_wl/6.jpg"",""time"":306},{""stimulus"":""img/green_wl/7.jpg"",""time"":358},{""stimulus"":""img/green_wl/8.jpg"",""time"":409},{""stimulus"":""img/green_wl/9.jpg"",""time"":460},{""stimulus"":""img/green_wl/10.jpg"",""time"":511},{""stimulus"":""img/green_wl/11.jpg"",""time"":562}]","[]"
"image-keyboard-response","174","135892","0.0-5.0-1.85","60fcf7102d7c9907d95a0920","bdp_lott","Thu Apr 13 2023 09:57:49 GMT-0700 (PDT)","288018","green","red","","270","","","","choice","","img/green_wl/choose11.jpg","1","140","green","0.5","0.1","0.5","l","",""
"animation","175","136505","0.0-5.0-2.85","60fcf7102d7c9907d95a0920","bdp_lott","Thu Apr 13 2023 09:57:49 GMT-0700 (PDT)","288018","green","red","","","","","","","","","","140","","","","","","[{""stimulus"":""img/green_ll/1.jpg"",""time"":51},{""stimulus"":""img/green_ll/2.jpg"",""time"":102},{""stimulus"":""img/green_ll/3.jpg"",""time"":153},{""stimulus"":""img/green_ll/4.jpg"",""time"":204},{""stimulus"":""img/green_ll/5.jpg"",""time"":255},{""stimulus"":""img/green_ll/6.jpg"",""time"":306},{""stimulus"":""img/green_ll/7.jpg"",""time"":357},{""stimulus"":""img/green_ll/8.jpg"",""time"":408},{""stimulus"":""img/green_ll/9.jpg"",""time"":459},{""stimulus"":""img/green_ll/10.jpg"",""time"":510},{""stimulus"":""img/green_ll/11.jpg"",""time"":561}]","[]"
"image-keyboard-response","176","136751","0.0-5.0-1.86","60fcf7102d7c9907d95a0920","bdp_lott","Thu Apr 13 2023 09:57:49 GMT-0700 (PDT)","288018","green","red","","244","","","","choice","","img/green_ll/choose11.jpg","1","139","green","0.5","0.1","0.5","w","",""
"animation","177","137362","0.0-5.0-2.86","60fcf7102d7c9907d95a0920","bdp_lott","Thu Apr 13 2023 09:57:49 GMT-0700 (PDT)","288018","green","red","","","","","","","","","","139","","","","","","[{""stimulus"":""img/green_wl/1.jpg"",""time"":52},{""stimulus"":""img/green_wl/2.jpg"",""time"":103},{""stimulus"":""img/green_wl/3.jpg"",""time"":153},{""stimulus"":""img/green_wl/4.jpg"",""time"":204},{""stimulus"":""img/green_wl/5.jpg"",""time"":255},{""stimulus"":""img/green_wl/6.jpg"",""time"":306},{""stimulus"":""img/green_wl/7.jpg"",""time"":357},{""stimulus"":""img/green_wl/8.jpg"",""time"":408},{""stimulus"":""img/green_wl/9.jpg"",""time"":459},{""stimulus"":""img/green_wl/10.jpg"",""time"":510},{""stimulus"":""img/green_wl/11.jpg"",""time"":561}]","[]"
"image-keyboard-response","178","137632","0.0-5.0-1.87","60fcf7102d7c9907d95a0920","bdp_lott","Thu Apr 13 2023 09:57:49 GMT-0700 (PDT)","288018","green","red","","269","","","","choice","","img/green_wl/choose11.jpg","1","138","green","0.5","0.1","0.5","l","",""
"animation","179","138246","0.0-5.0-2.87","60fcf7102d7c9907d95a0920","bdp_lott","Thu Apr 13 2023 09:57:49 GMT-0700 (PDT)","288018","green","red","","","","","","","","","","138","","","","","","[{""stimulus"":""img/green_ll/1.jpg"",""time"":52},{""stimulus"":""img/green_ll/2.jpg"",""time"":103},{""stimulus"":""img/green_ll/3.jpg"",""time"":154},{""stimulus"":""img/green_ll/4.jpg"",""time"":204},{""stimulus"":""img/green_ll/5.jpg"",""time"":255},{""stimulus"":""img/green_ll/6.jpg"",""time"":306},{""stimulus"":""img/green_ll/7.jpg"",""time"":357},{""stimulus"":""img/green_ll/8.jpg"",""time"":408},{""stimulus"":""img/green_ll/9.jpg"",""time"":460},{""stimulus"":""img/green_ll/10.jpg"",""time"":511},{""stimulus"":""img/green_ll/11.jpg"",""time"":562}]","[]"
"image-keyboard-response","180","138594","0.0-5.0-1.88","60fcf7102d7c9907d95a0920","bdp_lott","Thu Apr 13 2023 09:57:49 GMT-0700 (PDT)","288018","green","red","","347","","","","choice","","img/green_ll/choose11.jpg","1","137","green","0.5","0.1","0.5","w","",""
"animation","181","139207","0.0-5.0-2.88","60fcf7102d7c9907d95a0920","bdp_lott","Thu Apr 13 2023 09:57:49 GMT-0700 (PDT)","288018","green","red","","","","","","","","","","137","","","","","","[{""stimulus"":""img/green_wl/1.jpg"",""time"":51},{""stimulus"":""img/green_wl/2.jpg"",""time"":102},{""stimulus"":""img/green_wl/3.jpg"",""time"":153},{""stimulus"":""img/green_wl/4.jpg"",""time"":204},{""stimulus"":""img/green_wl/5.jpg"",""time"":255},{""stimulus"":""img/green_wl/6.jpg"",""time"":306},{""stimulus"":""img/green_wl/7.jpg"",""time"":357},{""stimulus"":""img/green_wl/8.jpg"",""time"":409},{""stimulus"":""img/green_wl/9.jpg"",""time"":459},{""stimulus"":""img/green_wl/10.jpg"",""time"":510},{""stimulus"":""img/green_wl/11.jpg"",""time"":561}]","[]"
"image-keyboard-response","182","139581","0.0-5.0-1.89","60fcf7102d7c9907d95a0920","bdp_lott","Thu Apr 13 2023 09:57:49 GMT-0700 (PDT)","288018","green","red","","373","","","","choice","","img/green_wl/choose11.jpg","1","136","green","0.5","0.1","0.5","w","",""
"animation","183","140195","0.0-5.0-2.89","60fcf7102d7c9907d95a0920","bdp_lott","Thu Apr 13 2023 09:57:49 GMT-0700 (PDT)","288018","green","red","","","","","","","","","","136","","","","","","[{""stimulus"":""img/green_wl/1.jpg"",""time"":51},{""stimulus"":""img/green_wl/2.jpg"",""time"":102},{""stimulus"":""img/green_wl/3.jpg"",""time"":153},{""stimulus"":""img/green_wl/4.jpg"",""time"":204},{""stimulus"":""img/green_wl/5.jpg"",""time"":255},{""stimulus"":""img/green_wl/6.jpg"",""time"":306},{""stimulus"":""img/green_wl/7.jpg"",""time"":357},{""stimulus"":""img/green_wl/8.jpg"",""time"":409},{""stimulus"":""img/green_wl/9.jpg"",""time"":460},{""stimulus"":""img/green_wl/10.jpg"",""time"":511},{""stimulus"":""img/green_wl/11.jpg"",""time"":562}]","[]"
"image-keyboard-response","184","140507","0.0-5.0-1.90","60fcf7102d7c9907d95a0920","bdp_lott","Thu Apr 13 2023 09:57:49 GMT-0700 (PDT)","288018","green","red","","311","","","","choice","","img/green_wl/choose11.jpg","1","135","green","0.5","0.1","0.5","l","",""
"animation","185","141120","0.0-5.0-2.90","60fcf7102d7c9907d95a0920","bdp_lott","Thu Apr 13 2023 09:57:49 GMT-0700 (PDT)","288018","green","red","","","","","","","","","","135","","","","","","[{""stimulus"":""img/green_ll/1.jpg"",""time"":52},{""stimulus"":""img/green_ll/2.jpg"",""time"":102},{""stimulus"":""img/green_ll/3.jpg"",""time"":153},{""stimulus"":""img/green_ll/4.jpg"",""time"":204},{""stimulus"":""img/green_ll/5.jpg"",""time"":254},{""stimulus"":""img/green_ll/6.jpg"",""time"":305},{""stimulus"":""img/green_ll/7.jpg"",""time"":356},{""stimulus"":""img/green_ll/8.jpg"",""time"":408},{""stimulus"":""img/green_ll/9.jpg"",""time"":459},{""stimulus"":""img/green_ll/10.jpg"",""time"":510},{""stimulus"":""img/green_ll/11.jpg"",""time"":561}]","[]"
"image-keyboard-response","186","141411","0.0-5.0-1.91","60fcf7102d7c9907d95a0920","bdp_lott","Thu Apr 13 2023 09:57:49 GMT-0700 (PDT)","288018","green","red","","289","","","","choice","","img/green_ll/choose11.jpg","1","134","green","0.5","0.1","0.5","w","",""
"animation","187","142023","0.0-5.0-2.91","60fcf7102d7c9907d95a0920","bdp_lott","Thu Apr 13 2023 09:57:49 GMT-0700 (PDT)","288018","green","red","","","","","","","","","","134","","","","","","[{""stimulus"":""img/green_wl/1.jpg"",""time"":52},{""stimulus"":""img/green_wl/2.jpg"",""time"":103},{""stimulus"":""img/green_wl/3.jpg"",""time"":154},{""stimulus"":""img/green_wl/4.jpg"",""time"":204},{""stimulus"":""img/green_wl/5.jpg"",""time"":255},{""stimulus"":""img/green_wl/6.jpg"",""time"":306},{""stimulus"":""img/green_wl/7.jpg"",""time"":357},{""stimulus"":""img/green_wl/8.jpg"",""time"":408},{""stimulus"":""img/green_wl/9.jpg"",""time"":459},{""stimulus"":""img/green_wl/10.jpg"",""time"":510},{""stimulus"":""img/green_wl/11.jpg"",""time"":561}]","[]"
"image-keyboard-response","188","142308","0.0-5.0-1.92","60fcf7102d7c9907d95a0920","bdp_lott","Thu Apr 13 2023 09:57:49 GMT-0700 (PDT)","288018","green","red","","284","","","","choice","","img/green_wl/choose11.jpg","1","133","green","0.5","0.1","0.5","l","",""
"animation","189","142920","0.0-5.0-2.92","60fcf7102d7c9907d95a0920","bdp_lott","Thu Apr 13 2023 09:57:49 GMT-0700 (PDT)","288018","green","red","","","","","","","","","","133","","","","","","[{""stimulus"":""img/green_ll/1.jpg"",""time"":51},{""stimulus"":""img/green_ll/2.jpg"",""time"":102},{""stimulus"":""img/green_ll/3.jpg"",""time"":153},{""stimulus"":""img/green_ll/4.jpg"",""time"":203},{""stimulus"":""img/green_ll/5.jpg"",""time"":254},{""stimulus"":""img/green_ll/6.jpg"",""time"":306},{""stimulus"":""img/green_ll/7.jpg"",""time"":357},{""stimulus"":""img/green_ll/8.jpg"",""time"":408},{""stimulus"":""img/green_ll/9.jpg"",""time"":458},{""stimulus"":""img/green_ll/10.jpg"",""time"":509},{""stimulus"":""img/green_ll/11.jpg"",""time"":560}]","[]"
"image-keyboard-response","190","143155","0.0-5.0-1.93","60fcf7102d7c9907d95a0920","bdp_lott","Thu Apr 13 2023 09:57:49 GMT-0700 (PDT)","288018","green","red","","234","","","","choice","","img/green_ll/choose11.jpg","1","132","green","0.5","0.1","0.5","l","",""
"animation","191","143768","0.0-5.0-2.93","60fcf7102d7c9907d95a0920","bdp_lott","Thu Apr 13 2023 09:57:49 GMT-0700 (PDT)","288018","green","red","","","","","","","","","","132","","","","","","[{""stimulus"":""img/green_ll/1.jpg"",""time"":51},{""stimulus"":""img/green_ll/2.jpg"",""time"":102},{""stimulus"":""img/green_ll/3.jpg"",""time"":153},{""stimulus"":""img/green_ll/4.jpg"",""time"":204},{""stimulus"":""img/green_ll/5.jpg"",""time"":255},{""stimulus"":""img/green_ll/6.jpg"",""time"":306},{""stimulus"":""img/green_ll/7.jpg"",""time"":357},{""stimulus"":""img/green_ll/8.jpg"",""time"":408},{""stimulus"":""img/green_ll/9.jpg"",""time"":459},{""stimulus"":""img/green_ll/10.jpg"",""time"":510},{""stimulus"":""img/green_ll/11.jpg"",""time"":561}]","[]"
"image-keyboard-response","192","144082","0.0-5.0-1.94","60fcf7102d7c9907d95a0920","bdp_lott","Thu Apr 13 2023 09:57:49 GMT-0700 (PDT)","288018","green","red","","313","","","","choice","","img/green_ll/choose11.jpg","1","131","green","0.5","0.1","0.5","l","",""
"animation","193","144694","0.0-5.0-2.94","60fcf7102d7c9907d95a0920","bdp_lott","Thu Apr 13 2023 09:57:49 GMT-0700 (PDT)","288018","green","red","","","","","","","","","","131","","","","","","[{""stimulus"":""img/green_ll/1.jpg"",""time"":51},{""stimulus"":""img/green_ll/2.jpg"",""time"":102},{""stimulus"":""img/green_ll/3.jpg"",""time"":153},{""stimulus"":""img/green_ll/4.jpg"",""time"":204},{""stimulus"":""img/green_ll/5.jpg"",""time"":254},{""stimulus"":""img/green_ll/6.jpg"",""time"":306},{""stimulus"":""img/green_ll/7.jpg"",""time"":357},{""stimulus"":""img/green_ll/8.jpg"",""time"":407},{""stimulus"":""img/green_ll/9.jpg"",""time"":458},{""stimulus"":""img/green_ll/10.jpg"",""time"":509},{""stimulus"":""img/green_ll/11.jpg"",""time"":561}]","[]"
"image-keyboard-response","194","144872","0.0-5.0-1.95","60fcf7102d7c9907d95a0920","bdp_lott","Thu Apr 13 2023 09:57:49 GMT-0700 (PDT)","288018","green","red","","176","","","","choice","","img/green_ll/choose11.jpg","1","130","green","0.5","0.1","0.5","w","",""
"animation","195","145487","0.0-5.0-2.95","60fcf7102d7c9907d95a0920","bdp_lott","Thu Apr 13 2023 09:57:49 GMT-0700 (PDT)","288018","green","red","","","","","","","","","","130","","","","","","[{""stimulus"":""img/green_wl/1.jpg"",""time"":51},{""stimulus"":""img/green_wl/2.jpg"",""time"":102},{""stimulus"":""img/green_wl/3.jpg"",""time"":153},{""stimulus"":""img/green_wl/4.jpg"",""time"":204},{""stimulus"":""img/green_wl/5.jpg"",""time"":254},{""stimulus"":""img/green_wl/6.jpg"",""time"":305},{""stimulus"":""img/green_wl/7.jpg"",""time"":356},{""stimulus"":""img/green_wl/8.jpg"",""time"":407},{""stimulus"":""img/green_wl/9.jpg"",""time"":458},{""stimulus"":""img/green_wl/10.jpg"",""time"":509},{""stimulus"":""img/green_wl/11.jpg"",""time"":560}]","[]"
"image-keyboard-response","196","146074","0.0-5.0-1.96","60fcf7102d7c9907d95a0920","bdp_lott","Thu Apr 13 2023 09:57:49 GMT-0700 (PDT)","288018","green","red","","585","","","","choice","","img/green_wl/choose11.jpg","1","129","green","0.5","0.1","0.5","l","",""
"animation","197","146686","0.0-5.0-2.96","60fcf7102d7c9907d95a0920","bdp_lott","Thu Apr 13 2023 09:57:49 GMT-0700 (PDT)","288018","green","red","","","","","","","","","","129","","","","","","[{""stimulus"":""img/green_ll/1.jpg"",""time"":52},{""stimulus"":""img/green_ll/2.jpg"",""time"":102},{""stimulus"":""img/green_ll/3.jpg"",""time"":152},{""stimulus"":""img/green_ll/4.jpg"",""time"":203},{""stimulus"":""img/green_ll/5.jpg"",""time"":254},{""stimulus"":""img/green_ll/6.jpg"",""time"":305},{""stimulus"":""img/green_ll/7.jpg"",""time"":356},{""stimulus"":""img/green_ll/8.jpg"",""time"":407},{""stimulus"":""img/green_ll/9.jpg"",""time"":458},{""stimulus"":""img/green_ll/10.jpg"",""time"":509},{""stimulus"":""img/green_ll/11.jpg"",""time"":560}]","[]"
"image-keyboard-response","198","146987","0.0-5.0-1.97","60fcf7102d7c9907d95a0920","bdp_lott","Thu Apr 13 2023 09:57:49 GMT-0700 (PDT)","288018","green","red","","299","","","","choice","","img/green_ll/choose11.jpg","1","128","green","0.5","0.1","0.5","l","",""
