"event","trial","time","trialtype","subject_id","task","startTime","totalTime","fairMachine","unfairMachine","trial_type","trial_index","time_elapsed","internal_node_id","view_history","rt","success","stimulus","key_press","roundsLeft","chosen","pFairMachWin","pUnfairMachWin","pTrialWin","outcome","animation_sequence","responses"
"focus","0","0","focusevent","6320e37620d067c7d322246a","bdp_lott","Mon Apr 10 2023 21:16:26 GMT-0400 (Eastern Daylight Time)","255580","green","red","","","","","","","","","","","","","","","","",""
"","","","","6320e37620d067c7d322246a","bdp_lott","Mon Apr 10 2023 21:16:26 GMT-0400 (Eastern Daylight Time)","255580","green","red","pavlovia","0","1","0.0-0.0","","","","","","","","","","","","",""
"","","","","6320e37620d067c7d322246a","bdp_lott","Mon Apr 10 2023 21:16:26 GMT-0400 (Eastern Daylight Time)","255580","green","red","instructions","1","2326","0.0-1.0","[{""page_index"":0,""viewing_time"":2325}]","2325","","","","","","","","","","",""
"fullscreenexit","2","4829","fullscreenexit","6320e37620d067c7d322246a","bdp_lott","Mon Apr 10 2023 21:16:26 GMT-0400 (Eastern Daylight Time)","255580","green","red","","","","","","","","","","","","","","","","",""
"","","","","6320e37620d067c7d322246a","bdp_lott","Mon Apr 10 2023 21:16:26 GMT-0400 (Eastern Daylight Time)","255580","green","red","fullscreen","2","5823","0.0-2.0","","","true","","","","","","","","","",""
"","","","fullscreenfail","6320e37620d067c7d322246a","bdp_lott","Mon Apr 10 2023 21:16:26 GMT-0400 (Eastern Daylight Time)","255580","green","red","image-keyboard-response","3","7426","0.0-3.0-0.0","","1600","","","32","","","","","","","",""
"","","","","6320e37620d067c7d322246a","bdp_lott","Mon Apr 10 2023 21:16:26 GMT-0400 (Eastern Daylight Time)","255580","green","red","instructions","4","45587","0.0-4.0","[{""page_index"":0,""viewing_time"":37910}]","37910","","","","","","","","","","",""
"","","","choice","6320e37620d067c7d322246a","bdp_lott","Mon Apr 10 2023 21:16:26 GMT-0400 (Eastern Daylight Time)","255580","green","red","image-keyboard-response","5","52976","0.0-5.0-1.0","","7389","","img/red_ll/initchoose11.jpg","1","225","green","0.5","0.5","0.5","l","",""
"","","","","6320e37620d067c7d322246a","bdp_lott","Mon Apr 10 2023 21:16:26 GMT-0400 (Eastern Daylight Time)","255580","green","red","animation","6","53579","0.0-5.0-2.0","","","","","","225","","","","","","[{""stimulus"":""img/green_ll/1.jpg"",""time"":51},{""stimulus"":""img/green_ll/2.jpg"",""time"":101},{""stimulus"":""img/green_ll/3.jpg"",""time"":151},{""stimulus"":""img/green_ll/4.jpg"",""time"":202},{""stimulus"":""img/green_ll/5.jpg"",""time"":252},{""stimulus"":""img/green_ll/6.jpg"",""time"":302},{""stimulus"":""img/green_ll/7.jpg"",""time"":352},{""stimulus"":""img/green_ll/8.jpg"",""time"":402},{""stimulus"":""img/green_ll/9.jpg"",""time"":452},{""stimulus"":""img/green_ll/10.jpg"",""time"":503},{""stimulus"":""img/green_ll/11.jpg"",""time"":553}]","[]"
"","","","choice","6320e37620d067c7d322246a","bdp_lott","Mon Apr 10 2023 21:16:26 GMT-0400 (Eastern Daylight Time)","255580","green","red","image-keyboard-response","7","55343","0.0-5.0-1.1","","1763","","img/green_ll/choose11.jpg","2","224","red","0.5","0.5","0.5","w","",""
"","","","","6320e37620d067c7d322246a","bdp_lott","Mon Apr 10 2023 21:16:26 GMT-0400 (Eastern Daylight Time)","255580","green","red","animation","8","55946","0.0-5.0-2.1","","","","","","224","","","","","","[{""stimulus"":""img/red_lw/1.jpg"",""time"":51},{""stimulus"":""img/red_lw/2.jpg"",""time"":101},{""stimulus"":""img/red_lw/3.jpg"",""time"":151},{""stimulus"":""img/red_lw/4.jpg"",""time"":201},{""stimulus"":""img/red_lw/5.jpg"",""time"":251},{""stimulus"":""img/red_lw/6.jpg"",""time"":301},{""stimulus"":""img/red_lw/7.jpg"",""time"":351},{""stimulus"":""img/red_lw/8.jpg"",""time"":401},{""stimulus"":""img/red_lw/9.jpg"",""time"":451},{""stimulus"":""img/red_lw/10.jpg"",""time"":501},{""stimulus"":""img/red_lw/11.jpg"",""time"":552}]","[]"
"","","","choice","6320e37620d067c7d322246a","bdp_lott","Mon Apr 10 2023 21:16:26 GMT-0400 (Eastern Daylight Time)","255580","green","red","image-keyboard-response","9","59990","0.0-5.0-1.2","","4044","","img/red_lw/choose11.jpg","1","223","green","0.5","0.5","0.5","l","",""
"","","","","6320e37620d067c7d322246a","bdp_lott","Mon Apr 10 2023 21:16:26 GMT-0400 (Eastern Daylight Time)","255580","green","red","animation","10","60592","0.0-5.0-2.2","","","","","","223","","","","","","[{""stimulus"":""img/green_lw/1.jpg"",""time"":51},{""stimulus"":""img/green_lw/2.jpg"",""time"":100},{""stimulus"":""img/green_lw/3.jpg"",""time"":150},{""stimulus"":""img/green_lw/4.jpg"",""time"":201},{""stimulus"":""img/green_lw/5.jpg"",""time"":251},{""stimulus"":""img/green_lw/6.jpg"",""time"":301},{""stimulus"":""img/green_lw/7.jpg"",""time"":352},{""stimulus"":""img/green_lw/8.jpg"",""time"":402},{""stimulus"":""img/green_lw/9.jpg"",""time"":453},{""stimulus"":""img/green_lw/10.jpg"",""time"":503},{""stimulus"":""img/green_lw/11.jpg"",""time"":552}]","[]"
"","","","choice","6320e37620d067c7d322246a","bdp_lott","Mon Apr 10 2023 21:16:26 GMT-0400 (Eastern Daylight Time)","255580","green","red","image-keyboard-response","11","61209","0.0-5.0-1.3","","616","","img/green_lw/choose11.jpg","2","222","red","0.5","0.5","0.5","w","",""
"","","","","6320e37620d067c7d322246a","bdp_lott","Mon Apr 10 2023 21:16:26 GMT-0400 (Eastern Daylight Time)","255580","green","red","animation","12","61813","0.0-5.0-2.3","","","","","","222","","","","","","[{""stimulus"":""img/red_lw/1.jpg"",""time"":51},{""stimulus"":""img/red_lw/2.jpg"",""time"":101},{""stimulus"":""img/red_lw/3.jpg"",""time"":151},{""stimulus"":""img/red_lw/4.jpg"",""time"":201},{""stimulus"":""img/red_lw/5.jpg"",""time"":251},{""stimulus"":""img/red_lw/6.jpg"",""time"":301},{""stimulus"":""img/red_lw/7.jpg"",""time"":352},{""stimulus"":""img/red_lw/8.jpg"",""time"":402},{""stimulus"":""img/red_lw/9.jpg"",""time"":453},{""stimulus"":""img/red_lw/10.jpg"",""time"":503},{""stimulus"":""img/red_lw/11.jpg"",""time"":554}]","[]"
"","","","choice","6320e37620d067c7d322246a","bdp_lott","Mon Apr 10 2023 21:16:26 GMT-0400 (Eastern Daylight Time)","255580","green","red","image-keyboard-response","13","62427","0.0-5.0-1.4","","614","","img/red_lw/choose11.jpg","2","221","red","0.5","0.5","0.5","w","",""
"","","","","6320e37620d067c7d322246a","bdp_lott","Mon Apr 10 2023 21:16:26 GMT-0400 (Eastern Daylight Time)","255580","green","red","animation","14","63029","0.0-5.0-2.4","","","","","","221","","","","","","[{""stimulus"":""img/red_lw/1.jpg"",""time"":50},{""stimulus"":""img/red_lw/2.jpg"",""time"":100},{""stimulus"":""img/red_lw/3.jpg"",""time"":150},{""stimulus"":""img/red_lw/4.jpg"",""time"":200},{""stimulus"":""img/red_lw/5.jpg"",""time"":250},{""stimulus"":""img/red_lw/6.jpg"",""time"":300},{""stimulus"":""img/red_lw/7.jpg"",""time"":351},{""stimulus"":""img/red_lw/8.jpg"",""time"":402},{""stimulus"":""img/red_lw/9.jpg"",""time"":452},{""stimulus"":""img/red_lw/10.jpg"",""time"":502},{""stimulus"":""img/red_lw/11.jpg"",""time"":552}]","[]"
"","","","choice","6320e37620d067c7d322246a","bdp_lott","Mon Apr 10 2023 21:16:26 GMT-0400 (Eastern Daylight Time)","255580","green","red","image-keyboard-response","15","63469","0.0-5.0-1.5","","439","","img/red_lw/choose11.jpg","2","220","red","0.5","0.5","0.5","w","",""
"","","","","6320e37620d067c7d322246a","bdp_lott","Mon Apr 10 2023 21:16:26 GMT-0400 (Eastern Daylight Time)","255580","green","red","animation","16","64073","0.0-5.0-2.5","","","","","","220","","","","","","[{""stimulus"":""img/red_lw/1.jpg"",""time"":49},{""stimulus"":""img/red_lw/2.jpg"",""time"":101},{""stimulus"":""img/red_lw/3.jpg"",""time"":151},{""stimulus"":""img/red_lw/4.jpg"",""time"":201},{""stimulus"":""img/red_lw/5.jpg"",""time"":252},{""stimulus"":""img/red_lw/6.jpg"",""time"":302},{""stimulus"":""img/red_lw/7.jpg"",""time"":352},{""stimulus"":""img/red_lw/8.jpg"",""time"":402},{""stimulus"":""img/red_lw/9.jpg"",""time"":453},{""stimulus"":""img/red_lw/10.jpg"",""time"":503},{""stimulus"":""img/red_lw/11.jpg"",""time"":553}]","[]"
"","","","choice","6320e37620d067c7d322246a","bdp_lott","Mon Apr 10 2023 21:16:26 GMT-0400 (Eastern Daylight Time)","255580","green","red","image-keyboard-response","17","64602","0.0-5.0-1.6","","529","","img/red_lw/choose11.jpg","2","219","red","0.5","0.5","0.5","l","",""
"","","","","6320e37620d067c7d322246a","bdp_lott","Mon Apr 10 2023 21:16:26 GMT-0400 (Eastern Daylight Time)","255580","green","red","animation","18","65204","0.0-5.0-2.6","","","","","","219","","","","","","[{""stimulus"":""img/red_ll/1.jpg"",""time"":50},{""stimulus"":""img/red_ll/2.jpg"",""time"":100},{""stimulus"":""img/red_ll/3.jpg"",""time"":150},{""stimulus"":""img/red_ll/4.jpg"",""time"":200},{""stimulus"":""img/red_ll/5.jpg"",""time"":251},{""stimulus"":""img/red_ll/6.jpg"",""time"":300},{""stimulus"":""img/red_ll/7.jpg"",""time"":350},{""stimulus"":""img/red_ll/8.jpg"",""time"":400},{""stimulus"":""img/red_ll/9.jpg"",""time"":451},{""stimulus"":""img/red_ll/10.jpg"",""time"":501},{""stimulus"":""img/red_ll/11.jpg"",""time"":551}]","[]"
"","","","choice","6320e37620d067c7d322246a","bdp_lott","Mon Apr 10 2023 21:16:26 GMT-0400 (Eastern Daylight Time)","255580","green","red","image-keyboard-response","19","66247","0.0-5.0-1.7","","1041","","img/red_ll/choose11.jpg","2","218","red","0.5","0.5","0.5","l","",""
"","","","","6320e37620d067c7d322246a","bdp_lott","Mon Apr 10 2023 21:16:26 GMT-0400 (Eastern Daylight Time)","255580","green","red","animation","20","66851","0.0-5.0-2.7","","","","","","218","","","","","","[{""stimulus"":""img/red_ll/1.jpg"",""time"":51},{""stimulus"":""img/red_ll/2.jpg"",""time"":101},{""stimulus"":""img/red_ll/3.jpg"",""time"":152},{""stimulus"":""img/red_ll/4.jpg"",""time"":202},{""stimulus"":""img/red_ll/5.jpg"",""time"":252},{""stimulus"":""img/red_ll/6.jpg"",""time"":302},{""stimulus"":""img/red_ll/7.jpg"",""time"":352},{""stimulus"":""img/red_ll/8.jpg"",""time"":403},{""stimulus"":""img/red_ll/9.jpg"",""time"":452},{""stimulus"":""img/red_ll/10.jpg"",""time"":503},{""stimulus"":""img/red_ll/11.jpg"",""time"":554}]","[]"
"","","","choice","6320e37620d067c7d322246a","bdp_lott","Mon Apr 10 2023 21:16:26 GMT-0400 (Eastern Daylight Time)","255580","green","red","image-keyboard-response","21","67239","0.0-5.0-1.8","","388","","img/red_ll/choose11.jpg","2","217","red","0.5","0.5","0.5","w","",""
"","","","","6320e37620d067c7d322246a","bdp_lott","Mon Apr 10 2023 21:16:26 GMT-0400 (Eastern Daylight Time)","255580","green","red","animation","22","67842","0.0-5.0-2.8","","","","","","217","","","","","","[{""stimulus"":""img/red_lw/1.jpg"",""time"":50},{""stimulus"":""img/red_lw/2.jpg"",""time"":100},{""stimulus"":""img/red_lw/3.jpg"",""time"":151},{""stimulus"":""img/red_lw/4.jpg"",""time"":201},{""stimulus"":""img/red_lw/5.jpg"",""time"":251},{""stimulus"":""img/red_lw/6.jpg"",""time"":301},{""stimulus"":""img/red_lw/7.jpg"",""time"":352},{""stimulus"":""img/red_lw/8.jpg"",""time"":402},{""stimulus"":""img/red_lw/9.jpg"",""time"":452},{""stimulus"":""img/red_lw/10.jpg"",""time"":501},{""stimulus"":""img/red_lw/11.jpg"",""time"":552}]","[]"
"","","","choice","6320e37620d067c7d322246a","bdp_lott","Mon Apr 10 2023 21:16:26 GMT-0400 (Eastern Daylight Time)","255580","green","red","image-keyboard-response","23","68216","0.0-5.0-1.9","","374","","img/red_lw/choose11.jpg","2","216","red","0.5","0.5","0.5","l","",""
"","","","","6320e37620d067c7d322246a","bdp_lott","Mon Apr 10 2023 21:16:26 GMT-0400 (Eastern Daylight Time)","255580","green","red","animation","24","68819","0.0-5.0-2.9","","","","","","216","","","","","","[{""stimulus"":""img/red_ll/1.jpg"",""time"":51},{""stimulus"":""img/red_ll/2.jpg"",""time"":101},{""stimulus"":""img/red_ll/3.jpg"",""time"":152},{""stimulus"":""img/red_ll/4.jpg"",""time"":202},{""stimulus"":""img/red_ll/5.jpg"",""time"":252},{""stimulus"":""img/red_ll/6.jpg"",""time"":302},{""stimulus"":""img/red_ll/7.jpg"",""time"":352},{""stimulus"":""img/red_ll/8.jpg"",""time"":402},{""stimulus"":""img/red_ll/9.jpg"",""time"":452},{""stimulus"":""img/red_ll/10.jpg"",""time"":502},{""stimulus"":""img/red_ll/11.jpg"",""time"":552}]","[]"
"","","","choice","6320e37620d067c7d322246a","bdp_lott","Mon Apr 10 2023 21:16:26 GMT-0400 (Eastern Daylight Time)","255580","green","red","image-keyboard-response","25","69109","0.0-5.0-1.10","","290","","img/red_ll/choose11.jpg","2","215","red","0.5","0.5","0.5","l","",""
"","","","","6320e37620d067c7d322246a","bdp_lott","Mon Apr 10 2023 21:16:26 GMT-0400 (Eastern Daylight Time)","255580","green","red","animation","26","69711","0.0-5.0-2.10","","","","","","215","","","","","","[{""stimulus"":""img/red_ll/1.jpg"",""time"":52},{""stimulus"":""img/red_ll/2.jpg"",""time"":102},{""stimulus"":""img/red_ll/3.jpg"",""time"":152},{""stimulus"":""img/red_ll/4.jpg"",""time"":202},{""stimulus"":""img/red_ll/5.jpg"",""time"":252},{""stimulus"":""img/red_ll/6.jpg"",""time"":301},{""stimulus"":""img/red_ll/7.jpg"",""time"":352},{""stimulus"":""img/red_ll/8.jpg"",""time"":402},{""stimulus"":""img/red_ll/9.jpg"",""time"":452},{""stimulus"":""img/red_ll/10.jpg"",""time"":502},{""stimulus"":""img/red_ll/11.jpg"",""time"":552}]","[]"
"","","","choice","6320e37620d067c7d322246a","bdp_lott","Mon Apr 10 2023 21:16:26 GMT-0400 (Eastern Daylight Time)","255580","green","red","image-keyboard-response","27","69977","0.0-5.0-1.11","","265","","img/red_ll/choose11.jpg","2","214","red","0.5","0.5","0.5","w","",""
"","","","","6320e37620d067c7d322246a","bdp_lott","Mon Apr 10 2023 21:16:26 GMT-0400 (Eastern Daylight Time)","255580","green","red","animation","28","70579","0.0-5.0-2.11","","","","","","214","","","","","","[{""stimulus"":""img/red_lw/1.jpg"",""time"":51},{""stimulus"":""img/red_lw/2.jpg"",""time"":101},{""stimulus"":""img/red_lw/3.jpg"",""time"":151},{""stimulus"":""img/red_lw/4.jpg"",""time"":201},{""stimulus"":""img/red_lw/5.jpg"",""time"":251},{""stimulus"":""img/red_lw/6.jpg"",""time"":301},{""stimulus"":""img/red_lw/7.jpg"",""time"":351},{""stimulus"":""img/red_lw/8.jpg"",""time"":401},{""stimulus"":""img/red_lw/9.jpg"",""time"":451},{""stimulus"":""img/red_lw/10.jpg"",""time"":502},{""stimulus"":""img/red_lw/11.jpg"",""time"":552}]","[]"
"","","","choice","6320e37620d067c7d322246a","bdp_lott","Mon Apr 10 2023 21:16:26 GMT-0400 (Eastern Daylight Time)","255580","green","red","image-keyboard-response","29","70938","0.0-5.0-1.12","","358","","img/red_lw/choose11.jpg","2","213","red","0.5","0.5","0.5","w","",""
"","","","","6320e37620d067c7d322246a","bdp_lott","Mon Apr 10 2023 21:16:26 GMT-0400 (Eastern Daylight Time)","255580","green","red","animation","30","71541","0.0-5.0-2.12","","","","","","213","","","","","","[{""stimulus"":""img/red_lw/1.jpg"",""time"":50},{""stimulus"":""img/red_lw/2.jpg"",""time"":100},{""stimulus"":""img/red_lw/3.jpg"",""time"":151},{""stimulus"":""img/red_lw/4.jpg"",""time"":202},{""stimulus"":""img/red_lw/5.jpg"",""time"":252},{""stimulus"":""img/red_lw/6.jpg"",""time"":302},{""stimulus"":""img/red_lw/7.jpg"",""time"":352},{""stimulus"":""img/red_lw/8.jpg"",""time"":403},{""stimulus"":""img/red_lw/9.jpg"",""time"":453},{""stimulus"":""img/red_lw/10.jpg"",""time"":503},{""stimulus"":""img/red_lw/11.jpg"",""time"":553}]","[]"
"","","","choice","6320e37620d067c7d322246a","bdp_lott","Mon Apr 10 2023 21:16:26 GMT-0400 (Eastern Daylight Time)","255580","green","red","image-keyboard-response","31","71706","0.0-5.0-1.13","","164","","img/red_lw/choose11.jpg","2","212","red","0.5","0.5","0.5","l","",""
"","","","","6320e37620d067c7d322246a","bdp_lott","Mon Apr 10 2023 21:16:26 GMT-0400 (Eastern Daylight Time)","255580","green","red","animation","32","72310","0.0-5.0-2.13","","","","","","212","","","","","","[{""stimulus"":""img/red_ll/1.jpg"",""time"":50},{""stimulus"":""img/red_ll/2.jpg"",""time"":101},{""stimulus"":""img/red_ll/3.jpg"",""time"":151},{""stimulus"":""img/red_ll/4.jpg"",""time"":202},{""stimulus"":""img/red_ll/5.jpg"",""time"":252},{""stimulus"":""img/red_ll/6.jpg"",""time"":303},{""stimulus"":""img/red_ll/7.jpg"",""time"":354},{""stimulus"":""img/red_ll/8.jpg"",""time"":404},{""stimulus"":""img/red_ll/9.jpg"",""time"":455},{""stimulus"":""img/red_ll/10.jpg"",""time"":505},{""stimulus"":""img/red_ll/11.jpg"",""time"":555}]","[]"
"","","","choice","6320e37620d067c7d322246a","bdp_lott","Mon Apr 10 2023 21:16:26 GMT-0400 (Eastern Daylight Time)","255580","green","red","image-keyboard-response","33","72608","0.0-5.0-1.14","","297","","img/red_ll/choose11.jpg","2","211","red","0.5","0.5","0.5","l","",""
"","","","","6320e37620d067c7d322246a","bdp_lott","Mon Apr 10 2023 21:16:26 GMT-0400 (Eastern Daylight Time)","255580","green","red","animation","34","73211","0.0-5.0-2.14","","","","","","211","","","","","","[{""stimulus"":""img/red_ll/1.jpg"",""time"":51},{""stimulus"":""img/red_ll/2.jpg"",""time"":101},{""stimulus"":""img/red_ll/3.jpg"",""time"":152},{""stimulus"":""img/red_ll/4.jpg"",""time"":202},{""stimulus"":""img/red_ll/5.jpg"",""time"":253},{""stimulus"":""img/red_ll/6.jpg"",""time"":303},{""stimulus"":""img/red_ll/7.jpg"",""time"":352},{""stimulus"":""img/red_ll/8.jpg"",""time"":403},{""stimulus"":""img/red_ll/9.jpg"",""time"":453},{""stimulus"":""img/red_ll/10.jpg"",""time"":503},{""stimulus"":""img/red_ll/11.jpg"",""time"":553}]","[]"
"","","","choice","6320e37620d067c7d322246a","bdp_lott","Mon Apr 10 2023 21:16:26 GMT-0400 (Eastern Daylight Time)","255580","green","red","image-keyboard-response","35","73516","0.0-5.0-1.15","","305","","img/red_ll/choose11.jpg","2","210","red","0.5","0.5","0.5","l","",""
"","","","","6320e37620d067c7d322246a","bdp_lott","Mon Apr 10 2023 21:16:26 GMT-0400 (Eastern Daylight Time)","255580","green","red","animation","36","74120","0.0-5.0-2.15","","","","","","210","","","","","","[{""stimulus"":""img/red_ll/1.jpg"",""time"":51},{""stimulus"":""img/red_ll/2.jpg"",""time"":101},{""stimulus"":""img/red_ll/3.jpg"",""time"":152},{""stimulus"":""img/red_ll/4.jpg"",""time"":202},{""stimulus"":""img/red_ll/5.jpg"",""time"":252},{""stimulus"":""img/red_ll/6.jpg"",""time"":302},{""stimulus"":""img/red_ll/7.jpg"",""time"":353},{""stimulus"":""img/red_ll/8.jpg"",""time"":402},{""stimulus"":""img/red_ll/9.jpg"",""time"":453},{""stimulus"":""img/red_ll/10.jpg"",""time"":503},{""stimulus"":""img/red_ll/11.jpg"",""time"":553}]","[]"
"","","","choice","6320e37620d067c7d322246a","bdp_lott","Mon Apr 10 2023 21:16:26 GMT-0400 (Eastern Daylight Time)","255580","green","red","image-keyboard-response","37","74745","0.0-5.0-1.16","","624","","img/red_ll/choose11.jpg","2","209","red","0.5","0.5","0.5","l","",""
"","","","","6320e37620d067c7d322246a","bdp_lott","Mon Apr 10 2023 21:16:26 GMT-0400 (Eastern Daylight Time)","255580","green","red","animation","38","75349","0.0-5.0-2.16","","","","","","209","","","","","","[{""stimulus"":""img/red_ll/1.jpg"",""time"":51},{""stimulus"":""img/red_ll/2.jpg"",""time"":101},{""stimulus"":""img/red_ll/3.jpg"",""time"":152},{""stimulus"":""img/red_ll/4.jpg"",""time"":201},{""stimulus"":""img/red_ll/5.jpg"",""time"":252},{""stimulus"":""img/red_ll/6.jpg"",""time"":302},{""stimulus"":""img/red_ll/7.jpg"",""time"":353},{""stimulus"":""img/red_ll/8.jpg"",""time"":403},{""stimulus"":""img/red_ll/9.jpg"",""time"":453},{""stimulus"":""img/red_ll/10.jpg"",""time"":504},{""stimulus"":""img/red_ll/11.jpg"",""time"":553}]","[]"
"","","","choice","6320e37620d067c7d322246a","bdp_lott","Mon Apr 10 2023 21:16:26 GMT-0400 (Eastern Daylight Time)","255580","green","red","image-keyboard-response","39","75651","0.0-5.0-1.17","","302","","img/red_ll/choose11.jpg","2","208","red","0.5","0.5","0.5","w","",""
"","","","","6320e37620d067c7d322246a","bdp_lott","Mon Apr 10 2023 21:16:26 GMT-0400 (Eastern Daylight Time)","255580","green","red","animation","40","76254","0.0-5.0-2.17","","","","","","208","","","","","","[{""stimulus"":""img/red_lw/1.jpg"",""time"":51},{""stimulus"":""img/red_lw/2.jpg"",""time"":101},{""stimulus"":""img/red_lw/3.jpg"",""time"":151},{""stimulus"":""img/red_lw/4.jpg"",""time"":201},{""stimulus"":""img/red_lw/5.jpg"",""time"":252},{""stimulus"":""img/red_lw/6.jpg"",""time"":302},{""stimulus"":""img/red_lw/7.jpg"",""time"":351},{""stimulus"":""img/red_lw/8.jpg"",""time"":402},{""stimulus"":""img/red_lw/9.jpg"",""time"":451},{""stimulus"":""img/red_lw/10.jpg"",""time"":502},{""stimulus"":""img/red_lw/11.jpg"",""time"":552}]","[]"
"","","","choice","6320e37620d067c7d322246a","bdp_lott","Mon Apr 10 2023 21:16:26 GMT-0400 (Eastern Daylight Time)","255580","green","red","image-keyboard-response","41","76605","0.0-5.0-1.18","","350","","img/red_lw/choose11.jpg","2","207","red","0.5","0.5","0.5","l","",""
"","","","","6320e37620d067c7d322246a","bdp_lott","Mon Apr 10 2023 21:16:26 GMT-0400 (Eastern Daylight Time)","255580","green","red","animation","42","77207","0.0-5.0-2.18","","","","","","207","","","","","","[{""stimulus"":""img/red_ll/1.jpg"",""time"":50},{""stimulus"":""img/red_ll/2.jpg"",""time"":100},{""stimulus"":""img/red_ll/3.jpg"",""time"":150},{""stimulus"":""img/red_ll/4.jpg"",""time"":200},{""stimulus"":""img/red_ll/5.jpg"",""time"":250},{""stimulus"":""img/red_ll/6.jpg"",""time"":301},{""stimulus"":""img/red_ll/7.jpg"",""time"":351},{""stimulus"":""img/red_ll/8.jpg"",""time"":401},{""stimulus"":""img/red_ll/9.jpg"",""time"":451},{""stimulus"":""img/red_ll/10.jpg"",""time"":501},{""stimulus"":""img/red_ll/11.jpg"",""time"":551}]","[]"
"","","","choice","6320e37620d067c7d322246a","bdp_lott","Mon Apr 10 2023 21:16:26 GMT-0400 (Eastern Daylight Time)","255580","green","red","image-keyboard-response","43","77636","0.0-5.0-1.19","","429","","img/red_ll/choose11.jpg","2","206","red","0.5","0.5","0.5","w","",""
"","","","","6320e37620d067c7d322246a","bdp_lott","Mon Apr 10 2023 21:16:26 GMT-0400 (Eastern Daylight Time)","255580","green","red","animation","44","78238","0.0-5.0-2.19","","","","","","206","","","","","","[{""stimulus"":""img/red_lw/1.jpg"",""time"":52},{""stimulus"":""img/red_lw/2.jpg"",""time"":102},{""stimulus"":""img/red_lw/3.jpg"",""time"":152},{""stimulus"":""img/red_lw/4.jpg"",""time"":201},{""stimulus"":""img/red_lw/5.jpg"",""time"":251},{""stimulus"":""img/red_lw/6.jpg"",""time"":302},{""stimulus"":""img/red_lw/7.jpg"",""time"":352},{""stimulus"":""img/red_lw/8.jpg"",""time"":402},{""stimulus"":""img/red_lw/9.jpg"",""time"":452},{""stimulus"":""img/red_lw/10.jpg"",""time"":502},{""stimulus"":""img/red_lw/11.jpg"",""time"":552}]","[]"
"","","","choice","6320e37620d067c7d322246a","bdp_lott","Mon Apr 10 2023 21:16:26 GMT-0400 (Eastern Daylight Time)","255580","green","red","image-keyboard-response","45","78665","0.0-5.0-1.20","","427","","img/red_lw/choose11.jpg","2","205","red","0.5","0.5","0.5","l","",""
"","","","","6320e37620d067c7d322246a","bdp_lott","Mon Apr 10 2023 21:16:26 GMT-0400 (Eastern Daylight Time)","255580","green","red","animation","46","79268","0.0-5.0-2.20","","","","","","205","","","","","","[{""stimulus"":""img/red_ll/1.jpg"",""time"":51},{""stimulus"":""img/red_ll/2.jpg"",""time"":101},{""stimulus"":""img/red_ll/3.jpg"",""time"":151},{""stimulus"":""img/red_ll/4.jpg"",""time"":201},{""stimulus"":""img/red_ll/5.jpg"",""time"":250},{""stimulus"":""img/red_ll/6.jpg"",""time"":301},{""stimulus"":""img/red_ll/7.jpg"",""time"":351},{""stimulus"":""img/red_ll/8.jpg"",""time"":401},{""stimulus"":""img/red_ll/9.jpg"",""time"":452},{""stimulus"":""img/red_ll/10.jpg"",""time"":503},{""stimulus"":""img/red_ll/11.jpg"",""time"":553}]","[]"
"","","","choice","6320e37620d067c7d322246a","bdp_lott","Mon Apr 10 2023 21:16:26 GMT-0400 (Eastern Daylight Time)","255580","green","red","image-keyboard-response","47","79497","0.0-5.0-1.21","","229","","img/red_ll/choose11.jpg","2","204","red","0.5","0.5","0.5","l","",""
"","","","","6320e37620d067c7d322246a","bdp_lott","Mon Apr 10 2023 21:16:26 GMT-0400 (Eastern Daylight Time)","255580","green","red","animation","48","80099","0.0-5.0-2.21","","","","","","204","","","","","","[{""stimulus"":""img/red_ll/1.jpg"",""time"":50},{""stimulus"":""img/red_ll/2.jpg"",""time"":100},{""stimulus"":""img/red_ll/3.jpg"",""time"":151},{""stimulus"":""img/red_ll/4.jpg"",""time"":201},{""stimulus"":""img/red_ll/5.jpg"",""time"":251},{""stimulus"":""img/red_ll/6.jpg"",""time"":302},{""stimulus"":""img/red_ll/7.jpg"",""time"":352},{""stimulus"":""img/red_ll/8.jpg"",""time"":402},{""stimulus"":""img/red_ll/9.jpg"",""time"":451},{""stimulus"":""img/red_ll/10.jpg"",""time"":501},{""stimulus"":""img/red_ll/11.jpg"",""time"":552}]","[]"
"","","","choice","6320e37620d067c7d322246a","bdp_lott","Mon Apr 10 2023 21:16:26 GMT-0400 (Eastern Daylight Time)","255580","green","red","image-keyboard-response","49","80359","0.0-5.0-1.22","","259","","img/red_ll/choose11.jpg","2","203","red","0.5","0.5","0.5","w","",""
"","","","","6320e37620d067c7d322246a","bdp_lott","Mon Apr 10 2023 21:16:26 GMT-0400 (Eastern Daylight Time)","255580","green","red","animation","50","80962","0.0-5.0-2.22","","","","","","203","","","","","","[{""stimulus"":""img/red_lw/1.jpg"",""time"":51},{""stimulus"":""img/red_lw/2.jpg"",""time"":101},{""stimulus"":""img/red_lw/3.jpg"",""time"":151},{""stimulus"":""img/red_lw/4.jpg"",""time"":202},{""stimulus"":""img/red_lw/5.jpg"",""time"":251},{""stimulus"":""img/red_lw/6.jpg"",""time"":301},{""stimulus"":""img/red_lw/7.jpg"",""time"":351},{""stimulus"":""img/red_lw/8.jpg"",""time"":402},{""stimulus"":""img/red_lw/9.jpg"",""time"":452},{""stimulus"":""img/red_lw/10.jpg"",""time"":503},{""stimulus"":""img/red_lw/11.jpg"",""time"":553}]","[]"
"","","","choice","6320e37620d067c7d322246a","bdp_lott","Mon Apr 10 2023 21:16:26 GMT-0400 (Eastern Daylight Time)","255580","green","red","image-keyboard-response","51","81382","0.0-5.0-1.23","","420","","img/red_lw/choose11.jpg","2","202","red","0.5","0.5","0.5","w","",""
"","","","","6320e37620d067c7d322246a","bdp_lott","Mon Apr 10 2023 21:16:26 GMT-0400 (Eastern Daylight Time)","255580","green","red","animation","52","81986","0.0-5.0-2.23","","","","","","202","","","","","","[{""stimulus"":""img/red_lw/1.jpg"",""time"":51},{""stimulus"":""img/red_lw/2.jpg"",""time"":101},{""stimulus"":""img/red_lw/3.jpg"",""time"":151},{""stimulus"":""img/red_lw/4.jpg"",""time"":202},{""stimulus"":""img/red_lw/5.jpg"",""time"":251},{""stimulus"":""img/red_lw/6.jpg"",""time"":302},{""stimulus"":""img/red_lw/7.jpg"",""time"":352},{""stimulus"":""img/red_lw/8.jpg"",""time"":402},{""stimulus"":""img/red_lw/9.jpg"",""time"":452},{""stimulus"":""img/red_lw/10.jpg"",""time"":503},{""stimulus"":""img/red_lw/11.jpg"",""time"":553}]","[]"
"","","","choice","6320e37620d067c7d322246a","bdp_lott","Mon Apr 10 2023 21:16:26 GMT-0400 (Eastern Daylight Time)","255580","green","red","image-keyboard-response","53","82380","0.0-5.0-1.24","","394","","img/red_lw/choose11.jpg","2","201","red","0.5","0.5","0.5","w","",""
"","","","","6320e37620d067c7d322246a","bdp_lott","Mon Apr 10 2023 21:16:26 GMT-0400 (Eastern Daylight Time)","255580","green","red","animation","54","82984","0.0-5.0-2.24","","","","","","201","","","","","","[{""stimulus"":""img/red_lw/1.jpg"",""time"":50},{""stimulus"":""img/red_lw/2.jpg"",""time"":100},{""stimulus"":""img/red_lw/3.jpg"",""time"":151},{""stimulus"":""img/red_lw/4.jpg"",""time"":201},{""stimulus"":""img/red_lw/5.jpg"",""time"":252},{""stimulus"":""img/red_lw/6.jpg"",""time"":302},{""stimulus"":""img/red_lw/7.jpg"",""time"":353},{""stimulus"":""img/red_lw/8.jpg"",""time"":402},{""stimulus"":""img/red_lw/9.jpg"",""time"":453},{""stimulus"":""img/red_lw/10.jpg"",""time"":503},{""stimulus"":""img/red_lw/11.jpg"",""time"":554}]","[]"
"","","","choice","6320e37620d067c7d322246a","bdp_lott","Mon Apr 10 2023 21:16:26 GMT-0400 (Eastern Daylight Time)","255580","green","red","image-keyboard-response","55","83272","0.0-5.0-1.25","","287","","img/red_lw/choose11.jpg","2","200","red","0.5","0.5","0.5","l","",""
"","","","","6320e37620d067c7d322246a","bdp_lott","Mon Apr 10 2023 21:16:26 GMT-0400 (Eastern Daylight Time)","255580","green","red","animation","56","83874","0.0-5.0-2.25","","","","","","200","","","","","","[{""stimulus"":""img/red_ll/1.jpg"",""time"":51},{""stimulus"":""img/red_ll/2.jpg"",""time"":100},{""stimulus"":""img/red_ll/3.jpg"",""time"":151},{""stimulus"":""img/red_ll/4.jpg"",""time"":201},{""stimulus"":""img/red_ll/5.jpg"",""time"":251},{""stimulus"":""img/red_ll/6.jpg"",""time"":301},{""stimulus"":""img/red_ll/7.jpg"",""time"":351},{""stimulus"":""img/red_ll/8.jpg"",""time"":401},{""stimulus"":""img/red_ll/9.jpg"",""time"":451},{""stimulus"":""img/red_ll/10.jpg"",""time"":502},{""stimulus"":""img/red_ll/11.jpg"",""time"":552}]","[]"
"","","","choice","6320e37620d067c7d322246a","bdp_lott","Mon Apr 10 2023 21:16:26 GMT-0400 (Eastern Daylight Time)","255580","green","red","image-keyboard-response","57","84210","0.0-5.0-1.26","","335","","img/red_ll/choose11.jpg","2","199","red","0.5","0.5","0.5","w","",""
"","","","","6320e37620d067c7d322246a","bdp_lott","Mon Apr 10 2023 21:16:26 GMT-0400 (Eastern Daylight Time)","255580","green","red","animation","58","84814","0.0-5.0-2.26","","","","","","199","","","","","","[{""stimulus"":""img/red_lw/1.jpg"",""time"":50},{""stimulus"":""img/red_lw/2.jpg"",""time"":100},{""stimulus"":""img/red_lw/3.jpg"",""time"":151},{""stimulus"":""img/red_lw/4.jpg"",""time"":201},{""stimulus"":""img/red_lw/5.jpg"",""time"":252},{""stimulus"":""img/red_lw/6.jpg"",""time"":303},{""stimulus"":""img/red_lw/7.jpg"",""time"":353},{""stimulus"":""img/red_lw/8.jpg"",""time"":403},{""stimulus"":""img/red_lw/9.jpg"",""time"":453},{""stimulus"":""img/red_lw/10.jpg"",""time"":504},{""stimulus"":""img/red_lw/11.jpg"",""time"":554}]","[]"
"","","","choice","6320e37620d067c7d322246a","bdp_lott","Mon Apr 10 2023 21:16:26 GMT-0400 (Eastern Daylight Time)","255580","green","red","image-keyboard-response","59","85041","0.0-5.0-1.27","","227","","img/red_lw/choose11.jpg","2","198","red","0.5","0.5","0.5","l","",""
"","","","","6320e37620d067c7d322246a","bdp_lott","Mon Apr 10 2023 21:16:26 GMT-0400 (Eastern Daylight Time)","255580","green","red","animation","60","85646","0.0-5.0-2.27","","","","","","198","","","","","","[{""stimulus"":""img/red_ll/1.jpg"",""time"":51},{""stimulus"":""img/red_ll/2.jpg"",""time"":102},{""stimulus"":""img/red_ll/3.jpg"",""time"":152},{""stimulus"":""img/red_ll/4.jpg"",""time"":202},{""stimulus"":""img/red_ll/5.jpg"",""time"":252},{""stimulus"":""img/red_ll/6.jpg"",""time"":302},{""stimulus"":""img/red_ll/7.jpg"",""time"":353},{""stimulus"":""img/red_ll/8.jpg"",""time"":402},{""stimulus"":""img/red_ll/9.jpg"",""time"":453},{""stimulus"":""img/red_ll/10.jpg"",""time"":504},{""stimulus"":""img/red_ll/11.jpg"",""time"":554}]","[]"
"","","","choice","6320e37620d067c7d322246a","bdp_lott","Mon Apr 10 2023 21:16:26 GMT-0400 (Eastern Daylight Time)","255580","green","red","image-keyboard-response","61","85894","0.0-5.0-1.28","","248","","img/red_ll/choose11.jpg","2","197","red","0.5","0.5","0.5","w","",""
"","","","","6320e37620d067c7d322246a","bdp_lott","Mon Apr 10 2023 21:16:26 GMT-0400 (Eastern Daylight Time)","255580","green","red","animation","62","86500","0.0-5.0-2.28","","","","","","197","","","","","","[{""stimulus"":""img/red_lw/1.jpg"",""time"":50},{""stimulus"":""img/red_lw/2.jpg"",""time"":101},{""stimulus"":""img/red_lw/3.jpg"",""time"":151},{""stimulus"":""img/red_lw/4.jpg"",""time"":202},{""stimulus"":""img/red_lw/5.jpg"",""time"":252},{""stimulus"":""img/red_lw/6.jpg"",""time"":303},{""stimulus"":""img/red_lw/7.jpg"",""time"":354},{""stimulus"":""img/red_lw/8.jpg"",""time"":404},{""stimulus"":""img/red_lw/9.jpg"",""time"":454},{""stimulus"":""img/red_lw/10.jpg"",""time"":505},{""stimulus"":""img/red_lw/11.jpg"",""time"":555}]","[]"
"","","","choice","6320e37620d067c7d322246a","bdp_lott","Mon Apr 10 2023 21:16:26 GMT-0400 (Eastern Daylight Time)","255580","green","red","image-keyboard-response","63","86736","0.0-5.0-1.29","","236","","img/red_lw/choose11.jpg","2","196","red","0.5","0.5","0.5","w","",""
"","","","","6320e37620d067c7d322246a","bdp_lott","Mon Apr 10 2023 21:16:26 GMT-0400 (Eastern Daylight Time)","255580","green","red","animation","64","87340","0.0-5.0-2.29","","","","","","196","","","","","","[{""stimulus"":""img/red_lw/1.jpg"",""time"":50},{""stimulus"":""img/red_lw/2.jpg"",""time"":100},{""stimulus"":""img/red_lw/3.jpg"",""time"":151},{""stimulus"":""img/red_lw/4.jpg"",""time"":201},{""stimulus"":""img/red_lw/5.jpg"",""time"":250},{""stimulus"":""img/red_lw/6.jpg"",""time"":302},{""stimulus"":""img/red_lw/7.jpg"",""time"":351},{""stimulus"":""img/red_lw/8.jpg"",""time"":402},{""stimulus"":""img/red_lw/9.jpg"",""time"":452},{""stimulus"":""img/red_lw/10.jpg"",""time"":503},{""stimulus"":""img/red_lw/11.jpg"",""time"":554}]","[]"
"","","","choice","6320e37620d067c7d322246a","bdp_lott","Mon Apr 10 2023 21:16:26 GMT-0400 (Eastern Daylight Time)","255580","green","red","image-keyboard-response","65","87594","0.0-5.0-1.30","","254","","img/red_lw/choose11.jpg","2","195","red","0.5","0.5","0.5","l","",""
"","","","","6320e37620d067c7d322246a","bdp_lott","Mon Apr 10 2023 21:16:26 GMT-0400 (Eastern Daylight Time)","255580","green","red","animation","66","88198","0.0-5.0-2.30","","","","","","195","","","","","","[{""stimulus"":""img/red_ll/1.jpg"",""time"":51},{""stimulus"":""img/red_ll/2.jpg"",""time"":101},{""stimulus"":""img/red_ll/3.jpg"",""time"":151},{""stimulus"":""img/red_ll/4.jpg"",""time"":201},{""stimulus"":""img/red_ll/5.jpg"",""time"":252},{""stimulus"":""img/red_ll/6.jpg"",""time"":302},{""stimulus"":""img/red_ll/7.jpg"",""time"":352},{""stimulus"":""img/red_ll/8.jpg"",""time"":402},{""stimulus"":""img/red_ll/9.jpg"",""time"":453},{""stimulus"":""img/red_ll/10.jpg"",""time"":503},{""stimulus"":""img/red_ll/11.jpg"",""time"":553}]","[]"
"","","","choice","6320e37620d067c7d322246a","bdp_lott","Mon Apr 10 2023 21:16:26 GMT-0400 (Eastern Daylight Time)","255580","green","red","image-keyboard-response","67","88471","0.0-5.0-1.31","","273","","img/red_ll/choose11.jpg","2","194","red","0.5","0.5","0.5","l","",""
"","","","","6320e37620d067c7d322246a","bdp_lott","Mon Apr 10 2023 21:16:26 GMT-0400 (Eastern Daylight Time)","255580","green","red","animation","68","89076","0.0-5.0-2.31","","","","","","194","","","","","","[{""stimulus"":""img/red_ll/1.jpg"",""time"":51},{""stimulus"":""img/red_ll/2.jpg"",""time"":101},{""stimulus"":""img/red_ll/3.jpg"",""time"":152},{""stimulus"":""img/red_ll/4.jpg"",""time"":202},{""stimulus"":""img/red_ll/5.jpg"",""time"":253},{""stimulus"":""img/red_ll/6.jpg"",""time"":303},{""stimulus"":""img/red_ll/7.jpg"",""time"":353},{""stimulus"":""img/red_ll/8.jpg"",""time"":404},{""stimulus"":""img/red_ll/9.jpg"",""time"":454},{""stimulus"":""img/red_ll/10.jpg"",""time"":505},{""stimulus"":""img/red_ll/11.jpg"",""time"":555}]","[]"
"","","","choice","6320e37620d067c7d322246a","bdp_lott","Mon Apr 10 2023 21:16:26 GMT-0400 (Eastern Daylight Time)","255580","green","red","image-keyboard-response","69","89368","0.0-5.0-1.32","","292","","img/red_ll/choose11.jpg","2","193","red","0.5","0.5","0.5","w","",""
"","","","","6320e37620d067c7d322246a","bdp_lott","Mon Apr 10 2023 21:16:26 GMT-0400 (Eastern Daylight Time)","255580","green","red","animation","70","89973","0.0-5.0-2.32","","","","","","193","","","","","","[{""stimulus"":""img/red_lw/1.jpg"",""time"":51},{""stimulus"":""img/red_lw/2.jpg"",""time"":102},{""stimulus"":""img/red_lw/3.jpg"",""time"":151},{""stimulus"":""img/red_lw/4.jpg"",""time"":203},{""stimulus"":""img/red_lw/5.jpg"",""time"":253},{""stimulus"":""img/red_lw/6.jpg"",""time"":303},{""stimulus"":""img/red_lw/7.jpg"",""time"":353},{""stimulus"":""img/red_lw/8.jpg"",""time"":404},{""stimulus"":""img/red_lw/9.jpg"",""time"":454},{""stimulus"":""img/red_lw/10.jpg"",""time"":505},{""stimulus"":""img/red_lw/11.jpg"",""time"":554}]","[]"
"","","","choice","6320e37620d067c7d322246a","bdp_lott","Mon Apr 10 2023 21:16:26 GMT-0400 (Eastern Daylight Time)","255580","green","red","image-keyboard-response","71","90299","0.0-5.0-1.33","","326","","img/red_lw/choose11.jpg","2","192","red","0.5","0.5","0.5","l","",""
"","","","","6320e37620d067c7d322246a","bdp_lott","Mon Apr 10 2023 21:16:26 GMT-0400 (Eastern Daylight Time)","255580","green","red","animation","72","90905","0.0-5.0-2.33","","","","","","192","","","","","","[{""stimulus"":""img/red_ll/1.jpg"",""time"":51},{""stimulus"":""img/red_ll/2.jpg"",""time"":101},{""stimulus"":""img/red_ll/3.jpg"",""time"":152},{""stimulus"":""img/red_ll/4.jpg"",""time"":202},{""stimulus"":""img/red_ll/5.jpg"",""time"":252},{""stimulus"":""img/red_ll/6.jpg"",""time"":303},{""stimulus"":""img/red_ll/7.jpg"",""time"":353},{""stimulus"":""img/red_ll/8.jpg"",""time"":403},{""stimulus"":""img/red_ll/9.jpg"",""time"":454},{""stimulus"":""img/red_ll/10.jpg"",""time"":504},{""stimulus"":""img/red_ll/11.jpg"",""time"":555}]","[]"
"","","","choice","6320e37620d067c7d322246a","bdp_lott","Mon Apr 10 2023 21:16:26 GMT-0400 (Eastern Daylight Time)","255580","green","red","image-keyboard-response","73","91233","0.0-5.0-1.34","","328","","img/red_ll/choose11.jpg","2","191","red","0.5","0.5","0.5","l","",""
"","","","","6320e37620d067c7d322246a","bdp_lott","Mon Apr 10 2023 21:16:26 GMT-0400 (Eastern Daylight Time)","255580","green","red","animation","74","91837","0.0-5.0-2.34","","","","","","191","","","","","","[{""stimulus"":""img/red_ll/1.jpg"",""time"":51},{""stimulus"":""img/red_ll/2.jpg"",""time"":101},{""stimulus"":""img/red_ll/3.jpg"",""time"":152},{""stimulus"":""img/red_ll/4.jpg"",""time"":202},{""stimulus"":""img/red_ll/5.jpg"",""time"":252},{""stimulus"":""img/red_ll/6.jpg"",""time"":303},{""stimulus"":""img/red_ll/7.jpg"",""time"":353},{""stimulus"":""img/red_ll/8.jpg"",""time"":403},{""stimulus"":""img/red_ll/9.jpg"",""time"":453},{""stimulus"":""img/red_ll/10.jpg"",""time"":504},{""stimulus"":""img/red_ll/11.jpg"",""time"":554}]","[]"
"","","","choice","6320e37620d067c7d322246a","bdp_lott","Mon Apr 10 2023 21:16:26 GMT-0400 (Eastern Daylight Time)","255580","green","red","image-keyboard-response","75","92080","0.0-5.0-1.35","","243","","img/red_ll/choose11.jpg","2","190","red","0.5","0.5","0.5","l","",""
"","","","","6320e37620d067c7d322246a","bdp_lott","Mon Apr 10 2023 21:16:26 GMT-0400 (Eastern Daylight Time)","255580","green","red","animation","76","92685","0.0-5.0-2.35","","","","","","190","","","","","","[{""stimulus"":""img/red_ll/1.jpg"",""time"":51},{""stimulus"":""img/red_ll/2.jpg"",""time"":102},{""stimulus"":""img/red_ll/3.jpg"",""time"":151},{""stimulus"":""img/red_ll/4.jpg"",""time"":201},{""stimulus"":""img/red_ll/5.jpg"",""time"":252},{""stimulus"":""img/red_ll/6.jpg"",""time"":303},{""stimulus"":""img/red_ll/7.jpg"",""time"":353},{""stimulus"":""img/red_ll/8.jpg"",""time"":403},{""stimulus"":""img/red_ll/9.jpg"",""time"":454},{""stimulus"":""img/red_ll/10.jpg"",""time"":505},{""stimulus"":""img/red_ll/11.jpg"",""time"":555}]","[]"
"","","","choice","6320e37620d067c7d322246a","bdp_lott","Mon Apr 10 2023 21:16:26 GMT-0400 (Eastern Daylight Time)","255580","green","red","image-keyboard-response","77","92993","0.0-5.0-1.36","","308","","img/red_ll/choose11.jpg","2","189","red","0.5","0.5","0.5","w","",""
"","","","","6320e37620d067c7d322246a","bdp_lott","Mon Apr 10 2023 21:16:26 GMT-0400 (Eastern Daylight Time)","255580","green","red","animation","78","93596","0.0-5.0-2.36","","","","","","189","","","","","","[{""stimulus"":""img/red_lw/1.jpg"",""time"":50},{""stimulus"":""img/red_lw/2.jpg"",""time"":100},{""stimulus"":""img/red_lw/3.jpg"",""time"":151},{""stimulus"":""img/red_lw/4.jpg"",""time"":201},{""stimulus"":""img/red_lw/5.jpg"",""time"":251},{""stimulus"":""img/red_lw/6.jpg"",""time"":302},{""stimulus"":""img/red_lw/7.jpg"",""time"":352},{""stimulus"":""img/red_lw/8.jpg"",""time"":402},{""stimulus"":""img/red_lw/9.jpg"",""time"":452},{""stimulus"":""img/red_lw/10.jpg"",""time"":502},{""stimulus"":""img/red_lw/11.jpg"",""time"":553}]","[]"
"","","","choice","6320e37620d067c7d322246a","bdp_lott","Mon Apr 10 2023 21:16:26 GMT-0400 (Eastern Daylight Time)","255580","green","red","image-keyboard-response","79","94246","0.0-5.0-1.37","","650","","img/red_lw/choose11.jpg","1","188","green","0.5","0.5","0.5","w","",""
"","","","","6320e37620d067c7d322246a","bdp_lott","Mon Apr 10 2023 21:16:26 GMT-0400 (Eastern Daylight Time)","255580","green","red","animation","80","94848","0.0-5.0-2.37","","","","","","188","","","","","","[{""stimulus"":""img/green_ww/1.jpg"",""time"":50},{""stimulus"":""img/green_ww/2.jpg"",""time"":100},{""stimulus"":""img/green_ww/3.jpg"",""time"":150},{""stimulus"":""img/green_ww/4.jpg"",""time"":201},{""stimulus"":""img/green_ww/5.jpg"",""time"":251},{""stimulus"":""img/green_ww/6.jpg"",""time"":301},{""stimulus"":""img/green_ww/7.jpg"",""time"":351},{""stimulus"":""img/green_ww/8.jpg"",""time"":401},{""stimulus"":""img/green_ww/9.jpg"",""time"":452},{""stimulus"":""img/green_ww/10.jpg"",""time"":502},{""stimulus"":""img/green_ww/11.jpg"",""time"":552}]","[]"
"","","","choice","6320e37620d067c7d322246a","bdp_lott","Mon Apr 10 2023 21:16:26 GMT-0400 (Eastern Daylight Time)","255580","green","red","image-keyboard-response","81","96065","0.0-5.0-1.38","","1216","","img/green_ww/choose11.jpg","2","187","red","0.5","0.5","0.5","w","",""
"","","","","6320e37620d067c7d322246a","bdp_lott","Mon Apr 10 2023 21:16:26 GMT-0400 (Eastern Daylight Time)","255580","green","red","animation","82","96669","0.0-5.0-2.38","","","","","","187","","","","","","[{""stimulus"":""img/red_ww/1.jpg"",""time"":51},{""stimulus"":""img/red_ww/2.jpg"",""time"":101},{""stimulus"":""img/red_ww/3.jpg"",""time"":152},{""stimulus"":""img/red_ww/4.jpg"",""time"":202},{""stimulus"":""img/red_ww/5.jpg"",""time"":252},{""stimulus"":""img/red_ww/6.jpg"",""time"":302},{""stimulus"":""img/red_ww/7.jpg"",""time"":353},{""stimulus"":""img/red_ww/8.jpg"",""time"":403},{""stimulus"":""img/red_ww/9.jpg"",""time"":453},{""stimulus"":""img/red_ww/10.jpg"",""time"":504},{""stimulus"":""img/red_ww/11.jpg"",""time"":554}]","[]"
"","","","choice","6320e37620d067c7d322246a","bdp_lott","Mon Apr 10 2023 21:16:26 GMT-0400 (Eastern Daylight Time)","255580","green","red","image-keyboard-response","83","97223","0.0-5.0-1.39","","553","","img/red_ww/choose11.jpg","1","186","green","0.5","0.5","0.5","l","",""
"","","","","6320e37620d067c7d322246a","bdp_lott","Mon Apr 10 2023 21:16:26 GMT-0400 (Eastern Daylight Time)","255580","green","red","animation","84","97825","0.0-5.0-2.39","","","","","","186","","","","","","[{""stimulus"":""img/green_lw/1.jpg"",""time"":51},{""stimulus"":""img/green_lw/2.jpg"",""time"":101},{""stimulus"":""img/green_lw/3.jpg"",""time"":150},{""stimulus"":""img/green_lw/4.jpg"",""time"":201},{""stimulus"":""img/green_lw/5.jpg"",""time"":251},{""stimulus"":""img/green_lw/6.jpg"",""time"":301},{""stimulus"":""img/green_lw/7.jpg"",""time"":351},{""stimulus"":""img/green_lw/8.jpg"",""time"":402},{""stimulus"":""img/green_lw/9.jpg"",""time"":451},{""stimulus"":""img/green_lw/10.jpg"",""time"":501},{""stimulus"":""img/green_lw/11.jpg"",""time"":551}]","[]"
"","","","choice","6320e37620d067c7d322246a","bdp_lott","Mon Apr 10 2023 21:16:26 GMT-0400 (Eastern Daylight Time)","255580","green","red","image-keyboard-response","85","98492","0.0-5.0-1.40","","666","","img/green_lw/choose11.jpg","2","185","red","0.5","0.5","0.5","l","",""
"","","","","6320e37620d067c7d322246a","bdp_lott","Mon Apr 10 2023 21:16:26 GMT-0400 (Eastern Daylight Time)","255580","green","red","animation","86","99095","0.0-5.0-2.40","","","","","","185","","","","","","[{""stimulus"":""img/red_ll/1.jpg"",""time"":51},{""stimulus"":""img/red_ll/2.jpg"",""time"":101},{""stimulus"":""img/red_ll/3.jpg"",""time"":152},{""stimulus"":""img/red_ll/4.jpg"",""time"":202},{""stimulus"":""img/red_ll/5.jpg"",""time"":252},{""stimulus"":""img/red_ll/6.jpg"",""time"":302},{""stimulus"":""img/red_ll/7.jpg"",""time"":352},{""stimulus"":""img/red_ll/8.jpg"",""time"":401},{""stimulus"":""img/red_ll/9.jpg"",""time"":452},{""stimulus"":""img/red_ll/10.jpg"",""time"":502},{""stimulus"":""img/red_ll/11.jpg"",""time"":553}]","[]"
"","","","choice","6320e37620d067c7d322246a","bdp_lott","Mon Apr 10 2023 21:16:26 GMT-0400 (Eastern Daylight Time)","255580","green","red","image-keyboard-response","87","99581","0.0-5.0-1.41","","485","","img/red_ll/choose11.jpg","2","184","red","0.5","0.5","0.5","l","",""
"","","","","6320e37620d067c7d322246a","bdp_lott","Mon Apr 10 2023 21:16:26 GMT-0400 (Eastern Daylight Time)","255580","green","red","animation","88","100183","0.0-5.0-2.41","","","","","","184","","","","","","[{""stimulus"":""img/red_ll/1.jpg"",""time"":50},{""stimulus"":""img/red_ll/2.jpg"",""time"":100},{""stimulus"":""img/red_ll/3.jpg"",""time"":150},{""stimulus"":""img/red_ll/4.jpg"",""time"":200},{""stimulus"":""img/red_ll/5.jpg"",""time"":250},{""stimulus"":""img/red_ll/6.jpg"",""time"":300},{""stimulus"":""img/red_ll/7.jpg"",""time"":351},{""stimulus"":""img/red_ll/8.jpg"",""time"":401},{""stimulus"":""img/red_ll/9.jpg"",""time"":451},{""stimulus"":""img/red_ll/10.jpg"",""time"":502},{""stimulus"":""img/red_ll/11.jpg"",""time"":552}]","[]"
"","","","choice","6320e37620d067c7d322246a","bdp_lott","Mon Apr 10 2023 21:16:26 GMT-0400 (Eastern Daylight Time)","255580","green","red","image-keyboard-response","89","100708","0.0-5.0-1.42","","525","","img/red_ll/choose11.jpg","1","183","green","0.5","0.5","0.5","w","",""
"","","","","6320e37620d067c7d322246a","bdp_lott","Mon Apr 10 2023 21:16:26 GMT-0400 (Eastern Daylight Time)","255580","green","red","animation","90","101311","0.0-5.0-2.42","","","","","","183","","","","","","[{""stimulus"":""img/green_wl/1.jpg"",""time"":51},{""stimulus"":""img/green_wl/2.jpg"",""time"":101},{""stimulus"":""img/green_wl/3.jpg"",""time"":151},{""stimulus"":""img/green_wl/4.jpg"",""time"":201},{""stimulus"":""img/green_wl/5.jpg"",""time"":251},{""stimulus"":""img/green_wl/6.jpg"",""time"":301},{""stimulus"":""img/green_wl/7.jpg"",""time"":352},{""stimulus"":""img/green_wl/8.jpg"",""time"":402},{""stimulus"":""img/green_wl/9.jpg"",""time"":452},{""stimulus"":""img/green_wl/10.jpg"",""time"":503},{""stimulus"":""img/green_wl/11.jpg"",""time"":553}]","[]"
"","","","choice","6320e37620d067c7d322246a","bdp_lott","Mon Apr 10 2023 21:16:26 GMT-0400 (Eastern Daylight Time)","255580","green","red","image-keyboard-response","91","101851","0.0-5.0-1.43","","540","","img/green_wl/choose11.jpg","1","182","green","0.5","0.5","0.5","l","",""
"","","","","6320e37620d067c7d322246a","bdp_lott","Mon Apr 10 2023 21:16:26 GMT-0400 (Eastern Daylight Time)","255580","green","red","animation","92","102454","0.0-5.0-2.43","","","","","","182","","","","","","[{""stimulus"":""img/green_ll/1.jpg"",""time"":52},{""stimulus"":""img/green_ll/2.jpg"",""time"":102},{""stimulus"":""img/green_ll/3.jpg"",""time"":152},{""stimulus"":""img/green_ll/4.jpg"",""time"":203},{""stimulus"":""img/green_ll/5.jpg"",""time"":253},{""stimulus"":""img/green_ll/6.jpg"",""time"":303},{""stimulus"":""img/green_ll/7.jpg"",""time"":353},{""stimulus"":""img/green_ll/8.jpg"",""time"":403},{""stimulus"":""img/green_ll/9.jpg"",""time"":452},{""stimulus"":""img/green_ll/10.jpg"",""time"":503},{""stimulus"":""img/green_ll/11.jpg"",""time"":553}]","[]"
"","","","choice","6320e37620d067c7d322246a","bdp_lott","Mon Apr 10 2023 21:16:26 GMT-0400 (Eastern Daylight Time)","255580","green","red","image-keyboard-response","93","102788","0.0-5.0-1.44","","334","","img/green_ll/choose11.jpg","1","181","green","0.5","0.5","0.5","w","",""
"","","","","6320e37620d067c7d322246a","bdp_lott","Mon Apr 10 2023 21:16:26 GMT-0400 (Eastern Daylight Time)","255580","green","red","animation","94","103390","0.0-5.0-2.44","","","","","","181","","","","","","[{""stimulus"":""img/green_wl/1.jpg"",""time"":51},{""stimulus"":""img/green_wl/2.jpg"",""time"":101},{""stimulus"":""img/green_wl/3.jpg"",""time"":151},{""stimulus"":""img/green_wl/4.jpg"",""time"":201},{""stimulus"":""img/green_wl/5.jpg"",""time"":252},{""stimulus"":""img/green_wl/6.jpg"",""time"":302},{""stimulus"":""img/green_wl/7.jpg"",""time"":352},{""stimulus"":""img/green_wl/8.jpg"",""time"":402},{""stimulus"":""img/green_wl/9.jpg"",""time"":453},{""stimulus"":""img/green_wl/10.jpg"",""time"":503},{""stimulus"":""img/green_wl/11.jpg"",""time"":553}]","[]"
"","","","choice","6320e37620d067c7d322246a","bdp_lott","Mon Apr 10 2023 21:16:26 GMT-0400 (Eastern Daylight Time)","255580","green","red","image-keyboard-response","95","103912","0.0-5.0-1.45","","522","","img/green_wl/choose11.jpg","1","180","green","0.5","0.5","0.5","l","",""
"","","","","6320e37620d067c7d322246a","bdp_lott","Mon Apr 10 2023 21:16:26 GMT-0400 (Eastern Daylight Time)","255580","green","red","animation","96","104516","0.0-5.0-2.45","","","","","","180","","","","","","[{""stimulus"":""img/green_ll/1.jpg"",""time"":50},{""stimulus"":""img/green_ll/2.jpg"",""time"":101},{""stimulus"":""img/green_ll/3.jpg"",""time"":151},{""stimulus"":""img/green_ll/4.jpg"",""time"":201},{""stimulus"":""img/green_ll/5.jpg"",""time"":252},{""stimulus"":""img/green_ll/6.jpg"",""time"":303},{""stimulus"":""img/green_ll/7.jpg"",""time"":353},{""stimulus"":""img/green_ll/8.jpg"",""time"":402},{""stimulus"":""img/green_ll/9.jpg"",""time"":453},{""stimulus"":""img/green_ll/10.jpg"",""time"":503},{""stimulus"":""img/green_ll/11.jpg"",""time"":553}]","[]"
"","","","choice","6320e37620d067c7d322246a","bdp_lott","Mon Apr 10 2023 21:16:26 GMT-0400 (Eastern Daylight Time)","255580","green","red","image-keyboard-response","97","104868","0.0-5.0-1.46","","351","","img/green_ll/choose11.jpg","1","179","green","0.5","0.5","0.5","l","",""
"","","","","6320e37620d067c7d322246a","bdp_lott","Mon Apr 10 2023 21:16:26 GMT-0400 (Eastern Daylight Time)","255580","green","red","animation","98","105471","0.0-5.0-2.46","","","","","","179","","","","","","[{""stimulus"":""img/green_ll/1.jpg"",""time"":51},{""stimulus"":""img/green_ll/2.jpg"",""time"":101},{""stimulus"":""img/green_ll/3.jpg"",""time"":151},{""stimulus"":""img/green_ll/4.jpg"",""time"":202},{""stimulus"":""img/green_ll/5.jpg"",""time"":252},{""stimulus"":""img/green_ll/6.jpg"",""time"":302},{""stimulus"":""img/green_ll/7.jpg"",""time"":352},{""stimulus"":""img/green_ll/8.jpg"",""time"":402},{""stimulus"":""img/green_ll/9.jpg"",""time"":452},{""stimulus"":""img/green_ll/10.jpg"",""time"":503},{""stimulus"":""img/green_ll/11.jpg"",""time"":553}]","[]"
"","","","choice","6320e37620d067c7d322246a","bdp_lott","Mon Apr 10 2023 21:16:26 GMT-0400 (Eastern Daylight Time)","255580","green","red","image-keyboard-response","99","105812","0.0-5.0-1.47","","341","","img/green_ll/choose11.jpg","1","178","green","0.5","0.5","0.5","l","",""
"","","","","6320e37620d067c7d322246a","bdp_lott","Mon Apr 10 2023 21:16:26 GMT-0400 (Eastern Daylight Time)","255580","green","red","animation","100","106415","0.0-5.0-2.47","","","","","","178","","","","","","[{""stimulus"":""img/green_ll/1.jpg"",""time"":51},{""stimulus"":""img/green_ll/2.jpg"",""time"":101},{""stimulus"":""img/green_ll/3.jpg"",""time"":151},{""stimulus"":""img/green_ll/4.jpg"",""time"":201},{""stimulus"":""img/green_ll/5.jpg"",""time"":251},{""stimulus"":""img/green_ll/6.jpg"",""time"":302},{""stimulus"":""img/green_ll/7.jpg"",""time"":352},{""stimulus"":""img/green_ll/8.jpg"",""time"":402},{""stimulus"":""img/green_ll/9.jpg"",""time"":453},{""stimulus"":""img/green_ll/10.jpg"",""time"":503},{""stimulus"":""img/green_ll/11.jpg"",""time"":553}]","[]"
"","","","choice","6320e37620d067c7d322246a","bdp_lott","Mon Apr 10 2023 21:16:26 GMT-0400 (Eastern Daylight Time)","255580","green","red","image-keyboard-response","101","106739","0.0-5.0-1.48","","324","","img/green_ll/choose11.jpg","1","177","green","0.5","0.5","0.5","l","",""
"","","","","6320e37620d067c7d322246a","bdp_lott","Mon Apr 10 2023 21:16:26 GMT-0400 (Eastern Daylight Time)","255580","green","red","animation","102","107342","0.0-5.0-2.48","","","","","","177","","","","","","[{""stimulus"":""img/green_ll/1.jpg"",""time"":51},{""stimulus"":""img/green_ll/2.jpg"",""time"":100},{""stimulus"":""img/green_ll/3.jpg"",""time"":151},{""stimulus"":""img/green_ll/4.jpg"",""time"":200},{""stimulus"":""img/green_ll/5.jpg"",""time"":250},{""stimulus"":""img/green_ll/6.jpg"",""time"":301},{""stimulus"":""img/green_ll/7.jpg"",""time"":351},{""stimulus"":""img/green_ll/8.jpg"",""time"":402},{""stimulus"":""img/green_ll/9.jpg"",""time"":452},{""stimulus"":""img/green_ll/10.jpg"",""time"":503},{""stimulus"":""img/green_ll/11.jpg"",""time"":553}]","[]"
"","","","choice","6320e37620d067c7d322246a","bdp_lott","Mon Apr 10 2023 21:16:26 GMT-0400 (Eastern Daylight Time)","255580","green","red","image-keyboard-response","103","107727","0.0-5.0-1.49","","385","","img/green_ll/choose11.jpg","2","176","red","0.5","0.5","0.5","l","",""
"","","","","6320e37620d067c7d322246a","bdp_lott","Mon Apr 10 2023 21:16:26 GMT-0400 (Eastern Daylight Time)","255580","green","red","animation","104","108333","0.0-5.0-2.49","","","","","","176","","","","","","[{""stimulus"":""img/red_ll/1.jpg"",""time"":50},{""stimulus"":""img/red_ll/2.jpg"",""time"":101},{""stimulus"":""img/red_ll/3.jpg"",""time"":151},{""stimulus"":""img/red_ll/4.jpg"",""time"":201},{""stimulus"":""img/red_ll/5.jpg"",""time"":251},{""stimulus"":""img/red_ll/6.jpg"",""time"":302},{""stimulus"":""img/red_ll/7.jpg"",""time"":353},{""stimulus"":""img/red_ll/8.jpg"",""time"":403},{""stimulus"":""img/red_ll/9.jpg"",""time"":453},{""stimulus"":""img/red_ll/10.jpg"",""time"":504},{""stimulus"":""img/red_ll/11.jpg"",""time"":554}]","[]"
"","","","choice","6320e37620d067c7d322246a","bdp_lott","Mon Apr 10 2023 21:16:26 GMT-0400 (Eastern Daylight Time)","255580","green","red","image-keyboard-response","105","108459","0.0-5.0-1.50","","126","","img/red_ll/choose11.jpg","2","175","red","0.5","0.5","0.5","w","",""
"","","","","6320e37620d067c7d322246a","bdp_lott","Mon Apr 10 2023 21:16:26 GMT-0400 (Eastern Daylight Time)","255580","green","red","animation","106","109062","0.0-5.0-2.50","","","","","","175","","","","","","[{""stimulus"":""img/red_lw/1.jpg"",""time"":51},{""stimulus"":""img/red_lw/2.jpg"",""time"":101},{""stimulus"":""img/red_lw/3.jpg"",""time"":152},{""stimulus"":""img/red_lw/4.jpg"",""time"":203},{""stimulus"":""img/red_lw/5.jpg"",""time"":252},{""stimulus"":""img/red_lw/6.jpg"",""time"":302},{""stimulus"":""img/red_lw/7.jpg"",""time"":352},{""stimulus"":""img/red_lw/8.jpg"",""time"":403},{""stimulus"":""img/red_lw/9.jpg"",""time"":452},{""stimulus"":""img/red_lw/10.jpg"",""time"":502},{""stimulus"":""img/red_lw/11.jpg"",""time"":553}]","[]"
"","","","choice","6320e37620d067c7d322246a","bdp_lott","Mon Apr 10 2023 21:16:26 GMT-0400 (Eastern Daylight Time)","255580","green","red","image-keyboard-response","107","109195","0.0-5.0-1.51","","133","","img/red_lw/choose11.jpg","2","174","red","0.5","0.5","0.5","l","",""
"","","","","6320e37620d067c7d322246a","bdp_lott","Mon Apr 10 2023 21:16:26 GMT-0400 (Eastern Daylight Time)","255580","green","red","animation","108","109798","0.0-5.0-2.51","","","","","","174","","","","","","[{""stimulus"":""img/red_ll/1.jpg"",""time"":51},{""stimulus"":""img/red_ll/2.jpg"",""time"":101},{""stimulus"":""img/red_ll/3.jpg"",""time"":152},{""stimulus"":""img/red_ll/4.jpg"",""time"":201},{""stimulus"":""img/red_ll/5.jpg"",""time"":252},{""stimulus"":""img/red_ll/6.jpg"",""time"":302},{""stimulus"":""img/red_ll/7.jpg"",""time"":351},{""stimulus"":""img/red_ll/8.jpg"",""time"":401},{""stimulus"":""img/red_ll/9.jpg"",""time"":451},{""stimulus"":""img/red_ll/10.jpg"",""time"":502},{""stimulus"":""img/red_ll/11.jpg"",""time"":552}]","[]"
"","","","choice","6320e37620d067c7d322246a","bdp_lott","Mon Apr 10 2023 21:16:26 GMT-0400 (Eastern Daylight Time)","255580","green","red","image-keyboard-response","109","109907","0.0-5.0-1.52","","109","","img/red_ll/choose11.jpg","2","173","red","0.5","0.5","0.5","w","",""
"","","","","6320e37620d067c7d322246a","bdp_lott","Mon Apr 10 2023 21:16:26 GMT-0400 (Eastern Daylight Time)","255580","green","red","animation","110","110509","0.0-5.0-2.52","","","","","","173","","","","","","[{""stimulus"":""img/red_lw/1.jpg"",""time"":51},{""stimulus"":""img/red_lw/2.jpg"",""time"":101},{""stimulus"":""img/red_lw/3.jpg"",""time"":151},{""stimulus"":""img/red_lw/4.jpg"",""time"":201},{""stimulus"":""img/red_lw/5.jpg"",""time"":252},{""stimulus"":""img/red_lw/6.jpg"",""time"":302},{""stimulus"":""img/red_lw/7.jpg"",""time"":351},{""stimulus"":""img/red_lw/8.jpg"",""time"":402},{""stimulus"":""img/red_lw/9.jpg"",""time"":452},{""stimulus"":""img/red_lw/10.jpg"",""time"":502},{""stimulus"":""img/red_lw/11.jpg"",""time"":552}]","[]"
"","","","choice","6320e37620d067c7d322246a","bdp_lott","Mon Apr 10 2023 21:16:26 GMT-0400 (Eastern Daylight Time)","255580","green","red","image-keyboard-response","111","110664","0.0-5.0-1.53","","154","","img/red_lw/choose11.jpg","2","172","red","0.5","0.5","0.5","l","",""
"","","","","6320e37620d067c7d322246a","bdp_lott","Mon Apr 10 2023 21:16:26 GMT-0400 (Eastern Daylight Time)","255580","green","red","animation","112","111266","0.0-5.0-2.53","","","","","","172","","","","","","[{""stimulus"":""img/red_ll/1.jpg"",""time"":51},{""stimulus"":""img/red_ll/2.jpg"",""time"":101},{""stimulus"":""img/red_ll/3.jpg"",""time"":152},{""stimulus"":""img/red_ll/4.jpg"",""time"":202},{""stimulus"":""img/red_ll/5.jpg"",""time"":252},{""stimulus"":""img/red_ll/6.jpg"",""time"":302},{""stimulus"":""img/red_ll/7.jpg"",""time"":352},{""stimulus"":""img/red_ll/8.jpg"",""time"":402},{""stimulus"":""img/red_ll/9.jpg"",""time"":452},{""stimulus"":""img/red_ll/10.jpg"",""time"":502},{""stimulus"":""img/red_ll/11.jpg"",""time"":553}]","[]"
"","","","choice","6320e37620d067c7d322246a","bdp_lott","Mon Apr 10 2023 21:16:26 GMT-0400 (Eastern Daylight Time)","255580","green","red","image-keyboard-response","113","111392","0.0-5.0-1.54","","126","","img/red_ll/choose11.jpg","2","171","red","0.5","0.5","0.5","l","",""
"","","","","6320e37620d067c7d322246a","bdp_lott","Mon Apr 10 2023 21:16:26 GMT-0400 (Eastern Daylight Time)","255580","green","red","animation","114","111993","0.0-5.0-2.54","","","","","","171","","","","","","[{""stimulus"":""img/red_ll/1.jpg"",""time"":51},{""stimulus"":""img/red_ll/2.jpg"",""time"":100},{""stimulus"":""img/red_ll/3.jpg"",""time"":151},{""stimulus"":""img/red_ll/4.jpg"",""time"":201},{""stimulus"":""img/red_ll/5.jpg"",""time"":251},{""stimulus"":""img/red_ll/6.jpg"",""time"":300},{""stimulus"":""img/red_ll/7.jpg"",""time"":351},{""stimulus"":""img/red_ll/8.jpg"",""time"":401},{""stimulus"":""img/red_ll/9.jpg"",""time"":451},{""stimulus"":""img/red_ll/10.jpg"",""time"":501},{""stimulus"":""img/red_ll/11.jpg"",""time"":552}]","[]"
"","","","choice","6320e37620d067c7d322246a","bdp_lott","Mon Apr 10 2023 21:16:26 GMT-0400 (Eastern Daylight Time)","255580","green","red","image-keyboard-response","115","112194","0.0-5.0-1.55","","200","","img/red_ll/choose11.jpg","2","170","red","0.5","0.5","0.5","w","",""
"","","","","6320e37620d067c7d322246a","bdp_lott","Mon Apr 10 2023 21:16:26 GMT-0400 (Eastern Daylight Time)","255580","green","red","animation","116","112797","0.0-5.0-2.55","","","","","","170","","","","","","[{""stimulus"":""img/red_lw/1.jpg"",""time"":51},{""stimulus"":""img/red_lw/2.jpg"",""time"":101},{""stimulus"":""img/red_lw/3.jpg"",""time"":152},{""stimulus"":""img/red_lw/4.jpg"",""time"":202},{""stimulus"":""img/red_lw/5.jpg"",""time"":251},{""stimulus"":""img/red_lw/6.jpg"",""time"":302},{""stimulus"":""img/red_lw/7.jpg"",""time"":352},{""stimulus"":""img/red_lw/8.jpg"",""time"":402},{""stimulus"":""img/red_lw/9.jpg"",""time"":453},{""stimulus"":""img/red_lw/10.jpg"",""time"":502},{""stimulus"":""img/red_lw/11.jpg"",""time"":552}]","[]"
"","","","choice","6320e37620d067c7d322246a","bdp_lott","Mon Apr 10 2023 21:16:26 GMT-0400 (Eastern Daylight Time)","255580","green","red","image-keyboard-response","117","112956","0.0-5.0-1.56","","158","","img/red_lw/choose11.jpg","2","169","red","0.5","0.5","0.5","l","",""
"","","","","6320e37620d067c7d322246a","bdp_lott","Mon Apr 10 2023 21:16:26 GMT-0400 (Eastern Daylight Time)","255580","green","red","animation","118","113558","0.0-5.0-2.56","","","","","","169","","","","","","[{""stimulus"":""img/red_ll/1.jpg"",""time"":50},{""stimulus"":""img/red_ll/2.jpg"",""time"":100},{""stimulus"":""img/red_ll/3.jpg"",""time"":150},{""stimulus"":""img/red_ll/4.jpg"",""time"":201},{""stimulus"":""img/red_ll/5.jpg"",""time"":251},{""stimulus"":""img/red_ll/6.jpg"",""time"":301},{""stimulus"":""img/red_ll/7.jpg"",""time"":351},{""stimulus"":""img/red_ll/8.jpg"",""time"":402},{""stimulus"":""img/red_ll/9.jpg"",""time"":452},{""stimulus"":""img/red_ll/10.jpg"",""time"":502},{""stimulus"":""img/red_ll/11.jpg"",""time"":552}]","[]"
"","","","choice","6320e37620d067c7d322246a","bdp_lott","Mon Apr 10 2023 21:16:26 GMT-0400 (Eastern Daylight Time)","255580","green","red","image-keyboard-response","119","113678","0.0-5.0-1.57","","119","","img/red_ll/choose11.jpg","2","168","red","0.5","0.5","0.5","w","",""
"","","","","6320e37620d067c7d322246a","bdp_lott","Mon Apr 10 2023 21:16:26 GMT-0400 (Eastern Daylight Time)","255580","green","red","animation","120","114280","0.0-5.0-2.57","","","","","","168","","","","","","[{""stimulus"":""img/red_lw/1.jpg"",""time"":50},{""stimulus"":""img/red_lw/2.jpg"",""time"":100},{""stimulus"":""img/red_lw/3.jpg"",""time"":150},{""stimulus"":""img/red_lw/4.jpg"",""time"":200},{""stimulus"":""img/red_lw/5.jpg"",""time"":251},{""stimulus"":""img/red_lw/6.jpg"",""time"":300},{""stimulus"":""img/red_lw/7.jpg"",""time"":351},{""stimulus"":""img/red_lw/8.jpg"",""time"":401},{""stimulus"":""img/red_lw/9.jpg"",""time"":451},{""stimulus"":""img/red_lw/10.jpg"",""time"":501},{""stimulus"":""img/red_lw/11.jpg"",""time"":552}]","[]"
"","","","choice","6320e37620d067c7d322246a","bdp_lott","Mon Apr 10 2023 21:16:26 GMT-0400 (Eastern Daylight Time)","255580","green","red","image-keyboard-response","121","114390","0.0-5.0-1.58","","110","","img/red_lw/choose11.jpg","2","167","red","0.5","0.5","0.5","w","",""
"","","","","6320e37620d067c7d322246a","bdp_lott","Mon Apr 10 2023 21:16:26 GMT-0400 (Eastern Daylight Time)","255580","green","red","animation","122","114992","0.0-5.0-2.58","","","","","","167","","","","","","[{""stimulus"":""img/red_lw/1.jpg"",""time"":50},{""stimulus"":""img/red_lw/2.jpg"",""time"":99},{""stimulus"":""img/red_lw/3.jpg"",""time"":150},{""stimulus"":""img/red_lw/4.jpg"",""time"":200},{""stimulus"":""img/red_lw/5.jpg"",""time"":251},{""stimulus"":""img/red_lw/6.jpg"",""time"":301},{""stimulus"":""img/red_lw/7.jpg"",""time"":351},{""stimulus"":""img/red_lw/8.jpg"",""time"":401},{""stimulus"":""img/red_lw/9.jpg"",""time"":451},{""stimulus"":""img/red_lw/10.jpg"",""time"":500},{""stimulus"":""img/red_lw/11.jpg"",""time"":551}]","[]"
"","","","choice","6320e37620d067c7d322246a","bdp_lott","Mon Apr 10 2023 21:16:26 GMT-0400 (Eastern Daylight Time)","255580","green","red","image-keyboard-response","123","115151","0.0-5.0-1.59","","159","","img/red_lw/choose11.jpg","2","166","red","0.5","0.5","0.5","w","",""
"","","","","6320e37620d067c7d322246a","bdp_lott","Mon Apr 10 2023 21:16:26 GMT-0400 (Eastern Daylight Time)","255580","green","red","animation","124","115754","0.0-5.0-2.59","","","","","","166","","","","","","[{""stimulus"":""img/red_lw/1.jpg"",""time"":50},{""stimulus"":""img/red_lw/2.jpg"",""time"":101},{""stimulus"":""img/red_lw/3.jpg"",""time"":150},{""stimulus"":""img/red_lw/4.jpg"",""time"":200},{""stimulus"":""img/red_lw/5.jpg"",""time"":251},{""stimulus"":""img/red_lw/6.jpg"",""time"":301},{""stimulus"":""img/red_lw/7.jpg"",""time"":351},{""stimulus"":""img/red_lw/8.jpg"",""time"":402},{""stimulus"":""img/red_lw/9.jpg"",""time"":452},{""stimulus"":""img/red_lw/10.jpg"",""time"":502},{""stimulus"":""img/red_lw/11.jpg"",""time"":552}]","[]"
"","","","choice","6320e37620d067c7d322246a","bdp_lott","Mon Apr 10 2023 21:16:26 GMT-0400 (Eastern Daylight Time)","255580","green","red","image-keyboard-response","125","115929","0.0-5.0-1.60","","175","","img/red_lw/choose11.jpg","2","165","red","0.5","0.5","0.5","l","",""
"","","","","6320e37620d067c7d322246a","bdp_lott","Mon Apr 10 2023 21:16:26 GMT-0400 (Eastern Daylight Time)","255580","green","red","animation","126","116531","0.0-5.0-2.60","","","","","","165","","","","","","[{""stimulus"":""img/red_ll/1.jpg"",""time"":50},{""stimulus"":""img/red_ll/2.jpg"",""time"":100},{""stimulus"":""img/red_ll/3.jpg"",""time"":150},{""stimulus"":""img/red_ll/4.jpg"",""time"":200},{""stimulus"":""img/red_ll/5.jpg"",""time"":251},{""stimulus"":""img/red_ll/6.jpg"",""time"":300},{""stimulus"":""img/red_ll/7.jpg"",""time"":350},{""stimulus"":""img/red_ll/8.jpg"",""time"":400},{""stimulus"":""img/red_ll/9.jpg"",""time"":450},{""stimulus"":""img/red_ll/10.jpg"",""time"":500},{""stimulus"":""img/red_ll/11.jpg"",""time"":551}]","[]"
"","","","choice","6320e37620d067c7d322246a","bdp_lott","Mon Apr 10 2023 21:16:26 GMT-0400 (Eastern Daylight Time)","255580","green","red","image-keyboard-response","127","116645","0.0-5.0-1.61","","114","","img/red_ll/choose11.jpg","2","164","red","0.5","0.5","0.5","w","",""
"","","","","6320e37620d067c7d322246a","bdp_lott","Mon Apr 10 2023 21:16:26 GMT-0400 (Eastern Daylight Time)","255580","green","red","animation","128","117247","0.0-5.0-2.61","","","","","","164","","","","","","[{""stimulus"":""img/red_lw/1.jpg"",""time"":51},{""stimulus"":""img/red_lw/2.jpg"",""time"":101},{""stimulus"":""img/red_lw/3.jpg"",""time"":151},{""stimulus"":""img/red_lw/4.jpg"",""time"":201},{""stimulus"":""img/red_lw/5.jpg"",""time"":251},{""stimulus"":""img/red_lw/6.jpg"",""time"":301},{""stimulus"":""img/red_lw/7.jpg"",""time"":352},{""stimulus"":""img/red_lw/8.jpg"",""time"":402},{""stimulus"":""img/red_lw/9.jpg"",""time"":452},{""stimulus"":""img/red_lw/10.jpg"",""time"":502},{""stimulus"":""img/red_lw/11.jpg"",""time"":551}]","[]"
"","","","choice","6320e37620d067c7d322246a","bdp_lott","Mon Apr 10 2023 21:16:26 GMT-0400 (Eastern Daylight Time)","255580","green","red","image-keyboard-response","129","117423","0.0-5.0-1.62","","176","","img/red_lw/choose11.jpg","2","163","red","0.5","0.5","0.5","w","",""
"","","","","6320e37620d067c7d322246a","bdp_lott","Mon Apr 10 2023 21:16:26 GMT-0400 (Eastern Daylight Time)","255580","green","red","animation","130","118024","0.0-5.0-2.62","","","","","","163","","","","","","[{""stimulus"":""img/red_lw/1.jpg"",""time"":51},{""stimulus"":""img/red_lw/2.jpg"",""time"":100},{""stimulus"":""img/red_lw/3.jpg"",""time"":150},{""stimulus"":""img/red_lw/4.jpg"",""time"":200},{""stimulus"":""img/red_lw/5.jpg"",""time"":251},{""stimulus"":""img/red_lw/6.jpg"",""time"":301},{""stimulus"":""img/red_lw/7.jpg"",""time"":351},{""stimulus"":""img/red_lw/8.jpg"",""time"":401},{""stimulus"":""img/red_lw/9.jpg"",""time"":451},{""stimulus"":""img/red_lw/10.jpg"",""time"":501},{""stimulus"":""img/red_lw/11.jpg"",""time"":551}]","[]"
"","","","choice","6320e37620d067c7d322246a","bdp_lott","Mon Apr 10 2023 21:16:26 GMT-0400 (Eastern Daylight Time)","255580","green","red","image-keyboard-response","131","118219","0.0-5.0-1.63","","195","","img/red_lw/choose11.jpg","2","162","red","0.5","0.5","0.5","w","",""
"","","","","6320e37620d067c7d322246a","bdp_lott","Mon Apr 10 2023 21:16:26 GMT-0400 (Eastern Daylight Time)","255580","green","red","animation","132","118821","0.0-5.0-2.63","","","","","","162","","","","","","[{""stimulus"":""img/red_lw/1.jpg"",""time"":50},{""stimulus"":""img/red_lw/2.jpg"",""time"":101},{""stimulus"":""img/red_lw/3.jpg"",""time"":151},{""stimulus"":""img/red_lw/4.jpg"",""time"":201},{""stimulus"":""img/red_lw/5.jpg"",""time"":251},{""stimulus"":""img/red_lw/6.jpg"",""time"":301},{""stimulus"":""img/red_lw/7.jpg"",""time"":351},{""stimulus"":""img/red_lw/8.jpg"",""time"":401},{""stimulus"":""img/red_lw/9.jpg"",""time"":451},{""stimulus"":""img/red_lw/10.jpg"",""time"":502},{""stimulus"":""img/red_lw/11.jpg"",""time"":552}]","[]"
"","","","choice","6320e37620d067c7d322246a","bdp_lott","Mon Apr 10 2023 21:16:26 GMT-0400 (Eastern Daylight Time)","255580","green","red","image-keyboard-response","133","119036","0.0-5.0-1.64","","215","","img/red_lw/choose11.jpg","2","161","red","0.5","0.5","0.5","w","",""
"","","","","6320e37620d067c7d322246a","bdp_lott","Mon Apr 10 2023 21:16:26 GMT-0400 (Eastern Daylight Time)","255580","green","red","animation","134","119638","0.0-5.0-2.64","","","","","","161","","","","","","[{""stimulus"":""img/red_lw/1.jpg"",""time"":51},{""stimulus"":""img/red_lw/2.jpg"",""time"":101},{""stimulus"":""img/red_lw/3.jpg"",""time"":152},{""stimulus"":""img/red_lw/4.jpg"",""time"":201},{""stimulus"":""img/red_lw/5.jpg"",""time"":251},{""stimulus"":""img/red_lw/6.jpg"",""time"":301},{""stimulus"":""img/red_lw/7.jpg"",""time"":352},{""stimulus"":""img/red_lw/8.jpg"",""time"":402},{""stimulus"":""img/red_lw/9.jpg"",""time"":452},{""stimulus"":""img/red_lw/10.jpg"",""time"":502},{""stimulus"":""img/red_lw/11.jpg"",""time"":553}]","[]"
"","","","choice","6320e37620d067c7d322246a","bdp_lott","Mon Apr 10 2023 21:16:26 GMT-0400 (Eastern Daylight Time)","255580","green","red","image-keyboard-response","135","119804","0.0-5.0-1.65","","165","","img/red_lw/choose11.jpg","2","160","red","0.5","0.5","0.5","l","",""
"","","","","6320e37620d067c7d322246a","bdp_lott","Mon Apr 10 2023 21:16:26 GMT-0400 (Eastern Daylight Time)","255580","green","red","animation","136","120407","0.0-5.0-2.65","","","","","","160","","","","","","[{""stimulus"":""img/red_ll/1.jpg"",""time"":50},{""stimulus"":""img/red_ll/2.jpg"",""time"":100},{""stimulus"":""img/red_ll/3.jpg"",""time"":150},{""stimulus"":""img/red_ll/4.jpg"",""time"":201},{""stimulus"":""img/red_ll/5.jpg"",""time"":251},{""stimulus"":""img/red_ll/6.jpg"",""time"":301},{""stimulus"":""img/red_ll/7.jpg"",""time"":351},{""stimulus"":""img/red_ll/8.jpg"",""time"":401},{""stimulus"":""img/red_ll/9.jpg"",""time"":452},{""stimulus"":""img/red_ll/10.jpg"",""time"":502},{""stimulus"":""img/red_ll/11.jpg"",""time"":553}]","[]"
"","","","choice","6320e37620d067c7d322246a","bdp_lott","Mon Apr 10 2023 21:16:26 GMT-0400 (Eastern Daylight Time)","255580","green","red","image-keyboard-response","137","120576","0.0-5.0-1.66","","169","","img/red_ll/choose11.jpg","2","159","red","0.5","0.5","0.5","l","",""
"","","","","6320e37620d067c7d322246a","bdp_lott","Mon Apr 10 2023 21:16:26 GMT-0400 (Eastern Daylight Time)","255580","green","red","animation","138","121179","0.0-5.0-2.66","","","","","","159","","","","","","[{""stimulus"":""img/red_ll/1.jpg"",""time"":51},{""stimulus"":""img/red_ll/2.jpg"",""time"":101},{""stimulus"":""img/red_ll/3.jpg"",""time"":150},{""stimulus"":""img/red_ll/4.jpg"",""time"":200},{""stimulus"":""img/red_ll/5.jpg"",""time"":251},{""stimulus"":""img/red_ll/6.jpg"",""time"":301},{""stimulus"":""img/red_ll/7.jpg"",""time"":352},{""stimulus"":""img/red_ll/8.jpg"",""time"":402},{""stimulus"":""img/red_ll/9.jpg"",""time"":453},{""stimulus"":""img/red_ll/10.jpg"",""time"":503},{""stimulus"":""img/red_ll/11.jpg"",""time"":553}]","[]"
"","","","choice","6320e37620d067c7d322246a","bdp_lott","Mon Apr 10 2023 21:16:26 GMT-0400 (Eastern Daylight Time)","255580","green","red","image-keyboard-response","139","121308","0.0-5.0-1.67","","129","","img/red_ll/choose11.jpg","2","158","red","0.5","0.5","0.5","l","",""
"","","","","6320e37620d067c7d322246a","bdp_lott","Mon Apr 10 2023 21:16:26 GMT-0400 (Eastern Daylight Time)","255580","green","red","animation","140","121910","0.0-5.0-2.67","","","","","","158","","","","","","[{""stimulus"":""img/red_ll/1.jpg"",""time"":50},{""stimulus"":""img/red_ll/2.jpg"",""time"":101},{""stimulus"":""img/red_ll/3.jpg"",""time"":151},{""stimulus"":""img/red_ll/4.jpg"",""time"":201},{""stimulus"":""img/red_ll/5.jpg"",""time"":252},{""stimulus"":""img/red_ll/6.jpg"",""time"":302},{""stimulus"":""img/red_ll/7.jpg"",""time"":352},{""stimulus"":""img/red_ll/8.jpg"",""time"":402},{""stimulus"":""img/red_ll/9.jpg"",""time"":452},{""stimulus"":""img/red_ll/10.jpg"",""time"":502},{""stimulus"":""img/red_ll/11.jpg"",""time"":552}]","[]"
"","","","choice","6320e37620d067c7d322246a","bdp_lott","Mon Apr 10 2023 21:16:26 GMT-0400 (Eastern Daylight Time)","255580","green","red","image-keyboard-response","141","122060","0.0-5.0-1.68","","150","","img/red_ll/choose11.jpg","2","157","red","0.5","0.5","0.5","w","",""
"","","","","6320e37620d067c7d322246a","bdp_lott","Mon Apr 10 2023 21:16:26 GMT-0400 (Eastern Daylight Time)","255580","green","red","animation","142","122663","0.0-5.0-2.68","","","","","","157","","","","","","[{""stimulus"":""img/red_lw/1.jpg"",""time"":50},{""stimulus"":""img/red_lw/2.jpg"",""time"":101},{""stimulus"":""img/red_lw/3.jpg"",""time"":151},{""stimulus"":""img/red_lw/4.jpg"",""time"":202},{""stimulus"":""img/red_lw/5.jpg"",""time"":252},{""stimulus"":""img/red_lw/6.jpg"",""time"":302},{""stimulus"":""img/red_lw/7.jpg"",""time"":352},{""stimulus"":""img/red_lw/8.jpg"",""time"":403},{""stimulus"":""img/red_lw/9.jpg"",""time"":453},{""stimulus"":""img/red_lw/10.jpg"",""time"":503},{""stimulus"":""img/red_lw/11.jpg"",""time"":553}]","[]"
"","","","choice","6320e37620d067c7d322246a","bdp_lott","Mon Apr 10 2023 21:16:26 GMT-0400 (Eastern Daylight Time)","255580","green","red","image-keyboard-response","143","122827","0.0-5.0-1.69","","164","","img/red_lw/choose11.jpg","2","156","red","0.5","0.5","0.5","l","",""
"","","","","6320e37620d067c7d322246a","bdp_lott","Mon Apr 10 2023 21:16:26 GMT-0400 (Eastern Daylight Time)","255580","green","red","animation","144","123429","0.0-5.0-2.69","","","","","","156","","","","","","[{""stimulus"":""img/red_ll/1.jpg"",""time"":51},{""stimulus"":""img/red_ll/2.jpg"",""time"":101},{""stimulus"":""img/red_ll/3.jpg"",""time"":151},{""stimulus"":""img/red_ll/4.jpg"",""time"":201},{""stimulus"":""img/red_ll/5.jpg"",""time"":251},{""stimulus"":""img/red_ll/6.jpg"",""time"":301},{""stimulus"":""img/red_ll/7.jpg"",""time"":351},{""stimulus"":""img/red_ll/8.jpg"",""time"":401},{""stimulus"":""img/red_ll/9.jpg"",""time"":451},{""stimulus"":""img/red_ll/10.jpg"",""time"":502},{""stimulus"":""img/red_ll/11.jpg"",""time"":552}]","[]"
"","","","choice","6320e37620d067c7d322246a","bdp_lott","Mon Apr 10 2023 21:16:26 GMT-0400 (Eastern Daylight Time)","255580","green","red","image-keyboard-response","145","123458","0.0-5.0-1.70","","29","","img/red_ll/choose11.jpg","2","155","red","0.5","0.5","0.5","l","",""
"","","","","6320e37620d067c7d322246a","bdp_lott","Mon Apr 10 2023 21:16:26 GMT-0400 (Eastern Daylight Time)","255580","green","red","animation","146","124059","0.0-5.0-2.70","","","","","","155","","","","","","[{""stimulus"":""img/red_ll/1.jpg"",""time"":51},{""stimulus"":""img/red_ll/2.jpg"",""time"":101},{""stimulus"":""img/red_ll/3.jpg"",""time"":151},{""stimulus"":""img/red_ll/4.jpg"",""time"":201},{""stimulus"":""img/red_ll/5.jpg"",""time"":252},{""stimulus"":""img/red_ll/6.jpg"",""time"":301},{""stimulus"":""img/red_ll/7.jpg"",""time"":351},{""stimulus"":""img/red_ll/8.jpg"",""time"":401},{""stimulus"":""img/red_ll/9.jpg"",""time"":451},{""stimulus"":""img/red_ll/10.jpg"",""time"":501},{""stimulus"":""img/red_ll/11.jpg"",""time"":551}]","[]"
"","","","choice","6320e37620d067c7d322246a","bdp_lott","Mon Apr 10 2023 21:16:26 GMT-0400 (Eastern Daylight Time)","255580","green","red","image-keyboard-response","147","124231","0.0-5.0-1.71","","171","","img/red_ll/choose11.jpg","2","154","red","0.5","0.5","0.5","l","",""
"","","","","6320e37620d067c7d322246a","bdp_lott","Mon Apr 10 2023 21:16:26 GMT-0400 (Eastern Daylight Time)","255580","green","red","animation","148","124835","0.0-5.0-2.71","","","","","","154","","","","","","[{""stimulus"":""img/red_ll/1.jpg"",""time"":51},{""stimulus"":""img/red_ll/2.jpg"",""time"":101},{""stimulus"":""img/red_ll/3.jpg"",""time"":151},{""stimulus"":""img/red_ll/4.jpg"",""time"":201},{""stimulus"":""img/red_ll/5.jpg"",""time"":251},{""stimulus"":""img/red_ll/6.jpg"",""time"":301},{""stimulus"":""img/red_ll/7.jpg"",""time"":352},{""stimulus"":""img/red_ll/8.jpg"",""time"":402},{""stimulus"":""img/red_ll/9.jpg"",""time"":452},{""stimulus"":""img/red_ll/10.jpg"",""time"":503},{""stimulus"":""img/red_ll/11.jpg"",""time"":554}]","[]"
"","","","choice","6320e37620d067c7d322246a","bdp_lott","Mon Apr 10 2023 21:16:26 GMT-0400 (Eastern Daylight Time)","255580","green","red","image-keyboard-response","149","124964","0.0-5.0-1.72","","128","","img/red_ll/choose11.jpg","2","153","red","0.5","0.5","0.5","l","",""
"","","","","6320e37620d067c7d322246a","bdp_lott","Mon Apr 10 2023 21:16:26 GMT-0400 (Eastern Daylight Time)","255580","green","red","animation","150","125565","0.0-5.0-2.72","","","","","","153","","","","","","[{""stimulus"":""img/red_ll/1.jpg"",""time"":51},{""stimulus"":""img/red_ll/2.jpg"",""time"":101},{""stimulus"":""img/red_ll/3.jpg"",""time"":150},{""stimulus"":""img/red_ll/4.jpg"",""time"":200},{""stimulus"":""img/red_ll/5.jpg"",""time"":251},{""stimulus"":""img/red_ll/6.jpg"",""time"":301},{""stimulus"":""img/red_ll/7.jpg"",""time"":351},{""stimulus"":""img/red_ll/8.jpg"",""time"":400},{""stimulus"":""img/red_ll/9.jpg"",""time"":451},{""stimulus"":""img/red_ll/10.jpg"",""time"":501},{""stimulus"":""img/red_ll/11.jpg"",""time"":551}]","[]"
"","","","choice","6320e37620d067c7d322246a","bdp_lott","Mon Apr 10 2023 21:16:26 GMT-0400 (Eastern Daylight Time)","255580","green","red","image-keyboard-response","151","125740","0.0-5.0-1.73","","175","","img/red_ll/choose11.jpg","2","152","red","0.5","0.5","0.5","l","",""
"","","","","6320e37620d067c7d322246a","bdp_lott","Mon Apr 10 2023 21:16:26 GMT-0400 (Eastern Daylight Time)","255580","green","red","animation","152","126343","0.0-5.0-2.73","","","","","","152","","","","","","[{""stimulus"":""img/red_ll/1.jpg"",""time"":50},{""stimulus"":""img/red_ll/2.jpg"",""time"":100},{""stimulus"":""img/red_ll/3.jpg"",""time"":150},{""stimulus"":""img/red_ll/4.jpg"",""time"":200},{""stimulus"":""img/red_ll/5.jpg"",""time"":250},{""stimulus"":""img/red_ll/6.jpg"",""time"":300},{""stimulus"":""img/red_ll/7.jpg"",""time"":351},{""stimulus"":""img/red_ll/8.jpg"",""time"":401},{""stimulus"":""img/red_ll/9.jpg"",""time"":452},{""stimulus"":""img/red_ll/10.jpg"",""time"":502},{""stimulus"":""img/red_ll/11.jpg"",""time"":552}]","[]"
"","","","choice","6320e37620d067c7d322246a","bdp_lott","Mon Apr 10 2023 21:16:26 GMT-0400 (Eastern Daylight Time)","255580","green","red","image-keyboard-response","153","126516","0.0-5.0-1.74","","173","","img/red_ll/choose11.jpg","2","151","red","0.5","0.5","0.5","l","",""
"","","","","6320e37620d067c7d322246a","bdp_lott","Mon Apr 10 2023 21:16:26 GMT-0400 (Eastern Daylight Time)","255580","green","red","animation","154","127119","0.0-5.0-2.74","","","","","","151","","","","","","[{""stimulus"":""img/red_ll/1.jpg"",""time"":50},{""stimulus"":""img/red_ll/2.jpg"",""time"":100},{""stimulus"":""img/red_ll/3.jpg"",""time"":150},{""stimulus"":""img/red_ll/4.jpg"",""time"":200},{""stimulus"":""img/red_ll/5.jpg"",""time"":251},{""stimulus"":""img/red_ll/6.jpg"",""time"":301},{""stimulus"":""img/red_ll/7.jpg"",""time"":351},{""stimulus"":""img/red_ll/8.jpg"",""time"":401},{""stimulus"":""img/red_ll/9.jpg"",""time"":451},{""stimulus"":""img/red_ll/10.jpg"",""time"":502},{""stimulus"":""img/red_ll/11.jpg"",""time"":552}]","[]"
"","","","choice","6320e37620d067c7d322246a","bdp_lott","Mon Apr 10 2023 21:16:26 GMT-0400 (Eastern Daylight Time)","255580","green","red","image-keyboard-response","155","127268","0.0-5.0-1.75","","149","","img/red_ll/choose11.jpg","2","150","red","0.5","0.5","0.5","l","",""
"","","","","6320e37620d067c7d322246a","bdp_lott","Mon Apr 10 2023 21:16:26 GMT-0400 (Eastern Daylight Time)","255580","green","red","animation","156","127871","0.0-5.0-2.75","","","","","","150","","","","","","[{""stimulus"":""img/red_ll/1.jpg"",""time"":51},{""stimulus"":""img/red_ll/2.jpg"",""time"":101},{""stimulus"":""img/red_ll/3.jpg"",""time"":152},{""stimulus"":""img/red_ll/4.jpg"",""time"":202},{""stimulus"":""img/red_ll/5.jpg"",""time"":252},{""stimulus"":""img/red_ll/6.jpg"",""time"":302},{""stimulus"":""img/red_ll/7.jpg"",""time"":352},{""stimulus"":""img/red_ll/8.jpg"",""time"":402},{""stimulus"":""img/red_ll/9.jpg"",""time"":452},{""stimulus"":""img/red_ll/10.jpg"",""time"":503},{""stimulus"":""img/red_ll/11.jpg"",""time"":553}]","[]"
"","","","choice","6320e37620d067c7d322246a","bdp_lott","Mon Apr 10 2023 21:16:26 GMT-0400 (Eastern Daylight Time)","255580","green","red","image-keyboard-response","157","128090","0.0-5.0-1.76","","219","","img/red_ll/choose11.jpg","2","149","red","0.5","0.1","0.1","l","",""
"","","","","6320e37620d067c7d322246a","bdp_lott","Mon Apr 10 2023 21:16:26 GMT-0400 (Eastern Daylight Time)","255580","green","red","animation","158","128695","0.0-5.0-2.76","","","","","","149","","","","","","[{""stimulus"":""img/red_ll/1.jpg"",""time"":50},{""stimulus"":""img/red_ll/2.jpg"",""time"":100},{""stimulus"":""img/red_ll/3.jpg"",""time"":151},{""stimulus"":""img/red_ll/4.jpg"",""time"":202},{""stimulus"":""img/red_ll/5.jpg"",""time"":252},{""stimulus"":""img/red_ll/6.jpg"",""time"":302},{""stimulus"":""img/red_ll/7.jpg"",""time"":352},{""stimulus"":""img/red_ll/8.jpg"",""time"":403},{""stimulus"":""img/red_ll/9.jpg"",""time"":454},{""stimulus"":""img/red_ll/10.jpg"",""time"":504},{""stimulus"":""img/red_ll/11.jpg"",""time"":554}]","[]"
"","","","choice","6320e37620d067c7d322246a","bdp_lott","Mon Apr 10 2023 21:16:26 GMT-0400 (Eastern Daylight Time)","255580","green","red","image-keyboard-response","159","129434","0.0-5.0-1.77","","739","","img/red_ll/choose11.jpg","2","148","red","0.5","0.1","0.1","l","",""
"","","","","6320e37620d067c7d322246a","bdp_lott","Mon Apr 10 2023 21:16:26 GMT-0400 (Eastern Daylight Time)","255580","green","red","animation","160","130039","0.0-5.0-2.77","","","","","","148","","","","","","[{""stimulus"":""img/red_ll/1.jpg"",""time"":52},{""stimulus"":""img/red_ll/2.jpg"",""time"":102},{""stimulus"":""img/red_ll/3.jpg"",""time"":152},{""stimulus"":""img/red_ll/4.jpg"",""time"":203},{""stimulus"":""img/red_ll/5.jpg"",""time"":253},{""stimulus"":""img/red_ll/6.jpg"",""time"":303},{""stimulus"":""img/red_ll/7.jpg"",""time"":353},{""stimulus"":""img/red_ll/8.jpg"",""time"":403},{""stimulus"":""img/red_ll/9.jpg"",""time"":454},{""stimulus"":""img/red_ll/10.jpg"",""time"":504},{""stimulus"":""img/red_ll/11.jpg"",""time"":555}]","[]"
"","","","choice","6320e37620d067c7d322246a","bdp_lott","Mon Apr 10 2023 21:16:26 GMT-0400 (Eastern Daylight Time)","255580","green","red","image-keyboard-response","161","130508","0.0-5.0-1.78","","466","","img/red_ll/choose11.jpg","2","147","red","0.5","0.1","0.1","l","",""
"","","","","6320e37620d067c7d322246a","bdp_lott","Mon Apr 10 2023 21:16:26 GMT-0400 (Eastern Daylight Time)","255580","green","red","animation","162","131111","0.0-5.0-2.78","","","","","","147","","","","","","[{""stimulus"":""img/red_ll/1.jpg"",""time"":51},{""stimulus"":""img/red_ll/2.jpg"",""time"":101},{""stimulus"":""img/red_ll/3.jpg"",""time"":152},{""stimulus"":""img/red_ll/4.jpg"",""time"":202},{""stimulus"":""img/red_ll/5.jpg"",""time"":252},{""stimulus"":""img/red_ll/6.jpg"",""time"":302},{""stimulus"":""img/red_ll/7.jpg"",""time"":353},{""stimulus"":""img/red_ll/8.jpg"",""time"":403},{""stimulus"":""img/red_ll/9.jpg"",""time"":453},{""stimulus"":""img/red_ll/10.jpg"",""time"":504},{""stimulus"":""img/red_ll/11.jpg"",""time"":553}]","[]"
"","","","choice","6320e37620d067c7d322246a","bdp_lott","Mon Apr 10 2023 21:16:26 GMT-0400 (Eastern Daylight Time)","255580","green","red","image-keyboard-response","163","131555","0.0-5.0-1.79","","443","","img/red_ll/choose11.jpg","2","146","red","0.5","0.1","0.1","l","",""
"","","","","6320e37620d067c7d322246a","bdp_lott","Mon Apr 10 2023 21:16:26 GMT-0400 (Eastern Daylight Time)","255580","green","red","animation","164","132160","0.0-5.0-2.79","","","","","","146","","","","","","[{""stimulus"":""img/red_ll/1.jpg"",""time"":51},{""stimulus"":""img/red_ll/2.jpg"",""time"":100},{""stimulus"":""img/red_ll/3.jpg"",""time"":150},{""stimulus"":""img/red_ll/4.jpg"",""time"":200},{""stimulus"":""img/red_ll/5.jpg"",""time"":251},{""stimulus"":""img/red_ll/6.jpg"",""time"":301},{""stimulus"":""img/red_ll/7.jpg"",""time"":351},{""stimulus"":""img/red_ll/8.jpg"",""time"":401},{""stimulus"":""img/red_ll/9.jpg"",""time"":452},{""stimulus"":""img/red_ll/10.jpg"",""time"":503},{""stimulus"":""img/red_ll/11.jpg"",""time"":553}]","[]"
"","","","choice","6320e37620d067c7d322246a","bdp_lott","Mon Apr 10 2023 21:16:26 GMT-0400 (Eastern Daylight Time)","255580","green","red","image-keyboard-response","165","133194","0.0-5.0-1.80","","1034","","img/red_ll/choose11.jpg","1","145","green","0.5","0.1","0.5","w","",""
"","","","","6320e37620d067c7d322246a","bdp_lott","Mon Apr 10 2023 21:16:26 GMT-0400 (Eastern Daylight Time)","255580","green","red","animation","166","133797","0.0-5.0-2.80","","","","","","145","","","","","","[{""stimulus"":""img/green_wl/1.jpg"",""time"":52},{""stimulus"":""img/green_wl/2.jpg"",""time"":102},{""stimulus"":""img/green_wl/3.jpg"",""time"":152},{""stimulus"":""img/green_wl/4.jpg"",""time"":202},{""stimulus"":""img/green_wl/5.jpg"",""time"":253},{""stimulus"":""img/green_wl/6.jpg"",""time"":302},{""stimulus"":""img/green_wl/7.jpg"",""time"":353},{""stimulus"":""img/green_wl/8.jpg"",""time"":403},{""stimulus"":""img/green_wl/9.jpg"",""time"":452},{""stimulus"":""img/green_wl/10.jpg"",""time"":503},{""stimulus"":""img/green_wl/11.jpg"",""time"":553}]","[]"
"","","","choice","6320e37620d067c7d322246a","bdp_lott","Mon Apr 10 2023 21:16:26 GMT-0400 (Eastern Daylight Time)","255580","green","red","image-keyboard-response","167","134352","0.0-5.0-1.81","","554","","img/green_wl/choose11.jpg","2","144","red","0.5","0.1","0.1","l","",""
"","","","","6320e37620d067c7d322246a","bdp_lott","Mon Apr 10 2023 21:16:26 GMT-0400 (Eastern Daylight Time)","255580","green","red","animation","168","134954","0.0-5.0-2.81","","","","","","144","","","","","","[{""stimulus"":""img/red_wl/1.jpg"",""time"":50},{""stimulus"":""img/red_wl/2.jpg"",""time"":100},{""stimulus"":""img/red_wl/3.jpg"",""time"":151},{""stimulus"":""img/red_wl/4.jpg"",""time"":200},{""stimulus"":""img/red_wl/5.jpg"",""time"":250},{""stimulus"":""img/red_wl/6.jpg"",""time"":301},{""stimulus"":""img/red_wl/7.jpg"",""time"":350},{""stimulus"":""img/red_wl/8.jpg"",""time"":401},{""stimulus"":""img/red_wl/9.jpg"",""time"":451},{""stimulus"":""img/red_wl/10.jpg"",""time"":501},{""stimulus"":""img/red_wl/11.jpg"",""time"":551}]","[]"
"","","","choice","6320e37620d067c7d322246a","bdp_lott","Mon Apr 10 2023 21:16:26 GMT-0400 (Eastern Daylight Time)","255580","green","red","image-keyboard-response","169","135255","0.0-5.0-1.82","","301","","img/red_wl/choose11.jpg","2","143","red","0.5","0.1","0.1","l","",""
"","","","","6320e37620d067c7d322246a","bdp_lott","Mon Apr 10 2023 21:16:26 GMT-0400 (Eastern Daylight Time)","255580","green","red","animation","170","135858","0.0-5.0-2.82","","","","","","143","","","","","","[{""stimulus"":""img/red_wl/1.jpg"",""time"":51},{""stimulus"":""img/red_wl/2.jpg"",""time"":101},{""stimulus"":""img/red_wl/3.jpg"",""time"":151},{""stimulus"":""img/red_wl/4.jpg"",""time"":201},{""stimulus"":""img/red_wl/5.jpg"",""time"":251},{""stimulus"":""img/red_wl/6.jpg"",""time"":301},{""stimulus"":""img/red_wl/7.jpg"",""time"":351},{""stimulus"":""img/red_wl/8.jpg"",""time"":401},{""stimulus"":""img/red_wl/9.jpg"",""time"":451},{""stimulus"":""img/red_wl/10.jpg"",""time"":501},{""stimulus"":""img/red_wl/11.jpg"",""time"":551}]","[]"
"","","","choice","6320e37620d067c7d322246a","bdp_lott","Mon Apr 10 2023 21:16:26 GMT-0400 (Eastern Daylight Time)","255580","green","red","image-keyboard-response","171","135967","0.0-5.0-1.83","","109","","img/red_wl/choose11.jpg","2","142","red","0.5","0.1","0.1","w","",""
"","","","","6320e37620d067c7d322246a","bdp_lott","Mon Apr 10 2023 21:16:26 GMT-0400 (Eastern Daylight Time)","255580","green","red","animation","172","136571","0.0-5.0-2.83","","","","","","142","","","","","","[{""stimulus"":""img/red_ww/1.jpg"",""time"":51},{""stimulus"":""img/red_ww/2.jpg"",""time"":101},{""stimulus"":""img/red_ww/3.jpg"",""time"":150},{""stimulus"":""img/red_ww/4.jpg"",""time"":201},{""stimulus"":""img/red_ww/5.jpg"",""time"":252},{""stimulus"":""img/red_ww/6.jpg"",""time"":302},{""stimulus"":""img/red_ww/7.jpg"",""time"":352},{""stimulus"":""img/red_ww/8.jpg"",""time"":403},{""stimulus"":""img/red_ww/9.jpg"",""time"":453},{""stimulus"":""img/red_ww/10.jpg"",""time"":503},{""stimulus"":""img/red_ww/11.jpg"",""time"":554}]","[]"
"","","","choice","6320e37620d067c7d322246a","bdp_lott","Mon Apr 10 2023 21:16:26 GMT-0400 (Eastern Daylight Time)","255580","green","red","image-keyboard-response","173","136678","0.0-5.0-1.84","","107","","img/red_ww/choose11.jpg","2","141","red","0.5","0.1","0.1","l","",""
"","","","","6320e37620d067c7d322246a","bdp_lott","Mon Apr 10 2023 21:16:26 GMT-0400 (Eastern Daylight Time)","255580","green","red","animation","174","137281","0.0-5.0-2.84","","","","","","141","","","","","","[{""stimulus"":""img/red_wl/1.jpg"",""time"":51},{""stimulus"":""img/red_wl/2.jpg"",""time"":101},{""stimulus"":""img/red_wl/3.jpg"",""time"":152},{""stimulus"":""img/red_wl/4.jpg"",""time"":202},{""stimulus"":""img/red_wl/5.jpg"",""time"":253},{""stimulus"":""img/red_wl/6.jpg"",""time"":302},{""stimulus"":""img/red_wl/7.jpg"",""time"":353},{""stimulus"":""img/red_wl/8.jpg"",""time"":403},{""stimulus"":""img/red_wl/9.jpg"",""time"":453},{""stimulus"":""img/red_wl/10.jpg"",""time"":503},{""stimulus"":""img/red_wl/11.jpg"",""time"":553}]","[]"
"","","","choice","6320e37620d067c7d322246a","bdp_lott","Mon Apr 10 2023 21:16:26 GMT-0400 (Eastern Daylight Time)","255580","green","red","image-keyboard-response","175","137531","0.0-5.0-1.85","","250","","img/red_wl/choose11.jpg","2","140","red","0.5","0.1","0.1","l","",""
"","","","","6320e37620d067c7d322246a","bdp_lott","Mon Apr 10 2023 21:16:26 GMT-0400 (Eastern Daylight Time)","255580","green","red","animation","176","138133","0.0-5.0-2.85","","","","","","140","","","","","","[{""stimulus"":""img/red_wl/1.jpg"",""time"":51},{""stimulus"":""img/red_wl/2.jpg"",""time"":101},{""stimulus"":""img/red_wl/3.jpg"",""time"":151},{""stimulus"":""img/red_wl/4.jpg"",""time"":201},{""stimulus"":""img/red_wl/5.jpg"",""time"":251},{""stimulus"":""img/red_wl/6.jpg"",""time"":302},{""stimulus"":""img/red_wl/7.jpg"",""time"":352},{""stimulus"":""img/red_wl/8.jpg"",""time"":402},{""stimulus"":""img/red_wl/9.jpg"",""time"":453},{""stimulus"":""img/red_wl/10.jpg"",""time"":503},{""stimulus"":""img/red_wl/11.jpg"",""time"":553}]","[]"
"","","","choice","6320e37620d067c7d322246a","bdp_lott","Mon Apr 10 2023 21:16:26 GMT-0400 (Eastern Daylight Time)","255580","green","red","image-keyboard-response","177","138379","0.0-5.0-1.86","","245","","img/red_wl/choose11.jpg","2","139","red","0.5","0.1","0.1","l","",""
"","","","","6320e37620d067c7d322246a","bdp_lott","Mon Apr 10 2023 21:16:26 GMT-0400 (Eastern Daylight Time)","255580","green","red","animation","178","138983","0.0-5.0-2.86","","","","","","139","","","","","","[{""stimulus"":""img/red_wl/1.jpg"",""time"":51},{""stimulus"":""img/red_wl/2.jpg"",""time"":101},{""stimulus"":""img/red_wl/3.jpg"",""time"":151},{""stimulus"":""img/red_wl/4.jpg"",""time"":202},{""stimulus"":""img/red_wl/5.jpg"",""time"":252},{""stimulus"":""img/red_wl/6.jpg"",""time"":302},{""stimulus"":""img/red_wl/7.jpg"",""time"":353},{""stimulus"":""img/red_wl/8.jpg"",""time"":403},{""stimulus"":""img/red_wl/9.jpg"",""time"":453},{""stimulus"":""img/red_wl/10.jpg"",""time"":503},{""stimulus"":""img/red_wl/11.jpg"",""time"":554}]","[]"
"","","","choice","6320e37620d067c7d322246a","bdp_lott","Mon Apr 10 2023 21:16:26 GMT-0400 (Eastern Daylight Time)","255580","green","red","image-keyboard-response","179","139166","0.0-5.0-1.87","","183","","img/red_wl/choose11.jpg","2","138","red","0.5","0.1","0.1","l","",""
"","","","","6320e37620d067c7d322246a","bdp_lott","Mon Apr 10 2023 21:16:26 GMT-0400 (Eastern Daylight Time)","255580","green","red","animation","180","139769","0.0-5.0-2.87","","","","","","138","","","","","","[{""stimulus"":""img/red_wl/1.jpg"",""time"":50},{""stimulus"":""img/red_wl/2.jpg"",""time"":101},{""stimulus"":""img/red_wl/3.jpg"",""time"":151},{""stimulus"":""img/red_wl/4.jpg"",""time"":202},{""stimulus"":""img/red_wl/5.jpg"",""time"":252},{""stimulus"":""img/red_wl/6.jpg"",""time"":302},{""stimulus"":""img/red_wl/7.jpg"",""time"":352},{""stimulus"":""img/red_wl/8.jpg"",""time"":403},{""stimulus"":""img/red_wl/9.jpg"",""time"":453},{""stimulus"":""img/red_wl/10.jpg"",""time"":503},{""stimulus"":""img/red_wl/11.jpg"",""time"":553}]","[]"
"","","","choice","6320e37620d067c7d322246a","bdp_lott","Mon Apr 10 2023 21:16:26 GMT-0400 (Eastern Daylight Time)","255580","green","red","image-keyboard-response","181","140073","0.0-5.0-1.88","","304","","img/red_wl/choose11.jpg","1","137","green","0.5","0.1","0.5","w","",""
"","","","","6320e37620d067c7d322246a","bdp_lott","Mon Apr 10 2023 21:16:26 GMT-0400 (Eastern Daylight Time)","255580","green","red","animation","182","140676","0.0-5.0-2.88","","","","","","137","","","","","","[{""stimulus"":""img/green_wl/1.jpg"",""time"":51},{""stimulus"":""img/green_wl/2.jpg"",""time"":101},{""stimulus"":""img/green_wl/3.jpg"",""time"":151},{""stimulus"":""img/green_wl/4.jpg"",""time"":201},{""stimulus"":""img/green_wl/5.jpg"",""time"":252},{""stimulus"":""img/green_wl/6.jpg"",""time"":302},{""stimulus"":""img/green_wl/7.jpg"",""time"":352},{""stimulus"":""img/green_wl/8.jpg"",""time"":402},{""stimulus"":""img/green_wl/9.jpg"",""time"":453},{""stimulus"":""img/green_wl/10.jpg"",""time"":503},{""stimulus"":""img/green_wl/11.jpg"",""time"":553}]","[]"
"","","","choice","6320e37620d067c7d322246a","bdp_lott","Mon Apr 10 2023 21:16:26 GMT-0400 (Eastern Daylight Time)","255580","green","red","image-keyboard-response","183","140920","0.0-5.0-1.89","","244","","img/green_wl/choose11.jpg","1","136","green","0.5","0.1","0.5","w","",""
"","","","","6320e37620d067c7d322246a","bdp_lott","Mon Apr 10 2023 21:16:26 GMT-0400 (Eastern Daylight Time)","255580","green","red","animation","184","141523","0.0-5.0-2.89","","","","","","136","","","","","","[{""stimulus"":""img/green_wl/1.jpg"",""time"":51},{""stimulus"":""img/green_wl/2.jpg"",""time"":101},{""stimulus"":""img/green_wl/3.jpg"",""time"":151},{""stimulus"":""img/green_wl/4.jpg"",""time"":201},{""stimulus"":""img/green_wl/5.jpg"",""time"":252},{""stimulus"":""img/green_wl/6.jpg"",""time"":302},{""stimulus"":""img/green_wl/7.jpg"",""time"":352},{""stimulus"":""img/green_wl/8.jpg"",""time"":402},{""stimulus"":""img/green_wl/9.jpg"",""time"":453},{""stimulus"":""img/green_wl/10.jpg"",""time"":502},{""stimulus"":""img/green_wl/11.jpg"",""time"":553}]","[]"
"","","","choice","6320e37620d067c7d322246a","bdp_lott","Mon Apr 10 2023 21:16:26 GMT-0400 (Eastern Daylight Time)","255580","green","red","image-keyboard-response","185","141762","0.0-5.0-1.90","","239","","img/green_wl/choose11.jpg","1","135","green","0.5","0.1","0.5","w","",""
"","","","","6320e37620d067c7d322246a","bdp_lott","Mon Apr 10 2023 21:16:26 GMT-0400 (Eastern Daylight Time)","255580","green","red","animation","186","142365","0.0-5.0-2.90","","","","","","135","","","","","","[{""stimulus"":""img/green_wl/1.jpg"",""time"":51},{""stimulus"":""img/green_wl/2.jpg"",""time"":101},{""stimulus"":""img/green_wl/3.jpg"",""time"":151},{""stimulus"":""img/green_wl/4.jpg"",""time"":201},{""stimulus"":""img/green_wl/5.jpg"",""time"":252},{""stimulus"":""img/green_wl/6.jpg"",""time"":302},{""stimulus"":""img/green_wl/7.jpg"",""time"":352},{""stimulus"":""img/green_wl/8.jpg"",""time"":403},{""stimulus"":""img/green_wl/9.jpg"",""time"":454},{""stimulus"":""img/green_wl/10.jpg"",""time"":504},{""stimulus"":""img/green_wl/11.jpg"",""time"":553}]","[]"
"","","","choice","6320e37620d067c7d322246a","bdp_lott","Mon Apr 10 2023 21:16:26 GMT-0400 (Eastern Daylight Time)","255580","green","red","image-keyboard-response","187","142589","0.0-5.0-1.91","","223","","img/green_wl/choose11.jpg","1","134","green","0.5","0.1","0.5","w","",""
"","","","","6320e37620d067c7d322246a","bdp_lott","Mon Apr 10 2023 21:16:26 GMT-0400 (Eastern Daylight Time)","255580","green","red","animation","188","143191","0.0-5.0-2.91","","","","","","134","","","","","","[{""stimulus"":""img/green_wl/1.jpg"",""time"":50},{""stimulus"":""img/green_wl/2.jpg"",""time"":100},{""stimulus"":""img/green_wl/3.jpg"",""time"":149},{""stimulus"":""img/green_wl/4.jpg"",""time"":200},{""stimulus"":""img/green_wl/5.jpg"",""time"":250},{""stimulus"":""img/green_wl/6.jpg"",""time"":300},{""stimulus"":""img/green_wl/7.jpg"",""time"":350},{""stimulus"":""img/green_wl/8.jpg"",""time"":400},{""stimulus"":""img/green_wl/9.jpg"",""time"":450},{""stimulus"":""img/green_wl/10.jpg"",""time"":501},{""stimulus"":""img/green_wl/11.jpg"",""time"":551}]","[]"
"","","","choice","6320e37620d067c7d322246a","bdp_lott","Mon Apr 10 2023 21:16:26 GMT-0400 (Eastern Daylight Time)","255580","green","red","image-keyboard-response","189","143372","0.0-5.0-1.92","","181","","img/green_wl/choose11.jpg","1","133","green","0.5","0.1","0.5","l","",""
"","","","","6320e37620d067c7d322246a","bdp_lott","Mon Apr 10 2023 21:16:26 GMT-0400 (Eastern Daylight Time)","255580","green","red","animation","190","143974","0.0-5.0-2.92","","","","","","133","","","","","","[{""stimulus"":""img/green_ll/1.jpg"",""time"":51},{""stimulus"":""img/green_ll/2.jpg"",""time"":101},{""stimulus"":""img/green_ll/3.jpg"",""time"":151},{""stimulus"":""img/green_ll/4.jpg"",""time"":201},{""stimulus"":""img/green_ll/5.jpg"",""time"":251},{""stimulus"":""img/green_ll/6.jpg"",""time"":301},{""stimulus"":""img/green_ll/7.jpg"",""time"":351},{""stimulus"":""img/green_ll/8.jpg"",""time"":401},{""stimulus"":""img/green_ll/9.jpg"",""time"":451},{""stimulus"":""img/green_ll/10.jpg"",""time"":501},{""stimulus"":""img/green_ll/11.jpg"",""time"":552}]","[]"
"","","","choice","6320e37620d067c7d322246a","bdp_lott","Mon Apr 10 2023 21:16:26 GMT-0400 (Eastern Daylight Time)","255580","green","red","image-keyboard-response","191","144163","0.0-5.0-1.93","","189","","img/green_ll/choose11.jpg","1","132","green","0.5","0.1","0.5","w","",""
"","","","","6320e37620d067c7d322246a","bdp_lott","Mon Apr 10 2023 21:16:26 GMT-0400 (Eastern Daylight Time)","255580","green","red","animation","192","144765","0.0-5.0-2.93","","","","","","132","","","","","","[{""stimulus"":""img/green_wl/1.jpg"",""time"":51},{""stimulus"":""img/green_wl/2.jpg"",""time"":102},{""stimulus"":""img/green_wl/3.jpg"",""time"":152},{""stimulus"":""img/green_wl/4.jpg"",""time"":202},{""stimulus"":""img/green_wl/5.jpg"",""time"":251},{""stimulus"":""img/green_wl/6.jpg"",""time"":301},{""stimulus"":""img/green_wl/7.jpg"",""time"":351},{""stimulus"":""img/green_wl/8.jpg"",""time"":402},{""stimulus"":""img/green_wl/9.jpg"",""time"":452},{""stimulus"":""img/green_wl/10.jpg"",""time"":502},{""stimulus"":""img/green_wl/11.jpg"",""time"":552}]","[]"
"","","","choice","6320e37620d067c7d322246a","bdp_lott","Mon Apr 10 2023 21:16:26 GMT-0400 (Eastern Daylight Time)","255580","green","red","image-keyboard-response","193","145257","0.0-5.0-1.94","","491","","img/green_wl/choose11.jpg","1","131","green","0.5","0.1","0.5","l","",""
