"event","trial","time","trialtype","subject_id","task","startTime","totalTime","fairMachine","unfairMachine","trial_type","trial_index","time_elapsed","internal_node_id","view_history","rt","success","stimulus","key_press","roundsLeft","chosen","pFairMachWin","pUnfairMachWin","pTrialWin","outcome","animation_sequence","responses"
"focus","0","0","focusevent","63d42387aba51e699ab9ce5c","bdp_lott","Fri Mar 24 2023 21:10:10 GMT-0400 (Eastern Daylight Time)","376747","green","red","","","","","","","","","","","","","","","","",""
"focus","0","0","focusevent","63d42387aba51e699ab9ce5c","bdp_lott","Fri Mar 24 2023 21:10:10 GMT-0400 (Eastern Daylight Time)","376747","green","red","","","","","","","","","","","","","","","","",""
"","","","","63d42387aba51e699ab9ce5c","bdp_lott","Fri Mar 24 2023 21:10:10 GMT-0400 (Eastern Daylight Time)","376747","green","red","pavlovia","0","3","0.0-0.0","","","","","","","","","","","","",""
"","","","","63d42387aba51e699ab9ce5c","bdp_lott","Fri Mar 24 2023 21:10:10 GMT-0400 (Eastern Daylight Time)","376747","green","red","instructions","1","6936","0.0-1.0","[{""page_index"":0,""viewing_time"":6932}]","6932","","","","","","","","","","",""
"fullscreenenter","2","10164","fullscreenenter","63d42387aba51e699ab9ce5c","bdp_lott","Fri Mar 24 2023 21:10:10 GMT-0400 (Eastern Daylight Time)","376747","green","red","","","","","","","","","","","","","","","","",""
"","","","","63d42387aba51e699ab9ce5c","bdp_lott","Fri Mar 24 2023 21:10:10 GMT-0400 (Eastern Daylight Time)","376747","green","red","fullscreen","2","11150","0.0-2.0","","","true","","","","","","","","","",""
"","","","","63d42387aba51e699ab9ce5c","bdp_lott","Fri Mar 24 2023 21:10:10 GMT-0400 (Eastern Daylight Time)","376747","green","red","instructions","3","50443","0.0-4.0","[{""page_index"":0,""viewing_time"":39289}]","39290","","","","","","","","","","",""
"","","","choice","63d42387aba51e699ab9ce5c","bdp_lott","Fri Mar 24 2023 21:10:10 GMT-0400 (Eastern Daylight Time)","376747","green","red","image-keyboard-response","4","56857","0.0-5.0-1.0","","6413","","img/red_ll/initchoose11.jpg","2","225","red","0.5","0.5","0.5","l","",""
"","","","","63d42387aba51e699ab9ce5c","bdp_lott","Fri Mar 24 2023 21:10:10 GMT-0400 (Eastern Daylight Time)","376747","green","red","animation","5","57458","0.0-5.0-2.0","","","","","","225","","","","","","[{""stimulus"":""img/red_ll/1.jpg"",""time"":54},{""stimulus"":""img/red_ll/2.jpg"",""time"":105},{""stimulus"":""img/red_ll/3.jpg"",""time"":157},{""stimulus"":""img/red_ll/4.jpg"",""time"":208},{""stimulus"":""img/red_ll/5.jpg"",""time"":252},{""stimulus"":""img/red_ll/6.jpg"",""time"":301},{""stimulus"":""img/red_ll/7.jpg"",""time"":366},{""stimulus"":""img/red_ll/8.jpg"",""time"":416},{""stimulus"":""img/red_ll/9.jpg"",""time"":466},{""stimulus"":""img/red_ll/10.jpg"",""time"":513},{""stimulus"":""img/red_ll/11.jpg"",""time"":563}]","[]"
"","","","choice","63d42387aba51e699ab9ce5c","bdp_lott","Fri Mar 24 2023 21:10:10 GMT-0400 (Eastern Daylight Time)","376747","green","red","image-keyboard-response","6","60196","0.0-5.0-1.1","","2737","","img/red_ll/choose11.jpg","1","224","green","0.5","0.5","0.5","l","",""
"","","","","63d42387aba51e699ab9ce5c","bdp_lott","Fri Mar 24 2023 21:10:10 GMT-0400 (Eastern Daylight Time)","376747","green","red","animation","7","60797","0.0-5.0-2.1","","","","","","224","","","","","","[{""stimulus"":""img/green_ll/1.jpg"",""time"":54},{""stimulus"":""img/green_ll/2.jpg"",""time"":106},{""stimulus"":""img/green_ll/3.jpg"",""time"":151},{""stimulus"":""img/green_ll/4.jpg"",""time"":201},{""stimulus"":""img/green_ll/5.jpg"",""time"":251},{""stimulus"":""img/green_ll/6.jpg"",""time"":301},{""stimulus"":""img/green_ll/7.jpg"",""time"":367},{""stimulus"":""img/green_ll/8.jpg"",""time"":401},{""stimulus"":""img/green_ll/9.jpg"",""time"":452},{""stimulus"":""img/green_ll/10.jpg"",""time"":503},{""stimulus"":""img/green_ll/11.jpg"",""time"":554}]","[]"
"","","","choice","63d42387aba51e699ab9ce5c","bdp_lott","Fri Mar 24 2023 21:10:10 GMT-0400 (Eastern Daylight Time)","376747","green","red","image-keyboard-response","8","62488","0.0-5.0-1.2","","1691","","img/green_ll/choose11.jpg","2","223","red","0.5","0.5","0.5","w","",""
"","","","","63d42387aba51e699ab9ce5c","bdp_lott","Fri Mar 24 2023 21:10:10 GMT-0400 (Eastern Daylight Time)","376747","green","red","animation","9","63100","0.0-5.0-2.2","","","","","","223","","","","","","[{""stimulus"":""img/red_lw/1.jpg"",""time"":55},{""stimulus"":""img/red_lw/2.jpg"",""time"":108},{""stimulus"":""img/red_lw/3.jpg"",""time"":151},{""stimulus"":""img/red_lw/4.jpg"",""time"":202},{""stimulus"":""img/red_lw/5.jpg"",""time"":254},{""stimulus"":""img/red_lw/6.jpg"",""time"":301},{""stimulus"":""img/red_lw/7.jpg"",""time"":360},{""stimulus"":""img/red_lw/8.jpg"",""time"":412},{""stimulus"":""img/red_lw/9.jpg"",""time"":451},{""stimulus"":""img/red_lw/10.jpg"",""time"":515},{""stimulus"":""img/red_lw/11.jpg"",""time"":562}]","[]"
"","","","choice","63d42387aba51e699ab9ce5c","bdp_lott","Fri Mar 24 2023 21:10:10 GMT-0400 (Eastern Daylight Time)","376747","green","red","image-keyboard-response","10","64714","0.0-5.0-1.3","","1614","","img/red_lw/choose11.jpg","2","222","red","0.5","0.5","0.5","l","",""
"","","","","63d42387aba51e699ab9ce5c","bdp_lott","Fri Mar 24 2023 21:10:10 GMT-0400 (Eastern Daylight Time)","376747","green","red","animation","11","65326","0.0-5.0-2.3","","","","","","222","","","","","","[{""stimulus"":""img/red_ll/1.jpg"",""time"":55},{""stimulus"":""img/red_ll/2.jpg"",""time"":105},{""stimulus"":""img/red_ll/3.jpg"",""time"":151},{""stimulus"":""img/red_ll/4.jpg"",""time"":216},{""stimulus"":""img/red_ll/5.jpg"",""time"":266},{""stimulus"":""img/red_ll/6.jpg"",""time"":315},{""stimulus"":""img/red_ll/7.jpg"",""time"":351},{""stimulus"":""img/red_ll/8.jpg"",""time"":401},{""stimulus"":""img/red_ll/9.jpg"",""time"":451},{""stimulus"":""img/red_ll/10.jpg"",""time"":514},{""stimulus"":""img/red_ll/11.jpg"",""time"":564}]","[]"
"","","","choice","63d42387aba51e699ab9ce5c","bdp_lott","Fri Mar 24 2023 21:10:10 GMT-0400 (Eastern Daylight Time)","376747","green","red","image-keyboard-response","12","66433","0.0-5.0-1.4","","1106","","img/red_ll/choose11.jpg","2","221","red","0.5","0.5","0.5","w","",""
"","","","","63d42387aba51e699ab9ce5c","bdp_lott","Fri Mar 24 2023 21:10:10 GMT-0400 (Eastern Daylight Time)","376747","green","red","animation","13","67050","0.0-5.0-2.4","","","","","","221","","","","","","[{""stimulus"":""img/red_lw/1.jpg"",""time"":63},{""stimulus"":""img/red_lw/2.jpg"",""time"":112},{""stimulus"":""img/red_lw/3.jpg"",""time"":161},{""stimulus"":""img/red_lw/4.jpg"",""time"":211},{""stimulus"":""img/red_lw/5.jpg"",""time"":261},{""stimulus"":""img/red_lw/6.jpg"",""time"":301},{""stimulus"":""img/red_lw/7.jpg"",""time"":366},{""stimulus"":""img/red_lw/8.jpg"",""time"":416},{""stimulus"":""img/red_lw/9.jpg"",""time"":466},{""stimulus"":""img/red_lw/10.jpg"",""time"":516},{""stimulus"":""img/red_lw/11.jpg"",""time"":551}]","[]"
"","","","choice","63d42387aba51e699ab9ce5c","bdp_lott","Fri Mar 24 2023 21:10:10 GMT-0400 (Eastern Daylight Time)","376747","green","red","image-keyboard-response","14","68266","0.0-5.0-1.5","","1216","","img/red_lw/choose11.jpg","2","220","red","0.5","0.5","0.5","w","",""
"","","","","63d42387aba51e699ab9ce5c","bdp_lott","Fri Mar 24 2023 21:10:10 GMT-0400 (Eastern Daylight Time)","376747","green","red","animation","15","68877","0.0-5.0-2.5","","","","","","220","","","","","","[{""stimulus"":""img/red_lw/1.jpg"",""time"":57},{""stimulus"":""img/red_lw/2.jpg"",""time"":107},{""stimulus"":""img/red_lw/3.jpg"",""time"":151},{""stimulus"":""img/red_lw/4.jpg"",""time"":200},{""stimulus"":""img/red_lw/5.jpg"",""time"":266},{""stimulus"":""img/red_lw/6.jpg"",""time"":315},{""stimulus"":""img/red_lw/7.jpg"",""time"":364},{""stimulus"":""img/red_lw/8.jpg"",""time"":414},{""stimulus"":""img/red_lw/9.jpg"",""time"":451},{""stimulus"":""img/red_lw/10.jpg"",""time"":513},{""stimulus"":""img/red_lw/11.jpg"",""time"":561}]","[]"
"","","","choice","63d42387aba51e699ab9ce5c","bdp_lott","Fri Mar 24 2023 21:10:10 GMT-0400 (Eastern Daylight Time)","376747","green","red","image-keyboard-response","16","70194","0.0-5.0-1.6","","1315","","img/red_lw/choose11.jpg","1","219","green","0.5","0.5","0.5","w","",""
"","","","","63d42387aba51e699ab9ce5c","bdp_lott","Fri Mar 24 2023 21:10:10 GMT-0400 (Eastern Daylight Time)","376747","green","red","animation","17","70795","0.0-5.0-2.6","","","","","","219","","","","","","[{""stimulus"":""img/green_ww/1.jpg"",""time"":66},{""stimulus"":""img/green_ww/2.jpg"",""time"":102},{""stimulus"":""img/green_ww/3.jpg"",""time"":151},{""stimulus"":""img/green_ww/4.jpg"",""time"":200},{""stimulus"":""img/green_ww/5.jpg"",""time"":251},{""stimulus"":""img/green_ww/6.jpg"",""time"":315},{""stimulus"":""img/green_ww/7.jpg"",""time"":366},{""stimulus"":""img/green_ww/8.jpg"",""time"":400},{""stimulus"":""img/green_ww/9.jpg"",""time"":451},{""stimulus"":""img/green_ww/10.jpg"",""time"":501},{""stimulus"":""img/green_ww/11.jpg"",""time"":551}]","[]"
"","","","choice","63d42387aba51e699ab9ce5c","bdp_lott","Fri Mar 24 2023 21:10:10 GMT-0400 (Eastern Daylight Time)","376747","green","red","image-keyboard-response","18","72148","0.0-5.0-1.7","","1353","","img/green_ww/choose11.jpg","1","218","green","0.5","0.5","0.5","l","",""
"","","","","63d42387aba51e699ab9ce5c","bdp_lott","Fri Mar 24 2023 21:10:10 GMT-0400 (Eastern Daylight Time)","376747","green","red","animation","19","72751","0.0-5.0-2.7","","","","","","218","","","","","","[{""stimulus"":""img/green_lw/1.jpg"",""time"":53},{""stimulus"":""img/green_lw/2.jpg"",""time"":105},{""stimulus"":""img/green_lw/3.jpg"",""time"":155},{""stimulus"":""img/green_lw/4.jpg"",""time"":204},{""stimulus"":""img/green_lw/5.jpg"",""time"":255},{""stimulus"":""img/green_lw/6.jpg"",""time"":306},{""stimulus"":""img/green_lw/7.jpg"",""time"":356},{""stimulus"":""img/green_lw/8.jpg"",""time"":405},{""stimulus"":""img/green_lw/9.jpg"",""time"":456},{""stimulus"":""img/green_lw/10.jpg"",""time"":504},{""stimulus"":""img/green_lw/11.jpg"",""time"":553}]","[]"
"","","","choice","63d42387aba51e699ab9ce5c","bdp_lott","Fri Mar 24 2023 21:10:10 GMT-0400 (Eastern Daylight Time)","376747","green","red","image-keyboard-response","20","73542","0.0-5.0-1.8","","791","","img/green_lw/choose11.jpg","2","217","red","0.5","0.5","0.5","l","",""
"","","","","63d42387aba51e699ab9ce5c","bdp_lott","Fri Mar 24 2023 21:10:10 GMT-0400 (Eastern Daylight Time)","376747","green","red","animation","21","74142","0.0-5.0-2.8","","","","","","217","","","","","","[{""stimulus"":""img/red_ll/1.jpg"",""time"":63},{""stimulus"":""img/red_ll/2.jpg"",""time"":113},{""stimulus"":""img/red_ll/3.jpg"",""time"":151},{""stimulus"":""img/red_ll/4.jpg"",""time"":201},{""stimulus"":""img/red_ll/5.jpg"",""time"":266},{""stimulus"":""img/red_ll/6.jpg"",""time"":301},{""stimulus"":""img/red_ll/7.jpg"",""time"":352},{""stimulus"":""img/red_ll/8.jpg"",""time"":401},{""stimulus"":""img/red_ll/9.jpg"",""time"":465},{""stimulus"":""img/red_ll/10.jpg"",""time"":502},{""stimulus"":""img/red_ll/11.jpg"",""time"":552}]","[]"
"","","","choice","63d42387aba51e699ab9ce5c","bdp_lott","Fri Mar 24 2023 21:10:10 GMT-0400 (Eastern Daylight Time)","376747","green","red","image-keyboard-response","22","74952","0.0-5.0-1.9","","808","","img/red_ll/choose11.jpg","1","216","green","0.5","0.5","0.5","l","",""
"","","","","63d42387aba51e699ab9ce5c","bdp_lott","Fri Mar 24 2023 21:10:10 GMT-0400 (Eastern Daylight Time)","376747","green","red","animation","23","75562","0.0-5.0-2.9","","","","","","216","","","","","","[{""stimulus"":""img/green_ll/1.jpg"",""time"":61},{""stimulus"":""img/green_ll/2.jpg"",""time"":112},{""stimulus"":""img/green_ll/3.jpg"",""time"":155},{""stimulus"":""img/green_ll/4.jpg"",""time"":204},{""stimulus"":""img/green_ll/5.jpg"",""time"":254},{""stimulus"":""img/green_ll/6.jpg"",""time"":301},{""stimulus"":""img/green_ll/7.jpg"",""time"":351},{""stimulus"":""img/green_ll/8.jpg"",""time"":401},{""stimulus"":""img/green_ll/9.jpg"",""time"":465},{""stimulus"":""img/green_ll/10.jpg"",""time"":513},{""stimulus"":""img/green_ll/11.jpg"",""time"":561}]","[]"
"","","","choice","63d42387aba51e699ab9ce5c","bdp_lott","Fri Mar 24 2023 21:10:10 GMT-0400 (Eastern Daylight Time)","376747","green","red","image-keyboard-response","24","76340","0.0-5.0-1.10","","777","","img/green_ll/choose11.jpg","1","215","green","0.5","0.5","0.5","l","",""
"","","","","63d42387aba51e699ab9ce5c","bdp_lott","Fri Mar 24 2023 21:10:10 GMT-0400 (Eastern Daylight Time)","376747","green","red","animation","25","76954","0.0-5.0-2.10","","","","","","215","","","","","","[{""stimulus"":""img/green_ll/1.jpg"",""time"":61},{""stimulus"":""img/green_ll/2.jpg"",""time"":103},{""stimulus"":""img/green_ll/3.jpg"",""time"":152},{""stimulus"":""img/green_ll/4.jpg"",""time"":201},{""stimulus"":""img/green_ll/5.jpg"",""time"":251},{""stimulus"":""img/green_ll/6.jpg"",""time"":302},{""stimulus"":""img/green_ll/7.jpg"",""time"":351},{""stimulus"":""img/green_ll/8.jpg"",""time"":416},{""stimulus"":""img/green_ll/9.jpg"",""time"":451},{""stimulus"":""img/green_ll/10.jpg"",""time"":502},{""stimulus"":""img/green_ll/11.jpg"",""time"":566}]","[]"
"","","","choice","63d42387aba51e699ab9ce5c","bdp_lott","Fri Mar 24 2023 21:10:10 GMT-0400 (Eastern Daylight Time)","376747","green","red","image-keyboard-response","26","77683","0.0-5.0-1.11","","727","","img/green_ll/choose11.jpg","1","214","green","0.5","0.5","0.5","l","",""
"","","","","63d42387aba51e699ab9ce5c","bdp_lott","Fri Mar 24 2023 21:10:10 GMT-0400 (Eastern Daylight Time)","376747","green","red","animation","27","78296","0.0-5.0-2.11","","","","","","214","","","","","","[{""stimulus"":""img/green_ll/1.jpg"",""time"":64},{""stimulus"":""img/green_ll/2.jpg"",""time"":115},{""stimulus"":""img/green_ll/3.jpg"",""time"":151},{""stimulus"":""img/green_ll/4.jpg"",""time"":214},{""stimulus"":""img/green_ll/5.jpg"",""time"":262},{""stimulus"":""img/green_ll/6.jpg"",""time"":310},{""stimulus"":""img/green_ll/7.jpg"",""time"":350},{""stimulus"":""img/green_ll/8.jpg"",""time"":400},{""stimulus"":""img/green_ll/9.jpg"",""time"":465},{""stimulus"":""img/green_ll/10.jpg"",""time"":515},{""stimulus"":""img/green_ll/11.jpg"",""time"":565}]","[]"
"","","","choice","63d42387aba51e699ab9ce5c","bdp_lott","Fri Mar 24 2023 21:10:10 GMT-0400 (Eastern Daylight Time)","376747","green","red","image-keyboard-response","28","79082","0.0-5.0-1.12","","786","","img/green_ll/choose11.jpg","2","213","red","0.5","0.5","0.5","w","",""
"","","","","63d42387aba51e699ab9ce5c","bdp_lott","Fri Mar 24 2023 21:10:10 GMT-0400 (Eastern Daylight Time)","376747","green","red","animation","29","79696","0.0-5.0-2.12","","","","","","213","","","","","","[{""stimulus"":""img/red_lw/1.jpg"",""time"":55},{""stimulus"":""img/red_lw/2.jpg"",""time"":106},{""stimulus"":""img/red_lw/3.jpg"",""time"":151},{""stimulus"":""img/red_lw/4.jpg"",""time"":202},{""stimulus"":""img/red_lw/5.jpg"",""time"":251},{""stimulus"":""img/red_lw/6.jpg"",""time"":316},{""stimulus"":""img/red_lw/7.jpg"",""time"":364},{""stimulus"":""img/red_lw/8.jpg"",""time"":415},{""stimulus"":""img/red_lw/9.jpg"",""time"":464},{""stimulus"":""img/red_lw/10.jpg"",""time"":501},{""stimulus"":""img/red_lw/11.jpg"",""time"":567}]","[]"
"","","","choice","63d42387aba51e699ab9ce5c","bdp_lott","Fri Mar 24 2023 21:10:10 GMT-0400 (Eastern Daylight Time)","376747","green","red","image-keyboard-response","30","80822","0.0-5.0-1.13","","1125","","img/red_lw/choose11.jpg","2","212","red","0.5","0.5","0.5","w","",""
"","","","","63d42387aba51e699ab9ce5c","bdp_lott","Fri Mar 24 2023 21:10:10 GMT-0400 (Eastern Daylight Time)","376747","green","red","animation","31","81423","0.0-5.0-2.13","","","","","","212","","","","","","[{""stimulus"":""img/red_lw/1.jpg"",""time"":65},{""stimulus"":""img/red_lw/2.jpg"",""time"":111},{""stimulus"":""img/red_lw/3.jpg"",""time"":151},{""stimulus"":""img/red_lw/4.jpg"",""time"":201},{""stimulus"":""img/red_lw/5.jpg"",""time"":267},{""stimulus"":""img/red_lw/6.jpg"",""time"":300},{""stimulus"":""img/red_lw/7.jpg"",""time"":365},{""stimulus"":""img/red_lw/8.jpg"",""time"":416},{""stimulus"":""img/red_lw/9.jpg"",""time"":451},{""stimulus"":""img/red_lw/10.jpg"",""time"":516},{""stimulus"":""img/red_lw/11.jpg"",""time"":566}]","[]"
"","","","choice","63d42387aba51e699ab9ce5c","bdp_lott","Fri Mar 24 2023 21:10:10 GMT-0400 (Eastern Daylight Time)","376747","green","red","image-keyboard-response","32","82394","0.0-5.0-1.14","","971","","img/red_lw/choose11.jpg","2","211","red","0.5","0.5","0.5","l","",""
"","","","","63d42387aba51e699ab9ce5c","bdp_lott","Fri Mar 24 2023 21:10:10 GMT-0400 (Eastern Daylight Time)","376747","green","red","animation","33","82995","0.0-5.0-2.14","","","","","","211","","","","","","[{""stimulus"":""img/red_ll/1.jpg"",""time"":52},{""stimulus"":""img/red_ll/2.jpg"",""time"":101},{""stimulus"":""img/red_ll/3.jpg"",""time"":151},{""stimulus"":""img/red_ll/4.jpg"",""time"":201},{""stimulus"":""img/red_ll/5.jpg"",""time"":251},{""stimulus"":""img/red_ll/6.jpg"",""time"":316},{""stimulus"":""img/red_ll/7.jpg"",""time"":364},{""stimulus"":""img/red_ll/8.jpg"",""time"":414},{""stimulus"":""img/red_ll/9.jpg"",""time"":452},{""stimulus"":""img/red_ll/10.jpg"",""time"":501},{""stimulus"":""img/red_ll/11.jpg"",""time"":566}]","[]"
"","","","choice","63d42387aba51e699ab9ce5c","bdp_lott","Fri Mar 24 2023 21:10:10 GMT-0400 (Eastern Daylight Time)","376747","green","red","image-keyboard-response","34","83775","0.0-5.0-1.15","","780","","img/red_ll/choose11.jpg","1","210","green","0.5","0.5","0.5","w","",""
"","","","","63d42387aba51e699ab9ce5c","bdp_lott","Fri Mar 24 2023 21:10:10 GMT-0400 (Eastern Daylight Time)","376747","green","red","animation","35","84388","0.0-5.0-2.15","","","","","","210","","","","","","[{""stimulus"":""img/green_wl/1.jpg"",""time"":59},{""stimulus"":""img/green_wl/2.jpg"",""time"":113},{""stimulus"":""img/green_wl/3.jpg"",""time"":156},{""stimulus"":""img/green_wl/4.jpg"",""time"":202},{""stimulus"":""img/green_wl/5.jpg"",""time"":252},{""stimulus"":""img/green_wl/6.jpg"",""time"":316},{""stimulus"":""img/green_wl/7.jpg"",""time"":351},{""stimulus"":""img/green_wl/8.jpg"",""time"":416},{""stimulus"":""img/green_wl/9.jpg"",""time"":465},{""stimulus"":""img/green_wl/10.jpg"",""time"":501},{""stimulus"":""img/green_wl/11.jpg"",""time"":552}]","[]"
"","","","choice","63d42387aba51e699ab9ce5c","bdp_lott","Fri Mar 24 2023 21:10:10 GMT-0400 (Eastern Daylight Time)","376747","green","red","image-keyboard-response","36","85276","0.0-5.0-1.16","","887","","img/green_wl/choose11.jpg","1","209","green","0.5","0.5","0.5","l","",""
"","","","","63d42387aba51e699ab9ce5c","bdp_lott","Fri Mar 24 2023 21:10:10 GMT-0400 (Eastern Daylight Time)","376747","green","red","animation","37","85894","0.0-5.0-2.16","","","","","","209","","","","","","[{""stimulus"":""img/green_ll/1.jpg"",""time"":66},{""stimulus"":""img/green_ll/2.jpg"",""time"":116},{""stimulus"":""img/green_ll/3.jpg"",""time"":150},{""stimulus"":""img/green_ll/4.jpg"",""time"":216},{""stimulus"":""img/green_ll/5.jpg"",""time"":263},{""stimulus"":""img/green_ll/6.jpg"",""time"":312},{""stimulus"":""img/green_ll/7.jpg"",""time"":351},{""stimulus"":""img/green_ll/8.jpg"",""time"":418},{""stimulus"":""img/green_ll/9.jpg"",""time"":450},{""stimulus"":""img/green_ll/10.jpg"",""time"":515},{""stimulus"":""img/green_ll/11.jpg"",""time"":562}]","[]"
"","","","choice","63d42387aba51e699ab9ce5c","bdp_lott","Fri Mar 24 2023 21:10:10 GMT-0400 (Eastern Daylight Time)","376747","green","red","image-keyboard-response","38","86695","0.0-5.0-1.17","","800","","img/green_ll/choose11.jpg","2","208","red","0.5","0.5","0.5","l","",""
"","","","","63d42387aba51e699ab9ce5c","bdp_lott","Fri Mar 24 2023 21:10:10 GMT-0400 (Eastern Daylight Time)","376747","green","red","animation","39","87305","0.0-5.0-2.17","","","","","","208","","","","","","[{""stimulus"":""img/red_ll/1.jpg"",""time"":53},{""stimulus"":""img/red_ll/2.jpg"",""time"":103},{""stimulus"":""img/red_ll/3.jpg"",""time"":152},{""stimulus"":""img/red_ll/4.jpg"",""time"":200},{""stimulus"":""img/red_ll/5.jpg"",""time"":251},{""stimulus"":""img/red_ll/6.jpg"",""time"":318},{""stimulus"":""img/red_ll/7.jpg"",""time"":365},{""stimulus"":""img/red_ll/8.jpg"",""time"":415},{""stimulus"":""img/red_ll/9.jpg"",""time"":463},{""stimulus"":""img/red_ll/10.jpg"",""time"":512},{""stimulus"":""img/red_ll/11.jpg"",""time"":562}]","[]"
"","","","choice","63d42387aba51e699ab9ce5c","bdp_lott","Fri Mar 24 2023 21:10:10 GMT-0400 (Eastern Daylight Time)","376747","green","red","image-keyboard-response","40","88043","0.0-5.0-1.18","","737","","img/red_ll/choose11.jpg","1","207","green","0.5","0.5","0.5","l","",""
"","","","","63d42387aba51e699ab9ce5c","bdp_lott","Fri Mar 24 2023 21:10:10 GMT-0400 (Eastern Daylight Time)","376747","green","red","animation","41","88644","0.0-5.0-2.18","","","","","","207","","","","","","[{""stimulus"":""img/green_ll/1.jpg"",""time"":51},{""stimulus"":""img/green_ll/2.jpg"",""time"":116},{""stimulus"":""img/green_ll/3.jpg"",""time"":167},{""stimulus"":""img/green_ll/4.jpg"",""time"":201},{""stimulus"":""img/green_ll/5.jpg"",""time"":251},{""stimulus"":""img/green_ll/6.jpg"",""time"":317},{""stimulus"":""img/green_ll/7.jpg"",""time"":367},{""stimulus"":""img/green_ll/8.jpg"",""time"":417},{""stimulus"":""img/green_ll/9.jpg"",""time"":452},{""stimulus"":""img/green_ll/10.jpg"",""time"":501},{""stimulus"":""img/green_ll/11.jpg"",""time"":552}]","[]"
"","","","choice","63d42387aba51e699ab9ce5c","bdp_lott","Fri Mar 24 2023 21:10:10 GMT-0400 (Eastern Daylight Time)","376747","green","red","image-keyboard-response","42","89576","0.0-5.0-1.19","","932","","img/green_ll/choose11.jpg","1","206","green","0.5","0.5","0.5","l","",""
"","","","","63d42387aba51e699ab9ce5c","bdp_lott","Fri Mar 24 2023 21:10:10 GMT-0400 (Eastern Daylight Time)","376747","green","red","animation","43","90176","0.0-5.0-2.19","","","","","","206","","","","","","[{""stimulus"":""img/green_ll/1.jpg"",""time"":65},{""stimulus"":""img/green_ll/2.jpg"",""time"":115},{""stimulus"":""img/green_ll/3.jpg"",""time"":151},{""stimulus"":""img/green_ll/4.jpg"",""time"":216},{""stimulus"":""img/green_ll/5.jpg"",""time"":266},{""stimulus"":""img/green_ll/6.jpg"",""time"":316},{""stimulus"":""img/green_ll/7.jpg"",""time"":365},{""stimulus"":""img/green_ll/8.jpg"",""time"":414},{""stimulus"":""img/green_ll/9.jpg"",""time"":463},{""stimulus"":""img/green_ll/10.jpg"",""time"":512},{""stimulus"":""img/green_ll/11.jpg"",""time"":551}]","[]"
"","","","choice","63d42387aba51e699ab9ce5c","bdp_lott","Fri Mar 24 2023 21:10:10 GMT-0400 (Eastern Daylight Time)","376747","green","red","image-keyboard-response","44","90957","0.0-5.0-1.20","","780","","img/green_ll/choose11.jpg","1","205","green","0.5","0.5","0.5","w","",""
"","","","","63d42387aba51e699ab9ce5c","bdp_lott","Fri Mar 24 2023 21:10:10 GMT-0400 (Eastern Daylight Time)","376747","green","red","animation","45","91574","0.0-5.0-2.20","","","","","","205","","","","","","[{""stimulus"":""img/green_wl/1.jpg"",""time"":58},{""stimulus"":""img/green_wl/2.jpg"",""time"":108},{""stimulus"":""img/green_wl/3.jpg"",""time"":157},{""stimulus"":""img/green_wl/4.jpg"",""time"":206},{""stimulus"":""img/green_wl/5.jpg"",""time"":255},{""stimulus"":""img/green_wl/6.jpg"",""time"":301},{""stimulus"":""img/green_wl/7.jpg"",""time"":367},{""stimulus"":""img/green_wl/8.jpg"",""time"":401},{""stimulus"":""img/green_wl/9.jpg"",""time"":469},{""stimulus"":""img/green_wl/10.jpg"",""time"":501},{""stimulus"":""img/green_wl/11.jpg"",""time"":551}]","[]"
"","","","choice","63d42387aba51e699ab9ce5c","bdp_lott","Fri Mar 24 2023 21:10:10 GMT-0400 (Eastern Daylight Time)","376747","green","red","image-keyboard-response","46","92561","0.0-5.0-1.21","","986","","img/green_wl/choose11.jpg","1","204","green","0.5","0.5","0.5","w","",""
"","","","","63d42387aba51e699ab9ce5c","bdp_lott","Fri Mar 24 2023 21:10:10 GMT-0400 (Eastern Daylight Time)","376747","green","red","animation","47","93162","0.0-5.0-2.21","","","","","","204","","","","","","[{""stimulus"":""img/green_wl/1.jpg"",""time"":56},{""stimulus"":""img/green_wl/2.jpg"",""time"":115},{""stimulus"":""img/green_wl/3.jpg"",""time"":151},{""stimulus"":""img/green_wl/4.jpg"",""time"":202},{""stimulus"":""img/green_wl/5.jpg"",""time"":256},{""stimulus"":""img/green_wl/6.jpg"",""time"":303},{""stimulus"":""img/green_wl/7.jpg"",""time"":354},{""stimulus"":""img/green_wl/8.jpg"",""time"":406},{""stimulus"":""img/green_wl/9.jpg"",""time"":453},{""stimulus"":""img/green_wl/10.jpg"",""time"":501},{""stimulus"":""img/green_wl/11.jpg"",""time"":552}]","[]"
"","","","choice","63d42387aba51e699ab9ce5c","bdp_lott","Fri Mar 24 2023 21:10:10 GMT-0400 (Eastern Daylight Time)","376747","green","red","image-keyboard-response","48","94130","0.0-5.0-1.22","","968","","img/green_wl/choose11.jpg","1","203","green","0.5","0.5","0.5","w","",""
"","","","","63d42387aba51e699ab9ce5c","bdp_lott","Fri Mar 24 2023 21:10:10 GMT-0400 (Eastern Daylight Time)","376747","green","red","animation","49","94733","0.0-5.0-2.22","","","","","","203","","","","","","[{""stimulus"":""img/green_wl/1.jpg"",""time"":59},{""stimulus"":""img/green_wl/2.jpg"",""time"":109},{""stimulus"":""img/green_wl/3.jpg"",""time"":159},{""stimulus"":""img/green_wl/4.jpg"",""time"":207},{""stimulus"":""img/green_wl/5.jpg"",""time"":251},{""stimulus"":""img/green_wl/6.jpg"",""time"":301},{""stimulus"":""img/green_wl/7.jpg"",""time"":351},{""stimulus"":""img/green_wl/8.jpg"",""time"":415},{""stimulus"":""img/green_wl/9.jpg"",""time"":451},{""stimulus"":""img/green_wl/10.jpg"",""time"":501},{""stimulus"":""img/green_wl/11.jpg"",""time"":551}]","[]"
"","","","choice","63d42387aba51e699ab9ce5c","bdp_lott","Fri Mar 24 2023 21:10:10 GMT-0400 (Eastern Daylight Time)","376747","green","red","image-keyboard-response","50","95532","0.0-5.0-1.23","","799","","img/green_wl/choose11.jpg","1","202","green","0.5","0.5","0.5","l","",""
"","","","","63d42387aba51e699ab9ce5c","bdp_lott","Fri Mar 24 2023 21:10:10 GMT-0400 (Eastern Daylight Time)","376747","green","red","animation","51","96134","0.0-5.0-2.23","","","","","","202","","","","","","[{""stimulus"":""img/green_ll/1.jpg"",""time"":64},{""stimulus"":""img/green_ll/2.jpg"",""time"":114},{""stimulus"":""img/green_ll/3.jpg"",""time"":151},{""stimulus"":""img/green_ll/4.jpg"",""time"":202},{""stimulus"":""img/green_ll/5.jpg"",""time"":252},{""stimulus"":""img/green_ll/6.jpg"",""time"":302},{""stimulus"":""img/green_ll/7.jpg"",""time"":352},{""stimulus"":""img/green_ll/8.jpg"",""time"":417},{""stimulus"":""img/green_ll/9.jpg"",""time"":467},{""stimulus"":""img/green_ll/10.jpg"",""time"":501},{""stimulus"":""img/green_ll/11.jpg"",""time"":551}]","[]"
"","","","choice","63d42387aba51e699ab9ce5c","bdp_lott","Fri Mar 24 2023 21:10:10 GMT-0400 (Eastern Daylight Time)","376747","green","red","image-keyboard-response","52","96987","0.0-5.0-1.24","","852","","img/green_ll/choose11.jpg","2","201","red","0.5","0.5","0.5","w","",""
"","","","","63d42387aba51e699ab9ce5c","bdp_lott","Fri Mar 24 2023 21:10:10 GMT-0400 (Eastern Daylight Time)","376747","green","red","animation","53","97603","0.0-5.0-2.24","","","","","","201","","","","","","[{""stimulus"":""img/red_lw/1.jpg"",""time"":54},{""stimulus"":""img/red_lw/2.jpg"",""time"":104},{""stimulus"":""img/red_lw/3.jpg"",""time"":153},{""stimulus"":""img/red_lw/4.jpg"",""time"":201},{""stimulus"":""img/red_lw/5.jpg"",""time"":251},{""stimulus"":""img/red_lw/6.jpg"",""time"":301},{""stimulus"":""img/red_lw/7.jpg"",""time"":366},{""stimulus"":""img/red_lw/8.jpg"",""time"":414},{""stimulus"":""img/red_lw/9.jpg"",""time"":451},{""stimulus"":""img/red_lw/10.jpg"",""time"":500},{""stimulus"":""img/red_lw/11.jpg"",""time"":566}]","[]"
"","","","choice","63d42387aba51e699ab9ce5c","bdp_lott","Fri Mar 24 2023 21:10:10 GMT-0400 (Eastern Daylight Time)","376747","green","red","image-keyboard-response","54","98477","0.0-5.0-1.25","","874","","img/red_lw/choose11.jpg","2","200","red","0.5","0.5","0.5","w","",""
"","","","","63d42387aba51e699ab9ce5c","bdp_lott","Fri Mar 24 2023 21:10:10 GMT-0400 (Eastern Daylight Time)","376747","green","red","animation","55","99093","0.0-5.0-2.25","","","","","","200","","","","","","[{""stimulus"":""img/red_lw/1.jpg"",""time"":61},{""stimulus"":""img/red_lw/2.jpg"",""time"":100},{""stimulus"":""img/red_lw/3.jpg"",""time"":165},{""stimulus"":""img/red_lw/4.jpg"",""time"":215},{""stimulus"":""img/red_lw/5.jpg"",""time"":250},{""stimulus"":""img/red_lw/6.jpg"",""time"":315},{""stimulus"":""img/red_lw/7.jpg"",""time"":364},{""stimulus"":""img/red_lw/8.jpg"",""time"":413},{""stimulus"":""img/red_lw/9.jpg"",""time"":450},{""stimulus"":""img/red_lw/10.jpg"",""time"":516},{""stimulus"":""img/red_lw/11.jpg"",""time"":565}]","[]"
"","","","choice","63d42387aba51e699ab9ce5c","bdp_lott","Fri Mar 24 2023 21:10:10 GMT-0400 (Eastern Daylight Time)","376747","green","red","image-keyboard-response","56","100091","0.0-5.0-1.26","","998","","img/red_lw/choose11.jpg","2","199","red","0.5","0.5","0.5","l","",""
"","","","","63d42387aba51e699ab9ce5c","bdp_lott","Fri Mar 24 2023 21:10:10 GMT-0400 (Eastern Daylight Time)","376747","green","red","animation","57","100707","0.0-5.0-2.26","","","","","","199","","","","","","[{""stimulus"":""img/red_ll/1.jpg"",""time"":63},{""stimulus"":""img/red_ll/2.jpg"",""time"":107},{""stimulus"":""img/red_ll/3.jpg"",""time"":156},{""stimulus"":""img/red_ll/4.jpg"",""time"":201},{""stimulus"":""img/red_ll/5.jpg"",""time"":251},{""stimulus"":""img/red_ll/6.jpg"",""time"":316},{""stimulus"":""img/red_ll/7.jpg"",""time"":364},{""stimulus"":""img/red_ll/8.jpg"",""time"":413},{""stimulus"":""img/red_ll/9.jpg"",""time"":463},{""stimulus"":""img/red_ll/10.jpg"",""time"":512},{""stimulus"":""img/red_ll/11.jpg"",""time"":551}]","[]"
"","","","choice","63d42387aba51e699ab9ce5c","bdp_lott","Fri Mar 24 2023 21:10:10 GMT-0400 (Eastern Daylight Time)","376747","green","red","image-keyboard-response","58","101639","0.0-5.0-1.27","","931","","img/red_ll/choose11.jpg","2","198","red","0.5","0.5","0.5","w","",""
"","","","","63d42387aba51e699ab9ce5c","bdp_lott","Fri Mar 24 2023 21:10:10 GMT-0400 (Eastern Daylight Time)","376747","green","red","animation","59","102255","0.0-5.0-2.27","","","","","","198","","","","","","[{""stimulus"":""img/red_lw/1.jpg"",""time"":65},{""stimulus"":""img/red_lw/2.jpg"",""time"":111},{""stimulus"":""img/red_lw/3.jpg"",""time"":160},{""stimulus"":""img/red_lw/4.jpg"",""time"":210},{""stimulus"":""img/red_lw/5.jpg"",""time"":259},{""stimulus"":""img/red_lw/6.jpg"",""time"":309},{""stimulus"":""img/red_lw/7.jpg"",""time"":357},{""stimulus"":""img/red_lw/8.jpg"",""time"":406},{""stimulus"":""img/red_lw/9.jpg"",""time"":455},{""stimulus"":""img/red_lw/10.jpg"",""time"":501},{""stimulus"":""img/red_lw/11.jpg"",""time"":566}]","[]"
"","","","choice","63d42387aba51e699ab9ce5c","bdp_lott","Fri Mar 24 2023 21:10:10 GMT-0400 (Eastern Daylight Time)","376747","green","red","image-keyboard-response","60","103045","0.0-5.0-1.28","","790","","img/red_lw/choose11.jpg","2","197","red","0.5","0.5","0.5","l","",""
"","","","","63d42387aba51e699ab9ce5c","bdp_lott","Fri Mar 24 2023 21:10:10 GMT-0400 (Eastern Daylight Time)","376747","green","red","animation","61","103647","0.0-5.0-2.28","","","","","","197","","","","","","[{""stimulus"":""img/red_ll/1.jpg"",""time"":65},{""stimulus"":""img/red_ll/2.jpg"",""time"":102},{""stimulus"":""img/red_ll/3.jpg"",""time"":152},{""stimulus"":""img/red_ll/4.jpg"",""time"":202},{""stimulus"":""img/red_ll/5.jpg"",""time"":265},{""stimulus"":""img/red_ll/6.jpg"",""time"":314},{""stimulus"":""img/red_ll/7.jpg"",""time"":363},{""stimulus"":""img/red_ll/8.jpg"",""time"":413},{""stimulus"":""img/red_ll/9.jpg"",""time"":451},{""stimulus"":""img/red_ll/10.jpg"",""time"":501},{""stimulus"":""img/red_ll/11.jpg"",""time"":552}]","[]"
"","","","choice","63d42387aba51e699ab9ce5c","bdp_lott","Fri Mar 24 2023 21:10:10 GMT-0400 (Eastern Daylight Time)","376747","green","red","image-keyboard-response","62","104482","0.0-5.0-1.29","","835","","img/red_ll/choose11.jpg","2","196","red","0.5","0.5","0.5","l","",""
"","","","","63d42387aba51e699ab9ce5c","bdp_lott","Fri Mar 24 2023 21:10:10 GMT-0400 (Eastern Daylight Time)","376747","green","red","animation","63","105097","0.0-5.0-2.29","","","","","","196","","","","","","[{""stimulus"":""img/red_ll/1.jpg"",""time"":53},{""stimulus"":""img/red_ll/2.jpg"",""time"":103},{""stimulus"":""img/red_ll/3.jpg"",""time"":151},{""stimulus"":""img/red_ll/4.jpg"",""time"":201},{""stimulus"":""img/red_ll/5.jpg"",""time"":251},{""stimulus"":""img/red_ll/6.jpg"",""time"":301},{""stimulus"":""img/red_ll/7.jpg"",""time"":351},{""stimulus"":""img/red_ll/8.jpg"",""time"":401},{""stimulus"":""img/red_ll/9.jpg"",""time"":451},{""stimulus"":""img/red_ll/10.jpg"",""time"":517},{""stimulus"":""img/red_ll/11.jpg"",""time"":551}]","[]"
"","","","choice","63d42387aba51e699ab9ce5c","bdp_lott","Fri Mar 24 2023 21:10:10 GMT-0400 (Eastern Daylight Time)","376747","green","red","image-keyboard-response","64","105986","0.0-5.0-1.30","","889","","img/red_ll/choose11.jpg","1","195","green","0.5","0.5","0.5","w","",""
"","","","","63d42387aba51e699ab9ce5c","bdp_lott","Fri Mar 24 2023 21:10:10 GMT-0400 (Eastern Daylight Time)","376747","green","red","animation","65","106598","0.0-5.0-2.30","","","","","","195","","","","","","[{""stimulus"":""img/green_wl/1.jpg"",""time"":58},{""stimulus"":""img/green_wl/2.jpg"",""time"":108},{""stimulus"":""img/green_wl/3.jpg"",""time"":152},{""stimulus"":""img/green_wl/4.jpg"",""time"":201},{""stimulus"":""img/green_wl/5.jpg"",""time"":251},{""stimulus"":""img/green_wl/6.jpg"",""time"":302},{""stimulus"":""img/green_wl/7.jpg"",""time"":351},{""stimulus"":""img/green_wl/8.jpg"",""time"":417},{""stimulus"":""img/green_wl/9.jpg"",""time"":467},{""stimulus"":""img/green_wl/10.jpg"",""time"":515},{""stimulus"":""img/green_wl/11.jpg"",""time"":563}]","[]"
"","","","choice","63d42387aba51e699ab9ce5c","bdp_lott","Fri Mar 24 2023 21:10:10 GMT-0400 (Eastern Daylight Time)","376747","green","red","image-keyboard-response","66","107493","0.0-5.0-1.31","","894","","img/green_wl/choose11.jpg","1","194","green","0.5","0.5","0.5","l","",""
"","","","","63d42387aba51e699ab9ce5c","bdp_lott","Fri Mar 24 2023 21:10:10 GMT-0400 (Eastern Daylight Time)","376747","green","red","animation","67","108104","0.0-5.0-2.31","","","","","","194","","","","","","[{""stimulus"":""img/green_ll/1.jpg"",""time"":85},{""stimulus"":""img/green_ll/2.jpg"",""time"":118},{""stimulus"":""img/green_ll/3.jpg"",""time"":152},{""stimulus"":""img/green_ll/4.jpg"",""time"":201},{""stimulus"":""img/green_ll/5.jpg"",""time"":252},{""stimulus"":""img/green_ll/6.jpg"",""time"":301},{""stimulus"":""img/green_ll/7.jpg"",""time"":358},{""stimulus"":""img/green_ll/8.jpg"",""time"":407},{""stimulus"":""img/green_ll/9.jpg"",""time"":452},{""stimulus"":""img/green_ll/10.jpg"",""time"":502},{""stimulus"":""img/green_ll/11.jpg"",""time"":566}]","[]"
"","","","choice","63d42387aba51e699ab9ce5c","bdp_lott","Fri Mar 24 2023 21:10:10 GMT-0400 (Eastern Daylight Time)","376747","green","red","image-keyboard-response","68","108947","0.0-5.0-1.32","","842","","img/green_ll/choose11.jpg","2","193","red","0.5","0.5","0.5","l","",""
"","","","","63d42387aba51e699ab9ce5c","bdp_lott","Fri Mar 24 2023 21:10:10 GMT-0400 (Eastern Daylight Time)","376747","green","red","animation","69","109599","0.0-5.0-2.32","","","","","","193","","","","","","[{""stimulus"":""img/red_ll/1.jpg"",""time"":110},{""stimulus"":""img/red_ll/2.jpg"",""time"":163},{""stimulus"":""img/red_ll/3.jpg"",""time"":211},{""stimulus"":""img/red_ll/4.jpg"",""time"":263},{""stimulus"":""img/red_ll/5.jpg"",""time"":314},{""stimulus"":""img/red_ll/6.jpg"",""time"":361},{""stimulus"":""img/red_ll/7.jpg"",""time"":401},{""stimulus"":""img/red_ll/8.jpg"",""time"":450},{""stimulus"":""img/red_ll/9.jpg"",""time"":516},{""stimulus"":""img/red_ll/10.jpg"",""time"":550},{""stimulus"":""img/red_ll/11.jpg"",""time"":600}]","[]"
"","","","choice","63d42387aba51e699ab9ce5c","bdp_lott","Fri Mar 24 2023 21:10:10 GMT-0400 (Eastern Daylight Time)","376747","green","red","image-keyboard-response","70","110397","0.0-5.0-1.33","","798","","img/red_ll/choose11.jpg","1","192","green","0.5","0.5","0.5","l","",""
"","","","","63d42387aba51e699ab9ce5c","bdp_lott","Fri Mar 24 2023 21:10:10 GMT-0400 (Eastern Daylight Time)","376747","green","red","animation","71","110998","0.0-5.0-2.33","","","","","","192","","","","","","[{""stimulus"":""img/green_ll/1.jpg"",""time"":63},{""stimulus"":""img/green_ll/2.jpg"",""time"":114},{""stimulus"":""img/green_ll/3.jpg"",""time"":159},{""stimulus"":""img/green_ll/4.jpg"",""time"":208},{""stimulus"":""img/green_ll/5.jpg"",""time"":259},{""stimulus"":""img/green_ll/6.jpg"",""time"":310},{""stimulus"":""img/green_ll/7.jpg"",""time"":360},{""stimulus"":""img/green_ll/8.jpg"",""time"":409},{""stimulus"":""img/green_ll/9.jpg"",""time"":458},{""stimulus"":""img/green_ll/10.jpg"",""time"":501},{""stimulus"":""img/green_ll/11.jpg"",""time"":550}]","[]"
"","","","choice","63d42387aba51e699ab9ce5c","bdp_lott","Fri Mar 24 2023 21:10:10 GMT-0400 (Eastern Daylight Time)","376747","green","red","image-keyboard-response","72","112156","0.0-5.0-1.34","","1158","","img/green_ll/choose11.jpg","1","191","green","0.5","0.5","0.5","l","",""
"","","","","63d42387aba51e699ab9ce5c","bdp_lott","Fri Mar 24 2023 21:10:10 GMT-0400 (Eastern Daylight Time)","376747","green","red","animation","73","112772","0.0-5.0-2.34","","","","","","191","","","","","","[{""stimulus"":""img/green_ll/1.jpg"",""time"":63},{""stimulus"":""img/green_ll/2.jpg"",""time"":113},{""stimulus"":""img/green_ll/3.jpg"",""time"":162},{""stimulus"":""img/green_ll/4.jpg"",""time"":211},{""stimulus"":""img/green_ll/5.jpg"",""time"":260},{""stimulus"":""img/green_ll/6.jpg"",""time"":311},{""stimulus"":""img/green_ll/7.jpg"",""time"":351},{""stimulus"":""img/green_ll/8.jpg"",""time"":401},{""stimulus"":""img/green_ll/9.jpg"",""time"":451},{""stimulus"":""img/green_ll/10.jpg"",""time"":515},{""stimulus"":""img/green_ll/11.jpg"",""time"":550}]","[]"
"","","","choice","63d42387aba51e699ab9ce5c","bdp_lott","Fri Mar 24 2023 21:10:10 GMT-0400 (Eastern Daylight Time)","376747","green","red","image-keyboard-response","74","113492","0.0-5.0-1.35","","720","","img/green_ll/choose11.jpg","1","190","green","0.5","0.5","0.5","w","",""
"","","","","63d42387aba51e699ab9ce5c","bdp_lott","Fri Mar 24 2023 21:10:10 GMT-0400 (Eastern Daylight Time)","376747","green","red","animation","75","114108","0.0-5.0-2.35","","","","","","190","","","","","","[{""stimulus"":""img/green_wl/1.jpg"",""time"":61},{""stimulus"":""img/green_wl/2.jpg"",""time"":111},{""stimulus"":""img/green_wl/3.jpg"",""time"":151},{""stimulus"":""img/green_wl/4.jpg"",""time"":216},{""stimulus"":""img/green_wl/5.jpg"",""time"":266},{""stimulus"":""img/green_wl/6.jpg"",""time"":316},{""stimulus"":""img/green_wl/7.jpg"",""time"":351},{""stimulus"":""img/green_wl/8.jpg"",""time"":416},{""stimulus"":""img/green_wl/9.jpg"",""time"":465},{""stimulus"":""img/green_wl/10.jpg"",""time"":515},{""stimulus"":""img/green_wl/11.jpg"",""time"":551}]","[]"
"","","","choice","63d42387aba51e699ab9ce5c","bdp_lott","Fri Mar 24 2023 21:10:10 GMT-0400 (Eastern Daylight Time)","376747","green","red","image-keyboard-response","76","114929","0.0-5.0-1.36","","820","","img/green_wl/choose11.jpg","1","189","green","0.5","0.5","0.5","l","",""
"","","","","63d42387aba51e699ab9ce5c","bdp_lott","Fri Mar 24 2023 21:10:10 GMT-0400 (Eastern Daylight Time)","376747","green","red","animation","77","115531","0.0-5.0-2.36","","","","","","189","","","","","","[{""stimulus"":""img/green_ll/1.jpg"",""time"":64},{""stimulus"":""img/green_ll/2.jpg"",""time"":113},{""stimulus"":""img/green_ll/3.jpg"",""time"":160},{""stimulus"":""img/green_ll/4.jpg"",""time"":208},{""stimulus"":""img/green_ll/5.jpg"",""time"":251},{""stimulus"":""img/green_ll/6.jpg"",""time"":301},{""stimulus"":""img/green_ll/7.jpg"",""time"":364},{""stimulus"":""img/green_ll/8.jpg"",""time"":414},{""stimulus"":""img/green_ll/9.jpg"",""time"":451},{""stimulus"":""img/green_ll/10.jpg"",""time"":500},{""stimulus"":""img/green_ll/11.jpg"",""time"":551}]","[]"
"","","","choice","63d42387aba51e699ab9ce5c","bdp_lott","Fri Mar 24 2023 21:10:10 GMT-0400 (Eastern Daylight Time)","376747","green","red","image-keyboard-response","78","117088","0.0-5.0-1.37","","1556","","img/green_ll/choose11.jpg","1","188","green","0.5","0.5","0.5","l","",""
"","","","","63d42387aba51e699ab9ce5c","bdp_lott","Fri Mar 24 2023 21:10:10 GMT-0400 (Eastern Daylight Time)","376747","green","red","animation","79","117689","0.0-5.0-2.37","","","","","","188","","","","","","[{""stimulus"":""img/green_ll/1.jpg"",""time"":63},{""stimulus"":""img/green_ll/2.jpg"",""time"":111},{""stimulus"":""img/green_ll/3.jpg"",""time"":161},{""stimulus"":""img/green_ll/4.jpg"",""time"":202},{""stimulus"":""img/green_ll/5.jpg"",""time"":252},{""stimulus"":""img/green_ll/6.jpg"",""time"":301},{""stimulus"":""img/green_ll/7.jpg"",""time"":367},{""stimulus"":""img/green_ll/8.jpg"",""time"":415},{""stimulus"":""img/green_ll/9.jpg"",""time"":465},{""stimulus"":""img/green_ll/10.jpg"",""time"":501},{""stimulus"":""img/green_ll/11.jpg"",""time"":567}]","[]"
"","","","choice","63d42387aba51e699ab9ce5c","bdp_lott","Fri Mar 24 2023 21:10:10 GMT-0400 (Eastern Daylight Time)","376747","green","red","image-keyboard-response","80","118571","0.0-5.0-1.38","","882","","img/green_ll/choose11.jpg","1","187","green","0.5","0.5","0.5","l","",""
"","","","","63d42387aba51e699ab9ce5c","bdp_lott","Fri Mar 24 2023 21:10:10 GMT-0400 (Eastern Daylight Time)","376747","green","red","animation","81","119173","0.0-5.0-2.38","","","","","","187","","","","","","[{""stimulus"":""img/green_ll/1.jpg"",""time"":54},{""stimulus"":""img/green_ll/2.jpg"",""time"":104},{""stimulus"":""img/green_ll/3.jpg"",""time"":151},{""stimulus"":""img/green_ll/4.jpg"",""time"":217},{""stimulus"":""img/green_ll/5.jpg"",""time"":265},{""stimulus"":""img/green_ll/6.jpg"",""time"":314},{""stimulus"":""img/green_ll/7.jpg"",""time"":363},{""stimulus"":""img/green_ll/8.jpg"",""time"":411},{""stimulus"":""img/green_ll/9.jpg"",""time"":462},{""stimulus"":""img/green_ll/10.jpg"",""time"":511},{""stimulus"":""img/green_ll/11.jpg"",""time"":553}]","[]"
"","","","choice","63d42387aba51e699ab9ce5c","bdp_lott","Fri Mar 24 2023 21:10:10 GMT-0400 (Eastern Daylight Time)","376747","green","red","image-keyboard-response","82","120036","0.0-5.0-1.39","","863","","img/green_ll/choose11.jpg","2","186","red","0.5","0.5","0.5","l","",""
"","","","","63d42387aba51e699ab9ce5c","bdp_lott","Fri Mar 24 2023 21:10:10 GMT-0400 (Eastern Daylight Time)","376747","green","red","animation","83","120637","0.0-5.0-2.39","","","","","","186","","","","","","[{""stimulus"":""img/red_ll/1.jpg"",""time"":58},{""stimulus"":""img/red_ll/2.jpg"",""time"":108},{""stimulus"":""img/red_ll/3.jpg"",""time"":151},{""stimulus"":""img/red_ll/4.jpg"",""time"":217},{""stimulus"":""img/red_ll/5.jpg"",""time"":251},{""stimulus"":""img/red_ll/6.jpg"",""time"":301},{""stimulus"":""img/red_ll/7.jpg"",""time"":351},{""stimulus"":""img/red_ll/8.jpg"",""time"":401},{""stimulus"":""img/red_ll/9.jpg"",""time"":451},{""stimulus"":""img/red_ll/10.jpg"",""time"":512},{""stimulus"":""img/red_ll/11.jpg"",""time"":551}]","[]"
"","","","choice","63d42387aba51e699ab9ce5c","bdp_lott","Fri Mar 24 2023 21:10:10 GMT-0400 (Eastern Daylight Time)","376747","green","red","image-keyboard-response","84","121292","0.0-5.0-1.40","","655","","img/red_ll/choose11.jpg","2","185","red","0.5","0.5","0.5","w","",""
"","","","","63d42387aba51e699ab9ce5c","bdp_lott","Fri Mar 24 2023 21:10:10 GMT-0400 (Eastern Daylight Time)","376747","green","red","animation","85","121906","0.0-5.0-2.40","","","","","","185","","","","","","[{""stimulus"":""img/red_lw/1.jpg"",""time"":56},{""stimulus"":""img/red_lw/2.jpg"",""time"":106},{""stimulus"":""img/red_lw/3.jpg"",""time"":153},{""stimulus"":""img/red_lw/4.jpg"",""time"":202},{""stimulus"":""img/red_lw/5.jpg"",""time"":266},{""stimulus"":""img/red_lw/6.jpg"",""time"":314},{""stimulus"":""img/red_lw/7.jpg"",""time"":351},{""stimulus"":""img/red_lw/8.jpg"",""time"":417},{""stimulus"":""img/red_lw/9.jpg"",""time"":467},{""stimulus"":""img/red_lw/10.jpg"",""time"":517},{""stimulus"":""img/red_lw/11.jpg"",""time"":566}]","[]"
"","","","choice","63d42387aba51e699ab9ce5c","bdp_lott","Fri Mar 24 2023 21:10:10 GMT-0400 (Eastern Daylight Time)","376747","green","red","image-keyboard-response","86","122712","0.0-5.0-1.41","","806","","img/red_lw/choose11.jpg","2","184","red","0.5","0.5","0.5","w","",""
"","","","","63d42387aba51e699ab9ce5c","bdp_lott","Fri Mar 24 2023 21:10:10 GMT-0400 (Eastern Daylight Time)","376747","green","red","animation","87","123313","0.0-5.0-2.41","","","","","","184","","","","","","[{""stimulus"":""img/red_lw/1.jpg"",""time"":64},{""stimulus"":""img/red_lw/2.jpg"",""time"":107},{""stimulus"":""img/red_lw/3.jpg"",""time"":152},{""stimulus"":""img/red_lw/4.jpg"",""time"":201},{""stimulus"":""img/red_lw/5.jpg"",""time"":264},{""stimulus"":""img/red_lw/6.jpg"",""time"":312},{""stimulus"":""img/red_lw/7.jpg"",""time"":364},{""stimulus"":""img/red_lw/8.jpg"",""time"":412},{""stimulus"":""img/red_lw/9.jpg"",""time"":461},{""stimulus"":""img/red_lw/10.jpg"",""time"":510},{""stimulus"":""img/red_lw/11.jpg"",""time"":551}]","[]"
"","","","choice","63d42387aba51e699ab9ce5c","bdp_lott","Fri Mar 24 2023 21:10:10 GMT-0400 (Eastern Daylight Time)","376747","green","red","image-keyboard-response","88","124494","0.0-5.0-1.42","","1180","","img/red_lw/choose11.jpg","1","183","green","0.5","0.5","0.5","l","",""
"","","","","63d42387aba51e699ab9ce5c","bdp_lott","Fri Mar 24 2023 21:10:10 GMT-0400 (Eastern Daylight Time)","376747","green","red","animation","89","125108","0.0-5.0-2.42","","","","","","183","","","","","","[{""stimulus"":""img/green_lw/1.jpg"",""time"":60},{""stimulus"":""img/green_lw/2.jpg"",""time"":110},{""stimulus"":""img/green_lw/3.jpg"",""time"":159},{""stimulus"":""img/green_lw/4.jpg"",""time"":208},{""stimulus"":""img/green_lw/5.jpg"",""time"":258},{""stimulus"":""img/green_lw/6.jpg"",""time"":301},{""stimulus"":""img/green_lw/7.jpg"",""time"":351},{""stimulus"":""img/green_lw/8.jpg"",""time"":415},{""stimulus"":""img/green_lw/9.jpg"",""time"":451},{""stimulus"":""img/green_lw/10.jpg"",""time"":517},{""stimulus"":""img/green_lw/11.jpg"",""time"":564}]","[]"
"","","","choice","63d42387aba51e699ab9ce5c","bdp_lott","Fri Mar 24 2023 21:10:10 GMT-0400 (Eastern Daylight Time)","376747","green","red","image-keyboard-response","90","126037","0.0-5.0-1.43","","929","","img/green_lw/choose11.jpg","1","182","green","0.5","0.5","0.5","l","",""
"","","","","63d42387aba51e699ab9ce5c","bdp_lott","Fri Mar 24 2023 21:10:10 GMT-0400 (Eastern Daylight Time)","376747","green","red","animation","91","126655","0.0-5.0-2.43","","","","","","182","","","","","","[{""stimulus"":""img/green_lw/1.jpg"",""time"":62},{""stimulus"":""img/green_lw/2.jpg"",""time"":112},{""stimulus"":""img/green_lw/3.jpg"",""time"":162},{""stimulus"":""img/green_lw/4.jpg"",""time"":211},{""stimulus"":""img/green_lw/5.jpg"",""time"":259},{""stimulus"":""img/green_lw/6.jpg"",""time"":301},{""stimulus"":""img/green_lw/7.jpg"",""time"":367},{""stimulus"":""img/green_lw/8.jpg"",""time"":412},{""stimulus"":""img/green_lw/9.jpg"",""time"":466},{""stimulus"":""img/green_lw/10.jpg"",""time"":501},{""stimulus"":""img/green_lw/11.jpg"",""time"":552}]","[]"
"","","","choice","63d42387aba51e699ab9ce5c","bdp_lott","Fri Mar 24 2023 21:10:10 GMT-0400 (Eastern Daylight Time)","376747","green","red","image-keyboard-response","92","127428","0.0-5.0-1.44","","772","","img/green_lw/choose11.jpg","1","181","green","0.5","0.5","0.5","w","",""
"","","","","63d42387aba51e699ab9ce5c","bdp_lott","Fri Mar 24 2023 21:10:10 GMT-0400 (Eastern Daylight Time)","376747","green","red","animation","93","128029","0.0-5.0-2.44","","","","","","181","","","","","","[{""stimulus"":""img/green_ww/1.jpg"",""time"":64},{""stimulus"":""img/green_ww/2.jpg"",""time"":115},{""stimulus"":""img/green_ww/3.jpg"",""time"":150},{""stimulus"":""img/green_ww/4.jpg"",""time"":216},{""stimulus"":""img/green_ww/5.jpg"",""time"":266},{""stimulus"":""img/green_ww/6.jpg"",""time"":317},{""stimulus"":""img/green_ww/7.jpg"",""time"":350},{""stimulus"":""img/green_ww/8.jpg"",""time"":401},{""stimulus"":""img/green_ww/9.jpg"",""time"":451},{""stimulus"":""img/green_ww/10.jpg"",""time"":515},{""stimulus"":""img/green_ww/11.jpg"",""time"":551}]","[]"
"","","","choice","63d42387aba51e699ab9ce5c","bdp_lott","Fri Mar 24 2023 21:10:10 GMT-0400 (Eastern Daylight Time)","376747","green","red","image-keyboard-response","94","128895","0.0-5.0-1.45","","865","","img/green_ww/choose11.jpg","1","180","green","0.5","0.5","0.5","l","",""
"","","","","63d42387aba51e699ab9ce5c","bdp_lott","Fri Mar 24 2023 21:10:10 GMT-0400 (Eastern Daylight Time)","376747","green","red","animation","95","129497","0.0-5.0-2.45","","","","","","180","","","","","","[{""stimulus"":""img/green_lw/1.jpg"",""time"":52},{""stimulus"":""img/green_lw/2.jpg"",""time"":103},{""stimulus"":""img/green_lw/3.jpg"",""time"":151},{""stimulus"":""img/green_lw/4.jpg"",""time"":200},{""stimulus"":""img/green_lw/5.jpg"",""time"":265},{""stimulus"":""img/green_lw/6.jpg"",""time"":314},{""stimulus"":""img/green_lw/7.jpg"",""time"":351},{""stimulus"":""img/green_lw/8.jpg"",""time"":401},{""stimulus"":""img/green_lw/9.jpg"",""time"":450},{""stimulus"":""img/green_lw/10.jpg"",""time"":516},{""stimulus"":""img/green_lw/11.jpg"",""time"":551}]","[]"
"","","","choice","63d42387aba51e699ab9ce5c","bdp_lott","Fri Mar 24 2023 21:10:10 GMT-0400 (Eastern Daylight Time)","376747","green","red","image-keyboard-response","96","130242","0.0-5.0-1.46","","745","","img/green_lw/choose11.jpg","2","179","red","0.5","0.5","0.5","l","",""
"","","","","63d42387aba51e699ab9ce5c","bdp_lott","Fri Mar 24 2023 21:10:10 GMT-0400 (Eastern Daylight Time)","376747","green","red","animation","97","130862","0.0-5.0-2.46","","","","","","179","","","","","","[{""stimulus"":""img/red_ll/1.jpg"",""time"":58},{""stimulus"":""img/red_ll/2.jpg"",""time"":109},{""stimulus"":""img/red_ll/3.jpg"",""time"":157},{""stimulus"":""img/red_ll/4.jpg"",""time"":207},{""stimulus"":""img/red_ll/5.jpg"",""time"":254},{""stimulus"":""img/red_ll/6.jpg"",""time"":303},{""stimulus"":""img/red_ll/7.jpg"",""time"":352},{""stimulus"":""img/red_ll/8.jpg"",""time"":401},{""stimulus"":""img/red_ll/9.jpg"",""time"":451},{""stimulus"":""img/red_ll/10.jpg"",""time"":501},{""stimulus"":""img/red_ll/11.jpg"",""time"":551}]","[]"
"","","","choice","63d42387aba51e699ab9ce5c","bdp_lott","Fri Mar 24 2023 21:10:10 GMT-0400 (Eastern Daylight Time)","376747","green","red","image-keyboard-response","98","132198","0.0-5.0-1.47","","1336","","img/red_ll/choose11.jpg","1","178","green","0.5","0.5","0.5","l","",""
"","","","","63d42387aba51e699ab9ce5c","bdp_lott","Fri Mar 24 2023 21:10:10 GMT-0400 (Eastern Daylight Time)","376747","green","red","animation","99","132814","0.0-5.0-2.47","","","","","","178","","","","","","[{""stimulus"":""img/green_ll/1.jpg"",""time"":60},{""stimulus"":""img/green_ll/2.jpg"",""time"":103},{""stimulus"":""img/green_ll/3.jpg"",""time"":151},{""stimulus"":""img/green_ll/4.jpg"",""time"":216},{""stimulus"":""img/green_ll/5.jpg"",""time"":266},{""stimulus"":""img/green_ll/6.jpg"",""time"":301},{""stimulus"":""img/green_ll/7.jpg"",""time"":366},{""stimulus"":""img/green_ll/8.jpg"",""time"":416},{""stimulus"":""img/green_ll/9.jpg"",""time"":451},{""stimulus"":""img/green_ll/10.jpg"",""time"":501},{""stimulus"":""img/green_ll/11.jpg"",""time"":551}]","[]"
"","","","choice","63d42387aba51e699ab9ce5c","bdp_lott","Fri Mar 24 2023 21:10:10 GMT-0400 (Eastern Daylight Time)","376747","green","red","image-keyboard-response","100","133780","0.0-5.0-1.48","","966","","img/green_ll/choose11.jpg","1","177","green","0.5","0.5","0.5","w","",""
"","","","","63d42387aba51e699ab9ce5c","bdp_lott","Fri Mar 24 2023 21:10:10 GMT-0400 (Eastern Daylight Time)","376747","green","red","animation","101","134396","0.0-5.0-2.48","","","","","","177","","","","","","[{""stimulus"":""img/green_wl/1.jpg"",""time"":59},{""stimulus"":""img/green_wl/2.jpg"",""time"":107},{""stimulus"":""img/green_wl/3.jpg"",""time"":151},{""stimulus"":""img/green_wl/4.jpg"",""time"":216},{""stimulus"":""img/green_wl/5.jpg"",""time"":265},{""stimulus"":""img/green_wl/6.jpg"",""time"":314},{""stimulus"":""img/green_wl/7.jpg"",""time"":363},{""stimulus"":""img/green_wl/8.jpg"",""time"":411},{""stimulus"":""img/green_wl/9.jpg"",""time"":462},{""stimulus"":""img/green_wl/10.jpg"",""time"":512},{""stimulus"":""img/green_wl/11.jpg"",""time"":551}]","[]"
"","","","choice","63d42387aba51e699ab9ce5c","bdp_lott","Fri Mar 24 2023 21:10:10 GMT-0400 (Eastern Daylight Time)","376747","green","red","image-keyboard-response","102","135265","0.0-5.0-1.49","","867","","img/green_wl/choose11.jpg","1","176","green","0.5","0.5","0.5","l","",""
"","","","","63d42387aba51e699ab9ce5c","bdp_lott","Fri Mar 24 2023 21:10:10 GMT-0400 (Eastern Daylight Time)","376747","green","red","animation","103","135881","0.0-5.0-2.49","","","","","","176","","","","","","[{""stimulus"":""img/green_ll/1.jpg"",""time"":51},{""stimulus"":""img/green_ll/2.jpg"",""time"":100},{""stimulus"":""img/green_ll/3.jpg"",""time"":165},{""stimulus"":""img/green_ll/4.jpg"",""time"":213},{""stimulus"":""img/green_ll/5.jpg"",""time"":262},{""stimulus"":""img/green_ll/6.jpg"",""time"":310},{""stimulus"":""img/green_ll/7.jpg"",""time"":359},{""stimulus"":""img/green_ll/8.jpg"",""time"":410},{""stimulus"":""img/green_ll/9.jpg"",""time"":451},{""stimulus"":""img/green_ll/10.jpg"",""time"":518},{""stimulus"":""img/green_ll/11.jpg"",""time"":551}]","[]"
"","","","choice","63d42387aba51e699ab9ce5c","bdp_lott","Fri Mar 24 2023 21:10:10 GMT-0400 (Eastern Daylight Time)","376747","green","red","image-keyboard-response","104","136709","0.0-5.0-1.50","","828","","img/green_ll/choose11.jpg","2","175","red","0.5","0.5","0.5","w","",""
"","","","","63d42387aba51e699ab9ce5c","bdp_lott","Fri Mar 24 2023 21:10:10 GMT-0400 (Eastern Daylight Time)","376747","green","red","animation","105","137314","0.0-5.0-2.50","","","","","","175","","","","","","[{""stimulus"":""img/red_lw/1.jpg"",""time"":54},{""stimulus"":""img/red_lw/2.jpg"",""time"":105},{""stimulus"":""img/red_lw/3.jpg"",""time"":154},{""stimulus"":""img/red_lw/4.jpg"",""time"":204},{""stimulus"":""img/red_lw/5.jpg"",""time"":253},{""stimulus"":""img/red_lw/6.jpg"",""time"":301},{""stimulus"":""img/red_lw/7.jpg"",""time"":350},{""stimulus"":""img/red_lw/8.jpg"",""time"":415},{""stimulus"":""img/red_lw/9.jpg"",""time"":466},{""stimulus"":""img/red_lw/10.jpg"",""time"":501},{""stimulus"":""img/red_lw/11.jpg"",""time"":551}]","[]"
"","","","choice","63d42387aba51e699ab9ce5c","bdp_lott","Fri Mar 24 2023 21:10:10 GMT-0400 (Eastern Daylight Time)","376747","green","red","image-keyboard-response","106","138698","0.0-5.0-1.51","","1381","","img/red_lw/choose11.jpg","2","174","red","0.5","0.5","0.5","w","",""
"","","","","63d42387aba51e699ab9ce5c","bdp_lott","Fri Mar 24 2023 21:10:10 GMT-0400 (Eastern Daylight Time)","376747","green","red","animation","107","139306","0.0-5.0-2.51","","","","","","174","","","","","","[{""stimulus"":""img/red_lw/1.jpg"",""time"":56},{""stimulus"":""img/red_lw/2.jpg"",""time"":105},{""stimulus"":""img/red_lw/3.jpg"",""time"":151},{""stimulus"":""img/red_lw/4.jpg"",""time"":201},{""stimulus"":""img/red_lw/5.jpg"",""time"":251},{""stimulus"":""img/red_lw/6.jpg"",""time"":301},{""stimulus"":""img/red_lw/7.jpg"",""time"":351},{""stimulus"":""img/red_lw/8.jpg"",""time"":415},{""stimulus"":""img/red_lw/9.jpg"",""time"":465},{""stimulus"":""img/red_lw/10.jpg"",""time"":512},{""stimulus"":""img/red_lw/11.jpg"",""time"":560}]","[]"
"","","","choice","63d42387aba51e699ab9ce5c","bdp_lott","Fri Mar 24 2023 21:10:10 GMT-0400 (Eastern Daylight Time)","376747","green","red","image-keyboard-response","108","140280","0.0-5.0-1.52","","974","","img/red_lw/choose11.jpg","2","173","red","0.5","0.5","0.5","l","",""
"","","","","63d42387aba51e699ab9ce5c","bdp_lott","Fri Mar 24 2023 21:10:10 GMT-0400 (Eastern Daylight Time)","376747","green","red","animation","109","140895","0.0-5.0-2.52","","","","","","173","","","","","","[{""stimulus"":""img/red_ll/1.jpg"",""time"":60},{""stimulus"":""img/red_ll/2.jpg"",""time"":100},{""stimulus"":""img/red_ll/3.jpg"",""time"":165},{""stimulus"":""img/red_ll/4.jpg"",""time"":214},{""stimulus"":""img/red_ll/5.jpg"",""time"":251},{""stimulus"":""img/red_ll/6.jpg"",""time"":301},{""stimulus"":""img/red_ll/7.jpg"",""time"":367},{""stimulus"":""img/red_ll/8.jpg"",""time"":416},{""stimulus"":""img/red_ll/9.jpg"",""time"":466},{""stimulus"":""img/red_ll/10.jpg"",""time"":516},{""stimulus"":""img/red_ll/11.jpg"",""time"":565}]","[]"
"","","","choice","63d42387aba51e699ab9ce5c","bdp_lott","Fri Mar 24 2023 21:10:10 GMT-0400 (Eastern Daylight Time)","376747","green","red","image-keyboard-response","110","141986","0.0-5.0-1.53","","1091","","img/red_ll/choose11.jpg","2","172","red","0.5","0.5","0.5","l","",""
"","","","","63d42387aba51e699ab9ce5c","bdp_lott","Fri Mar 24 2023 21:10:10 GMT-0400 (Eastern Daylight Time)","376747","green","red","animation","111","142587","0.0-5.0-2.53","","","","","","172","","","","","","[{""stimulus"":""img/red_ll/1.jpg"",""time"":57},{""stimulus"":""img/red_ll/2.jpg"",""time"":107},{""stimulus"":""img/red_ll/3.jpg"",""time"":157},{""stimulus"":""img/red_ll/4.jpg"",""time"":206},{""stimulus"":""img/red_ll/5.jpg"",""time"":256},{""stimulus"":""img/red_ll/6.jpg"",""time"":304},{""stimulus"":""img/red_ll/7.jpg"",""time"":354},{""stimulus"":""img/red_ll/8.jpg"",""time"":403},{""stimulus"":""img/red_ll/9.jpg"",""time"":451},{""stimulus"":""img/red_ll/10.jpg"",""time"":516},{""stimulus"":""img/red_ll/11.jpg"",""time"":565}]","[]"
"","","","choice","63d42387aba51e699ab9ce5c","bdp_lott","Fri Mar 24 2023 21:10:10 GMT-0400 (Eastern Daylight Time)","376747","green","red","image-keyboard-response","112","143229","0.0-5.0-1.54","","641","","img/red_ll/choose11.jpg","2","171","red","0.5","0.5","0.5","w","",""
"","","","","63d42387aba51e699ab9ce5c","bdp_lott","Fri Mar 24 2023 21:10:10 GMT-0400 (Eastern Daylight Time)","376747","green","red","animation","113","143830","0.0-5.0-2.54","","","","","","171","","","","","","[{""stimulus"":""img/red_lw/1.jpg"",""time"":54},{""stimulus"":""img/red_lw/2.jpg"",""time"":105},{""stimulus"":""img/red_lw/3.jpg"",""time"":154},{""stimulus"":""img/red_lw/4.jpg"",""time"":202},{""stimulus"":""img/red_lw/5.jpg"",""time"":251},{""stimulus"":""img/red_lw/6.jpg"",""time"":301},{""stimulus"":""img/red_lw/7.jpg"",""time"":367},{""stimulus"":""img/red_lw/8.jpg"",""time"":400},{""stimulus"":""img/red_lw/9.jpg"",""time"":465},{""stimulus"":""img/red_lw/10.jpg"",""time"":516},{""stimulus"":""img/red_lw/11.jpg"",""time"":563}]","[]"
"","","","choice","63d42387aba51e699ab9ce5c","bdp_lott","Fri Mar 24 2023 21:10:10 GMT-0400 (Eastern Daylight Time)","376747","green","red","image-keyboard-response","114","144737","0.0-5.0-1.55","","905","","img/red_lw/choose11.jpg","2","170","red","0.5","0.5","0.5","l","",""
"","","","","63d42387aba51e699ab9ce5c","bdp_lott","Fri Mar 24 2023 21:10:10 GMT-0400 (Eastern Daylight Time)","376747","green","red","animation","115","145350","0.0-5.0-2.55","","","","","","170","","","","","","[{""stimulus"":""img/red_ll/1.jpg"",""time"":65},{""stimulus"":""img/red_ll/2.jpg"",""time"":115},{""stimulus"":""img/red_ll/3.jpg"",""time"":151},{""stimulus"":""img/red_ll/4.jpg"",""time"":201},{""stimulus"":""img/red_ll/5.jpg"",""time"":265},{""stimulus"":""img/red_ll/6.jpg"",""time"":314},{""stimulus"":""img/red_ll/7.jpg"",""time"":363},{""stimulus"":""img/red_ll/8.jpg"",""time"":400},{""stimulus"":""img/red_ll/9.jpg"",""time"":451},{""stimulus"":""img/red_ll/10.jpg"",""time"":516},{""stimulus"":""img/red_ll/11.jpg"",""time"":564}]","[]"
"","","","choice","63d42387aba51e699ab9ce5c","bdp_lott","Fri Mar 24 2023 21:10:10 GMT-0400 (Eastern Daylight Time)","376747","green","red","image-keyboard-response","116","146496","0.0-5.0-1.56","","1145","","img/red_ll/choose11.jpg","1","169","green","0.5","0.5","0.5","l","",""
"","","","","63d42387aba51e699ab9ce5c","bdp_lott","Fri Mar 24 2023 21:10:10 GMT-0400 (Eastern Daylight Time)","376747","green","red","animation","117","147112","0.0-5.0-2.56","","","","","","169","","","","","","[{""stimulus"":""img/green_ll/1.jpg"",""time"":64},{""stimulus"":""img/green_ll/2.jpg"",""time"":113},{""stimulus"":""img/green_ll/3.jpg"",""time"":151},{""stimulus"":""img/green_ll/4.jpg"",""time"":202},{""stimulus"":""img/green_ll/5.jpg"",""time"":251},{""stimulus"":""img/green_ll/6.jpg"",""time"":316},{""stimulus"":""img/green_ll/7.jpg"",""time"":352},{""stimulus"":""img/green_ll/8.jpg"",""time"":401},{""stimulus"":""img/green_ll/9.jpg"",""time"":451},{""stimulus"":""img/green_ll/10.jpg"",""time"":516},{""stimulus"":""img/green_ll/11.jpg"",""time"":567}]","[]"
"","","","choice","63d42387aba51e699ab9ce5c","bdp_lott","Fri Mar 24 2023 21:10:10 GMT-0400 (Eastern Daylight Time)","376747","green","red","image-keyboard-response","118","147973","0.0-5.0-1.57","","861","","img/green_ll/choose11.jpg","1","168","green","0.5","0.5","0.5","l","",""
"","","","","63d42387aba51e699ab9ce5c","bdp_lott","Fri Mar 24 2023 21:10:10 GMT-0400 (Eastern Daylight Time)","376747","green","red","animation","119","148578","0.0-5.0-2.57","","","","","","168","","","","","","[{""stimulus"":""img/green_ll/1.jpg"",""time"":57},{""stimulus"":""img/green_ll/2.jpg"",""time"":108},{""stimulus"":""img/green_ll/3.jpg"",""time"":152},{""stimulus"":""img/green_ll/4.jpg"",""time"":201},{""stimulus"":""img/green_ll/5.jpg"",""time"":252},{""stimulus"":""img/green_ll/6.jpg"",""time"":302},{""stimulus"":""img/green_ll/7.jpg"",""time"":352},{""stimulus"":""img/green_ll/8.jpg"",""time"":401},{""stimulus"":""img/green_ll/9.jpg"",""time"":451},{""stimulus"":""img/green_ll/10.jpg"",""time"":501},{""stimulus"":""img/green_ll/11.jpg"",""time"":554}]","[]"
"","","","choice","63d42387aba51e699ab9ce5c","bdp_lott","Fri Mar 24 2023 21:10:10 GMT-0400 (Eastern Daylight Time)","376747","green","red","image-keyboard-response","120","149378","0.0-5.0-1.58","","799","","img/green_ll/choose11.jpg","2","167","red","0.5","0.5","0.5","l","",""
"","","","","63d42387aba51e699ab9ce5c","bdp_lott","Fri Mar 24 2023 21:10:10 GMT-0400 (Eastern Daylight Time)","376747","green","red","animation","121","149994","0.0-5.0-2.58","","","","","","167","","","","","","[{""stimulus"":""img/red_ll/1.jpg"",""time"":53},{""stimulus"":""img/red_ll/2.jpg"",""time"":103},{""stimulus"":""img/red_ll/3.jpg"",""time"":152},{""stimulus"":""img/red_ll/4.jpg"",""time"":215},{""stimulus"":""img/red_ll/5.jpg"",""time"":251},{""stimulus"":""img/red_ll/6.jpg"",""time"":317},{""stimulus"":""img/red_ll/7.jpg"",""time"":369},{""stimulus"":""img/red_ll/8.jpg"",""time"":402},{""stimulus"":""img/red_ll/9.jpg"",""time"":465},{""stimulus"":""img/red_ll/10.jpg"",""time"":514},{""stimulus"":""img/red_ll/11.jpg"",""time"":550}]","[]"
"","","","choice","63d42387aba51e699ab9ce5c","bdp_lott","Fri Mar 24 2023 21:10:10 GMT-0400 (Eastern Daylight Time)","376747","green","red","image-keyboard-response","122","150765","0.0-5.0-1.59","","771","","img/red_ll/choose11.jpg","2","166","red","0.5","0.5","0.5","l","",""
"","","","","63d42387aba51e699ab9ce5c","bdp_lott","Fri Mar 24 2023 21:10:10 GMT-0400 (Eastern Daylight Time)","376747","green","red","animation","123","151367","0.0-5.0-2.59","","","","","","166","","","","","","[{""stimulus"":""img/red_ll/1.jpg"",""time"":55},{""stimulus"":""img/red_ll/2.jpg"",""time"":104},{""stimulus"":""img/red_ll/3.jpg"",""time"":150},{""stimulus"":""img/red_ll/4.jpg"",""time"":216},{""stimulus"":""img/red_ll/5.jpg"",""time"":266},{""stimulus"":""img/red_ll/6.jpg"",""time"":316},{""stimulus"":""img/red_ll/7.jpg"",""time"":350},{""stimulus"":""img/red_ll/8.jpg"",""time"":415},{""stimulus"":""img/red_ll/9.jpg"",""time"":464},{""stimulus"":""img/red_ll/10.jpg"",""time"":513},{""stimulus"":""img/red_ll/11.jpg"",""time"":561}]","[]"
"","","","choice","63d42387aba51e699ab9ce5c","bdp_lott","Fri Mar 24 2023 21:10:10 GMT-0400 (Eastern Daylight Time)","376747","green","red","image-keyboard-response","124","152042","0.0-5.0-1.60","","675","","img/red_ll/choose11.jpg","1","165","green","0.5","0.5","0.5","l","",""
"","","","","63d42387aba51e699ab9ce5c","bdp_lott","Fri Mar 24 2023 21:10:10 GMT-0400 (Eastern Daylight Time)","376747","green","red","animation","125","152693","0.0-5.0-2.60","","","","","","165","","","","","","[{""stimulus"":""img/green_ll/1.jpg"",""time"":58},{""stimulus"":""img/green_ll/2.jpg"",""time"":107},{""stimulus"":""img/green_ll/3.jpg"",""time"":151},{""stimulus"":""img/green_ll/4.jpg"",""time"":201},{""stimulus"":""img/green_ll/5.jpg"",""time"":267},{""stimulus"":""img/green_ll/6.jpg"",""time"":305},{""stimulus"":""img/green_ll/7.jpg"",""time"":361},{""stimulus"":""img/green_ll/8.jpg"",""time"":410},{""stimulus"":""img/green_ll/9.jpg"",""time"":461},{""stimulus"":""img/green_ll/10.jpg"",""time"":558},{""stimulus"":""img/green_ll/11.jpg"",""time"":621}]","[]"
"","","","choice","63d42387aba51e699ab9ce5c","bdp_lott","Fri Mar 24 2023 21:10:10 GMT-0400 (Eastern Daylight Time)","376747","green","red","image-keyboard-response","126","153634","0.0-5.0-1.61","","941","","img/green_ll/choose11.jpg","1","164","green","0.5","0.5","0.5","w","",""
"","","","","63d42387aba51e699ab9ce5c","bdp_lott","Fri Mar 24 2023 21:10:10 GMT-0400 (Eastern Daylight Time)","376747","green","red","animation","127","154249","0.0-5.0-2.61","","","","","","164","","","","","","[{""stimulus"":""img/green_wl/1.jpg"",""time"":65},{""stimulus"":""img/green_wl/2.jpg"",""time"":114},{""stimulus"":""img/green_wl/3.jpg"",""time"":150},{""stimulus"":""img/green_wl/4.jpg"",""time"":213},{""stimulus"":""img/green_wl/5.jpg"",""time"":251},{""stimulus"":""img/green_wl/6.jpg"",""time"":306},{""stimulus"":""img/green_wl/7.jpg"",""time"":354},{""stimulus"":""img/green_wl/8.jpg"",""time"":402},{""stimulus"":""img/green_wl/9.jpg"",""time"":452},{""stimulus"":""img/green_wl/10.jpg"",""time"":502},{""stimulus"":""img/green_wl/11.jpg"",""time"":551}]","[]"
"","","","choice","63d42387aba51e699ab9ce5c","bdp_lott","Fri Mar 24 2023 21:10:10 GMT-0400 (Eastern Daylight Time)","376747","green","red","image-keyboard-response","128","155070","0.0-5.0-1.62","","821","","img/green_wl/choose11.jpg","1","163","green","0.5","0.5","0.5","l","",""
"","","","","63d42387aba51e699ab9ce5c","bdp_lott","Fri Mar 24 2023 21:10:10 GMT-0400 (Eastern Daylight Time)","376747","green","red","animation","129","155686","0.0-5.0-2.62","","","","","","163","","","","","","[{""stimulus"":""img/green_ll/1.jpg"",""time"":54},{""stimulus"":""img/green_ll/2.jpg"",""time"":104},{""stimulus"":""img/green_ll/3.jpg"",""time"":150},{""stimulus"":""img/green_ll/4.jpg"",""time"":217},{""stimulus"":""img/green_ll/5.jpg"",""time"":264},{""stimulus"":""img/green_ll/6.jpg"",""time"":313},{""stimulus"":""img/green_ll/7.jpg"",""time"":363},{""stimulus"":""img/green_ll/8.jpg"",""time"":407},{""stimulus"":""img/green_ll/9.jpg"",""time"":451},{""stimulus"":""img/green_ll/10.jpg"",""time"":501},{""stimulus"":""img/green_ll/11.jpg"",""time"":551}]","[]"
"","","","choice","63d42387aba51e699ab9ce5c","bdp_lott","Fri Mar 24 2023 21:10:10 GMT-0400 (Eastern Daylight Time)","376747","green","red","image-keyboard-response","130","156435","0.0-5.0-1.63","","749","","img/green_ll/choose11.jpg","2","162","red","0.5","0.5","0.5","w","",""
"","","","","63d42387aba51e699ab9ce5c","bdp_lott","Fri Mar 24 2023 21:10:10 GMT-0400 (Eastern Daylight Time)","376747","green","red","animation","131","157049","0.0-5.0-2.63","","","","","","162","","","","","","[{""stimulus"":""img/red_lw/1.jpg"",""time"":56},{""stimulus"":""img/red_lw/2.jpg"",""time"":106},{""stimulus"":""img/red_lw/3.jpg"",""time"":155},{""stimulus"":""img/red_lw/4.jpg"",""time"":204},{""stimulus"":""img/red_lw/5.jpg"",""time"":254},{""stimulus"":""img/red_lw/6.jpg"",""time"":302},{""stimulus"":""img/red_lw/7.jpg"",""time"":352},{""stimulus"":""img/red_lw/8.jpg"",""time"":402},{""stimulus"":""img/red_lw/9.jpg"",""time"":451},{""stimulus"":""img/red_lw/10.jpg"",""time"":501},{""stimulus"":""img/red_lw/11.jpg"",""time"":565}]","[]"
"","","","choice","63d42387aba51e699ab9ce5c","bdp_lott","Fri Mar 24 2023 21:10:10 GMT-0400 (Eastern Daylight Time)","376747","green","red","image-keyboard-response","132","158237","0.0-5.0-1.64","","1188","","img/red_lw/choose11.jpg","2","161","red","0.5","0.5","0.5","l","",""
"","","","","63d42387aba51e699ab9ce5c","bdp_lott","Fri Mar 24 2023 21:10:10 GMT-0400 (Eastern Daylight Time)","376747","green","red","animation","133","158838","0.0-5.0-2.64","","","","","","161","","","","","","[{""stimulus"":""img/red_ll/1.jpg"",""time"":56},{""stimulus"":""img/red_ll/2.jpg"",""time"":107},{""stimulus"":""img/red_ll/3.jpg"",""time"":151},{""stimulus"":""img/red_ll/4.jpg"",""time"":201},{""stimulus"":""img/red_ll/5.jpg"",""time"":266},{""stimulus"":""img/red_ll/6.jpg"",""time"":316},{""stimulus"":""img/red_ll/7.jpg"",""time"":350},{""stimulus"":""img/red_ll/8.jpg"",""time"":401},{""stimulus"":""img/red_ll/9.jpg"",""time"":467},{""stimulus"":""img/red_ll/10.jpg"",""time"":500},{""stimulus"":""img/red_ll/11.jpg"",""time"":566}]","[]"
"","","","choice","63d42387aba51e699ab9ce5c","bdp_lott","Fri Mar 24 2023 21:10:10 GMT-0400 (Eastern Daylight Time)","376747","green","red","image-keyboard-response","134","159539","0.0-5.0-1.65","","701","","img/red_ll/choose11.jpg","1","160","green","0.5","0.5","0.5","l","",""
"","","","","63d42387aba51e699ab9ce5c","bdp_lott","Fri Mar 24 2023 21:10:10 GMT-0400 (Eastern Daylight Time)","376747","green","red","animation","135","160140","0.0-5.0-2.65","","","","","","160","","","","","","[{""stimulus"":""img/green_ll/1.jpg"",""time"":57},{""stimulus"":""img/green_ll/2.jpg"",""time"":106},{""stimulus"":""img/green_ll/3.jpg"",""time"":150},{""stimulus"":""img/green_ll/4.jpg"",""time"":217},{""stimulus"":""img/green_ll/5.jpg"",""time"":265},{""stimulus"":""img/green_ll/6.jpg"",""time"":315},{""stimulus"":""img/green_ll/7.jpg"",""time"":364},{""stimulus"":""img/green_ll/8.jpg"",""time"":401},{""stimulus"":""img/green_ll/9.jpg"",""time"":465},{""stimulus"":""img/green_ll/10.jpg"",""time"":513},{""stimulus"":""img/green_ll/11.jpg"",""time"":562}]","[]"
"","","","choice","63d42387aba51e699ab9ce5c","bdp_lott","Fri Mar 24 2023 21:10:10 GMT-0400 (Eastern Daylight Time)","376747","green","red","image-keyboard-response","136","160948","0.0-5.0-1.66","","808","","img/green_ll/choose11.jpg","1","159","green","0.5","0.5","0.5","l","",""
"","","","","63d42387aba51e699ab9ce5c","bdp_lott","Fri Mar 24 2023 21:10:10 GMT-0400 (Eastern Daylight Time)","376747","green","red","animation","137","161603","0.0-5.0-2.66","","","","","","159","","","","","","[{""stimulus"":""img/green_ll/1.jpg"",""time"":55},{""stimulus"":""img/green_ll/2.jpg"",""time"":162},{""stimulus"":""img/green_ll/3.jpg"",""time"":222},{""stimulus"":""img/green_ll/4.jpg"",""time"":251},{""stimulus"":""img/green_ll/5.jpg"",""time"":302},{""stimulus"":""img/green_ll/6.jpg"",""time"":363},{""stimulus"":""img/green_ll/7.jpg"",""time"":416},{""stimulus"":""img/green_ll/8.jpg"",""time"":465},{""stimulus"":""img/green_ll/9.jpg"",""time"":513},{""stimulus"":""img/green_ll/10.jpg"",""time"":561},{""stimulus"":""img/green_ll/11.jpg"",""time"":601}]","[]"
"","","","choice","63d42387aba51e699ab9ce5c","bdp_lott","Fri Mar 24 2023 21:10:10 GMT-0400 (Eastern Daylight Time)","376747","green","red","image-keyboard-response","138","162421","0.0-5.0-1.67","","818","","img/green_ll/choose11.jpg","1","158","green","0.5","0.5","0.5","w","",""
"","","","","63d42387aba51e699ab9ce5c","bdp_lott","Fri Mar 24 2023 21:10:10 GMT-0400 (Eastern Daylight Time)","376747","green","red","animation","139","163021","0.0-5.0-2.67","","","","","","158","","","","","","[{""stimulus"":""img/green_wl/1.jpg"",""time"":64},{""stimulus"":""img/green_wl/2.jpg"",""time"":115},{""stimulus"":""img/green_wl/3.jpg"",""time"":151},{""stimulus"":""img/green_wl/4.jpg"",""time"":201},{""stimulus"":""img/green_wl/5.jpg"",""time"":267},{""stimulus"":""img/green_wl/6.jpg"",""time"":300},{""stimulus"":""img/green_wl/7.jpg"",""time"":351},{""stimulus"":""img/green_wl/8.jpg"",""time"":401},{""stimulus"":""img/green_wl/9.jpg"",""time"":454},{""stimulus"":""img/green_wl/10.jpg"",""time"":502},{""stimulus"":""img/green_wl/11.jpg"",""time"":552}]","[]"
"","","","choice","63d42387aba51e699ab9ce5c","bdp_lott","Fri Mar 24 2023 21:10:10 GMT-0400 (Eastern Daylight Time)","376747","green","red","image-keyboard-response","140","163844","0.0-5.0-1.68","","822","","img/green_wl/choose11.jpg","1","157","green","0.5","0.5","0.5","w","",""
"","","","","63d42387aba51e699ab9ce5c","bdp_lott","Fri Mar 24 2023 21:10:10 GMT-0400 (Eastern Daylight Time)","376747","green","red","animation","141","164460","0.0-5.0-2.68","","","","","","157","","","","","","[{""stimulus"":""img/green_wl/1.jpg"",""time"":64},{""stimulus"":""img/green_wl/2.jpg"",""time"":113},{""stimulus"":""img/green_wl/3.jpg"",""time"":151},{""stimulus"":""img/green_wl/4.jpg"",""time"":216},{""stimulus"":""img/green_wl/5.jpg"",""time"":266},{""stimulus"":""img/green_wl/6.jpg"",""time"":315},{""stimulus"":""img/green_wl/7.jpg"",""time"":352},{""stimulus"":""img/green_wl/8.jpg"",""time"":402},{""stimulus"":""img/green_wl/9.jpg"",""time"":467},{""stimulus"":""img/green_wl/10.jpg"",""time"":500},{""stimulus"":""img/green_wl/11.jpg"",""time"":565}]","[]"
"","","","choice","63d42387aba51e699ab9ce5c","bdp_lott","Fri Mar 24 2023 21:10:10 GMT-0400 (Eastern Daylight Time)","376747","green","red","image-keyboard-response","142","165282","0.0-5.0-1.69","","821","","img/green_wl/choose11.jpg","1","156","green","0.5","0.5","0.5","w","",""
"","","","","63d42387aba51e699ab9ce5c","bdp_lott","Fri Mar 24 2023 21:10:10 GMT-0400 (Eastern Daylight Time)","376747","green","red","animation","143","165898","0.0-5.0-2.69","","","","","","156","","","","","","[{""stimulus"":""img/green_wl/1.jpg"",""time"":57},{""stimulus"":""img/green_wl/2.jpg"",""time"":106},{""stimulus"":""img/green_wl/3.jpg"",""time"":151},{""stimulus"":""img/green_wl/4.jpg"",""time"":217},{""stimulus"":""img/green_wl/5.jpg"",""time"":250},{""stimulus"":""img/green_wl/6.jpg"",""time"":315},{""stimulus"":""img/green_wl/7.jpg"",""time"":364},{""stimulus"":""img/green_wl/8.jpg"",""time"":414},{""stimulus"":""img/green_wl/9.jpg"",""time"":462},{""stimulus"":""img/green_wl/10.jpg"",""time"":501},{""stimulus"":""img/green_wl/11.jpg"",""time"":551}]","[]"
"","","","choice","63d42387aba51e699ab9ce5c","bdp_lott","Fri Mar 24 2023 21:10:10 GMT-0400 (Eastern Daylight Time)","376747","green","red","image-keyboard-response","144","166793","0.0-5.0-1.70","","895","","img/green_wl/choose11.jpg","2","155","red","0.5","0.5","0.5","l","",""
"","","","","63d42387aba51e699ab9ce5c","bdp_lott","Fri Mar 24 2023 21:10:10 GMT-0400 (Eastern Daylight Time)","376747","green","red","animation","145","167398","0.0-5.0-2.70","","","","","","155","","","","","","[{""stimulus"":""img/red_wl/1.jpg"",""time"":59},{""stimulus"":""img/red_wl/2.jpg"",""time"":112},{""stimulus"":""img/red_wl/3.jpg"",""time"":162},{""stimulus"":""img/red_wl/4.jpg"",""time"":210},{""stimulus"":""img/red_wl/5.jpg"",""time"":261},{""stimulus"":""img/red_wl/6.jpg"",""time"":301},{""stimulus"":""img/red_wl/7.jpg"",""time"":351},{""stimulus"":""img/red_wl/8.jpg"",""time"":401},{""stimulus"":""img/red_wl/9.jpg"",""time"":465},{""stimulus"":""img/red_wl/10.jpg"",""time"":514},{""stimulus"":""img/red_wl/11.jpg"",""time"":568}]","[]"
"","","","choice","63d42387aba51e699ab9ce5c","bdp_lott","Fri Mar 24 2023 21:10:10 GMT-0400 (Eastern Daylight Time)","376747","green","red","image-keyboard-response","146","168068","0.0-5.0-1.71","","670","","img/red_wl/choose11.jpg","2","154","red","0.5","0.5","0.5","l","",""
"","","","","63d42387aba51e699ab9ce5c","bdp_lott","Fri Mar 24 2023 21:10:10 GMT-0400 (Eastern Daylight Time)","376747","green","red","animation","147","168733","0.0-5.0-2.71","","","","","","154","","","","","","[{""stimulus"":""img/red_wl/1.jpg"",""time"":62},{""stimulus"":""img/red_wl/2.jpg"",""time"":111},{""stimulus"":""img/red_wl/3.jpg"",""time"":152},{""stimulus"":""img/red_wl/4.jpg"",""time"":201},{""stimulus"":""img/red_wl/5.jpg"",""time"":260},{""stimulus"":""img/red_wl/6.jpg"",""time"":314},{""stimulus"":""img/red_wl/7.jpg"",""time"":352},{""stimulus"":""img/red_wl/8.jpg"",""time"":452},{""stimulus"":""img/red_wl/9.jpg"",""time"":515},{""stimulus"":""img/red_wl/10.jpg"",""time"":551},{""stimulus"":""img/red_wl/11.jpg"",""time"":602}]","[]"
"","","","choice","63d42387aba51e699ab9ce5c","bdp_lott","Fri Mar 24 2023 21:10:10 GMT-0400 (Eastern Daylight Time)","376747","green","red","image-keyboard-response","148","169297","0.0-5.0-1.72","","564","","img/red_wl/choose11.jpg","2","153","red","0.5","0.5","0.5","l","",""
"","","","","63d42387aba51e699ab9ce5c","bdp_lott","Fri Mar 24 2023 21:10:10 GMT-0400 (Eastern Daylight Time)","376747","green","red","animation","149","169913","0.0-5.0-2.72","","","","","","153","","","","","","[{""stimulus"":""img/red_wl/1.jpg"",""time"":59},{""stimulus"":""img/red_wl/2.jpg"",""time"":109},{""stimulus"":""img/red_wl/3.jpg"",""time"":151},{""stimulus"":""img/red_wl/4.jpg"",""time"":216},{""stimulus"":""img/red_wl/5.jpg"",""time"":266},{""stimulus"":""img/red_wl/6.jpg"",""time"":316},{""stimulus"":""img/red_wl/7.jpg"",""time"":351},{""stimulus"":""img/red_wl/8.jpg"",""time"":401},{""stimulus"":""img/red_wl/9.jpg"",""time"":451},{""stimulus"":""img/red_wl/10.jpg"",""time"":501},{""stimulus"":""img/red_wl/11.jpg"",""time"":550}]","[]"
"","","","choice","63d42387aba51e699ab9ce5c","bdp_lott","Fri Mar 24 2023 21:10:10 GMT-0400 (Eastern Daylight Time)","376747","green","red","image-keyboard-response","150","170567","0.0-5.0-1.73","","653","","img/red_wl/choose11.jpg","1","152","green","0.5","0.5","0.5","w","",""
"","","","","63d42387aba51e699ab9ce5c","bdp_lott","Fri Mar 24 2023 21:10:10 GMT-0400 (Eastern Daylight Time)","376747","green","red","animation","151","171182","0.0-5.0-2.73","","","","","","152","","","","","","[{""stimulus"":""img/green_wl/1.jpg"",""time"":53},{""stimulus"":""img/green_wl/2.jpg"",""time"":102},{""stimulus"":""img/green_wl/3.jpg"",""time"":152},{""stimulus"":""img/green_wl/4.jpg"",""time"":216},{""stimulus"":""img/green_wl/5.jpg"",""time"":252},{""stimulus"":""img/green_wl/6.jpg"",""time"":301},{""stimulus"":""img/green_wl/7.jpg"",""time"":351},{""stimulus"":""img/green_wl/8.jpg"",""time"":416},{""stimulus"":""img/green_wl/9.jpg"",""time"":466},{""stimulus"":""img/green_wl/10.jpg"",""time"":501},{""stimulus"":""img/green_wl/11.jpg"",""time"":566}]","[]"
"","","","choice","63d42387aba51e699ab9ce5c","bdp_lott","Fri Mar 24 2023 21:10:10 GMT-0400 (Eastern Daylight Time)","376747","green","red","image-keyboard-response","152","171932","0.0-5.0-1.74","","750","","img/green_wl/choose11.jpg","1","151","green","0.5","0.5","0.5","l","",""
"","","","","63d42387aba51e699ab9ce5c","bdp_lott","Fri Mar 24 2023 21:10:10 GMT-0400 (Eastern Daylight Time)","376747","green","red","animation","153","172548","0.0-5.0-2.74","","","","","","151","","","","","","[{""stimulus"":""img/green_ll/1.jpg"",""time"":55},{""stimulus"":""img/green_ll/2.jpg"",""time"":106},{""stimulus"":""img/green_ll/3.jpg"",""time"":151},{""stimulus"":""img/green_ll/4.jpg"",""time"":201},{""stimulus"":""img/green_ll/5.jpg"",""time"":266},{""stimulus"":""img/green_ll/6.jpg"",""time"":300},{""stimulus"":""img/green_ll/7.jpg"",""time"":351},{""stimulus"":""img/green_ll/8.jpg"",""time"":417},{""stimulus"":""img/green_ll/9.jpg"",""time"":450},{""stimulus"":""img/green_ll/10.jpg"",""time"":501},{""stimulus"":""img/green_ll/11.jpg"",""time"":551}]","[]"
"","","","choice","63d42387aba51e699ab9ce5c","bdp_lott","Fri Mar 24 2023 21:10:10 GMT-0400 (Eastern Daylight Time)","376747","green","red","image-keyboard-response","154","173517","0.0-5.0-1.75","","969","","img/green_ll/choose11.jpg","1","150","green","0.5","0.5","0.5","w","",""
"","","","","63d42387aba51e699ab9ce5c","bdp_lott","Fri Mar 24 2023 21:10:10 GMT-0400 (Eastern Daylight Time)","376747","green","red","animation","155","174117","0.0-5.0-2.75","","","","","","150","","","","","","[{""stimulus"":""img/green_wl/1.jpg"",""time"":52},{""stimulus"":""img/green_wl/2.jpg"",""time"":103},{""stimulus"":""img/green_wl/3.jpg"",""time"":151},{""stimulus"":""img/green_wl/4.jpg"",""time"":201},{""stimulus"":""img/green_wl/5.jpg"",""time"":265},{""stimulus"":""img/green_wl/6.jpg"",""time"":314},{""stimulus"":""img/green_wl/7.jpg"",""time"":351},{""stimulus"":""img/green_wl/8.jpg"",""time"":401},{""stimulus"":""img/green_wl/9.jpg"",""time"":452},{""stimulus"":""img/green_wl/10.jpg"",""time"":501},{""stimulus"":""img/green_wl/11.jpg"",""time"":551}]","[]"
"","","","choice","63d42387aba51e699ab9ce5c","bdp_lott","Fri Mar 24 2023 21:10:10 GMT-0400 (Eastern Daylight Time)","376747","green","red","image-keyboard-response","156","174849","0.0-5.0-1.76","","731","","img/green_wl/choose11.jpg","1","149","green","0.5","0.1","0.5","l","",""
"","","","","63d42387aba51e699ab9ce5c","bdp_lott","Fri Mar 24 2023 21:10:10 GMT-0400 (Eastern Daylight Time)","376747","green","red","animation","157","175450","0.0-5.0-2.76","","","","","","149","","","","","","[{""stimulus"":""img/green_ll/1.jpg"",""time"":54},{""stimulus"":""img/green_ll/2.jpg"",""time"":104},{""stimulus"":""img/green_ll/3.jpg"",""time"":152},{""stimulus"":""img/green_ll/4.jpg"",""time"":215},{""stimulus"":""img/green_ll/5.jpg"",""time"":264},{""stimulus"":""img/green_ll/6.jpg"",""time"":313},{""stimulus"":""img/green_ll/7.jpg"",""time"":361},{""stimulus"":""img/green_ll/8.jpg"",""time"":411},{""stimulus"":""img/green_ll/9.jpg"",""time"":459},{""stimulus"":""img/green_ll/10.jpg"",""time"":507},{""stimulus"":""img/green_ll/11.jpg"",""time"":556}]","[]"
"","","","choice","63d42387aba51e699ab9ce5c","bdp_lott","Fri Mar 24 2023 21:10:10 GMT-0400 (Eastern Daylight Time)","376747","green","red","image-keyboard-response","158","176278","0.0-5.0-1.77","","827","","img/green_ll/choose11.jpg","2","148","red","0.5","0.1","0.1","l","",""
"","","","","63d42387aba51e699ab9ce5c","bdp_lott","Fri Mar 24 2023 21:10:10 GMT-0400 (Eastern Daylight Time)","376747","green","red","animation","159","176879","0.0-5.0-2.77","","","","","","148","","","","","","[{""stimulus"":""img/red_ll/1.jpg"",""time"":60},{""stimulus"":""img/red_ll/2.jpg"",""time"":102},{""stimulus"":""img/red_ll/3.jpg"",""time"":165},{""stimulus"":""img/red_ll/4.jpg"",""time"":214},{""stimulus"":""img/red_ll/5.jpg"",""time"":250},{""stimulus"":""img/red_ll/6.jpg"",""time"":314},{""stimulus"":""img/red_ll/7.jpg"",""time"":362},{""stimulus"":""img/red_ll/8.jpg"",""time"":412},{""stimulus"":""img/red_ll/9.jpg"",""time"":451},{""stimulus"":""img/red_ll/10.jpg"",""time"":500},{""stimulus"":""img/red_ll/11.jpg"",""time"":566}]","[]"
"","","","choice","63d42387aba51e699ab9ce5c","bdp_lott","Fri Mar 24 2023 21:10:10 GMT-0400 (Eastern Daylight Time)","376747","green","red","image-keyboard-response","160","177556","0.0-5.0-1.78","","676","","img/red_ll/choose11.jpg","2","147","red","0.5","0.1","0.1","l","",""
"","","","","63d42387aba51e699ab9ce5c","bdp_lott","Fri Mar 24 2023 21:10:10 GMT-0400 (Eastern Daylight Time)","376747","green","red","animation","161","178157","0.0-5.0-2.78","","","","","","147","","","","","","[{""stimulus"":""img/red_ll/1.jpg"",""time"":57},{""stimulus"":""img/red_ll/2.jpg"",""time"":107},{""stimulus"":""img/red_ll/3.jpg"",""time"":151},{""stimulus"":""img/red_ll/4.jpg"",""time"":201},{""stimulus"":""img/red_ll/5.jpg"",""time"":251},{""stimulus"":""img/red_ll/6.jpg"",""time"":301},{""stimulus"":""img/red_ll/7.jpg"",""time"":366},{""stimulus"":""img/red_ll/8.jpg"",""time"":416},{""stimulus"":""img/red_ll/9.jpg"",""time"":464},{""stimulus"":""img/red_ll/10.jpg"",""time"":512},{""stimulus"":""img/red_ll/11.jpg"",""time"":562}]","[]"
"","","","choice","63d42387aba51e699ab9ce5c","bdp_lott","Fri Mar 24 2023 21:10:10 GMT-0400 (Eastern Daylight Time)","376747","green","red","image-keyboard-response","162","178747","0.0-5.0-1.79","","589","","img/red_ll/choose11.jpg","2","146","red","0.5","0.1","0.1","l","",""
"","","","","63d42387aba51e699ab9ce5c","bdp_lott","Fri Mar 24 2023 21:10:10 GMT-0400 (Eastern Daylight Time)","376747","green","red","animation","163","179348","0.0-5.0-2.79","","","","","","146","","","","","","[{""stimulus"":""img/red_ll/1.jpg"",""time"":61},{""stimulus"":""img/red_ll/2.jpg"",""time"":111},{""stimulus"":""img/red_ll/3.jpg"",""time"":151},{""stimulus"":""img/red_ll/4.jpg"",""time"":216},{""stimulus"":""img/red_ll/5.jpg"",""time"":258},{""stimulus"":""img/red_ll/6.jpg"",""time"":316},{""stimulus"":""img/red_ll/7.jpg"",""time"":365},{""stimulus"":""img/red_ll/8.jpg"",""time"":414},{""stimulus"":""img/red_ll/9.jpg"",""time"":461},{""stimulus"":""img/red_ll/10.jpg"",""time"":511},{""stimulus"":""img/red_ll/11.jpg"",""time"":551}]","[]"
"","","","choice","63d42387aba51e699ab9ce5c","bdp_lott","Fri Mar 24 2023 21:10:10 GMT-0400 (Eastern Daylight Time)","376747","green","red","image-keyboard-response","164","179923","0.0-5.0-1.80","","575","","img/red_ll/choose11.jpg","2","145","red","0.5","0.1","0.1","l","",""
"","","","","63d42387aba51e699ab9ce5c","bdp_lott","Fri Mar 24 2023 21:10:10 GMT-0400 (Eastern Daylight Time)","376747","green","red","animation","165","180525","0.0-5.0-2.80","","","","","","145","","","","","","[{""stimulus"":""img/red_ll/1.jpg"",""time"":55},{""stimulus"":""img/red_ll/2.jpg"",""time"":101},{""stimulus"":""img/red_ll/3.jpg"",""time"":151},{""stimulus"":""img/red_ll/4.jpg"",""time"":216},{""stimulus"":""img/red_ll/5.jpg"",""time"":266},{""stimulus"":""img/red_ll/6.jpg"",""time"":317},{""stimulus"":""img/red_ll/7.jpg"",""time"":351},{""stimulus"":""img/red_ll/8.jpg"",""time"":401},{""stimulus"":""img/red_ll/9.jpg"",""time"":451},{""stimulus"":""img/red_ll/10.jpg"",""time"":515},{""stimulus"":""img/red_ll/11.jpg"",""time"":551}]","[]"
"","","","choice","63d42387aba51e699ab9ce5c","bdp_lott","Fri Mar 24 2023 21:10:10 GMT-0400 (Eastern Daylight Time)","376747","green","red","image-keyboard-response","166","181079","0.0-5.0-1.81","","554","","img/red_ll/choose11.jpg","1","144","green","0.5","0.1","0.5","w","",""
"","","","","63d42387aba51e699ab9ce5c","bdp_lott","Fri Mar 24 2023 21:10:10 GMT-0400 (Eastern Daylight Time)","376747","green","red","animation","167","181693","0.0-5.0-2.81","","","","","","144","","","","","","[{""stimulus"":""img/green_wl/1.jpg"",""time"":51},{""stimulus"":""img/green_wl/2.jpg"",""time"":102},{""stimulus"":""img/green_wl/3.jpg"",""time"":167},{""stimulus"":""img/green_wl/4.jpg"",""time"":215},{""stimulus"":""img/green_wl/5.jpg"",""time"":267},{""stimulus"":""img/green_wl/6.jpg"",""time"":316},{""stimulus"":""img/green_wl/7.jpg"",""time"":364},{""stimulus"":""img/green_wl/8.jpg"",""time"":402},{""stimulus"":""img/green_wl/9.jpg"",""time"":452},{""stimulus"":""img/green_wl/10.jpg"",""time"":514},{""stimulus"":""img/green_wl/11.jpg"",""time"":564}]","[]"
"","","","choice","63d42387aba51e699ab9ce5c","bdp_lott","Fri Mar 24 2023 21:10:10 GMT-0400 (Eastern Daylight Time)","376747","green","red","image-keyboard-response","168","182499","0.0-5.0-1.82","","806","","img/green_wl/choose11.jpg","1","143","green","0.5","0.1","0.5","l","",""
"","","","","63d42387aba51e699ab9ce5c","bdp_lott","Fri Mar 24 2023 21:10:10 GMT-0400 (Eastern Daylight Time)","376747","green","red","animation","169","183111","0.0-5.0-2.82","","","","","","143","","","","","","[{""stimulus"":""img/green_ll/1.jpg"",""time"":87},{""stimulus"":""img/green_ll/2.jpg"",""time"":118},{""stimulus"":""img/green_ll/3.jpg"",""time"":152},{""stimulus"":""img/green_ll/4.jpg"",""time"":201},{""stimulus"":""img/green_ll/5.jpg"",""time"":252},{""stimulus"":""img/green_ll/6.jpg"",""time"":315},{""stimulus"":""img/green_ll/7.jpg"",""time"":363},{""stimulus"":""img/green_ll/8.jpg"",""time"":412},{""stimulus"":""img/green_ll/9.jpg"",""time"":450},{""stimulus"":""img/green_ll/10.jpg"",""time"":514},{""stimulus"":""img/green_ll/11.jpg"",""time"":564}]","[]"
"","","","choice","63d42387aba51e699ab9ce5c","bdp_lott","Fri Mar 24 2023 21:10:10 GMT-0400 (Eastern Daylight Time)","376747","green","red","image-keyboard-response","170","183787","0.0-5.0-1.83","","675","","img/green_ll/choose11.jpg","2","142","red","0.5","0.1","0.1","l","",""
"","","","","63d42387aba51e699ab9ce5c","bdp_lott","Fri Mar 24 2023 21:10:10 GMT-0400 (Eastern Daylight Time)","376747","green","red","animation","171","184388","0.0-5.0-2.83","","","","","","142","","","","","","[{""stimulus"":""img/red_ll/1.jpg"",""time"":53},{""stimulus"":""img/red_ll/2.jpg"",""time"":111},{""stimulus"":""img/red_ll/3.jpg"",""time"":165},{""stimulus"":""img/red_ll/4.jpg"",""time"":213},{""stimulus"":""img/red_ll/5.jpg"",""time"":251},{""stimulus"":""img/red_ll/6.jpg"",""time"":317},{""stimulus"":""img/red_ll/7.jpg"",""time"":364},{""stimulus"":""img/red_ll/8.jpg"",""time"":412},{""stimulus"":""img/red_ll/9.jpg"",""time"":459},{""stimulus"":""img/red_ll/10.jpg"",""time"":507},{""stimulus"":""img/red_ll/11.jpg"",""time"":557}]","[]"
"","","","choice","63d42387aba51e699ab9ce5c","bdp_lott","Fri Mar 24 2023 21:10:10 GMT-0400 (Eastern Daylight Time)","376747","green","red","image-keyboard-response","172","185039","0.0-5.0-1.84","","650","","img/red_ll/choose11.jpg","1","141","green","0.5","0.1","0.5","l","",""
"","","","","63d42387aba51e699ab9ce5c","bdp_lott","Fri Mar 24 2023 21:10:10 GMT-0400 (Eastern Daylight Time)","376747","green","red","animation","173","185654","0.0-5.0-2.84","","","","","","141","","","","","","[{""stimulus"":""img/green_ll/1.jpg"",""time"":58},{""stimulus"":""img/green_ll/2.jpg"",""time"":108},{""stimulus"":""img/green_ll/3.jpg"",""time"":150},{""stimulus"":""img/green_ll/4.jpg"",""time"":200},{""stimulus"":""img/green_ll/5.jpg"",""time"":265},{""stimulus"":""img/green_ll/6.jpg"",""time"":301},{""stimulus"":""img/green_ll/7.jpg"",""time"":367},{""stimulus"":""img/green_ll/8.jpg"",""time"":400},{""stimulus"":""img/green_ll/9.jpg"",""time"":466},{""stimulus"":""img/green_ll/10.jpg"",""time"":500},{""stimulus"":""img/green_ll/11.jpg"",""time"":565}]","[]"
"","","","choice","63d42387aba51e699ab9ce5c","bdp_lott","Fri Mar 24 2023 21:10:10 GMT-0400 (Eastern Daylight Time)","376747","green","red","image-keyboard-response","174","186623","0.0-5.0-1.85","","968","","img/green_ll/choose11.jpg","1","140","green","0.5","0.1","0.5","l","",""
"","","","","63d42387aba51e699ab9ce5c","bdp_lott","Fri Mar 24 2023 21:10:10 GMT-0400 (Eastern Daylight Time)","376747","green","red","animation","175","187225","0.0-5.0-2.85","","","","","","140","","","","","","[{""stimulus"":""img/green_ll/1.jpg"",""time"":64},{""stimulus"":""img/green_ll/2.jpg"",""time"":114},{""stimulus"":""img/green_ll/3.jpg"",""time"":150},{""stimulus"":""img/green_ll/4.jpg"",""time"":217},{""stimulus"":""img/green_ll/5.jpg"",""time"":250},{""stimulus"":""img/green_ll/6.jpg"",""time"":315},{""stimulus"":""img/green_ll/7.jpg"",""time"":364},{""stimulus"":""img/green_ll/8.jpg"",""time"":400},{""stimulus"":""img/green_ll/9.jpg"",""time"":466},{""stimulus"":""img/green_ll/10.jpg"",""time"":500},{""stimulus"":""img/green_ll/11.jpg"",""time"":566}]","[]"
"","","","choice","63d42387aba51e699ab9ce5c","bdp_lott","Fri Mar 24 2023 21:10:10 GMT-0400 (Eastern Daylight Time)","376747","green","red","image-keyboard-response","176","188217","0.0-5.0-1.86","","991","","img/green_ll/choose11.jpg","2","139","red","0.5","0.1","0.1","l","",""
"","","","","63d42387aba51e699ab9ce5c","bdp_lott","Fri Mar 24 2023 21:10:10 GMT-0400 (Eastern Daylight Time)","376747","green","red","animation","177","188818","0.0-5.0-2.86","","","","","","139","","","","","","[{""stimulus"":""img/red_ll/1.jpg"",""time"":55},{""stimulus"":""img/red_ll/2.jpg"",""time"":102},{""stimulus"":""img/red_ll/3.jpg"",""time"":151},{""stimulus"":""img/red_ll/4.jpg"",""time"":202},{""stimulus"":""img/red_ll/5.jpg"",""time"":252},{""stimulus"":""img/red_ll/6.jpg"",""time"":316},{""stimulus"":""img/red_ll/7.jpg"",""time"":352},{""stimulus"":""img/red_ll/8.jpg"",""time"":401},{""stimulus"":""img/red_ll/9.jpg"",""time"":465},{""stimulus"":""img/red_ll/10.jpg"",""time"":501},{""stimulus"":""img/red_ll/11.jpg"",""time"":567}]","[]"
"","","","choice","63d42387aba51e699ab9ce5c","bdp_lott","Fri Mar 24 2023 21:10:10 GMT-0400 (Eastern Daylight Time)","376747","green","red","image-keyboard-response","178","189586","0.0-5.0-1.87","","768","","img/red_ll/choose11.jpg","1","138","green","0.5","0.1","0.5","l","",""
"","","","","63d42387aba51e699ab9ce5c","bdp_lott","Fri Mar 24 2023 21:10:10 GMT-0400 (Eastern Daylight Time)","376747","green","red","animation","179","190194","0.0-5.0-2.87","","","","","","138","","","","","","[{""stimulus"":""img/green_ll/1.jpg"",""time"":55},{""stimulus"":""img/green_ll/2.jpg"",""time"":105},{""stimulus"":""img/green_ll/3.jpg"",""time"":151},{""stimulus"":""img/green_ll/4.jpg"",""time"":217},{""stimulus"":""img/green_ll/5.jpg"",""time"":266},{""stimulus"":""img/green_ll/6.jpg"",""time"":315},{""stimulus"":""img/green_ll/7.jpg"",""time"":352},{""stimulus"":""img/green_ll/8.jpg"",""time"":417},{""stimulus"":""img/green_ll/9.jpg"",""time"":464},{""stimulus"":""img/green_ll/10.jpg"",""time"":513},{""stimulus"":""img/green_ll/11.jpg"",""time"":560}]","[]"
"","","","choice","63d42387aba51e699ab9ce5c","bdp_lott","Fri Mar 24 2023 21:10:10 GMT-0400 (Eastern Daylight Time)","376747","green","red","image-keyboard-response","180","190890","0.0-5.0-1.88","","696","","img/green_ll/choose11.jpg","2","137","red","0.5","0.1","0.1","l","",""
"","","","","63d42387aba51e699ab9ce5c","bdp_lott","Fri Mar 24 2023 21:10:10 GMT-0400 (Eastern Daylight Time)","376747","green","red","animation","181","191503","0.0-5.0-2.88","","","","","","137","","","","","","[{""stimulus"":""img/red_ll/1.jpg"",""time"":72},{""stimulus"":""img/red_ll/2.jpg"",""time"":102},{""stimulus"":""img/red_ll/3.jpg"",""time"":151},{""stimulus"":""img/red_ll/4.jpg"",""time"":201},{""stimulus"":""img/red_ll/5.jpg"",""time"":269},{""stimulus"":""img/red_ll/6.jpg"",""time"":301},{""stimulus"":""img/red_ll/7.jpg"",""time"":353},{""stimulus"":""img/red_ll/8.jpg"",""time"":401},{""stimulus"":""img/red_ll/9.jpg"",""time"":466},{""stimulus"":""img/red_ll/10.jpg"",""time"":515},{""stimulus"":""img/red_ll/11.jpg"",""time"":562}]","[]"
"","","","choice","63d42387aba51e699ab9ce5c","bdp_lott","Fri Mar 24 2023 21:10:10 GMT-0400 (Eastern Daylight Time)","376747","green","red","image-keyboard-response","182","192001","0.0-5.0-1.89","","498","","img/red_ll/choose11.jpg","2","136","red","0.5","0.1","0.1","l","",""
"","","","","63d42387aba51e699ab9ce5c","bdp_lott","Fri Mar 24 2023 21:10:10 GMT-0400 (Eastern Daylight Time)","376747","green","red","animation","183","192603","0.0-5.0-2.89","","","","","","136","","","","","","[{""stimulus"":""img/red_ll/1.jpg"",""time"":63},{""stimulus"":""img/red_ll/2.jpg"",""time"":109},{""stimulus"":""img/red_ll/3.jpg"",""time"":159},{""stimulus"":""img/red_ll/4.jpg"",""time"":207},{""stimulus"":""img/red_ll/5.jpg"",""time"":257},{""stimulus"":""img/red_ll/6.jpg"",""time"":302},{""stimulus"":""img/red_ll/7.jpg"",""time"":351},{""stimulus"":""img/red_ll/8.jpg"",""time"":416},{""stimulus"":""img/red_ll/9.jpg"",""time"":466},{""stimulus"":""img/red_ll/10.jpg"",""time"":517},{""stimulus"":""img/red_ll/11.jpg"",""time"":551}]","[]"
"","","","choice","63d42387aba51e699ab9ce5c","bdp_lott","Fri Mar 24 2023 21:10:10 GMT-0400 (Eastern Daylight Time)","376747","green","red","image-keyboard-response","184","193220","0.0-5.0-1.90","","617","","img/red_ll/choose11.jpg","2","135","red","0.5","0.1","0.1","l","",""
"","","","","63d42387aba51e699ab9ce5c","bdp_lott","Fri Mar 24 2023 21:10:10 GMT-0400 (Eastern Daylight Time)","376747","green","red","animation","185","193833","0.0-5.0-2.90","","","","","","135","","","","","","[{""stimulus"":""img/red_ll/1.jpg"",""time"":62},{""stimulus"":""img/red_ll/2.jpg"",""time"":113},{""stimulus"":""img/red_ll/3.jpg"",""time"":151},{""stimulus"":""img/red_ll/4.jpg"",""time"":216},{""stimulus"":""img/red_ll/5.jpg"",""time"":254},{""stimulus"":""img/red_ll/6.jpg"",""time"":315},{""stimulus"":""img/red_ll/7.jpg"",""time"":351},{""stimulus"":""img/red_ll/8.jpg"",""time"":416},{""stimulus"":""img/red_ll/9.jpg"",""time"":466},{""stimulus"":""img/red_ll/10.jpg"",""time"":500},{""stimulus"":""img/red_ll/11.jpg"",""time"":565}]","[]"
"","","","choice","63d42387aba51e699ab9ce5c","bdp_lott","Fri Mar 24 2023 21:10:10 GMT-0400 (Eastern Daylight Time)","376747","green","red","image-keyboard-response","186","194538","0.0-5.0-1.91","","705","","img/red_ll/choose11.jpg","1","134","green","0.5","0.1","0.5","l","",""
"","","","","63d42387aba51e699ab9ce5c","bdp_lott","Fri Mar 24 2023 21:10:10 GMT-0400 (Eastern Daylight Time)","376747","green","red","animation","187","195155","0.0-5.0-2.91","","","","","","134","","","","","","[{""stimulus"":""img/green_ll/1.jpg"",""time"":54},{""stimulus"":""img/green_ll/2.jpg"",""time"":104},{""stimulus"":""img/green_ll/3.jpg"",""time"":150},{""stimulus"":""img/green_ll/4.jpg"",""time"":216},{""stimulus"":""img/green_ll/5.jpg"",""time"":250},{""stimulus"":""img/green_ll/6.jpg"",""time"":300},{""stimulus"":""img/green_ll/7.jpg"",""time"":351},{""stimulus"":""img/green_ll/8.jpg"",""time"":416},{""stimulus"":""img/green_ll/9.jpg"",""time"":466},{""stimulus"":""img/green_ll/10.jpg"",""time"":501},{""stimulus"":""img/green_ll/11.jpg"",""time"":551}]","[]"
"","","","choice","63d42387aba51e699ab9ce5c","bdp_lott","Fri Mar 24 2023 21:10:10 GMT-0400 (Eastern Daylight Time)","376747","green","red","image-keyboard-response","188","195892","0.0-5.0-1.92","","735","","img/green_ll/choose11.jpg","2","133","red","0.5","0.1","0.1","l","",""
"","","","","63d42387aba51e699ab9ce5c","bdp_lott","Fri Mar 24 2023 21:10:10 GMT-0400 (Eastern Daylight Time)","376747","green","red","animation","189","196492","0.0-5.0-2.92","","","","","","133","","","","","","[{""stimulus"":""img/red_ll/1.jpg"",""time"":64},{""stimulus"":""img/red_ll/2.jpg"",""time"":114},{""stimulus"":""img/red_ll/3.jpg"",""time"":151},{""stimulus"":""img/red_ll/4.jpg"",""time"":201},{""stimulus"":""img/red_ll/5.jpg"",""time"":265},{""stimulus"":""img/red_ll/6.jpg"",""time"":301},{""stimulus"":""img/red_ll/7.jpg"",""time"":352},{""stimulus"":""img/red_ll/8.jpg"",""time"":416},{""stimulus"":""img/red_ll/9.jpg"",""time"":451},{""stimulus"":""img/red_ll/10.jpg"",""time"":501},{""stimulus"":""img/red_ll/11.jpg"",""time"":552}]","[]"
"","","","choice","63d42387aba51e699ab9ce5c","bdp_lott","Fri Mar 24 2023 21:10:10 GMT-0400 (Eastern Daylight Time)","376747","green","red","image-keyboard-response","190","197269","0.0-5.0-1.93","","776","","img/red_ll/choose11.jpg","2","132","red","0.5","0.1","0.1","l","",""
