"trial_type","trial_index","time_elapsed","internal_node_id","subject_id","task","startTime","totalTime","fairMachine","unfairMachine","view_history","rt","event","trial","time","trialtype","success","stimulus","key_press","roundsLeft","chosen","pFairMachWin","pUnfairMachWin","pTrialWin","outcome","animation_sequence","responses"
"pavlovia","0","3","0.0-0.0","63f0fb9941434d10e8e4909b","bdp_lott","Mon Apr 10 2023 06:50:55 GMT-0400 (Eastern Daylight Time)","590530","red","green","","","","","","","","","","","","","","","","",""
"instructions","1","3154","0.0-1.0","63f0fb9941434d10e8e4909b","bdp_lott","Mon Apr 10 2023 06:50:55 GMT-0400 (Eastern Daylight Time)","590530","red","green","[{""page_index"":0,""viewing_time"":3151}]","3151","","","","","","","","","","","","","","",""
"","","","","63f0fb9941434d10e8e4909b","bdp_lott","Mon Apr 10 2023 06:50:55 GMT-0400 (Eastern Daylight Time)","590530","red","green","","","fullscreenenter","2","5892","fullscreenenter","","","","","","","","","","",""
"fullscreen","2","6838","0.0-2.0","63f0fb9941434d10e8e4909b","bdp_lott","Mon Apr 10 2023 06:50:55 GMT-0400 (Eastern Daylight Time)","590530","red","green","","","","","","","true","","","","","","","","","",""
"instructions","3","101321","0.0-4.0","63f0fb9941434d10e8e4909b","bdp_lott","Mon Apr 10 2023 06:50:55 GMT-0400 (Eastern Daylight Time)","590530","red","green","[{""page_index"":0,""viewing_time"":94482}]","94482","","","","","","","","","","","","","","",""
"image-keyboard-response","4","106609","0.0-5.0-1.0","63f0fb9941434d10e8e4909b","bdp_lott","Mon Apr 10 2023 06:50:55 GMT-0400 (Eastern Daylight Time)","590530","red","green","","5286","","","","choice","","img/red_ll/initchoose11.jpg","1","225","green","0.5","0.5","0.5","l","",""
"animation","5","107210","0.0-5.0-2.0","63f0fb9941434d10e8e4909b","bdp_lott","Mon Apr 10 2023 06:50:55 GMT-0400 (Eastern Daylight Time)","590530","red","green","","","","","","","","","","225","","","","","","[{""stimulus"":""img/green_ll/1.jpg"",""time"":51},{""stimulus"":""img/green_ll/2.jpg"",""time"":101},{""stimulus"":""img/green_ll/3.jpg"",""time"":151},{""stimulus"":""img/green_ll/4.jpg"",""time"":201},{""stimulus"":""img/green_ll/5.jpg"",""time"":251},{""stimulus"":""img/green_ll/6.jpg"",""time"":301},{""stimulus"":""img/green_ll/7.jpg"",""time"":352},{""stimulus"":""img/green_ll/8.jpg"",""time"":401},{""stimulus"":""img/green_ll/9.jpg"",""time"":451},{""stimulus"":""img/green_ll/10.jpg"",""time"":501},{""stimulus"":""img/green_ll/11.jpg"",""time"":551}]","[]"
"image-keyboard-response","6","110393","0.0-5.0-1.1","63f0fb9941434d10e8e4909b","bdp_lott","Mon Apr 10 2023 06:50:55 GMT-0400 (Eastern Daylight Time)","590530","red","green","","3181","","","","choice","","img/green_ll/choose11.jpg","1","224","green","0.5","0.5","0.5","l","",""
"animation","7","110994","0.0-5.0-2.1","63f0fb9941434d10e8e4909b","bdp_lott","Mon Apr 10 2023 06:50:55 GMT-0400 (Eastern Daylight Time)","590530","red","green","","","","","","","","","","224","","","","","","[{""stimulus"":""img/green_ll/1.jpg"",""time"":50},{""stimulus"":""img/green_ll/2.jpg"",""time"":102},{""stimulus"":""img/green_ll/3.jpg"",""time"":150},{""stimulus"":""img/green_ll/4.jpg"",""time"":201},{""stimulus"":""img/green_ll/5.jpg"",""time"":252},{""stimulus"":""img/green_ll/6.jpg"",""time"":301},{""stimulus"":""img/green_ll/7.jpg"",""time"":351},{""stimulus"":""img/green_ll/8.jpg"",""time"":401},{""stimulus"":""img/green_ll/9.jpg"",""time"":450},{""stimulus"":""img/green_ll/10.jpg"",""time"":501},{""stimulus"":""img/green_ll/11.jpg"",""time"":552}]","[]"
"image-keyboard-response","8","112881","0.0-5.0-1.2","63f0fb9941434d10e8e4909b","bdp_lott","Mon Apr 10 2023 06:50:55 GMT-0400 (Eastern Daylight Time)","590530","red","green","","1887","","","","choice","","img/green_ll/choose11.jpg","1","223","green","0.5","0.5","0.5","w","",""
"animation","9","113483","0.0-5.0-2.2","63f0fb9941434d10e8e4909b","bdp_lott","Mon Apr 10 2023 06:50:55 GMT-0400 (Eastern Daylight Time)","590530","red","green","","","","","","","","","","223","","","","","","[{""stimulus"":""img/green_wl/1.jpg"",""time"":52},{""stimulus"":""img/green_wl/2.jpg"",""time"":101},{""stimulus"":""img/green_wl/3.jpg"",""time"":151},{""stimulus"":""img/green_wl/4.jpg"",""time"":201},{""stimulus"":""img/green_wl/5.jpg"",""time"":251},{""stimulus"":""img/green_wl/6.jpg"",""time"":302},{""stimulus"":""img/green_wl/7.jpg"",""time"":351},{""stimulus"":""img/green_wl/8.jpg"",""time"":401},{""stimulus"":""img/green_wl/9.jpg"",""time"":452},{""stimulus"":""img/green_wl/10.jpg"",""time"":501},{""stimulus"":""img/green_wl/11.jpg"",""time"":551}]","[]"
"image-keyboard-response","10","116745","0.0-5.0-1.3","63f0fb9941434d10e8e4909b","bdp_lott","Mon Apr 10 2023 06:50:55 GMT-0400 (Eastern Daylight Time)","590530","red","green","","3261","","","","choice","","img/green_wl/choose11.jpg","1","222","green","0.5","0.5","0.5","l","",""
"animation","11","117345","0.0-5.0-2.3","63f0fb9941434d10e8e4909b","bdp_lott","Mon Apr 10 2023 06:50:55 GMT-0400 (Eastern Daylight Time)","590530","red","green","","","","","","","","","","222","","","","","","[{""stimulus"":""img/green_ll/1.jpg"",""time"":51},{""stimulus"":""img/green_ll/2.jpg"",""time"":101},{""stimulus"":""img/green_ll/3.jpg"",""time"":151},{""stimulus"":""img/green_ll/4.jpg"",""time"":200},{""stimulus"":""img/green_ll/5.jpg"",""time"":251},{""stimulus"":""img/green_ll/6.jpg"",""time"":301},{""stimulus"":""img/green_ll/7.jpg"",""time"":351},{""stimulus"":""img/green_ll/8.jpg"",""time"":401},{""stimulus"":""img/green_ll/9.jpg"",""time"":451},{""stimulus"":""img/green_ll/10.jpg"",""time"":501},{""stimulus"":""img/green_ll/11.jpg"",""time"":551}]","[]"
"image-keyboard-response","12","119849","0.0-5.0-1.4","63f0fb9941434d10e8e4909b","bdp_lott","Mon Apr 10 2023 06:50:55 GMT-0400 (Eastern Daylight Time)","590530","red","green","","2502","","","","choice","","img/green_ll/choose11.jpg","1","221","green","0.5","0.5","0.5","w","",""
"animation","13","120449","0.0-5.0-2.4","63f0fb9941434d10e8e4909b","bdp_lott","Mon Apr 10 2023 06:50:55 GMT-0400 (Eastern Daylight Time)","590530","red","green","","","","","","","","","","221","","","","","","[{""stimulus"":""img/green_wl/1.jpg"",""time"":51},{""stimulus"":""img/green_wl/2.jpg"",""time"":101},{""stimulus"":""img/green_wl/3.jpg"",""time"":151},{""stimulus"":""img/green_wl/4.jpg"",""time"":201},{""stimulus"":""img/green_wl/5.jpg"",""time"":251},{""stimulus"":""img/green_wl/6.jpg"",""time"":302},{""stimulus"":""img/green_wl/7.jpg"",""time"":351},{""stimulus"":""img/green_wl/8.jpg"",""time"":401},{""stimulus"":""img/green_wl/9.jpg"",""time"":451},{""stimulus"":""img/green_wl/10.jpg"",""time"":500},{""stimulus"":""img/green_wl/11.jpg"",""time"":552}]","[]"
"image-keyboard-response","14","123681","0.0-5.0-1.5","63f0fb9941434d10e8e4909b","bdp_lott","Mon Apr 10 2023 06:50:55 GMT-0400 (Eastern Daylight Time)","590530","red","green","","3232","","","","choice","","img/green_wl/choose11.jpg","2","220","red","0.5","0.5","0.5","l","",""
"animation","15","124283","0.0-5.0-2.5","63f0fb9941434d10e8e4909b","bdp_lott","Mon Apr 10 2023 06:50:55 GMT-0400 (Eastern Daylight Time)","590530","red","green","","","","","","","","","","220","","","","","","[{""stimulus"":""img/red_wl/1.jpg"",""time"":51},{""stimulus"":""img/red_wl/2.jpg"",""time"":102},{""stimulus"":""img/red_wl/3.jpg"",""time"":151},{""stimulus"":""img/red_wl/4.jpg"",""time"":201},{""stimulus"":""img/red_wl/5.jpg"",""time"":252},{""stimulus"":""img/red_wl/6.jpg"",""time"":301},{""stimulus"":""img/red_wl/7.jpg"",""time"":351},{""stimulus"":""img/red_wl/8.jpg"",""time"":401},{""stimulus"":""img/red_wl/9.jpg"",""time"":451},{""stimulus"":""img/red_wl/10.jpg"",""time"":506},{""stimulus"":""img/red_wl/11.jpg"",""time"":552}]","[]"
"image-keyboard-response","16","126761","0.0-5.0-1.6","63f0fb9941434d10e8e4909b","bdp_lott","Mon Apr 10 2023 06:50:55 GMT-0400 (Eastern Daylight Time)","590530","red","green","","2477","","","","choice","","img/red_wl/choose11.jpg","2","219","red","0.5","0.5","0.5","w","",""
"animation","17","127362","0.0-5.0-2.6","63f0fb9941434d10e8e4909b","bdp_lott","Mon Apr 10 2023 06:50:55 GMT-0400 (Eastern Daylight Time)","590530","red","green","","","","","","","","","","219","","","","","","[{""stimulus"":""img/red_ww/1.jpg"",""time"":50},{""stimulus"":""img/red_ww/2.jpg"",""time"":101},{""stimulus"":""img/red_ww/3.jpg"",""time"":151},{""stimulus"":""img/red_ww/4.jpg"",""time"":201},{""stimulus"":""img/red_ww/5.jpg"",""time"":252},{""stimulus"":""img/red_ww/6.jpg"",""time"":302},{""stimulus"":""img/red_ww/7.jpg"",""time"":351},{""stimulus"":""img/red_ww/8.jpg"",""time"":401},{""stimulus"":""img/red_ww/9.jpg"",""time"":451},{""stimulus"":""img/red_ww/10.jpg"",""time"":500},{""stimulus"":""img/red_ww/11.jpg"",""time"":550}]","[]"
"image-keyboard-response","18","129152","0.0-5.0-1.7","63f0fb9941434d10e8e4909b","bdp_lott","Mon Apr 10 2023 06:50:55 GMT-0400 (Eastern Daylight Time)","590530","red","green","","1790","","","","choice","","img/red_ww/choose11.jpg","2","218","red","0.5","0.5","0.5","l","",""
"animation","19","129753","0.0-5.0-2.7","63f0fb9941434d10e8e4909b","bdp_lott","Mon Apr 10 2023 06:50:55 GMT-0400 (Eastern Daylight Time)","590530","red","green","","","","","","","","","","218","","","","","","[{""stimulus"":""img/red_wl/1.jpg"",""time"":50},{""stimulus"":""img/red_wl/2.jpg"",""time"":100},{""stimulus"":""img/red_wl/3.jpg"",""time"":151},{""stimulus"":""img/red_wl/4.jpg"",""time"":201},{""stimulus"":""img/red_wl/5.jpg"",""time"":252},{""stimulus"":""img/red_wl/6.jpg"",""time"":300},{""stimulus"":""img/red_wl/7.jpg"",""time"":350},{""stimulus"":""img/red_wl/8.jpg"",""time"":400},{""stimulus"":""img/red_wl/9.jpg"",""time"":451},{""stimulus"":""img/red_wl/10.jpg"",""time"":500},{""stimulus"":""img/red_wl/11.jpg"",""time"":551}]","[]"
"image-keyboard-response","20","131680","0.0-5.0-1.8","63f0fb9941434d10e8e4909b","bdp_lott","Mon Apr 10 2023 06:50:55 GMT-0400 (Eastern Daylight Time)","590530","red","green","","1926","","","","choice","","img/red_wl/choose11.jpg","2","217","red","0.5","0.5","0.5","w","",""
"animation","21","132282","0.0-5.0-2.8","63f0fb9941434d10e8e4909b","bdp_lott","Mon Apr 10 2023 06:50:55 GMT-0400 (Eastern Daylight Time)","590530","red","green","","","","","","","","","","217","","","","","","[{""stimulus"":""img/red_ww/1.jpg"",""time"":51},{""stimulus"":""img/red_ww/2.jpg"",""time"":100},{""stimulus"":""img/red_ww/3.jpg"",""time"":152},{""stimulus"":""img/red_ww/4.jpg"",""time"":201},{""stimulus"":""img/red_ww/5.jpg"",""time"":250},{""stimulus"":""img/red_ww/6.jpg"",""time"":301},{""stimulus"":""img/red_ww/7.jpg"",""time"":350},{""stimulus"":""img/red_ww/8.jpg"",""time"":401},{""stimulus"":""img/red_ww/9.jpg"",""time"":450},{""stimulus"":""img/red_ww/10.jpg"",""time"":500},{""stimulus"":""img/red_ww/11.jpg"",""time"":550}]","[]"
"image-keyboard-response","22","134713","0.0-5.0-1.9","63f0fb9941434d10e8e4909b","bdp_lott","Mon Apr 10 2023 06:50:55 GMT-0400 (Eastern Daylight Time)","590530","red","green","","2431","","","","choice","","img/red_ww/choose11.jpg","2","216","red","0.5","0.5","0.5","w","",""
"animation","23","135314","0.0-5.0-2.9","63f0fb9941434d10e8e4909b","bdp_lott","Mon Apr 10 2023 06:50:55 GMT-0400 (Eastern Daylight Time)","590530","red","green","","","","","","","","","","216","","","","","","[{""stimulus"":""img/red_ww/1.jpg"",""time"":51},{""stimulus"":""img/red_ww/2.jpg"",""time"":102},{""stimulus"":""img/red_ww/3.jpg"",""time"":151},{""stimulus"":""img/red_ww/4.jpg"",""time"":201},{""stimulus"":""img/red_ww/5.jpg"",""time"":251},{""stimulus"":""img/red_ww/6.jpg"",""time"":301},{""stimulus"":""img/red_ww/7.jpg"",""time"":352},{""stimulus"":""img/red_ww/8.jpg"",""time"":402},{""stimulus"":""img/red_ww/9.jpg"",""time"":451},{""stimulus"":""img/red_ww/10.jpg"",""time"":501},{""stimulus"":""img/red_ww/11.jpg"",""time"":551}]","[]"
"image-keyboard-response","24","137776","0.0-5.0-1.10","63f0fb9941434d10e8e4909b","bdp_lott","Mon Apr 10 2023 06:50:55 GMT-0400 (Eastern Daylight Time)","590530","red","green","","2462","","","","choice","","img/red_ww/choose11.jpg","2","215","red","0.5","0.5","0.5","w","",""
"animation","25","138378","0.0-5.0-2.10","63f0fb9941434d10e8e4909b","bdp_lott","Mon Apr 10 2023 06:50:55 GMT-0400 (Eastern Daylight Time)","590530","red","green","","","","","","","","","","215","","","","","","[{""stimulus"":""img/red_ww/1.jpg"",""time"":52},{""stimulus"":""img/red_ww/2.jpg"",""time"":101},{""stimulus"":""img/red_ww/3.jpg"",""time"":151},{""stimulus"":""img/red_ww/4.jpg"",""time"":201},{""stimulus"":""img/red_ww/5.jpg"",""time"":252},{""stimulus"":""img/red_ww/6.jpg"",""time"":302},{""stimulus"":""img/red_ww/7.jpg"",""time"":352},{""stimulus"":""img/red_ww/8.jpg"",""time"":401},{""stimulus"":""img/red_ww/9.jpg"",""time"":452},{""stimulus"":""img/red_ww/10.jpg"",""time"":501},{""stimulus"":""img/red_ww/11.jpg"",""time"":552}]","[]"
"image-keyboard-response","26","140264","0.0-5.0-1.11","63f0fb9941434d10e8e4909b","bdp_lott","Mon Apr 10 2023 06:50:55 GMT-0400 (Eastern Daylight Time)","590530","red","green","","1886","","","","choice","","img/red_ww/choose11.jpg","2","214","red","0.5","0.5","0.5","l","",""
"animation","27","140865","0.0-5.0-2.11","63f0fb9941434d10e8e4909b","bdp_lott","Mon Apr 10 2023 06:50:55 GMT-0400 (Eastern Daylight Time)","590530","red","green","","","","","","","","","","214","","","","","","[{""stimulus"":""img/red_wl/1.jpg"",""time"":51},{""stimulus"":""img/red_wl/2.jpg"",""time"":101},{""stimulus"":""img/red_wl/3.jpg"",""time"":152},{""stimulus"":""img/red_wl/4.jpg"",""time"":200},{""stimulus"":""img/red_wl/5.jpg"",""time"":251},{""stimulus"":""img/red_wl/6.jpg"",""time"":301},{""stimulus"":""img/red_wl/7.jpg"",""time"":351},{""stimulus"":""img/red_wl/8.jpg"",""time"":401},{""stimulus"":""img/red_wl/9.jpg"",""time"":450},{""stimulus"":""img/red_wl/10.jpg"",""time"":501},{""stimulus"":""img/red_wl/11.jpg"",""time"":551}]","[]"
"image-keyboard-response","28","143224","0.0-5.0-1.12","63f0fb9941434d10e8e4909b","bdp_lott","Mon Apr 10 2023 06:50:55 GMT-0400 (Eastern Daylight Time)","590530","red","green","","2358","","","","choice","","img/red_wl/choose11.jpg","2","213","red","0.5","0.5","0.5","l","",""
"animation","29","143825","0.0-5.0-2.12","63f0fb9941434d10e8e4909b","bdp_lott","Mon Apr 10 2023 06:50:55 GMT-0400 (Eastern Daylight Time)","590530","red","green","","","","","","","","","","213","","","","","","[{""stimulus"":""img/red_wl/1.jpg"",""time"":50},{""stimulus"":""img/red_wl/2.jpg"",""time"":101},{""stimulus"":""img/red_wl/3.jpg"",""time"":151},{""stimulus"":""img/red_wl/4.jpg"",""time"":201},{""stimulus"":""img/red_wl/5.jpg"",""time"":251},{""stimulus"":""img/red_wl/6.jpg"",""time"":301},{""stimulus"":""img/red_wl/7.jpg"",""time"":350},{""stimulus"":""img/red_wl/8.jpg"",""time"":400},{""stimulus"":""img/red_wl/9.jpg"",""time"":451},{""stimulus"":""img/red_wl/10.jpg"",""time"":501},{""stimulus"":""img/red_wl/11.jpg"",""time"":551}]","[]"
"image-keyboard-response","30","145817","0.0-5.0-1.13","63f0fb9941434d10e8e4909b","bdp_lott","Mon Apr 10 2023 06:50:55 GMT-0400 (Eastern Daylight Time)","590530","red","green","","1991","","","","choice","","img/red_wl/choose11.jpg","1","212","green","0.5","0.5","0.5","w","",""
"animation","31","146417","0.0-5.0-2.13","63f0fb9941434d10e8e4909b","bdp_lott","Mon Apr 10 2023 06:50:55 GMT-0400 (Eastern Daylight Time)","590530","red","green","","","","","","","","","","212","","","","","","[{""stimulus"":""img/green_wl/1.jpg"",""time"":51},{""stimulus"":""img/green_wl/2.jpg"",""time"":102},{""stimulus"":""img/green_wl/3.jpg"",""time"":150},{""stimulus"":""img/green_wl/4.jpg"",""time"":201},{""stimulus"":""img/green_wl/5.jpg"",""time"":251},{""stimulus"":""img/green_wl/6.jpg"",""time"":300},{""stimulus"":""img/green_wl/7.jpg"",""time"":351},{""stimulus"":""img/green_wl/8.jpg"",""time"":402},{""stimulus"":""img/green_wl/9.jpg"",""time"":451},{""stimulus"":""img/green_wl/10.jpg"",""time"":502},{""stimulus"":""img/green_wl/11.jpg"",""time"":552}]","[]"
"image-keyboard-response","32","148512","0.0-5.0-1.14","63f0fb9941434d10e8e4909b","bdp_lott","Mon Apr 10 2023 06:50:55 GMT-0400 (Eastern Daylight Time)","590530","red","green","","2094","","","","choice","","img/green_wl/choose11.jpg","1","211","green","0.5","0.5","0.5","w","",""
"animation","33","149113","0.0-5.0-2.14","63f0fb9941434d10e8e4909b","bdp_lott","Mon Apr 10 2023 06:50:55 GMT-0400 (Eastern Daylight Time)","590530","red","green","","","","","","","","","","211","","","","","","[{""stimulus"":""img/green_wl/1.jpg"",""time"":51},{""stimulus"":""img/green_wl/2.jpg"",""time"":103},{""stimulus"":""img/green_wl/3.jpg"",""time"":152},{""stimulus"":""img/green_wl/4.jpg"",""time"":203},{""stimulus"":""img/green_wl/5.jpg"",""time"":251},{""stimulus"":""img/green_wl/6.jpg"",""time"":301},{""stimulus"":""img/green_wl/7.jpg"",""time"":351},{""stimulus"":""img/green_wl/8.jpg"",""time"":401},{""stimulus"":""img/green_wl/9.jpg"",""time"":452},{""stimulus"":""img/green_wl/10.jpg"",""time"":501},{""stimulus"":""img/green_wl/11.jpg"",""time"":552}]","[]"
"image-keyboard-response","34","151432","0.0-5.0-1.15","63f0fb9941434d10e8e4909b","bdp_lott","Mon Apr 10 2023 06:50:55 GMT-0400 (Eastern Daylight Time)","590530","red","green","","2319","","","","choice","","img/green_wl/choose11.jpg","1","210","green","0.5","0.5","0.5","l","",""
"animation","35","152035","0.0-5.0-2.15","63f0fb9941434d10e8e4909b","bdp_lott","Mon Apr 10 2023 06:50:55 GMT-0400 (Eastern Daylight Time)","590530","red","green","","","","","","","","","","210","","","","","","[{""stimulus"":""img/green_ll/1.jpg"",""time"":51},{""stimulus"":""img/green_ll/2.jpg"",""time"":100},{""stimulus"":""img/green_ll/3.jpg"",""time"":151},{""stimulus"":""img/green_ll/4.jpg"",""time"":201},{""stimulus"":""img/green_ll/5.jpg"",""time"":250},{""stimulus"":""img/green_ll/6.jpg"",""time"":301},{""stimulus"":""img/green_ll/7.jpg"",""time"":350},{""stimulus"":""img/green_ll/8.jpg"",""time"":401},{""stimulus"":""img/green_ll/9.jpg"",""time"":450},{""stimulus"":""img/green_ll/10.jpg"",""time"":501},{""stimulus"":""img/green_ll/11.jpg"",""time"":550}]","[]"
"image-keyboard-response","36","154648","0.0-5.0-1.16","63f0fb9941434d10e8e4909b","bdp_lott","Mon Apr 10 2023 06:50:55 GMT-0400 (Eastern Daylight Time)","590530","red","green","","2613","","","","choice","","img/green_ll/choose11.jpg","2","209","red","0.5","0.5","0.5","w","",""
"animation","37","155249","0.0-5.0-2.16","63f0fb9941434d10e8e4909b","bdp_lott","Mon Apr 10 2023 06:50:55 GMT-0400 (Eastern Daylight Time)","590530","red","green","","","","","","","","","","209","","","","","","[{""stimulus"":""img/red_lw/1.jpg"",""time"":50},{""stimulus"":""img/red_lw/2.jpg"",""time"":102},{""stimulus"":""img/red_lw/3.jpg"",""time"":151},{""stimulus"":""img/red_lw/4.jpg"",""time"":200},{""stimulus"":""img/red_lw/5.jpg"",""time"":250},{""stimulus"":""img/red_lw/6.jpg"",""time"":300},{""stimulus"":""img/red_lw/7.jpg"",""time"":351},{""stimulus"":""img/red_lw/8.jpg"",""time"":401},{""stimulus"":""img/red_lw/9.jpg"",""time"":451},{""stimulus"":""img/red_lw/10.jpg"",""time"":500},{""stimulus"":""img/red_lw/11.jpg"",""time"":551}]","[]"
"image-keyboard-response","38","157257","0.0-5.0-1.17","63f0fb9941434d10e8e4909b","bdp_lott","Mon Apr 10 2023 06:50:55 GMT-0400 (Eastern Daylight Time)","590530","red","green","","2007","","","","choice","","img/red_lw/choose11.jpg","2","208","red","0.5","0.5","0.5","w","",""
"animation","39","157857","0.0-5.0-2.17","63f0fb9941434d10e8e4909b","bdp_lott","Mon Apr 10 2023 06:50:55 GMT-0400 (Eastern Daylight Time)","590530","red","green","","","","","","","","","","208","","","","","","[{""stimulus"":""img/red_lw/1.jpg"",""time"":51},{""stimulus"":""img/red_lw/2.jpg"",""time"":101},{""stimulus"":""img/red_lw/3.jpg"",""time"":151},{""stimulus"":""img/red_lw/4.jpg"",""time"":201},{""stimulus"":""img/red_lw/5.jpg"",""time"":251},{""stimulus"":""img/red_lw/6.jpg"",""time"":300},{""stimulus"":""img/red_lw/7.jpg"",""time"":351},{""stimulus"":""img/red_lw/8.jpg"",""time"":401},{""stimulus"":""img/red_lw/9.jpg"",""time"":451},{""stimulus"":""img/red_lw/10.jpg"",""time"":502},{""stimulus"":""img/red_lw/11.jpg"",""time"":551}]","[]"
"image-keyboard-response","40","159736","0.0-5.0-1.18","63f0fb9941434d10e8e4909b","bdp_lott","Mon Apr 10 2023 06:50:55 GMT-0400 (Eastern Daylight Time)","590530","red","green","","1878","","","","choice","","img/red_lw/choose11.jpg","2","207","red","0.5","0.5","0.5","l","",""
"animation","41","160337","0.0-5.0-2.18","63f0fb9941434d10e8e4909b","bdp_lott","Mon Apr 10 2023 06:50:55 GMT-0400 (Eastern Daylight Time)","590530","red","green","","","","","","","","","","207","","","","","","[{""stimulus"":""img/red_ll/1.jpg"",""time"":51},{""stimulus"":""img/red_ll/2.jpg"",""time"":100},{""stimulus"":""img/red_ll/3.jpg"",""time"":150},{""stimulus"":""img/red_ll/4.jpg"",""time"":201},{""stimulus"":""img/red_ll/5.jpg"",""time"":251},{""stimulus"":""img/red_ll/6.jpg"",""time"":301},{""stimulus"":""img/red_ll/7.jpg"",""time"":351},{""stimulus"":""img/red_ll/8.jpg"",""time"":400},{""stimulus"":""img/red_ll/9.jpg"",""time"":451},{""stimulus"":""img/red_ll/10.jpg"",""time"":501},{""stimulus"":""img/red_ll/11.jpg"",""time"":551}]","[]"
"image-keyboard-response","42","161897","0.0-5.0-1.19","63f0fb9941434d10e8e4909b","bdp_lott","Mon Apr 10 2023 06:50:55 GMT-0400 (Eastern Daylight Time)","590530","red","green","","1560","","","","choice","","img/red_ll/choose11.jpg","1","206","green","0.5","0.5","0.5","w","",""
"animation","43","162498","0.0-5.0-2.19","63f0fb9941434d10e8e4909b","bdp_lott","Mon Apr 10 2023 06:50:55 GMT-0400 (Eastern Daylight Time)","590530","red","green","","","","","","","","","","206","","","","","","[{""stimulus"":""img/green_wl/1.jpg"",""time"":51},{""stimulus"":""img/green_wl/2.jpg"",""time"":101},{""stimulus"":""img/green_wl/3.jpg"",""time"":151},{""stimulus"":""img/green_wl/4.jpg"",""time"":201},{""stimulus"":""img/green_wl/5.jpg"",""time"":251},{""stimulus"":""img/green_wl/6.jpg"",""time"":301},{""stimulus"":""img/green_wl/7.jpg"",""time"":351},{""stimulus"":""img/green_wl/8.jpg"",""time"":402},{""stimulus"":""img/green_wl/9.jpg"",""time"":452},{""stimulus"":""img/green_wl/10.jpg"",""time"":501},{""stimulus"":""img/green_wl/11.jpg"",""time"":551}]","[]"
"image-keyboard-response","44","164609","0.0-5.0-1.20","63f0fb9941434d10e8e4909b","bdp_lott","Mon Apr 10 2023 06:50:55 GMT-0400 (Eastern Daylight Time)","590530","red","green","","2111","","","","choice","","img/green_wl/choose11.jpg","1","205","green","0.5","0.5","0.5","l","",""
"animation","45","165209","0.0-5.0-2.20","63f0fb9941434d10e8e4909b","bdp_lott","Mon Apr 10 2023 06:50:55 GMT-0400 (Eastern Daylight Time)","590530","red","green","","","","","","","","","","205","","","","","","[{""stimulus"":""img/green_ll/1.jpg"",""time"":51},{""stimulus"":""img/green_ll/2.jpg"",""time"":101},{""stimulus"":""img/green_ll/3.jpg"",""time"":156},{""stimulus"":""img/green_ll/4.jpg"",""time"":201},{""stimulus"":""img/green_ll/5.jpg"",""time"":251},{""stimulus"":""img/green_ll/6.jpg"",""time"":302},{""stimulus"":""img/green_ll/7.jpg"",""time"":351},{""stimulus"":""img/green_ll/8.jpg"",""time"":401},{""stimulus"":""img/green_ll/9.jpg"",""time"":451},{""stimulus"":""img/green_ll/10.jpg"",""time"":500},{""stimulus"":""img/green_ll/11.jpg"",""time"":551}]","[]"
"image-keyboard-response","46","167385","0.0-5.0-1.21","63f0fb9941434d10e8e4909b","bdp_lott","Mon Apr 10 2023 06:50:55 GMT-0400 (Eastern Daylight Time)","590530","red","green","","2175","","","","choice","","img/green_ll/choose11.jpg","1","204","green","0.5","0.5","0.5","l","",""
"animation","47","167987","0.0-5.0-2.21","63f0fb9941434d10e8e4909b","bdp_lott","Mon Apr 10 2023 06:50:55 GMT-0400 (Eastern Daylight Time)","590530","red","green","","","","","","","","","","204","","","","","","[{""stimulus"":""img/green_ll/1.jpg"",""time"":51},{""stimulus"":""img/green_ll/2.jpg"",""time"":101},{""stimulus"":""img/green_ll/3.jpg"",""time"":152},{""stimulus"":""img/green_ll/4.jpg"",""time"":201},{""stimulus"":""img/green_ll/5.jpg"",""time"":252},{""stimulus"":""img/green_ll/6.jpg"",""time"":302},{""stimulus"":""img/green_ll/7.jpg"",""time"":352},{""stimulus"":""img/green_ll/8.jpg"",""time"":402},{""stimulus"":""img/green_ll/9.jpg"",""time"":451},{""stimulus"":""img/green_ll/10.jpg"",""time"":502},{""stimulus"":""img/green_ll/11.jpg"",""time"":552}]","[]"
"image-keyboard-response","48","170353","0.0-5.0-1.22","63f0fb9941434d10e8e4909b","bdp_lott","Mon Apr 10 2023 06:50:55 GMT-0400 (Eastern Daylight Time)","590530","red","green","","2366","","","","choice","","img/green_ll/choose11.jpg","1","203","green","0.5","0.5","0.5","l","",""
"animation","49","170953","0.0-5.0-2.22","63f0fb9941434d10e8e4909b","bdp_lott","Mon Apr 10 2023 06:50:55 GMT-0400 (Eastern Daylight Time)","590530","red","green","","","","","","","","","","203","","","","","","[{""stimulus"":""img/green_ll/1.jpg"",""time"":50},{""stimulus"":""img/green_ll/2.jpg"",""time"":100},{""stimulus"":""img/green_ll/3.jpg"",""time"":151},{""stimulus"":""img/green_ll/4.jpg"",""time"":201},{""stimulus"":""img/green_ll/5.jpg"",""time"":251},{""stimulus"":""img/green_ll/6.jpg"",""time"":301},{""stimulus"":""img/green_ll/7.jpg"",""time"":350},{""stimulus"":""img/green_ll/8.jpg"",""time"":401},{""stimulus"":""img/green_ll/9.jpg"",""time"":451},{""stimulus"":""img/green_ll/10.jpg"",""time"":501},{""stimulus"":""img/green_ll/11.jpg"",""time"":550}]","[]"
"image-keyboard-response","50","172697","0.0-5.0-1.23","63f0fb9941434d10e8e4909b","bdp_lott","Mon Apr 10 2023 06:50:55 GMT-0400 (Eastern Daylight Time)","590530","red","green","","1742","","","","choice","","img/green_ll/choose11.jpg","2","202","red","0.5","0.5","0.5","w","",""
"animation","51","173298","0.0-5.0-2.23","63f0fb9941434d10e8e4909b","bdp_lott","Mon Apr 10 2023 06:50:55 GMT-0400 (Eastern Daylight Time)","590530","red","green","","","","","","","","","","202","","","","","","[{""stimulus"":""img/red_lw/1.jpg"",""time"":51},{""stimulus"":""img/red_lw/2.jpg"",""time"":101},{""stimulus"":""img/red_lw/3.jpg"",""time"":151},{""stimulus"":""img/red_lw/4.jpg"",""time"":201},{""stimulus"":""img/red_lw/5.jpg"",""time"":251},{""stimulus"":""img/red_lw/6.jpg"",""time"":301},{""stimulus"":""img/red_lw/7.jpg"",""time"":351},{""stimulus"":""img/red_lw/8.jpg"",""time"":401},{""stimulus"":""img/red_lw/9.jpg"",""time"":451},{""stimulus"":""img/red_lw/10.jpg"",""time"":500},{""stimulus"":""img/red_lw/11.jpg"",""time"":551}]","[]"
"image-keyboard-response","52","175217","0.0-5.0-1.24","63f0fb9941434d10e8e4909b","bdp_lott","Mon Apr 10 2023 06:50:55 GMT-0400 (Eastern Daylight Time)","590530","red","green","","1918","","","","choice","","img/red_lw/choose11.jpg","2","201","red","0.5","0.5","0.5","w","",""
"animation","53","175817","0.0-5.0-2.24","63f0fb9941434d10e8e4909b","bdp_lott","Mon Apr 10 2023 06:50:55 GMT-0400 (Eastern Daylight Time)","590530","red","green","","","","","","","","","","201","","","","","","[{""stimulus"":""img/red_lw/1.jpg"",""time"":50},{""stimulus"":""img/red_lw/2.jpg"",""time"":102},{""stimulus"":""img/red_lw/3.jpg"",""time"":151},{""stimulus"":""img/red_lw/4.jpg"",""time"":201},{""stimulus"":""img/red_lw/5.jpg"",""time"":251},{""stimulus"":""img/red_lw/6.jpg"",""time"":300},{""stimulus"":""img/red_lw/7.jpg"",""time"":351},{""stimulus"":""img/red_lw/8.jpg"",""time"":401},{""stimulus"":""img/red_lw/9.jpg"",""time"":452},{""stimulus"":""img/red_lw/10.jpg"",""time"":500},{""stimulus"":""img/red_lw/11.jpg"",""time"":551}]","[]"
"image-keyboard-response","54","177433","0.0-5.0-1.25","63f0fb9941434d10e8e4909b","bdp_lott","Mon Apr 10 2023 06:50:55 GMT-0400 (Eastern Daylight Time)","590530","red","green","","1615","","","","choice","","img/red_lw/choose11.jpg","2","200","red","0.5","0.5","0.5","w","",""
"animation","55","178034","0.0-5.0-2.25","63f0fb9941434d10e8e4909b","bdp_lott","Mon Apr 10 2023 06:50:55 GMT-0400 (Eastern Daylight Time)","590530","red","green","","","","","","","","","","200","","","","","","[{""stimulus"":""img/red_lw/1.jpg"",""time"":51},{""stimulus"":""img/red_lw/2.jpg"",""time"":102},{""stimulus"":""img/red_lw/3.jpg"",""time"":151},{""stimulus"":""img/red_lw/4.jpg"",""time"":201},{""stimulus"":""img/red_lw/5.jpg"",""time"":251},{""stimulus"":""img/red_lw/6.jpg"",""time"":302},{""stimulus"":""img/red_lw/7.jpg"",""time"":351},{""stimulus"":""img/red_lw/8.jpg"",""time"":401},{""stimulus"":""img/red_lw/9.jpg"",""time"":451},{""stimulus"":""img/red_lw/10.jpg"",""time"":501},{""stimulus"":""img/red_lw/11.jpg"",""time"":552}]","[]"
"image-keyboard-response","56","179761","0.0-5.0-1.26","63f0fb9941434d10e8e4909b","bdp_lott","Mon Apr 10 2023 06:50:55 GMT-0400 (Eastern Daylight Time)","590530","red","green","","1727","","","","choice","","img/red_lw/choose11.jpg","2","199","red","0.5","0.5","0.5","l","",""
"animation","57","180361","0.0-5.0-2.26","63f0fb9941434d10e8e4909b","bdp_lott","Mon Apr 10 2023 06:50:55 GMT-0400 (Eastern Daylight Time)","590530","red","green","","","","","","","","","","199","","","","","","[{""stimulus"":""img/red_ll/1.jpg"",""time"":51},{""stimulus"":""img/red_ll/2.jpg"",""time"":101},{""stimulus"":""img/red_ll/3.jpg"",""time"":150},{""stimulus"":""img/red_ll/4.jpg"",""time"":201},{""stimulus"":""img/red_ll/5.jpg"",""time"":251},{""stimulus"":""img/red_ll/6.jpg"",""time"":301},{""stimulus"":""img/red_ll/7.jpg"",""time"":350},{""stimulus"":""img/red_ll/8.jpg"",""time"":401},{""stimulus"":""img/red_ll/9.jpg"",""time"":452},{""stimulus"":""img/red_ll/10.jpg"",""time"":500},{""stimulus"":""img/red_ll/11.jpg"",""time"":550}]","[]"
"image-keyboard-response","58","183617","0.0-5.0-1.27","63f0fb9941434d10e8e4909b","bdp_lott","Mon Apr 10 2023 06:50:55 GMT-0400 (Eastern Daylight Time)","590530","red","green","","3254","","","","choice","","img/red_ll/choose11.jpg","2","198","red","0.5","0.5","0.5","w","",""
"animation","59","184217","0.0-5.0-2.27","63f0fb9941434d10e8e4909b","bdp_lott","Mon Apr 10 2023 06:50:55 GMT-0400 (Eastern Daylight Time)","590530","red","green","","","","","","","","","","198","","","","","","[{""stimulus"":""img/red_lw/1.jpg"",""time"":51},{""stimulus"":""img/red_lw/2.jpg"",""time"":102},{""stimulus"":""img/red_lw/3.jpg"",""time"":151},{""stimulus"":""img/red_lw/4.jpg"",""time"":201},{""stimulus"":""img/red_lw/5.jpg"",""time"":251},{""stimulus"":""img/red_lw/6.jpg"",""time"":302},{""stimulus"":""img/red_lw/7.jpg"",""time"":351},{""stimulus"":""img/red_lw/8.jpg"",""time"":402},{""stimulus"":""img/red_lw/9.jpg"",""time"":451},{""stimulus"":""img/red_lw/10.jpg"",""time"":501},{""stimulus"":""img/red_lw/11.jpg"",""time"":550}]","[]"
"image-keyboard-response","60","186057","0.0-5.0-1.28","63f0fb9941434d10e8e4909b","bdp_lott","Mon Apr 10 2023 06:50:55 GMT-0400 (Eastern Daylight Time)","590530","red","green","","1838","","","","choice","","img/red_lw/choose11.jpg","2","197","red","0.5","0.5","0.5","l","",""
"animation","61","186658","0.0-5.0-2.28","63f0fb9941434d10e8e4909b","bdp_lott","Mon Apr 10 2023 06:50:55 GMT-0400 (Eastern Daylight Time)","590530","red","green","","","","","","","","","","197","","","","","","[{""stimulus"":""img/red_ll/1.jpg"",""time"":50},{""stimulus"":""img/red_ll/2.jpg"",""time"":101},{""stimulus"":""img/red_ll/3.jpg"",""time"":151},{""stimulus"":""img/red_ll/4.jpg"",""time"":200},{""stimulus"":""img/red_ll/5.jpg"",""time"":251},{""stimulus"":""img/red_ll/6.jpg"",""time"":301},{""stimulus"":""img/red_ll/7.jpg"",""time"":351},{""stimulus"":""img/red_ll/8.jpg"",""time"":401},{""stimulus"":""img/red_ll/9.jpg"",""time"":451},{""stimulus"":""img/red_ll/10.jpg"",""time"":500},{""stimulus"":""img/red_ll/11.jpg"",""time"":551}]","[]"
"image-keyboard-response","62","189857","0.0-5.0-1.29","63f0fb9941434d10e8e4909b","bdp_lott","Mon Apr 10 2023 06:50:55 GMT-0400 (Eastern Daylight Time)","590530","red","green","","3199","","","","choice","","img/red_ll/choose11.jpg","2","196","red","0.5","0.5","0.5","l","",""
"animation","63","190459","0.0-5.0-2.29","63f0fb9941434d10e8e4909b","bdp_lott","Mon Apr 10 2023 06:50:55 GMT-0400 (Eastern Daylight Time)","590530","red","green","","","","","","","","","","196","","","","","","[{""stimulus"":""img/red_ll/1.jpg"",""time"":52},{""stimulus"":""img/red_ll/2.jpg"",""time"":102},{""stimulus"":""img/red_ll/3.jpg"",""time"":151},{""stimulus"":""img/red_ll/4.jpg"",""time"":201},{""stimulus"":""img/red_ll/5.jpg"",""time"":252},{""stimulus"":""img/red_ll/6.jpg"",""time"":301},{""stimulus"":""img/red_ll/7.jpg"",""time"":352},{""stimulus"":""img/red_ll/8.jpg"",""time"":401},{""stimulus"":""img/red_ll/9.jpg"",""time"":451},{""stimulus"":""img/red_ll/10.jpg"",""time"":502},{""stimulus"":""img/red_ll/11.jpg"",""time"":552}]","[]"
"image-keyboard-response","64","192105","0.0-5.0-1.30","63f0fb9941434d10e8e4909b","bdp_lott","Mon Apr 10 2023 06:50:55 GMT-0400 (Eastern Daylight Time)","590530","red","green","","1645","","","","choice","","img/red_ll/choose11.jpg","1","195","green","0.5","0.5","0.5","w","",""
"animation","65","192706","0.0-5.0-2.30","63f0fb9941434d10e8e4909b","bdp_lott","Mon Apr 10 2023 06:50:55 GMT-0400 (Eastern Daylight Time)","590530","red","green","","","","","","","","","","195","","","","","","[{""stimulus"":""img/green_wl/1.jpg"",""time"":51},{""stimulus"":""img/green_wl/2.jpg"",""time"":100},{""stimulus"":""img/green_wl/3.jpg"",""time"":152},{""stimulus"":""img/green_wl/4.jpg"",""time"":201},{""stimulus"":""img/green_wl/5.jpg"",""time"":250},{""stimulus"":""img/green_wl/6.jpg"",""time"":301},{""stimulus"":""img/green_wl/7.jpg"",""time"":351},{""stimulus"":""img/green_wl/8.jpg"",""time"":401},{""stimulus"":""img/green_wl/9.jpg"",""time"":451},{""stimulus"":""img/green_wl/10.jpg"",""time"":500},{""stimulus"":""img/green_wl/11.jpg"",""time"":550}]","[]"
"image-keyboard-response","66","194273","0.0-5.0-1.31","63f0fb9941434d10e8e4909b","bdp_lott","Mon Apr 10 2023 06:50:55 GMT-0400 (Eastern Daylight Time)","590530","red","green","","1566","","","","choice","","img/green_wl/choose11.jpg","1","194","green","0.5","0.5","0.5","w","",""
"animation","67","194874","0.0-5.0-2.31","63f0fb9941434d10e8e4909b","bdp_lott","Mon Apr 10 2023 06:50:55 GMT-0400 (Eastern Daylight Time)","590530","red","green","","","","","","","","","","194","","","","","","[{""stimulus"":""img/green_wl/1.jpg"",""time"":50},{""stimulus"":""img/green_wl/2.jpg"",""time"":100},{""stimulus"":""img/green_wl/3.jpg"",""time"":152},{""stimulus"":""img/green_wl/4.jpg"",""time"":201},{""stimulus"":""img/green_wl/5.jpg"",""time"":251},{""stimulus"":""img/green_wl/6.jpg"",""time"":301},{""stimulus"":""img/green_wl/7.jpg"",""time"":352},{""stimulus"":""img/green_wl/8.jpg"",""time"":400},{""stimulus"":""img/green_wl/9.jpg"",""time"":451},{""stimulus"":""img/green_wl/10.jpg"",""time"":501},{""stimulus"":""img/green_wl/11.jpg"",""time"":551}]","[]"
"image-keyboard-response","68","196752","0.0-5.0-1.32","63f0fb9941434d10e8e4909b","bdp_lott","Mon Apr 10 2023 06:50:55 GMT-0400 (Eastern Daylight Time)","590530","red","green","","1878","","","","choice","","img/green_wl/choose11.jpg","1","193","green","0.5","0.5","0.5","w","",""
"animation","69","197353","0.0-5.0-2.32","63f0fb9941434d10e8e4909b","bdp_lott","Mon Apr 10 2023 06:50:55 GMT-0400 (Eastern Daylight Time)","590530","red","green","","","","","","","","","","193","","","","","","[{""stimulus"":""img/green_wl/1.jpg"",""time"":51},{""stimulus"":""img/green_wl/2.jpg"",""time"":101},{""stimulus"":""img/green_wl/3.jpg"",""time"":152},{""stimulus"":""img/green_wl/4.jpg"",""time"":201},{""stimulus"":""img/green_wl/5.jpg"",""time"":251},{""stimulus"":""img/green_wl/6.jpg"",""time"":301},{""stimulus"":""img/green_wl/7.jpg"",""time"":350},{""stimulus"":""img/green_wl/8.jpg"",""time"":400},{""stimulus"":""img/green_wl/9.jpg"",""time"":451},{""stimulus"":""img/green_wl/10.jpg"",""time"":500},{""stimulus"":""img/green_wl/11.jpg"",""time"":550}]","[]"
"image-keyboard-response","70","198728","0.0-5.0-1.33","63f0fb9941434d10e8e4909b","bdp_lott","Mon Apr 10 2023 06:50:55 GMT-0400 (Eastern Daylight Time)","590530","red","green","","1374","","","","choice","","img/green_wl/choose11.jpg","1","192","green","0.5","0.5","0.5","l","",""
"animation","71","199330","0.0-5.0-2.33","63f0fb9941434d10e8e4909b","bdp_lott","Mon Apr 10 2023 06:50:55 GMT-0400 (Eastern Daylight Time)","590530","red","green","","","","","","","","","","192","","","","","","[{""stimulus"":""img/green_ll/1.jpg"",""time"":51},{""stimulus"":""img/green_ll/2.jpg"",""time"":101},{""stimulus"":""img/green_ll/3.jpg"",""time"":150},{""stimulus"":""img/green_ll/4.jpg"",""time"":201},{""stimulus"":""img/green_ll/5.jpg"",""time"":250},{""stimulus"":""img/green_ll/6.jpg"",""time"":301},{""stimulus"":""img/green_ll/7.jpg"",""time"":351},{""stimulus"":""img/green_ll/8.jpg"",""time"":401},{""stimulus"":""img/green_ll/9.jpg"",""time"":450},{""stimulus"":""img/green_ll/10.jpg"",""time"":501},{""stimulus"":""img/green_ll/11.jpg"",""time"":552}]","[]"
"image-keyboard-response","72","201209","0.0-5.0-1.34","63f0fb9941434d10e8e4909b","bdp_lott","Mon Apr 10 2023 06:50:55 GMT-0400 (Eastern Daylight Time)","590530","red","green","","1879","","","","choice","","img/green_ll/choose11.jpg","2","191","red","0.5","0.5","0.5","w","",""
"animation","73","201810","0.0-5.0-2.34","63f0fb9941434d10e8e4909b","bdp_lott","Mon Apr 10 2023 06:50:55 GMT-0400 (Eastern Daylight Time)","590530","red","green","","","","","","","","","","191","","","","","","[{""stimulus"":""img/red_lw/1.jpg"",""time"":51},{""stimulus"":""img/red_lw/2.jpg"",""time"":102},{""stimulus"":""img/red_lw/3.jpg"",""time"":151},{""stimulus"":""img/red_lw/4.jpg"",""time"":201},{""stimulus"":""img/red_lw/5.jpg"",""time"":252},{""stimulus"":""img/red_lw/6.jpg"",""time"":301},{""stimulus"":""img/red_lw/7.jpg"",""time"":352},{""stimulus"":""img/red_lw/8.jpg"",""time"":401},{""stimulus"":""img/red_lw/9.jpg"",""time"":452},{""stimulus"":""img/red_lw/10.jpg"",""time"":501},{""stimulus"":""img/red_lw/11.jpg"",""time"":551}]","[]"
"image-keyboard-response","74","203696","0.0-5.0-1.35","63f0fb9941434d10e8e4909b","bdp_lott","Mon Apr 10 2023 06:50:55 GMT-0400 (Eastern Daylight Time)","590530","red","green","","1886","","","","choice","","img/red_lw/choose11.jpg","2","190","red","0.5","0.5","0.5","l","",""
"animation","75","204297","0.0-5.0-2.35","63f0fb9941434d10e8e4909b","bdp_lott","Mon Apr 10 2023 06:50:55 GMT-0400 (Eastern Daylight Time)","590530","red","green","","","","","","","","","","190","","","","","","[{""stimulus"":""img/red_ll/1.jpg"",""time"":51},{""stimulus"":""img/red_ll/2.jpg"",""time"":102},{""stimulus"":""img/red_ll/3.jpg"",""time"":151},{""stimulus"":""img/red_ll/4.jpg"",""time"":202},{""stimulus"":""img/red_ll/5.jpg"",""time"":251},{""stimulus"":""img/red_ll/6.jpg"",""time"":301},{""stimulus"":""img/red_ll/7.jpg"",""time"":350},{""stimulus"":""img/red_ll/8.jpg"",""time"":401},{""stimulus"":""img/red_ll/9.jpg"",""time"":451},{""stimulus"":""img/red_ll/10.jpg"",""time"":500},{""stimulus"":""img/red_ll/11.jpg"",""time"":550}]","[]"
"image-keyboard-response","76","205832","0.0-5.0-1.36","63f0fb9941434d10e8e4909b","bdp_lott","Mon Apr 10 2023 06:50:55 GMT-0400 (Eastern Daylight Time)","590530","red","green","","1534","","","","choice","","img/red_ll/choose11.jpg","1","189","green","0.5","0.5","0.5","l","",""
"animation","77","206433","0.0-5.0-2.36","63f0fb9941434d10e8e4909b","bdp_lott","Mon Apr 10 2023 06:50:55 GMT-0400 (Eastern Daylight Time)","590530","red","green","","","","","","","","","","189","","","","","","[{""stimulus"":""img/green_ll/1.jpg"",""time"":50},{""stimulus"":""img/green_ll/2.jpg"",""time"":101},{""stimulus"":""img/green_ll/3.jpg"",""time"":150},{""stimulus"":""img/green_ll/4.jpg"",""time"":201},{""stimulus"":""img/green_ll/5.jpg"",""time"":250},{""stimulus"":""img/green_ll/6.jpg"",""time"":301},{""stimulus"":""img/green_ll/7.jpg"",""time"":351},{""stimulus"":""img/green_ll/8.jpg"",""time"":400},{""stimulus"":""img/green_ll/9.jpg"",""time"":451},{""stimulus"":""img/green_ll/10.jpg"",""time"":500},{""stimulus"":""img/green_ll/11.jpg"",""time"":551}]","[]"
"image-keyboard-response","78","208168","0.0-5.0-1.37","63f0fb9941434d10e8e4909b","bdp_lott","Mon Apr 10 2023 06:50:55 GMT-0400 (Eastern Daylight Time)","590530","red","green","","1735","","","","choice","","img/green_ll/choose11.jpg","1","188","green","0.5","0.5","0.5","w","",""
"animation","79","208770","0.0-5.0-2.37","63f0fb9941434d10e8e4909b","bdp_lott","Mon Apr 10 2023 06:50:55 GMT-0400 (Eastern Daylight Time)","590530","red","green","","","","","","","","","","188","","","","","","[{""stimulus"":""img/green_wl/1.jpg"",""time"":50},{""stimulus"":""img/green_wl/2.jpg"",""time"":100},{""stimulus"":""img/green_wl/3.jpg"",""time"":150},{""stimulus"":""img/green_wl/4.jpg"",""time"":200},{""stimulus"":""img/green_wl/5.jpg"",""time"":251},{""stimulus"":""img/green_wl/6.jpg"",""time"":300},{""stimulus"":""img/green_wl/7.jpg"",""time"":351},{""stimulus"":""img/green_wl/8.jpg"",""time"":401},{""stimulus"":""img/green_wl/9.jpg"",""time"":451},{""stimulus"":""img/green_wl/10.jpg"",""time"":501},{""stimulus"":""img/green_wl/11.jpg"",""time"":550}]","[]"
"image-keyboard-response","80","210520","0.0-5.0-1.38","63f0fb9941434d10e8e4909b","bdp_lott","Mon Apr 10 2023 06:50:55 GMT-0400 (Eastern Daylight Time)","590530","red","green","","1750","","","","choice","","img/green_wl/choose11.jpg","1","187","green","0.5","0.5","0.5","l","",""
"animation","81","211121","0.0-5.0-2.38","63f0fb9941434d10e8e4909b","bdp_lott","Mon Apr 10 2023 06:50:55 GMT-0400 (Eastern Daylight Time)","590530","red","green","","","","","","","","","","187","","","","","","[{""stimulus"":""img/green_ll/1.jpg"",""time"":50},{""stimulus"":""img/green_ll/2.jpg"",""time"":101},{""stimulus"":""img/green_ll/3.jpg"",""time"":151},{""stimulus"":""img/green_ll/4.jpg"",""time"":200},{""stimulus"":""img/green_ll/5.jpg"",""time"":250},{""stimulus"":""img/green_ll/6.jpg"",""time"":301},{""stimulus"":""img/green_ll/7.jpg"",""time"":350},{""stimulus"":""img/green_ll/8.jpg"",""time"":400},{""stimulus"":""img/green_ll/9.jpg"",""time"":451},{""stimulus"":""img/green_ll/10.jpg"",""time"":501},{""stimulus"":""img/green_ll/11.jpg"",""time"":551}]","[]"
"image-keyboard-response","82","212641","0.0-5.0-1.39","63f0fb9941434d10e8e4909b","bdp_lott","Mon Apr 10 2023 06:50:55 GMT-0400 (Eastern Daylight Time)","590530","red","green","","1519","","","","choice","","img/green_ll/choose11.jpg","1","186","green","0.5","0.5","0.5","l","",""
"animation","83","213242","0.0-5.0-2.39","63f0fb9941434d10e8e4909b","bdp_lott","Mon Apr 10 2023 06:50:55 GMT-0400 (Eastern Daylight Time)","590530","red","green","","","","","","","","","","186","","","","","","[{""stimulus"":""img/green_ll/1.jpg"",""time"":51},{""stimulus"":""img/green_ll/2.jpg"",""time"":101},{""stimulus"":""img/green_ll/3.jpg"",""time"":151},{""stimulus"":""img/green_ll/4.jpg"",""time"":201},{""stimulus"":""img/green_ll/5.jpg"",""time"":252},{""stimulus"":""img/green_ll/6.jpg"",""time"":302},{""stimulus"":""img/green_ll/7.jpg"",""time"":352},{""stimulus"":""img/green_ll/8.jpg"",""time"":401},{""stimulus"":""img/green_ll/9.jpg"",""time"":451},{""stimulus"":""img/green_ll/10.jpg"",""time"":501},{""stimulus"":""img/green_ll/11.jpg"",""time"":551}]","[]"
"image-keyboard-response","84","215128","0.0-5.0-1.40","63f0fb9941434d10e8e4909b","bdp_lott","Mon Apr 10 2023 06:50:55 GMT-0400 (Eastern Daylight Time)","590530","red","green","","1886","","","","choice","","img/green_ll/choose11.jpg","1","185","green","0.5","0.5","0.5","w","",""
"animation","85","215730","0.0-5.0-2.40","63f0fb9941434d10e8e4909b","bdp_lott","Mon Apr 10 2023 06:50:55 GMT-0400 (Eastern Daylight Time)","590530","red","green","","","","","","","","","","185","","","","","","[{""stimulus"":""img/green_wl/1.jpg"",""time"":50},{""stimulus"":""img/green_wl/2.jpg"",""time"":101},{""stimulus"":""img/green_wl/3.jpg"",""time"":151},{""stimulus"":""img/green_wl/4.jpg"",""time"":200},{""stimulus"":""img/green_wl/5.jpg"",""time"":252},{""stimulus"":""img/green_wl/6.jpg"",""time"":300},{""stimulus"":""img/green_wl/7.jpg"",""time"":351},{""stimulus"":""img/green_wl/8.jpg"",""time"":400},{""stimulus"":""img/green_wl/9.jpg"",""time"":451},{""stimulus"":""img/green_wl/10.jpg"",""time"":500},{""stimulus"":""img/green_wl/11.jpg"",""time"":550}]","[]"
"image-keyboard-response","86","217712","0.0-5.0-1.41","63f0fb9941434d10e8e4909b","bdp_lott","Mon Apr 10 2023 06:50:55 GMT-0400 (Eastern Daylight Time)","590530","red","green","","1982","","","","choice","","img/green_wl/choose11.jpg","1","184","green","0.5","0.5","0.5","w","",""
"animation","87","218313","0.0-5.0-2.41","63f0fb9941434d10e8e4909b","bdp_lott","Mon Apr 10 2023 06:50:55 GMT-0400 (Eastern Daylight Time)","590530","red","green","","","","","","","","","","184","","","","","","[{""stimulus"":""img/green_wl/1.jpg"",""time"":51},{""stimulus"":""img/green_wl/2.jpg"",""time"":100},{""stimulus"":""img/green_wl/3.jpg"",""time"":151},{""stimulus"":""img/green_wl/4.jpg"",""time"":200},{""stimulus"":""img/green_wl/5.jpg"",""time"":251},{""stimulus"":""img/green_wl/6.jpg"",""time"":300},{""stimulus"":""img/green_wl/7.jpg"",""time"":350},{""stimulus"":""img/green_wl/8.jpg"",""time"":400},{""stimulus"":""img/green_wl/9.jpg"",""time"":450},{""stimulus"":""img/green_wl/10.jpg"",""time"":500},{""stimulus"":""img/green_wl/11.jpg"",""time"":551}]","[]"
"image-keyboard-response","88","219896","0.0-5.0-1.42","63f0fb9941434d10e8e4909b","bdp_lott","Mon Apr 10 2023 06:50:55 GMT-0400 (Eastern Daylight Time)","590530","red","green","","1582","","","","choice","","img/green_wl/choose11.jpg","1","183","green","0.5","0.5","0.5","l","",""
"animation","89","220497","0.0-5.0-2.42","63f0fb9941434d10e8e4909b","bdp_lott","Mon Apr 10 2023 06:50:55 GMT-0400 (Eastern Daylight Time)","590530","red","green","","","","","","","","","","183","","","","","","[{""stimulus"":""img/green_ll/1.jpg"",""time"":51},{""stimulus"":""img/green_ll/2.jpg"",""time"":101},{""stimulus"":""img/green_ll/3.jpg"",""time"":150},{""stimulus"":""img/green_ll/4.jpg"",""time"":201},{""stimulus"":""img/green_ll/5.jpg"",""time"":251},{""stimulus"":""img/green_ll/6.jpg"",""time"":301},{""stimulus"":""img/green_ll/7.jpg"",""time"":351},{""stimulus"":""img/green_ll/8.jpg"",""time"":401},{""stimulus"":""img/green_ll/9.jpg"",""time"":451},{""stimulus"":""img/green_ll/10.jpg"",""time"":502},{""stimulus"":""img/green_ll/11.jpg"",""time"":551}]","[]"
"image-keyboard-response","90","222144","0.0-5.0-1.43","63f0fb9941434d10e8e4909b","bdp_lott","Mon Apr 10 2023 06:50:55 GMT-0400 (Eastern Daylight Time)","590530","red","green","","1647","","","","choice","","img/green_ll/choose11.jpg","2","182","red","0.5","0.5","0.5","l","",""
"animation","91","222745","0.0-5.0-2.43","63f0fb9941434d10e8e4909b","bdp_lott","Mon Apr 10 2023 06:50:55 GMT-0400 (Eastern Daylight Time)","590530","red","green","","","","","","","","","","182","","","","","","[{""stimulus"":""img/red_ll/1.jpg"",""time"":51},{""stimulus"":""img/red_ll/2.jpg"",""time"":102},{""stimulus"":""img/red_ll/3.jpg"",""time"":151},{""stimulus"":""img/red_ll/4.jpg"",""time"":201},{""stimulus"":""img/red_ll/5.jpg"",""time"":251},{""stimulus"":""img/red_ll/6.jpg"",""time"":301},{""stimulus"":""img/red_ll/7.jpg"",""time"":352},{""stimulus"":""img/red_ll/8.jpg"",""time"":401},{""stimulus"":""img/red_ll/9.jpg"",""time"":451},{""stimulus"":""img/red_ll/10.jpg"",""time"":500},{""stimulus"":""img/red_ll/11.jpg"",""time"":551}]","[]"
"image-keyboard-response","92","224585","0.0-5.0-1.44","63f0fb9941434d10e8e4909b","bdp_lott","Mon Apr 10 2023 06:50:55 GMT-0400 (Eastern Daylight Time)","590530","red","green","","1839","","","","choice","","img/red_ll/choose11.jpg","2","181","red","0.5","0.5","0.5","l","",""
"animation","93","225186","0.0-5.0-2.44","63f0fb9941434d10e8e4909b","bdp_lott","Mon Apr 10 2023 06:50:55 GMT-0400 (Eastern Daylight Time)","590530","red","green","","","","","","","","","","181","","","","","","[{""stimulus"":""img/red_ll/1.jpg"",""time"":51},{""stimulus"":""img/red_ll/2.jpg"",""time"":101},{""stimulus"":""img/red_ll/3.jpg"",""time"":151},{""stimulus"":""img/red_ll/4.jpg"",""time"":201},{""stimulus"":""img/red_ll/5.jpg"",""time"":252},{""stimulus"":""img/red_ll/6.jpg"",""time"":301},{""stimulus"":""img/red_ll/7.jpg"",""time"":352},{""stimulus"":""img/red_ll/8.jpg"",""time"":400},{""stimulus"":""img/red_ll/9.jpg"",""time"":451},{""stimulus"":""img/red_ll/10.jpg"",""time"":501},{""stimulus"":""img/red_ll/11.jpg"",""time"":551}]","[]"
"image-keyboard-response","94","226832","0.0-5.0-1.45","63f0fb9941434d10e8e4909b","bdp_lott","Mon Apr 10 2023 06:50:55 GMT-0400 (Eastern Daylight Time)","590530","red","green","","1646","","","","choice","","img/red_ll/choose11.jpg","2","180","red","0.5","0.5","0.5","w","",""
"animation","95","227433","0.0-5.0-2.45","63f0fb9941434d10e8e4909b","bdp_lott","Mon Apr 10 2023 06:50:55 GMT-0400 (Eastern Daylight Time)","590530","red","green","","","","","","","","","","180","","","","","","[{""stimulus"":""img/red_lw/1.jpg"",""time"":51},{""stimulus"":""img/red_lw/2.jpg"",""time"":102},{""stimulus"":""img/red_lw/3.jpg"",""time"":151},{""stimulus"":""img/red_lw/4.jpg"",""time"":202},{""stimulus"":""img/red_lw/5.jpg"",""time"":252},{""stimulus"":""img/red_lw/6.jpg"",""time"":301},{""stimulus"":""img/red_lw/7.jpg"",""time"":351},{""stimulus"":""img/red_lw/8.jpg"",""time"":401},{""stimulus"":""img/red_lw/9.jpg"",""time"":452},{""stimulus"":""img/red_lw/10.jpg"",""time"":502},{""stimulus"":""img/red_lw/11.jpg"",""time"":551}]","[]"
"image-keyboard-response","96","229824","0.0-5.0-1.46","63f0fb9941434d10e8e4909b","bdp_lott","Mon Apr 10 2023 06:50:55 GMT-0400 (Eastern Daylight Time)","590530","red","green","","2391","","","","choice","","img/red_lw/choose11.jpg","1","179","green","0.5","0.5","0.5","w","",""
"animation","97","230425","0.0-5.0-2.46","63f0fb9941434d10e8e4909b","bdp_lott","Mon Apr 10 2023 06:50:55 GMT-0400 (Eastern Daylight Time)","590530","red","green","","","","","","","","","","179","","","","","","[{""stimulus"":""img/green_ww/1.jpg"",""time"":51},{""stimulus"":""img/green_ww/2.jpg"",""time"":101},{""stimulus"":""img/green_ww/3.jpg"",""time"":151},{""stimulus"":""img/green_ww/4.jpg"",""time"":200},{""stimulus"":""img/green_ww/5.jpg"",""time"":251},{""stimulus"":""img/green_ww/6.jpg"",""time"":301},{""stimulus"":""img/green_ww/7.jpg"",""time"":352},{""stimulus"":""img/green_ww/8.jpg"",""time"":400},{""stimulus"":""img/green_ww/9.jpg"",""time"":451},{""stimulus"":""img/green_ww/10.jpg"",""time"":500},{""stimulus"":""img/green_ww/11.jpg"",""time"":551}]","[]"
"image-keyboard-response","98","234072","0.0-5.0-1.47","63f0fb9941434d10e8e4909b","bdp_lott","Mon Apr 10 2023 06:50:55 GMT-0400 (Eastern Daylight Time)","590530","red","green","","3646","","","","choice","","img/green_ww/choose11.jpg","2","178","red","0.5","0.5","0.5","w","",""
"animation","99","234673","0.0-5.0-2.47","63f0fb9941434d10e8e4909b","bdp_lott","Mon Apr 10 2023 06:50:55 GMT-0400 (Eastern Daylight Time)","590530","red","green","","","","","","","","","","178","","","","","","[{""stimulus"":""img/red_ww/1.jpg"",""time"":51},{""stimulus"":""img/red_ww/2.jpg"",""time"":101},{""stimulus"":""img/red_ww/3.jpg"",""time"":151},{""stimulus"":""img/red_ww/4.jpg"",""time"":201},{""stimulus"":""img/red_ww/5.jpg"",""time"":250},{""stimulus"":""img/red_ww/6.jpg"",""time"":301},{""stimulus"":""img/red_ww/7.jpg"",""time"":352},{""stimulus"":""img/red_ww/8.jpg"",""time"":400},{""stimulus"":""img/red_ww/9.jpg"",""time"":451},{""stimulus"":""img/red_ww/10.jpg"",""time"":501},{""stimulus"":""img/red_ww/11.jpg"",""time"":551}]","[]"
"image-keyboard-response","100","236233","0.0-5.0-1.48","63f0fb9941434d10e8e4909b","bdp_lott","Mon Apr 10 2023 06:50:55 GMT-0400 (Eastern Daylight Time)","590530","red","green","","1560","","","","choice","","img/red_ww/choose11.jpg","1","177","green","0.5","0.5","0.5","w","",""
"animation","101","236833","0.0-5.0-2.48","63f0fb9941434d10e8e4909b","bdp_lott","Mon Apr 10 2023 06:50:55 GMT-0400 (Eastern Daylight Time)","590530","red","green","","","","","","","","","","177","","","","","","[{""stimulus"":""img/green_ww/1.jpg"",""time"":52},{""stimulus"":""img/green_ww/2.jpg"",""time"":100},{""stimulus"":""img/green_ww/3.jpg"",""time"":151},{""stimulus"":""img/green_ww/4.jpg"",""time"":202},{""stimulus"":""img/green_ww/5.jpg"",""time"":251},{""stimulus"":""img/green_ww/6.jpg"",""time"":301},{""stimulus"":""img/green_ww/7.jpg"",""time"":351},{""stimulus"":""img/green_ww/8.jpg"",""time"":401},{""stimulus"":""img/green_ww/9.jpg"",""time"":452},{""stimulus"":""img/green_ww/10.jpg"",""time"":500},{""stimulus"":""img/green_ww/11.jpg"",""time"":551}]","[]"
"image-keyboard-response","102","239376","0.0-5.0-1.49","63f0fb9941434d10e8e4909b","bdp_lott","Mon Apr 10 2023 06:50:55 GMT-0400 (Eastern Daylight Time)","590530","red","green","","2543","","","","choice","","img/green_ww/choose11.jpg","2","176","red","0.5","0.5","0.5","l","",""
"animation","103","239977","0.0-5.0-2.49","63f0fb9941434d10e8e4909b","bdp_lott","Mon Apr 10 2023 06:50:55 GMT-0400 (Eastern Daylight Time)","590530","red","green","","","","","","","","","","176","","","","","","[{""stimulus"":""img/red_wl/1.jpg"",""time"":51},{""stimulus"":""img/red_wl/2.jpg"",""time"":101},{""stimulus"":""img/red_wl/3.jpg"",""time"":151},{""stimulus"":""img/red_wl/4.jpg"",""time"":200},{""stimulus"":""img/red_wl/5.jpg"",""time"":251},{""stimulus"":""img/red_wl/6.jpg"",""time"":302},{""stimulus"":""img/red_wl/7.jpg"",""time"":350},{""stimulus"":""img/red_wl/8.jpg"",""time"":400},{""stimulus"":""img/red_wl/9.jpg"",""time"":451},{""stimulus"":""img/red_wl/10.jpg"",""time"":500},{""stimulus"":""img/red_wl/11.jpg"",""time"":551}]","[]"
"image-keyboard-response","104","241456","0.0-5.0-1.50","63f0fb9941434d10e8e4909b","bdp_lott","Mon Apr 10 2023 06:50:55 GMT-0400 (Eastern Daylight Time)","590530","red","green","","1478","","","","choice","","img/red_wl/choose11.jpg","1","175","green","0.5","0.5","0.5","w","",""
"animation","105","242057","0.0-5.0-2.50","63f0fb9941434d10e8e4909b","bdp_lott","Mon Apr 10 2023 06:50:55 GMT-0400 (Eastern Daylight Time)","590530","red","green","","","","","","","","","","175","","","","","","[{""stimulus"":""img/green_wl/1.jpg"",""time"":51},{""stimulus"":""img/green_wl/2.jpg"",""time"":100},{""stimulus"":""img/green_wl/3.jpg"",""time"":150},{""stimulus"":""img/green_wl/4.jpg"",""time"":201},{""stimulus"":""img/green_wl/5.jpg"",""time"":251},{""stimulus"":""img/green_wl/6.jpg"",""time"":301},{""stimulus"":""img/green_wl/7.jpg"",""time"":350},{""stimulus"":""img/green_wl/8.jpg"",""time"":400},{""stimulus"":""img/green_wl/9.jpg"",""time"":451},{""stimulus"":""img/green_wl/10.jpg"",""time"":500},{""stimulus"":""img/green_wl/11.jpg"",""time"":551}]","[]"
"image-keyboard-response","106","243800","0.0-5.0-1.51","63f0fb9941434d10e8e4909b","bdp_lott","Mon Apr 10 2023 06:50:55 GMT-0400 (Eastern Daylight Time)","590530","red","green","","1743","","","","choice","","img/green_wl/choose11.jpg","1","174","green","0.5","0.5","0.5","l","",""
"animation","107","244402","0.0-5.0-2.51","63f0fb9941434d10e8e4909b","bdp_lott","Mon Apr 10 2023 06:50:55 GMT-0400 (Eastern Daylight Time)","590530","red","green","","","","","","","","","","174","","","","","","[{""stimulus"":""img/green_ll/1.jpg"",""time"":50},{""stimulus"":""img/green_ll/2.jpg"",""time"":100},{""stimulus"":""img/green_ll/3.jpg"",""time"":151},{""stimulus"":""img/green_ll/4.jpg"",""time"":200},{""stimulus"":""img/green_ll/5.jpg"",""time"":251},{""stimulus"":""img/green_ll/6.jpg"",""time"":301},{""stimulus"":""img/green_ll/7.jpg"",""time"":351},{""stimulus"":""img/green_ll/8.jpg"",""time"":401},{""stimulus"":""img/green_ll/9.jpg"",""time"":451},{""stimulus"":""img/green_ll/10.jpg"",""time"":500},{""stimulus"":""img/green_ll/11.jpg"",""time"":550}]","[]"
"image-keyboard-response","108","246120","0.0-5.0-1.52","63f0fb9941434d10e8e4909b","bdp_lott","Mon Apr 10 2023 06:50:55 GMT-0400 (Eastern Daylight Time)","590530","red","green","","1718","","","","choice","","img/green_ll/choose11.jpg","2","173","red","0.5","0.5","0.5","l","",""
"animation","109","246721","0.0-5.0-2.52","63f0fb9941434d10e8e4909b","bdp_lott","Mon Apr 10 2023 06:50:55 GMT-0400 (Eastern Daylight Time)","590530","red","green","","","","","","","","","","173","","","","","","[{""stimulus"":""img/red_ll/1.jpg"",""time"":50},{""stimulus"":""img/red_ll/2.jpg"",""time"":100},{""stimulus"":""img/red_ll/3.jpg"",""time"":151},{""stimulus"":""img/red_ll/4.jpg"",""time"":201},{""stimulus"":""img/red_ll/5.jpg"",""time"":251},{""stimulus"":""img/red_ll/6.jpg"",""time"":301},{""stimulus"":""img/red_ll/7.jpg"",""time"":351},{""stimulus"":""img/red_ll/8.jpg"",""time"":400},{""stimulus"":""img/red_ll/9.jpg"",""time"":451},{""stimulus"":""img/red_ll/10.jpg"",""time"":502},{""stimulus"":""img/red_ll/11.jpg"",""time"":550}]","[]"
"image-keyboard-response","110","248977","0.0-5.0-1.53","63f0fb9941434d10e8e4909b","bdp_lott","Mon Apr 10 2023 06:50:55 GMT-0400 (Eastern Daylight Time)","590530","red","green","","2256","","","","choice","","img/red_ll/choose11.jpg","2","172","red","0.5","0.5","0.5","l","",""
"animation","111","249578","0.0-5.0-2.53","63f0fb9941434d10e8e4909b","bdp_lott","Mon Apr 10 2023 06:50:55 GMT-0400 (Eastern Daylight Time)","590530","red","green","","","","","","","","","","172","","","","","","[{""stimulus"":""img/red_ll/1.jpg"",""time"":51},{""stimulus"":""img/red_ll/2.jpg"",""time"":101},{""stimulus"":""img/red_ll/3.jpg"",""time"":151},{""stimulus"":""img/red_ll/4.jpg"",""time"":201},{""stimulus"":""img/red_ll/5.jpg"",""time"":251},{""stimulus"":""img/red_ll/6.jpg"",""time"":301},{""stimulus"":""img/red_ll/7.jpg"",""time"":351},{""stimulus"":""img/red_ll/8.jpg"",""time"":401},{""stimulus"":""img/red_ll/9.jpg"",""time"":451},{""stimulus"":""img/red_ll/10.jpg"",""time"":500},{""stimulus"":""img/red_ll/11.jpg"",""time"":551}]","[]"
"image-keyboard-response","112","252312","0.0-5.0-1.54","63f0fb9941434d10e8e4909b","bdp_lott","Mon Apr 10 2023 06:50:55 GMT-0400 (Eastern Daylight Time)","590530","red","green","","2733","","","","choice","","img/red_ll/choose11.jpg","2","171","red","0.5","0.5","0.5","l","",""
"animation","113","252914","0.0-5.0-2.54","63f0fb9941434d10e8e4909b","bdp_lott","Mon Apr 10 2023 06:50:55 GMT-0400 (Eastern Daylight Time)","590530","red","green","","","","","","","","","","171","","","","","","[{""stimulus"":""img/red_ll/1.jpg"",""time"":51},{""stimulus"":""img/red_ll/2.jpg"",""time"":101},{""stimulus"":""img/red_ll/3.jpg"",""time"":152},{""stimulus"":""img/red_ll/4.jpg"",""time"":201},{""stimulus"":""img/red_ll/5.jpg"",""time"":252},{""stimulus"":""img/red_ll/6.jpg"",""time"":301},{""stimulus"":""img/red_ll/7.jpg"",""time"":352},{""stimulus"":""img/red_ll/8.jpg"",""time"":401},{""stimulus"":""img/red_ll/9.jpg"",""time"":452},{""stimulus"":""img/red_ll/10.jpg"",""time"":501},{""stimulus"":""img/red_ll/11.jpg"",""time"":551}]","[]"
"image-keyboard-response","114","255672","0.0-5.0-1.55","63f0fb9941434d10e8e4909b","bdp_lott","Mon Apr 10 2023 06:50:55 GMT-0400 (Eastern Daylight Time)","590530","red","green","","2757","","","","choice","","img/red_ll/choose11.jpg","1","170","green","0.5","0.5","0.5","w","",""
"animation","115","256273","0.0-5.0-2.55","63f0fb9941434d10e8e4909b","bdp_lott","Mon Apr 10 2023 06:50:55 GMT-0400 (Eastern Daylight Time)","590530","red","green","","","","","","","","","","170","","","","","","[{""stimulus"":""img/green_wl/1.jpg"",""time"":51},{""stimulus"":""img/green_wl/2.jpg"",""time"":100},{""stimulus"":""img/green_wl/3.jpg"",""time"":151},{""stimulus"":""img/green_wl/4.jpg"",""time"":200},{""stimulus"":""img/green_wl/5.jpg"",""time"":251},{""stimulus"":""img/green_wl/6.jpg"",""time"":301},{""stimulus"":""img/green_wl/7.jpg"",""time"":350},{""stimulus"":""img/green_wl/8.jpg"",""time"":401},{""stimulus"":""img/green_wl/9.jpg"",""time"":452},{""stimulus"":""img/green_wl/10.jpg"",""time"":502},{""stimulus"":""img/green_wl/11.jpg"",""time"":551}]","[]"
"image-keyboard-response","116","258656","0.0-5.0-1.56","63f0fb9941434d10e8e4909b","bdp_lott","Mon Apr 10 2023 06:50:55 GMT-0400 (Eastern Daylight Time)","590530","red","green","","2383","","","","choice","","img/green_wl/choose11.jpg","1","169","green","0.5","0.5","0.5","l","",""
"animation","117","259258","0.0-5.0-2.56","63f0fb9941434d10e8e4909b","bdp_lott","Mon Apr 10 2023 06:50:55 GMT-0400 (Eastern Daylight Time)","590530","red","green","","","","","","","","","","169","","","","","","[{""stimulus"":""img/green_ll/1.jpg"",""time"":51},{""stimulus"":""img/green_ll/2.jpg"",""time"":101},{""stimulus"":""img/green_ll/3.jpg"",""time"":152},{""stimulus"":""img/green_ll/4.jpg"",""time"":202},{""stimulus"":""img/green_ll/5.jpg"",""time"":251},{""stimulus"":""img/green_ll/6.jpg"",""time"":301},{""stimulus"":""img/green_ll/7.jpg"",""time"":351},{""stimulus"":""img/green_ll/8.jpg"",""time"":402},{""stimulus"":""img/green_ll/9.jpg"",""time"":451},{""stimulus"":""img/green_ll/10.jpg"",""time"":501},{""stimulus"":""img/green_ll/11.jpg"",""time"":551}]","[]"
"image-keyboard-response","118","262081","0.0-5.0-1.57","63f0fb9941434d10e8e4909b","bdp_lott","Mon Apr 10 2023 06:50:55 GMT-0400 (Eastern Daylight Time)","590530","red","green","","2823","","","","choice","","img/green_ll/choose11.jpg","1","168","green","0.5","0.5","0.5","w","",""
"animation","119","262682","0.0-5.0-2.57","63f0fb9941434d10e8e4909b","bdp_lott","Mon Apr 10 2023 06:50:55 GMT-0400 (Eastern Daylight Time)","590530","red","green","","","","","","","","","","168","","","","","","[{""stimulus"":""img/green_wl/1.jpg"",""time"":52},{""stimulus"":""img/green_wl/2.jpg"",""time"":101},{""stimulus"":""img/green_wl/3.jpg"",""time"":151},{""stimulus"":""img/green_wl/4.jpg"",""time"":201},{""stimulus"":""img/green_wl/5.jpg"",""time"":251},{""stimulus"":""img/green_wl/6.jpg"",""time"":301},{""stimulus"":""img/green_wl/7.jpg"",""time"":352},{""stimulus"":""img/green_wl/8.jpg"",""time"":401},{""stimulus"":""img/green_wl/9.jpg"",""time"":451},{""stimulus"":""img/green_wl/10.jpg"",""time"":502},{""stimulus"":""img/green_wl/11.jpg"",""time"":551}]","[]"
"image-keyboard-response","120","264760","0.0-5.0-1.58","63f0fb9941434d10e8e4909b","bdp_lott","Mon Apr 10 2023 06:50:55 GMT-0400 (Eastern Daylight Time)","590530","red","green","","2077","","","","choice","","img/green_wl/choose11.jpg","1","167","green","0.5","0.5","0.5","w","",""
"animation","121","265362","0.0-5.0-2.58","63f0fb9941434d10e8e4909b","bdp_lott","Mon Apr 10 2023 06:50:55 GMT-0400 (Eastern Daylight Time)","590530","red","green","","","","","","","","","","167","","","","","","[{""stimulus"":""img/green_wl/1.jpg"",""time"":52},{""stimulus"":""img/green_wl/2.jpg"",""time"":101},{""stimulus"":""img/green_wl/3.jpg"",""time"":152},{""stimulus"":""img/green_wl/4.jpg"",""time"":202},{""stimulus"":""img/green_wl/5.jpg"",""time"":251},{""stimulus"":""img/green_wl/6.jpg"",""time"":301},{""stimulus"":""img/green_wl/7.jpg"",""time"":351},{""stimulus"":""img/green_wl/8.jpg"",""time"":402},{""stimulus"":""img/green_wl/9.jpg"",""time"":452},{""stimulus"":""img/green_wl/10.jpg"",""time"":502},{""stimulus"":""img/green_wl/11.jpg"",""time"":551}]","[]"
"image-keyboard-response","122","266912","0.0-5.0-1.59","63f0fb9941434d10e8e4909b","bdp_lott","Mon Apr 10 2023 06:50:55 GMT-0400 (Eastern Daylight Time)","590530","red","green","","1550","","","","choice","","img/green_wl/choose11.jpg","1","166","green","0.5","0.5","0.5","l","",""
"animation","123","267513","0.0-5.0-2.59","63f0fb9941434d10e8e4909b","bdp_lott","Mon Apr 10 2023 06:50:55 GMT-0400 (Eastern Daylight Time)","590530","red","green","","","","","","","","","","166","","","","","","[{""stimulus"":""img/green_ll/1.jpg"",""time"":51},{""stimulus"":""img/green_ll/2.jpg"",""time"":102},{""stimulus"":""img/green_ll/3.jpg"",""time"":152},{""stimulus"":""img/green_ll/4.jpg"",""time"":202},{""stimulus"":""img/green_ll/5.jpg"",""time"":252},{""stimulus"":""img/green_ll/6.jpg"",""time"":301},{""stimulus"":""img/green_ll/7.jpg"",""time"":351},{""stimulus"":""img/green_ll/8.jpg"",""time"":401},{""stimulus"":""img/green_ll/9.jpg"",""time"":452},{""stimulus"":""img/green_ll/10.jpg"",""time"":501},{""stimulus"":""img/green_ll/11.jpg"",""time"":552}]","[]"
"image-keyboard-response","124","269184","0.0-5.0-1.60","63f0fb9941434d10e8e4909b","bdp_lott","Mon Apr 10 2023 06:50:55 GMT-0400 (Eastern Daylight Time)","590530","red","green","","1671","","","","choice","","img/green_ll/choose11.jpg","2","165","red","0.5","0.5","0.5","w","",""
"animation","125","269785","0.0-5.0-2.60","63f0fb9941434d10e8e4909b","bdp_lott","Mon Apr 10 2023 06:50:55 GMT-0400 (Eastern Daylight Time)","590530","red","green","","","","","","","","","","165","","","","","","[{""stimulus"":""img/red_lw/1.jpg"",""time"":51},{""stimulus"":""img/red_lw/2.jpg"",""time"":101},{""stimulus"":""img/red_lw/3.jpg"",""time"":152},{""stimulus"":""img/red_lw/4.jpg"",""time"":201},{""stimulus"":""img/red_lw/5.jpg"",""time"":252},{""stimulus"":""img/red_lw/6.jpg"",""time"":302},{""stimulus"":""img/red_lw/7.jpg"",""time"":352},{""stimulus"":""img/red_lw/8.jpg"",""time"":402},{""stimulus"":""img/red_lw/9.jpg"",""time"":452},{""stimulus"":""img/red_lw/10.jpg"",""time"":501},{""stimulus"":""img/red_lw/11.jpg"",""time"":551}]","[]"
"image-keyboard-response","126","272881","0.0-5.0-1.61","63f0fb9941434d10e8e4909b","bdp_lott","Mon Apr 10 2023 06:50:55 GMT-0400 (Eastern Daylight Time)","590530","red","green","","3094","","","","choice","","img/red_lw/choose11.jpg","2","164","red","0.5","0.5","0.5","l","",""
"animation","127","273482","0.0-5.0-2.61","63f0fb9941434d10e8e4909b","bdp_lott","Mon Apr 10 2023 06:50:55 GMT-0400 (Eastern Daylight Time)","590530","red","green","","","","","","","","","","164","","","","","","[{""stimulus"":""img/red_ll/1.jpg"",""time"":51},{""stimulus"":""img/red_ll/2.jpg"",""time"":100},{""stimulus"":""img/red_ll/3.jpg"",""time"":152},{""stimulus"":""img/red_ll/4.jpg"",""time"":201},{""stimulus"":""img/red_ll/5.jpg"",""time"":251},{""stimulus"":""img/red_ll/6.jpg"",""time"":301},{""stimulus"":""img/red_ll/7.jpg"",""time"":351},{""stimulus"":""img/red_ll/8.jpg"",""time"":401},{""stimulus"":""img/red_ll/9.jpg"",""time"":452},{""stimulus"":""img/red_ll/10.jpg"",""time"":500},{""stimulus"":""img/red_ll/11.jpg"",""time"":551}]","[]"
"image-keyboard-response","128","275304","0.0-5.0-1.62","63f0fb9941434d10e8e4909b","bdp_lott","Mon Apr 10 2023 06:50:55 GMT-0400 (Eastern Daylight Time)","590530","red","green","","1822","","","","choice","","img/red_ll/choose11.jpg","2","163","red","0.5","0.5","0.5","w","",""
"animation","129","275905","0.0-5.0-2.62","63f0fb9941434d10e8e4909b","bdp_lott","Mon Apr 10 2023 06:50:55 GMT-0400 (Eastern Daylight Time)","590530","red","green","","","","","","","","","","163","","","","","","[{""stimulus"":""img/red_lw/1.jpg"",""time"":51},{""stimulus"":""img/red_lw/2.jpg"",""time"":102},{""stimulus"":""img/red_lw/3.jpg"",""time"":151},{""stimulus"":""img/red_lw/4.jpg"",""time"":202},{""stimulus"":""img/red_lw/5.jpg"",""time"":252},{""stimulus"":""img/red_lw/6.jpg"",""time"":302},{""stimulus"":""img/red_lw/7.jpg"",""time"":351},{""stimulus"":""img/red_lw/8.jpg"",""time"":402},{""stimulus"":""img/red_lw/9.jpg"",""time"":451},{""stimulus"":""img/red_lw/10.jpg"",""time"":501},{""stimulus"":""img/red_lw/11.jpg"",""time"":552}]","[]"
"image-keyboard-response","130","277480","0.0-5.0-1.63","63f0fb9941434d10e8e4909b","bdp_lott","Mon Apr 10 2023 06:50:55 GMT-0400 (Eastern Daylight Time)","590530","red","green","","1575","","","","choice","","img/red_lw/choose11.jpg","2","162","red","0.5","0.5","0.5","w","",""
"animation","131","278081","0.0-5.0-2.63","63f0fb9941434d10e8e4909b","bdp_lott","Mon Apr 10 2023 06:50:55 GMT-0400 (Eastern Daylight Time)","590530","red","green","","","","","","","","","","162","","","","","","[{""stimulus"":""img/red_lw/1.jpg"",""time"":52},{""stimulus"":""img/red_lw/2.jpg"",""time"":101},{""stimulus"":""img/red_lw/3.jpg"",""time"":151},{""stimulus"":""img/red_lw/4.jpg"",""time"":202},{""stimulus"":""img/red_lw/5.jpg"",""time"":252},{""stimulus"":""img/red_lw/6.jpg"",""time"":301},{""stimulus"":""img/red_lw/7.jpg"",""time"":352},{""stimulus"":""img/red_lw/8.jpg"",""time"":401},{""stimulus"":""img/red_lw/9.jpg"",""time"":452},{""stimulus"":""img/red_lw/10.jpg"",""time"":501},{""stimulus"":""img/red_lw/11.jpg"",""time"":552}]","[]"
"image-keyboard-response","132","279896","0.0-5.0-1.64","63f0fb9941434d10e8e4909b","bdp_lott","Mon Apr 10 2023 06:50:55 GMT-0400 (Eastern Daylight Time)","590530","red","green","","1814","","","","choice","","img/red_lw/choose11.jpg","2","161","red","0.5","0.5","0.5","l","",""
"animation","133","280497","0.0-5.0-2.64","63f0fb9941434d10e8e4909b","bdp_lott","Mon Apr 10 2023 06:50:55 GMT-0400 (Eastern Daylight Time)","590530","red","green","","","","","","","","","","161","","","","","","[{""stimulus"":""img/red_ll/1.jpg"",""time"":52},{""stimulus"":""img/red_ll/2.jpg"",""time"":101},{""stimulus"":""img/red_ll/3.jpg"",""time"":152},{""stimulus"":""img/red_ll/4.jpg"",""time"":202},{""stimulus"":""img/red_ll/5.jpg"",""time"":251},{""stimulus"":""img/red_ll/6.jpg"",""time"":302},{""stimulus"":""img/red_ll/7.jpg"",""time"":352},{""stimulus"":""img/red_ll/8.jpg"",""time"":401},{""stimulus"":""img/red_ll/9.jpg"",""time"":451},{""stimulus"":""img/red_ll/10.jpg"",""time"":501},{""stimulus"":""img/red_ll/11.jpg"",""time"":552}]","[]"
"image-keyboard-response","134","282663","0.0-5.0-1.65","63f0fb9941434d10e8e4909b","bdp_lott","Mon Apr 10 2023 06:50:55 GMT-0400 (Eastern Daylight Time)","590530","red","green","","2166","","","","choice","","img/red_ll/choose11.jpg","1","160","green","0.5","0.5","0.5","w","",""
"animation","135","283265","0.0-5.0-2.65","63f0fb9941434d10e8e4909b","bdp_lott","Mon Apr 10 2023 06:50:55 GMT-0400 (Eastern Daylight Time)","590530","red","green","","","","","","","","","","160","","","","","","[{""stimulus"":""img/green_wl/1.jpg"",""time"":51},{""stimulus"":""img/green_wl/2.jpg"",""time"":100},{""stimulus"":""img/green_wl/3.jpg"",""time"":151},{""stimulus"":""img/green_wl/4.jpg"",""time"":201},{""stimulus"":""img/green_wl/5.jpg"",""time"":251},{""stimulus"":""img/green_wl/6.jpg"",""time"":302},{""stimulus"":""img/green_wl/7.jpg"",""time"":351},{""stimulus"":""img/green_wl/8.jpg"",""time"":401},{""stimulus"":""img/green_wl/9.jpg"",""time"":451},{""stimulus"":""img/green_wl/10.jpg"",""time"":500},{""stimulus"":""img/green_wl/11.jpg"",""time"":551}]","[]"
"image-keyboard-response","136","287312","0.0-5.0-1.66","63f0fb9941434d10e8e4909b","bdp_lott","Mon Apr 10 2023 06:50:55 GMT-0400 (Eastern Daylight Time)","590530","red","green","","4047","","","","choice","","img/green_wl/choose11.jpg","1","159","green","0.5","0.5","0.5","w","",""
"animation","137","287913","0.0-5.0-2.66","63f0fb9941434d10e8e4909b","bdp_lott","Mon Apr 10 2023 06:50:55 GMT-0400 (Eastern Daylight Time)","590530","red","green","","","","","","","","","","159","","","","","","[{""stimulus"":""img/green_wl/1.jpg"",""time"":51},{""stimulus"":""img/green_wl/2.jpg"",""time"":101},{""stimulus"":""img/green_wl/3.jpg"",""time"":151},{""stimulus"":""img/green_wl/4.jpg"",""time"":202},{""stimulus"":""img/green_wl/5.jpg"",""time"":251},{""stimulus"":""img/green_wl/6.jpg"",""time"":301},{""stimulus"":""img/green_wl/7.jpg"",""time"":351},{""stimulus"":""img/green_wl/8.jpg"",""time"":402},{""stimulus"":""img/green_wl/9.jpg"",""time"":452},{""stimulus"":""img/green_wl/10.jpg"",""time"":501},{""stimulus"":""img/green_wl/11.jpg"",""time"":551}]","[]"
"image-keyboard-response","138","289815","0.0-5.0-1.67","63f0fb9941434d10e8e4909b","bdp_lott","Mon Apr 10 2023 06:50:55 GMT-0400 (Eastern Daylight Time)","590530","red","green","","1902","","","","choice","","img/green_wl/choose11.jpg","1","158","green","0.5","0.5","0.5","w","",""
"animation","139","290417","0.0-5.0-2.67","63f0fb9941434d10e8e4909b","bdp_lott","Mon Apr 10 2023 06:50:55 GMT-0400 (Eastern Daylight Time)","590530","red","green","","","","","","","","","","158","","","","","","[{""stimulus"":""img/green_wl/1.jpg"",""time"":50},{""stimulus"":""img/green_wl/2.jpg"",""time"":102},{""stimulus"":""img/green_wl/3.jpg"",""time"":150},{""stimulus"":""img/green_wl/4.jpg"",""time"":202},{""stimulus"":""img/green_wl/5.jpg"",""time"":251},{""stimulus"":""img/green_wl/6.jpg"",""time"":301},{""stimulus"":""img/green_wl/7.jpg"",""time"":351},{""stimulus"":""img/green_wl/8.jpg"",""time"":401},{""stimulus"":""img/green_wl/9.jpg"",""time"":452},{""stimulus"":""img/green_wl/10.jpg"",""time"":500},{""stimulus"":""img/green_wl/11.jpg"",""time"":551}]","[]"
"image-keyboard-response","140","292215","0.0-5.0-1.68","63f0fb9941434d10e8e4909b","bdp_lott","Mon Apr 10 2023 06:50:55 GMT-0400 (Eastern Daylight Time)","590530","red","green","","1798","","","","choice","","img/green_wl/choose11.jpg","1","157","green","0.5","0.5","0.5","l","",""
"animation","141","292816","0.0-5.0-2.68","63f0fb9941434d10e8e4909b","bdp_lott","Mon Apr 10 2023 06:50:55 GMT-0400 (Eastern Daylight Time)","590530","red","green","","","","","","","","","","157","","","","","","[{""stimulus"":""img/green_ll/1.jpg"",""time"":51},{""stimulus"":""img/green_ll/2.jpg"",""time"":100},{""stimulus"":""img/green_ll/3.jpg"",""time"":151},{""stimulus"":""img/green_ll/4.jpg"",""time"":201},{""stimulus"":""img/green_ll/5.jpg"",""time"":250},{""stimulus"":""img/green_ll/6.jpg"",""time"":300},{""stimulus"":""img/green_ll/7.jpg"",""time"":351},{""stimulus"":""img/green_ll/8.jpg"",""time"":401},{""stimulus"":""img/green_ll/9.jpg"",""time"":451},{""stimulus"":""img/green_ll/10.jpg"",""time"":500},{""stimulus"":""img/green_ll/11.jpg"",""time"":551}]","[]"
"image-keyboard-response","142","295279","0.0-5.0-1.69","63f0fb9941434d10e8e4909b","bdp_lott","Mon Apr 10 2023 06:50:55 GMT-0400 (Eastern Daylight Time)","590530","red","green","","2463","","","","choice","","img/green_ll/choose11.jpg","1","156","green","0.5","0.5","0.5","w","",""
"animation","143","295880","0.0-5.0-2.69","63f0fb9941434d10e8e4909b","bdp_lott","Mon Apr 10 2023 06:50:55 GMT-0400 (Eastern Daylight Time)","590530","red","green","","","","","","","","","","156","","","","","","[{""stimulus"":""img/green_wl/1.jpg"",""time"":51},{""stimulus"":""img/green_wl/2.jpg"",""time"":100},{""stimulus"":""img/green_wl/3.jpg"",""time"":151},{""stimulus"":""img/green_wl/4.jpg"",""time"":201},{""stimulus"":""img/green_wl/5.jpg"",""time"":252},{""stimulus"":""img/green_wl/6.jpg"",""time"":301},{""stimulus"":""img/green_wl/7.jpg"",""time"":350},{""stimulus"":""img/green_wl/8.jpg"",""time"":400},{""stimulus"":""img/green_wl/9.jpg"",""time"":451},{""stimulus"":""img/green_wl/10.jpg"",""time"":500},{""stimulus"":""img/green_wl/11.jpg"",""time"":551}]","[]"
"image-keyboard-response","144","297624","0.0-5.0-1.70","63f0fb9941434d10e8e4909b","bdp_lott","Mon Apr 10 2023 06:50:55 GMT-0400 (Eastern Daylight Time)","590530","red","green","","1743","","","","choice","","img/green_wl/choose11.jpg","1","155","green","0.5","0.5","0.5","w","",""
"animation","145","298224","0.0-5.0-2.70","63f0fb9941434d10e8e4909b","bdp_lott","Mon Apr 10 2023 06:50:55 GMT-0400 (Eastern Daylight Time)","590530","red","green","","","","","","","","","","155","","","","","","[{""stimulus"":""img/green_wl/1.jpg"",""time"":51},{""stimulus"":""img/green_wl/2.jpg"",""time"":102},{""stimulus"":""img/green_wl/3.jpg"",""time"":152},{""stimulus"":""img/green_wl/4.jpg"",""time"":201},{""stimulus"":""img/green_wl/5.jpg"",""time"":251},{""stimulus"":""img/green_wl/6.jpg"",""time"":301},{""stimulus"":""img/green_wl/7.jpg"",""time"":352},{""stimulus"":""img/green_wl/8.jpg"",""time"":401},{""stimulus"":""img/green_wl/9.jpg"",""time"":451},{""stimulus"":""img/green_wl/10.jpg"",""time"":501},{""stimulus"":""img/green_wl/11.jpg"",""time"":551}]","[]"
"image-keyboard-response","146","299543","0.0-5.0-1.71","63f0fb9941434d10e8e4909b","bdp_lott","Mon Apr 10 2023 06:50:55 GMT-0400 (Eastern Daylight Time)","590530","red","green","","1318","","","","choice","","img/green_wl/choose11.jpg","1","154","green","0.5","0.5","0.5","l","",""
"animation","147","300145","0.0-5.0-2.71","63f0fb9941434d10e8e4909b","bdp_lott","Mon Apr 10 2023 06:50:55 GMT-0400 (Eastern Daylight Time)","590530","red","green","","","","","","","","","","154","","","","","","[{""stimulus"":""img/green_ll/1.jpg"",""time"":51},{""stimulus"":""img/green_ll/2.jpg"",""time"":101},{""stimulus"":""img/green_ll/3.jpg"",""time"":151},{""stimulus"":""img/green_ll/4.jpg"",""time"":201},{""stimulus"":""img/green_ll/5.jpg"",""time"":250},{""stimulus"":""img/green_ll/6.jpg"",""time"":301},{""stimulus"":""img/green_ll/7.jpg"",""time"":351},{""stimulus"":""img/green_ll/8.jpg"",""time"":400},{""stimulus"":""img/green_ll/9.jpg"",""time"":451},{""stimulus"":""img/green_ll/10.jpg"",""time"":500},{""stimulus"":""img/green_ll/11.jpg"",""time"":551}]","[]"
"image-keyboard-response","148","301775","0.0-5.0-1.72","63f0fb9941434d10e8e4909b","bdp_lott","Mon Apr 10 2023 06:50:55 GMT-0400 (Eastern Daylight Time)","590530","red","green","","1630","","","","choice","","img/green_ll/choose11.jpg","2","153","red","0.5","0.5","0.5","w","",""
"animation","149","302376","0.0-5.0-2.72","63f0fb9941434d10e8e4909b","bdp_lott","Mon Apr 10 2023 06:50:55 GMT-0400 (Eastern Daylight Time)","590530","red","green","","","","","","","","","","153","","","","","","[{""stimulus"":""img/red_lw/1.jpg"",""time"":51},{""stimulus"":""img/red_lw/2.jpg"",""time"":100},{""stimulus"":""img/red_lw/3.jpg"",""time"":152},{""stimulus"":""img/red_lw/4.jpg"",""time"":200},{""stimulus"":""img/red_lw/5.jpg"",""time"":251},{""stimulus"":""img/red_lw/6.jpg"",""time"":301},{""stimulus"":""img/red_lw/7.jpg"",""time"":350},{""stimulus"":""img/red_lw/8.jpg"",""time"":400},{""stimulus"":""img/red_lw/9.jpg"",""time"":450},{""stimulus"":""img/red_lw/10.jpg"",""time"":502},{""stimulus"":""img/red_lw/11.jpg"",""time"":550}]","[]"
"image-keyboard-response","150","308536","0.0-5.0-1.73","63f0fb9941434d10e8e4909b","bdp_lott","Mon Apr 10 2023 06:50:55 GMT-0400 (Eastern Daylight Time)","590530","red","green","","6160","","","","choice","","img/red_lw/choose11.jpg","2","152","red","0.5","0.5","0.5","l","",""
"animation","151","309137","0.0-5.0-2.73","63f0fb9941434d10e8e4909b","bdp_lott","Mon Apr 10 2023 06:50:55 GMT-0400 (Eastern Daylight Time)","590530","red","green","","","","","","","","","","152","","","","","","[{""stimulus"":""img/red_ll/1.jpg"",""time"":51},{""stimulus"":""img/red_ll/2.jpg"",""time"":100},{""stimulus"":""img/red_ll/3.jpg"",""time"":151},{""stimulus"":""img/red_ll/4.jpg"",""time"":200},{""stimulus"":""img/red_ll/5.jpg"",""time"":251},{""stimulus"":""img/red_ll/6.jpg"",""time"":300},{""stimulus"":""img/red_ll/7.jpg"",""time"":350},{""stimulus"":""img/red_ll/8.jpg"",""time"":401},{""stimulus"":""img/red_ll/9.jpg"",""time"":451},{""stimulus"":""img/red_ll/10.jpg"",""time"":501},{""stimulus"":""img/red_ll/11.jpg"",""time"":550}]","[]"
"image-keyboard-response","152","313943","0.0-5.0-1.74","63f0fb9941434d10e8e4909b","bdp_lott","Mon Apr 10 2023 06:50:55 GMT-0400 (Eastern Daylight Time)","590530","red","green","","4806","","","","choice","","img/red_ll/choose11.jpg","2","151","red","0.5","0.5","0.5","l","",""
"animation","153","314545","0.0-5.0-2.74","63f0fb9941434d10e8e4909b","bdp_lott","Mon Apr 10 2023 06:50:55 GMT-0400 (Eastern Daylight Time)","590530","red","green","","","","","","","","","","151","","","","","","[{""stimulus"":""img/red_ll/1.jpg"",""time"":51},{""stimulus"":""img/red_ll/2.jpg"",""time"":100},{""stimulus"":""img/red_ll/3.jpg"",""time"":152},{""stimulus"":""img/red_ll/4.jpg"",""time"":201},{""stimulus"":""img/red_ll/5.jpg"",""time"":251},{""stimulus"":""img/red_ll/6.jpg"",""time"":301},{""stimulus"":""img/red_ll/7.jpg"",""time"":351},{""stimulus"":""img/red_ll/8.jpg"",""time"":401},{""stimulus"":""img/red_ll/9.jpg"",""time"":451},{""stimulus"":""img/red_ll/10.jpg"",""time"":501},{""stimulus"":""img/red_ll/11.jpg"",""time"":550}]","[]"
"image-keyboard-response","154","316727","0.0-5.0-1.75","63f0fb9941434d10e8e4909b","bdp_lott","Mon Apr 10 2023 06:50:55 GMT-0400 (Eastern Daylight Time)","590530","red","green","","2182","","","","choice","","img/red_ll/choose11.jpg","2","150","red","0.5","0.5","0.5","w","",""
"animation","155","317328","0.0-5.0-2.75","63f0fb9941434d10e8e4909b","bdp_lott","Mon Apr 10 2023 06:50:55 GMT-0400 (Eastern Daylight Time)","590530","red","green","","","","","","","","","","150","","","","","","[{""stimulus"":""img/red_lw/1.jpg"",""time"":51},{""stimulus"":""img/red_lw/2.jpg"",""time"":100},{""stimulus"":""img/red_lw/3.jpg"",""time"":150},{""stimulus"":""img/red_lw/4.jpg"",""time"":201},{""stimulus"":""img/red_lw/5.jpg"",""time"":250},{""stimulus"":""img/red_lw/6.jpg"",""time"":301},{""stimulus"":""img/red_lw/7.jpg"",""time"":351},{""stimulus"":""img/red_lw/8.jpg"",""time"":400},{""stimulus"":""img/red_lw/9.jpg"",""time"":450},{""stimulus"":""img/red_lw/10.jpg"",""time"":500},{""stimulus"":""img/red_lw/11.jpg"",""time"":551}]","[]"
"image-keyboard-response","156","319296","0.0-5.0-1.76","63f0fb9941434d10e8e4909b","bdp_lott","Mon Apr 10 2023 06:50:55 GMT-0400 (Eastern Daylight Time)","590530","red","green","","1968","","","","choice","","img/red_lw/choose11.jpg","2","149","red","0.5","0.1","0.5","w","",""
"animation","157","319897","0.0-5.0-2.76","63f0fb9941434d10e8e4909b","bdp_lott","Mon Apr 10 2023 06:50:55 GMT-0400 (Eastern Daylight Time)","590530","red","green","","","","","","","","","","149","","","","","","[{""stimulus"":""img/red_lw/1.jpg"",""time"":51},{""stimulus"":""img/red_lw/2.jpg"",""time"":102},{""stimulus"":""img/red_lw/3.jpg"",""time"":152},{""stimulus"":""img/red_lw/4.jpg"",""time"":201},{""stimulus"":""img/red_lw/5.jpg"",""time"":251},{""stimulus"":""img/red_lw/6.jpg"",""time"":301},{""stimulus"":""img/red_lw/7.jpg"",""time"":351},{""stimulus"":""img/red_lw/8.jpg"",""time"":400},{""stimulus"":""img/red_lw/9.jpg"",""time"":451},{""stimulus"":""img/red_lw/10.jpg"",""time"":501},{""stimulus"":""img/red_lw/11.jpg"",""time"":550}]","[]"
"image-keyboard-response","158","321463","0.0-5.0-1.77","63f0fb9941434d10e8e4909b","bdp_lott","Mon Apr 10 2023 06:50:55 GMT-0400 (Eastern Daylight Time)","590530","red","green","","1566","","","","choice","","img/red_lw/choose11.jpg","2","148","red","0.5","0.1","0.5","w","",""
"animation","159","322065","0.0-5.0-2.77","63f0fb9941434d10e8e4909b","bdp_lott","Mon Apr 10 2023 06:50:55 GMT-0400 (Eastern Daylight Time)","590530","red","green","","","","","","","","","","148","","","","","","[{""stimulus"":""img/red_lw/1.jpg"",""time"":50},{""stimulus"":""img/red_lw/2.jpg"",""time"":100},{""stimulus"":""img/red_lw/3.jpg"",""time"":150},{""stimulus"":""img/red_lw/4.jpg"",""time"":201},{""stimulus"":""img/red_lw/5.jpg"",""time"":251},{""stimulus"":""img/red_lw/6.jpg"",""time"":300},{""stimulus"":""img/red_lw/7.jpg"",""time"":351},{""stimulus"":""img/red_lw/8.jpg"",""time"":400},{""stimulus"":""img/red_lw/9.jpg"",""time"":451},{""stimulus"":""img/red_lw/10.jpg"",""time"":500},{""stimulus"":""img/red_lw/11.jpg"",""time"":551}]","[]"
"image-keyboard-response","160","323647","0.0-5.0-1.78","63f0fb9941434d10e8e4909b","bdp_lott","Mon Apr 10 2023 06:50:55 GMT-0400 (Eastern Daylight Time)","590530","red","green","","1582","","","","choice","","img/red_lw/choose11.jpg","2","147","red","0.5","0.1","0.5","l","",""
"animation","161","324248","0.0-5.0-2.78","63f0fb9941434d10e8e4909b","bdp_lott","Mon Apr 10 2023 06:50:55 GMT-0400 (Eastern Daylight Time)","590530","red","green","","","","","","","","","","147","","","","","","[{""stimulus"":""img/red_ll/1.jpg"",""time"":51},{""stimulus"":""img/red_ll/2.jpg"",""time"":100},{""stimulus"":""img/red_ll/3.jpg"",""time"":151},{""stimulus"":""img/red_ll/4.jpg"",""time"":201},{""stimulus"":""img/red_ll/5.jpg"",""time"":251},{""stimulus"":""img/red_ll/6.jpg"",""time"":301},{""stimulus"":""img/red_ll/7.jpg"",""time"":351},{""stimulus"":""img/red_ll/8.jpg"",""time"":402},{""stimulus"":""img/red_ll/9.jpg"",""time"":451},{""stimulus"":""img/red_ll/10.jpg"",""time"":500},{""stimulus"":""img/red_ll/11.jpg"",""time"":551}]","[]"
"image-keyboard-response","162","326071","0.0-5.0-1.79","63f0fb9941434d10e8e4909b","bdp_lott","Mon Apr 10 2023 06:50:55 GMT-0400 (Eastern Daylight Time)","590530","red","green","","1823","","","","choice","","img/red_ll/choose11.jpg","1","146","green","0.5","0.1","0.1","l","",""
"animation","163","326672","0.0-5.0-2.79","63f0fb9941434d10e8e4909b","bdp_lott","Mon Apr 10 2023 06:50:55 GMT-0400 (Eastern Daylight Time)","590530","red","green","","","","","","","","","","146","","","","","","[{""stimulus"":""img/green_ll/1.jpg"",""time"":50},{""stimulus"":""img/green_ll/2.jpg"",""time"":100},{""stimulus"":""img/green_ll/3.jpg"",""time"":150},{""stimulus"":""img/green_ll/4.jpg"",""time"":201},{""stimulus"":""img/green_ll/5.jpg"",""time"":250},{""stimulus"":""img/green_ll/6.jpg"",""time"":300},{""stimulus"":""img/green_ll/7.jpg"",""time"":351},{""stimulus"":""img/green_ll/8.jpg"",""time"":401},{""stimulus"":""img/green_ll/9.jpg"",""time"":451},{""stimulus"":""img/green_ll/10.jpg"",""time"":500},{""stimulus"":""img/green_ll/11.jpg"",""time"":551}]","[]"
"image-keyboard-response","164","328375","0.0-5.0-1.80","63f0fb9941434d10e8e4909b","bdp_lott","Mon Apr 10 2023 06:50:55 GMT-0400 (Eastern Daylight Time)","590530","red","green","","1703","","","","choice","","img/green_ll/choose11.jpg","1","145","green","0.5","0.1","0.1","l","",""
"animation","165","328976","0.0-5.0-2.80","63f0fb9941434d10e8e4909b","bdp_lott","Mon Apr 10 2023 06:50:55 GMT-0400 (Eastern Daylight Time)","590530","red","green","","","","","","","","","","145","","","","","","[{""stimulus"":""img/green_ll/1.jpg"",""time"":52},{""stimulus"":""img/green_ll/2.jpg"",""time"":101},{""stimulus"":""img/green_ll/3.jpg"",""time"":152},{""stimulus"":""img/green_ll/4.jpg"",""time"":202},{""stimulus"":""img/green_ll/5.jpg"",""time"":253},{""stimulus"":""img/green_ll/6.jpg"",""time"":301},{""stimulus"":""img/green_ll/7.jpg"",""time"":352},{""stimulus"":""img/green_ll/8.jpg"",""time"":402},{""stimulus"":""img/green_ll/9.jpg"",""time"":452},{""stimulus"":""img/green_ll/10.jpg"",""time"":501},{""stimulus"":""img/green_ll/11.jpg"",""time"":551}]","[]"
"image-keyboard-response","166","330504","0.0-5.0-1.81","63f0fb9941434d10e8e4909b","bdp_lott","Mon Apr 10 2023 06:50:55 GMT-0400 (Eastern Daylight Time)","590530","red","green","","1528","","","","choice","","img/green_ll/choose11.jpg","2","144","red","0.5","0.1","0.5","w","",""
"animation","167","331104","0.0-5.0-2.81","63f0fb9941434d10e8e4909b","bdp_lott","Mon Apr 10 2023 06:50:55 GMT-0400 (Eastern Daylight Time)","590530","red","green","","","","","","","","","","144","","","","","","[{""stimulus"":""img/red_lw/1.jpg"",""time"":51},{""stimulus"":""img/red_lw/2.jpg"",""time"":101},{""stimulus"":""img/red_lw/3.jpg"",""time"":151},{""stimulus"":""img/red_lw/4.jpg"",""time"":201},{""stimulus"":""img/red_lw/5.jpg"",""time"":251},{""stimulus"":""img/red_lw/6.jpg"",""time"":300},{""stimulus"":""img/red_lw/7.jpg"",""time"":351},{""stimulus"":""img/red_lw/8.jpg"",""time"":401},{""stimulus"":""img/red_lw/9.jpg"",""time"":451},{""stimulus"":""img/red_lw/10.jpg"",""time"":500},{""stimulus"":""img/red_lw/11.jpg"",""time"":551}]","[]"
"image-keyboard-response","168","332695","0.0-5.0-1.82","63f0fb9941434d10e8e4909b","bdp_lott","Mon Apr 10 2023 06:50:55 GMT-0400 (Eastern Daylight Time)","590530","red","green","","1590","","","","choice","","img/red_lw/choose11.jpg","2","143","red","0.5","0.1","0.5","l","",""
"animation","169","333296","0.0-5.0-2.82","63f0fb9941434d10e8e4909b","bdp_lott","Mon Apr 10 2023 06:50:55 GMT-0400 (Eastern Daylight Time)","590530","red","green","","","","","","","","","","143","","","","","","[{""stimulus"":""img/red_ll/1.jpg"",""time"":51},{""stimulus"":""img/red_ll/2.jpg"",""time"":102},{""stimulus"":""img/red_ll/3.jpg"",""time"":152},{""stimulus"":""img/red_ll/4.jpg"",""time"":201},{""stimulus"":""img/red_ll/5.jpg"",""time"":252},{""stimulus"":""img/red_ll/6.jpg"",""time"":301},{""stimulus"":""img/red_ll/7.jpg"",""time"":352},{""stimulus"":""img/red_ll/8.jpg"",""time"":402},{""stimulus"":""img/red_ll/9.jpg"",""time"":452},{""stimulus"":""img/red_ll/10.jpg"",""time"":501},{""stimulus"":""img/red_ll/11.jpg"",""time"":551}]","[]"
"image-keyboard-response","170","335815","0.0-5.0-1.83","63f0fb9941434d10e8e4909b","bdp_lott","Mon Apr 10 2023 06:50:55 GMT-0400 (Eastern Daylight Time)","590530","red","green","","2519","","","","choice","","img/red_ll/choose11.jpg","2","142","red","0.5","0.1","0.5","l","",""
"animation","171","336416","0.0-5.0-2.83","63f0fb9941434d10e8e4909b","bdp_lott","Mon Apr 10 2023 06:50:55 GMT-0400 (Eastern Daylight Time)","590530","red","green","","","","","","","","","","142","","","","","","[{""stimulus"":""img/red_ll/1.jpg"",""time"":51},{""stimulus"":""img/red_ll/2.jpg"",""time"":100},{""stimulus"":""img/red_ll/3.jpg"",""time"":151},{""stimulus"":""img/red_ll/4.jpg"",""time"":201},{""stimulus"":""img/red_ll/5.jpg"",""time"":250},{""stimulus"":""img/red_ll/6.jpg"",""time"":300},{""stimulus"":""img/red_ll/7.jpg"",""time"":351},{""stimulus"":""img/red_ll/8.jpg"",""time"":400},{""stimulus"":""img/red_ll/9.jpg"",""time"":451},{""stimulus"":""img/red_ll/10.jpg"",""time"":502},{""stimulus"":""img/red_ll/11.jpg"",""time"":550}]","[]"
"image-keyboard-response","172","337799","0.0-5.0-1.84","63f0fb9941434d10e8e4909b","bdp_lott","Mon Apr 10 2023 06:50:55 GMT-0400 (Eastern Daylight Time)","590530","red","green","","1383","","","","choice","","img/red_ll/choose11.jpg","1","141","green","0.5","0.1","0.1","l","",""
"animation","173","338400","0.0-5.0-2.84","63f0fb9941434d10e8e4909b","bdp_lott","Mon Apr 10 2023 06:50:55 GMT-0400 (Eastern Daylight Time)","590530","red","green","","","","","","","","","","141","","","","","","[{""stimulus"":""img/green_ll/1.jpg"",""time"":52},{""stimulus"":""img/green_ll/2.jpg"",""time"":102},{""stimulus"":""img/green_ll/3.jpg"",""time"":152},{""stimulus"":""img/green_ll/4.jpg"",""time"":202},{""stimulus"":""img/green_ll/5.jpg"",""time"":252},{""stimulus"":""img/green_ll/6.jpg"",""time"":302},{""stimulus"":""img/green_ll/7.jpg"",""time"":352},{""stimulus"":""img/green_ll/8.jpg"",""time"":401},{""stimulus"":""img/green_ll/9.jpg"",""time"":452},{""stimulus"":""img/green_ll/10.jpg"",""time"":503},{""stimulus"":""img/green_ll/11.jpg"",""time"":551}]","[]"
"image-keyboard-response","174","340279","0.0-5.0-1.85","63f0fb9941434d10e8e4909b","bdp_lott","Mon Apr 10 2023 06:50:55 GMT-0400 (Eastern Daylight Time)","590530","red","green","","1879","","","","choice","","img/green_ll/choose11.jpg","1","140","green","0.5","0.1","0.1","l","",""
"animation","175","340880","0.0-5.0-2.85","63f0fb9941434d10e8e4909b","bdp_lott","Mon Apr 10 2023 06:50:55 GMT-0400 (Eastern Daylight Time)","590530","red","green","","","","","","","","","","140","","","","","","[{""stimulus"":""img/green_ll/1.jpg"",""time"":52},{""stimulus"":""img/green_ll/2.jpg"",""time"":101},{""stimulus"":""img/green_ll/3.jpg"",""time"":152},{""stimulus"":""img/green_ll/4.jpg"",""time"":201},{""stimulus"":""img/green_ll/5.jpg"",""time"":252},{""stimulus"":""img/green_ll/6.jpg"",""time"":302},{""stimulus"":""img/green_ll/7.jpg"",""time"":352},{""stimulus"":""img/green_ll/8.jpg"",""time"":401},{""stimulus"":""img/green_ll/9.jpg"",""time"":451},{""stimulus"":""img/green_ll/10.jpg"",""time"":502},{""stimulus"":""img/green_ll/11.jpg"",""time"":552}]","[]"
"image-keyboard-response","176","342536","0.0-5.0-1.86","63f0fb9941434d10e8e4909b","bdp_lott","Mon Apr 10 2023 06:50:55 GMT-0400 (Eastern Daylight Time)","590530","red","green","","1655","","","","choice","","img/green_ll/choose11.jpg","1","139","green","0.5","0.1","0.1","l","",""
"animation","177","343137","0.0-5.0-2.86","63f0fb9941434d10e8e4909b","bdp_lott","Mon Apr 10 2023 06:50:55 GMT-0400 (Eastern Daylight Time)","590530","red","green","","","","","","","","","","139","","","","","","[{""stimulus"":""img/green_ll/1.jpg"",""time"":51},{""stimulus"":""img/green_ll/2.jpg"",""time"":100},{""stimulus"":""img/green_ll/3.jpg"",""time"":151},{""stimulus"":""img/green_ll/4.jpg"",""time"":201},{""stimulus"":""img/green_ll/5.jpg"",""time"":252},{""stimulus"":""img/green_ll/6.jpg"",""time"":301},{""stimulus"":""img/green_ll/7.jpg"",""time"":352},{""stimulus"":""img/green_ll/8.jpg"",""time"":401},{""stimulus"":""img/green_ll/9.jpg"",""time"":452},{""stimulus"":""img/green_ll/10.jpg"",""time"":501},{""stimulus"":""img/green_ll/11.jpg"",""time"":552}]","[]"
"image-keyboard-response","178","344680","0.0-5.0-1.87","63f0fb9941434d10e8e4909b","bdp_lott","Mon Apr 10 2023 06:50:55 GMT-0400 (Eastern Daylight Time)","590530","red","green","","1543","","","","choice","","img/green_ll/choose11.jpg","2","138","red","0.5","0.1","0.5","l","",""
"animation","179","345281","0.0-5.0-2.87","63f0fb9941434d10e8e4909b","bdp_lott","Mon Apr 10 2023 06:50:55 GMT-0400 (Eastern Daylight Time)","590530","red","green","","","","","","","","","","138","","","","","","[{""stimulus"":""img/red_ll/1.jpg"",""time"":51},{""stimulus"":""img/red_ll/2.jpg"",""time"":100},{""stimulus"":""img/red_ll/3.jpg"",""time"":151},{""stimulus"":""img/red_ll/4.jpg"",""time"":201},{""stimulus"":""img/red_ll/5.jpg"",""time"":251},{""stimulus"":""img/red_ll/6.jpg"",""time"":301},{""stimulus"":""img/red_ll/7.jpg"",""time"":352},{""stimulus"":""img/red_ll/8.jpg"",""time"":401},{""stimulus"":""img/red_ll/9.jpg"",""time"":451},{""stimulus"":""img/red_ll/10.jpg"",""time"":501},{""stimulus"":""img/red_ll/11.jpg"",""time"":551}]","[]"
"image-keyboard-response","180","347000","0.0-5.0-1.88","63f0fb9941434d10e8e4909b","bdp_lott","Mon Apr 10 2023 06:50:55 GMT-0400 (Eastern Daylight Time)","590530","red","green","","1719","","","","choice","","img/red_ll/choose11.jpg","2","137","red","0.5","0.1","0.5","w","",""
"animation","181","347600","0.0-5.0-2.88","63f0fb9941434d10e8e4909b","bdp_lott","Mon Apr 10 2023 06:50:55 GMT-0400 (Eastern Daylight Time)","590530","red","green","","","","","","","","","","137","","","","","","[{""stimulus"":""img/red_lw/1.jpg"",""time"":51},{""stimulus"":""img/red_lw/2.jpg"",""time"":100},{""stimulus"":""img/red_lw/3.jpg"",""time"":151},{""stimulus"":""img/red_lw/4.jpg"",""time"":200},{""stimulus"":""img/red_lw/5.jpg"",""time"":251},{""stimulus"":""img/red_lw/6.jpg"",""time"":301},{""stimulus"":""img/red_lw/7.jpg"",""time"":351},{""stimulus"":""img/red_lw/8.jpg"",""time"":401},{""stimulus"":""img/red_lw/9.jpg"",""time"":451},{""stimulus"":""img/red_lw/10.jpg"",""time"":501},{""stimulus"":""img/red_lw/11.jpg"",""time"":551}]","[]"
"image-keyboard-response","182","349080","0.0-5.0-1.89","63f0fb9941434d10e8e4909b","bdp_lott","Mon Apr 10 2023 06:50:55 GMT-0400 (Eastern Daylight Time)","590530","red","green","","1479","","","","choice","","img/red_lw/choose11.jpg","2","136","red","0.5","0.1","0.5","w","",""
"animation","183","349680","0.0-5.0-2.89","63f0fb9941434d10e8e4909b","bdp_lott","Mon Apr 10 2023 06:50:55 GMT-0400 (Eastern Daylight Time)","590530","red","green","","","","","","","","","","136","","","","","","[{""stimulus"":""img/red_lw/1.jpg"",""time"":52},{""stimulus"":""img/red_lw/2.jpg"",""time"":101},{""stimulus"":""img/red_lw/3.jpg"",""time"":152},{""stimulus"":""img/red_lw/4.jpg"",""time"":201},{""stimulus"":""img/red_lw/5.jpg"",""time"":251},{""stimulus"":""img/red_lw/6.jpg"",""time"":301},{""stimulus"":""img/red_lw/7.jpg"",""time"":352},{""stimulus"":""img/red_lw/8.jpg"",""time"":401},{""stimulus"":""img/red_lw/9.jpg"",""time"":452},{""stimulus"":""img/red_lw/10.jpg"",""time"":502},{""stimulus"":""img/red_lw/11.jpg"",""time"":551}]","[]"
"image-keyboard-response","184","351440","0.0-5.0-1.90","63f0fb9941434d10e8e4909b","bdp_lott","Mon Apr 10 2023 06:50:55 GMT-0400 (Eastern Daylight Time)","590530","red","green","","1759","","","","choice","","img/red_lw/choose11.jpg","2","135","red","0.5","0.1","0.5","l","",""
"animation","185","352041","0.0-5.0-2.90","63f0fb9941434d10e8e4909b","bdp_lott","Mon Apr 10 2023 06:50:55 GMT-0400 (Eastern Daylight Time)","590530","red","green","","","","","","","","","","135","","","","","","[{""stimulus"":""img/red_ll/1.jpg"",""time"":51},{""stimulus"":""img/red_ll/2.jpg"",""time"":100},{""stimulus"":""img/red_ll/3.jpg"",""time"":151},{""stimulus"":""img/red_ll/4.jpg"",""time"":201},{""stimulus"":""img/red_ll/5.jpg"",""time"":251},{""stimulus"":""img/red_ll/6.jpg"",""time"":301},{""stimulus"":""img/red_ll/7.jpg"",""time"":351},{""stimulus"":""img/red_ll/8.jpg"",""time"":401},{""stimulus"":""img/red_ll/9.jpg"",""time"":451},{""stimulus"":""img/red_ll/10.jpg"",""time"":501},{""stimulus"":""img/red_ll/11.jpg"",""time"":551}]","[]"
"image-keyboard-response","186","353520","0.0-5.0-1.91","63f0fb9941434d10e8e4909b","bdp_lott","Mon Apr 10 2023 06:50:55 GMT-0400 (Eastern Daylight Time)","590530","red","green","","1479","","","","choice","","img/red_ll/choose11.jpg","1","134","green","0.5","0.1","0.1","l","",""
"animation","187","354121","0.0-5.0-2.91","63f0fb9941434d10e8e4909b","bdp_lott","Mon Apr 10 2023 06:50:55 GMT-0400 (Eastern Daylight Time)","590530","red","green","","","","","","","","","","134","","","","","","[{""stimulus"":""img/green_ll/1.jpg"",""time"":51},{""stimulus"":""img/green_ll/2.jpg"",""time"":103},{""stimulus"":""img/green_ll/3.jpg"",""time"":151},{""stimulus"":""img/green_ll/4.jpg"",""time"":201},{""stimulus"":""img/green_ll/5.jpg"",""time"":252},{""stimulus"":""img/green_ll/6.jpg"",""time"":303},{""stimulus"":""img/green_ll/7.jpg"",""time"":352},{""stimulus"":""img/green_ll/8.jpg"",""time"":402},{""stimulus"":""img/green_ll/9.jpg"",""time"":453},{""stimulus"":""img/green_ll/10.jpg"",""time"":501},{""stimulus"":""img/green_ll/11.jpg"",""time"":551}]","[]"
"image-keyboard-response","188","355048","0.0-5.0-1.92","63f0fb9941434d10e8e4909b","bdp_lott","Mon Apr 10 2023 06:50:55 GMT-0400 (Eastern Daylight Time)","590530","red","green","","927","","","","choice","","img/green_ll/choose11.jpg","1","133","green","0.5","0.1","0.1","w","",""
"animation","189","355649","0.0-5.0-2.92","63f0fb9941434d10e8e4909b","bdp_lott","Mon Apr 10 2023 06:50:55 GMT-0400 (Eastern Daylight Time)","590530","red","green","","","","","","","","","","133","","","","","","[{""stimulus"":""img/green_wl/1.jpg"",""time"":51},{""stimulus"":""img/green_wl/2.jpg"",""time"":102},{""stimulus"":""img/green_wl/3.jpg"",""time"":151},{""stimulus"":""img/green_wl/4.jpg"",""time"":202},{""stimulus"":""img/green_wl/5.jpg"",""time"":251},{""stimulus"":""img/green_wl/6.jpg"",""time"":300},{""stimulus"":""img/green_wl/7.jpg"",""time"":351},{""stimulus"":""img/green_wl/8.jpg"",""time"":401},{""stimulus"":""img/green_wl/9.jpg"",""time"":452},{""stimulus"":""img/green_wl/10.jpg"",""time"":501},{""stimulus"":""img/green_wl/11.jpg"",""time"":551}]","[]"
"image-keyboard-response","190","357296","0.0-5.0-1.93","63f0fb9941434d10e8e4909b","bdp_lott","Mon Apr 10 2023 06:50:55 GMT-0400 (Eastern Daylight Time)","590530","red","green","","1647","","","","choice","","img/green_wl/choose11.jpg","1","132","green","0.5","0.1","0.1","l","",""
