"event","trial","time","trialtype","numBlurs","subject_id","task","startTime","totalTime","fairMachine","unfairMachine","trial_type","trial_index","time_elapsed","internal_node_id","view_history","rt","success","stimulus","key_press","roundsLeft","chosen","pFairMachWin","pUnfairMachWin","pTrialWin","outcome","animation_sequence","responses"
"blur","0","0","blurevent","1","5ad2c8334d061300011b1985","bdp_lott","Tue Mar 28 2023 14:58:22 GMT-0500 (Central Daylight Time)","303644","red","green","","","","","","","","","","","","","","","","",""
"","","","","","5ad2c8334d061300011b1985","bdp_lott","Tue Mar 28 2023 14:58:22 GMT-0500 (Central Daylight Time)","303644","red","green","pavlovia","0","10","0.0-0.0","","","","","","","","","","","","",""
"focus","1","1389","focusevent","","5ad2c8334d061300011b1985","bdp_lott","Tue Mar 28 2023 14:58:22 GMT-0500 (Central Daylight Time)","303644","red","green","","","","","","","","","","","","","","","","",""
"blur","1","4285","blurevent","2","5ad2c8334d061300011b1985","bdp_lott","Tue Mar 28 2023 14:58:22 GMT-0500 (Central Daylight Time)","303644","red","green","","","","","","","","","","","","","","","","",""
"focus","1","6280","focusevent","","5ad2c8334d061300011b1985","bdp_lott","Tue Mar 28 2023 14:58:22 GMT-0500 (Central Daylight Time)","303644","red","green","","","","","","","","","","","","","","","","",""
"","","","","","5ad2c8334d061300011b1985","bdp_lott","Tue Mar 28 2023 14:58:22 GMT-0500 (Central Daylight Time)","303644","red","green","instructions","1","11568","0.0-1.0","[{""page_index"":0,""viewing_time"":11556}]","11557","","","","","","","","","","",""
"fullscreenenter","2","15370","fullscreenenter","","5ad2c8334d061300011b1985","bdp_lott","Tue Mar 28 2023 14:58:22 GMT-0500 (Central Daylight Time)","303644","red","green","","","","","","","","","","","","","","","","",""
"","","","","","5ad2c8334d061300011b1985","bdp_lott","Tue Mar 28 2023 14:58:22 GMT-0500 (Central Daylight Time)","303644","red","green","fullscreen","2","16363","0.0-2.0","","","true","","","","","","","","","",""
"","","","","","5ad2c8334d061300011b1985","bdp_lott","Tue Mar 28 2023 14:58:22 GMT-0500 (Central Daylight Time)","303644","red","green","instructions","3","44206","0.0-4.0","[{""page_index"":0,""viewing_time"":27839}]","27840","","","","","","","","","","",""
"","","","blurwarn","2","5ad2c8334d061300011b1985","bdp_lott","Tue Mar 28 2023 14:58:22 GMT-0500 (Central Daylight Time)","303644","red","green","image-keyboard-response","4","52777","0.0-5.0-0.0-0.0","","8566","","","49","","","","","","","",""
"","","","choice","","5ad2c8334d061300011b1985","bdp_lott","Tue Mar 28 2023 14:58:22 GMT-0500 (Central Daylight Time)","303644","red","green","image-keyboard-response","5","56004","0.0-5.0-1.0","","2965","","img/red_ll/initchoose11.jpg","1","225","green","0.5","0.5","0.5","l","",""
"","","","","","5ad2c8334d061300011b1985","bdp_lott","Tue Mar 28 2023 14:58:22 GMT-0500 (Central Daylight Time)","303644","red","green","animation","6","56611","0.0-5.0-2.0","","","","","","225","","","","","","[{""stimulus"":""img/green_ll/1.jpg"",""time"":55},{""stimulus"":""img/green_ll/2.jpg"",""time"":102},{""stimulus"":""img/green_ll/3.jpg"",""time"":158},{""stimulus"":""img/green_ll/4.jpg"",""time"":206},{""stimulus"":""img/green_ll/5.jpg"",""time"":254},{""stimulus"":""img/green_ll/6.jpg"",""time"":302},{""stimulus"":""img/green_ll/7.jpg"",""time"":358},{""stimulus"":""img/green_ll/8.jpg"",""time"":406},{""stimulus"":""img/green_ll/9.jpg"",""time"":453},{""stimulus"":""img/green_ll/10.jpg"",""time"":502},{""stimulus"":""img/green_ll/11.jpg"",""time"":558}]","[]"
"","","","choice","","5ad2c8334d061300011b1985","bdp_lott","Tue Mar 28 2023 14:58:22 GMT-0500 (Central Daylight Time)","303644","red","green","image-keyboard-response","7","58020","0.0-5.0-1.1","","1406","","img/green_ll/choose11.jpg","2","224","red","0.5","0.5","0.5","w","",""
"","","","","","5ad2c8334d061300011b1985","bdp_lott","Tue Mar 28 2023 14:58:22 GMT-0500 (Central Daylight Time)","303644","red","green","animation","8","58627","0.0-5.0-2.1","","","","","","224","","","","","","[{""stimulus"":""img/red_lw/1.jpg"",""time"":55},{""stimulus"":""img/red_lw/2.jpg"",""time"":103},{""stimulus"":""img/red_lw/3.jpg"",""time"":159},{""stimulus"":""img/red_lw/4.jpg"",""time"":207},{""stimulus"":""img/red_lw/5.jpg"",""time"":255},{""stimulus"":""img/red_lw/6.jpg"",""time"":303},{""stimulus"":""img/red_lw/7.jpg"",""time"":359},{""stimulus"":""img/red_lw/8.jpg"",""time"":407},{""stimulus"":""img/red_lw/9.jpg"",""time"":455},{""stimulus"":""img/red_lw/10.jpg"",""time"":503},{""stimulus"":""img/red_lw/11.jpg"",""time"":559}]","[]"
"","","","choice","","5ad2c8334d061300011b1985","bdp_lott","Tue Mar 28 2023 14:58:22 GMT-0500 (Central Daylight Time)","303644","red","green","image-keyboard-response","9","61740","0.0-5.0-1.2","","3111","","img/red_lw/choose11.jpg","2","223","red","0.5","0.5","0.5","l","",""
"","","","","","5ad2c8334d061300011b1985","bdp_lott","Tue Mar 28 2023 14:58:22 GMT-0500 (Central Daylight Time)","303644","red","green","animation","10","62347","0.0-5.0-2.2","","","","","","223","","","","","","[{""stimulus"":""img/red_ll/1.jpg"",""time"":55},{""stimulus"":""img/red_ll/2.jpg"",""time"":103},{""stimulus"":""img/red_ll/3.jpg"",""time"":159},{""stimulus"":""img/red_ll/4.jpg"",""time"":206},{""stimulus"":""img/red_ll/5.jpg"",""time"":255},{""stimulus"":""img/red_ll/6.jpg"",""time"":302},{""stimulus"":""img/red_ll/7.jpg"",""time"":359},{""stimulus"":""img/red_ll/8.jpg"",""time"":407},{""stimulus"":""img/red_ll/9.jpg"",""time"":455},{""stimulus"":""img/red_ll/10.jpg"",""time"":503},{""stimulus"":""img/red_ll/11.jpg"",""time"":559}]","[]"
"","","","choice","","5ad2c8334d061300011b1985","bdp_lott","Tue Mar 28 2023 14:58:22 GMT-0500 (Central Daylight Time)","303644","red","green","image-keyboard-response","11","62879","0.0-5.0-1.3","","530","","img/red_ll/choose11.jpg","1","222","green","0.5","0.5","0.5","l","",""
"","","","","","5ad2c8334d061300011b1985","bdp_lott","Tue Mar 28 2023 14:58:22 GMT-0500 (Central Daylight Time)","303644","red","green","animation","12","63483","0.0-5.0-2.3","","","","","","222","","","","","","[{""stimulus"":""img/green_ll/1.jpg"",""time"":52},{""stimulus"":""img/green_ll/2.jpg"",""time"":108},{""stimulus"":""img/green_ll/3.jpg"",""time"":156},{""stimulus"":""img/green_ll/4.jpg"",""time"":203},{""stimulus"":""img/green_ll/5.jpg"",""time"":251},{""stimulus"":""img/green_ll/6.jpg"",""time"":308},{""stimulus"":""img/green_ll/7.jpg"",""time"":356},{""stimulus"":""img/green_ll/8.jpg"",""time"":404},{""stimulus"":""img/green_ll/9.jpg"",""time"":452},{""stimulus"":""img/green_ll/10.jpg"",""time"":507},{""stimulus"":""img/green_ll/11.jpg"",""time"":556}]","[]"
"","","","choice","","5ad2c8334d061300011b1985","bdp_lott","Tue Mar 28 2023 14:58:22 GMT-0500 (Central Daylight Time)","303644","red","green","image-keyboard-response","13","64370","0.0-5.0-1.4","","885","","img/green_ll/choose11.jpg","2","221","red","0.5","0.5","0.5","l","",""
"","","","","","5ad2c8334d061300011b1985","bdp_lott","Tue Mar 28 2023 14:58:22 GMT-0500 (Central Daylight Time)","303644","red","green","animation","14","64979","0.0-5.0-2.4","","","","","","221","","","","","","[{""stimulus"":""img/red_ll/1.jpg"",""time"":57},{""stimulus"":""img/red_ll/2.jpg"",""time"":105},{""stimulus"":""img/red_ll/3.jpg"",""time"":153},{""stimulus"":""img/red_ll/4.jpg"",""time"":209},{""stimulus"":""img/red_ll/5.jpg"",""time"":257},{""stimulus"":""img/red_ll/6.jpg"",""time"":304},{""stimulus"":""img/red_ll/7.jpg"",""time"":353},{""stimulus"":""img/red_ll/8.jpg"",""time"":408},{""stimulus"":""img/red_ll/9.jpg"",""time"":457},{""stimulus"":""img/red_ll/10.jpg"",""time"":505},{""stimulus"":""img/red_ll/11.jpg"",""time"":553}]","[]"
"","","","choice","","5ad2c8334d061300011b1985","bdp_lott","Tue Mar 28 2023 14:58:22 GMT-0500 (Central Daylight Time)","303644","red","green","image-keyboard-response","15","65865","0.0-5.0-1.5","","884","","img/red_ll/choose11.jpg","2","220","red","0.5","0.5","0.5","l","",""
"","","","","","5ad2c8334d061300011b1985","bdp_lott","Tue Mar 28 2023 14:58:22 GMT-0500 (Central Daylight Time)","303644","red","green","animation","16","66467","0.0-5.0-2.5","","","","","","220","","","","","","[{""stimulus"":""img/red_ll/1.jpg"",""time"":58},{""stimulus"":""img/red_ll/2.jpg"",""time"":106},{""stimulus"":""img/red_ll/3.jpg"",""time"":154},{""stimulus"":""img/red_ll/4.jpg"",""time"":202},{""stimulus"":""img/red_ll/5.jpg"",""time"":258},{""stimulus"":""img/red_ll/6.jpg"",""time"":306},{""stimulus"":""img/red_ll/7.jpg"",""time"":354},{""stimulus"":""img/red_ll/8.jpg"",""time"":402},{""stimulus"":""img/red_ll/9.jpg"",""time"":458},{""stimulus"":""img/red_ll/10.jpg"",""time"":506},{""stimulus"":""img/red_ll/11.jpg"",""time"":554}]","[]"
"","","","choice","","5ad2c8334d061300011b1985","bdp_lott","Tue Mar 28 2023 14:58:22 GMT-0500 (Central Daylight Time)","303644","red","green","image-keyboard-response","17","67135","0.0-5.0-1.6","","666","","img/red_ll/choose11.jpg","1","219","green","0.5","0.5","0.5","l","",""
"","","","","","5ad2c8334d061300011b1985","bdp_lott","Tue Mar 28 2023 14:58:22 GMT-0500 (Central Daylight Time)","303644","red","green","animation","18","67739","0.0-5.0-2.6","","","","","","219","","","","","","[{""stimulus"":""img/green_ll/1.jpg"",""time"":52},{""stimulus"":""img/green_ll/2.jpg"",""time"":108},{""stimulus"":""img/green_ll/3.jpg"",""time"":155},{""stimulus"":""img/green_ll/4.jpg"",""time"":204},{""stimulus"":""img/green_ll/5.jpg"",""time"":251},{""stimulus"":""img/green_ll/6.jpg"",""time"":308},{""stimulus"":""img/green_ll/7.jpg"",""time"":355},{""stimulus"":""img/green_ll/8.jpg"",""time"":403},{""stimulus"":""img/green_ll/9.jpg"",""time"":452},{""stimulus"":""img/green_ll/10.jpg"",""time"":508},{""stimulus"":""img/green_ll/11.jpg"",""time"":556}]","[]"
"","","","choice","","5ad2c8334d061300011b1985","bdp_lott","Tue Mar 28 2023 14:58:22 GMT-0500 (Central Daylight Time)","303644","red","green","image-keyboard-response","19","69108","0.0-5.0-1.7","","1367","","img/green_ll/choose11.jpg","1","218","green","0.5","0.5","0.5","l","",""
"","","","","","5ad2c8334d061300011b1985","bdp_lott","Tue Mar 28 2023 14:58:22 GMT-0500 (Central Daylight Time)","303644","red","green","animation","20","69715","0.0-5.0-2.7","","","","","","218","","","","","","[{""stimulus"":""img/green_ll/1.jpg"",""time"":56},{""stimulus"":""img/green_ll/2.jpg"",""time"":104},{""stimulus"":""img/green_ll/3.jpg"",""time"":160},{""stimulus"":""img/green_ll/4.jpg"",""time"":208},{""stimulus"":""img/green_ll/5.jpg"",""time"":256},{""stimulus"":""img/green_ll/6.jpg"",""time"":304},{""stimulus"":""img/green_ll/7.jpg"",""time"":360},{""stimulus"":""img/green_ll/8.jpg"",""time"":408},{""stimulus"":""img/green_ll/9.jpg"",""time"":456},{""stimulus"":""img/green_ll/10.jpg"",""time"":504},{""stimulus"":""img/green_ll/11.jpg"",""time"":560}]","[]"
"","","","choice","","5ad2c8334d061300011b1985","bdp_lott","Tue Mar 28 2023 14:58:22 GMT-0500 (Central Daylight Time)","303644","red","green","image-keyboard-response","21","70691","0.0-5.0-1.8","","973","","img/green_ll/choose11.jpg","2","217","red","0.5","0.5","0.5","l","",""
"","","","","","5ad2c8334d061300011b1985","bdp_lott","Tue Mar 28 2023 14:58:22 GMT-0500 (Central Daylight Time)","303644","red","green","animation","22","71299","0.0-5.0-2.8","","","","","","217","","","","","","[{""stimulus"":""img/red_ll/1.jpg"",""time"":57},{""stimulus"":""img/red_ll/2.jpg"",""time"":105},{""stimulus"":""img/red_ll/3.jpg"",""time"":153},{""stimulus"":""img/red_ll/4.jpg"",""time"":209},{""stimulus"":""img/red_ll/5.jpg"",""time"":257},{""stimulus"":""img/red_ll/6.jpg"",""time"":304},{""stimulus"":""img/red_ll/7.jpg"",""time"":353},{""stimulus"":""img/red_ll/8.jpg"",""time"":409},{""stimulus"":""img/red_ll/9.jpg"",""time"":457},{""stimulus"":""img/red_ll/10.jpg"",""time"":505},{""stimulus"":""img/red_ll/11.jpg"",""time"":553}]","[]"
"","","","choice","","5ad2c8334d061300011b1985","bdp_lott","Tue Mar 28 2023 14:58:22 GMT-0500 (Central Daylight Time)","303644","red","green","image-keyboard-response","23","71968","0.0-5.0-1.9","","666","","img/red_ll/choose11.jpg","2","216","red","0.5","0.5","0.5","w","",""
"","","","","","5ad2c8334d061300011b1985","bdp_lott","Tue Mar 28 2023 14:58:22 GMT-0500 (Central Daylight Time)","303644","red","green","animation","24","72571","0.0-5.0-2.9","","","","","","216","","","","","","[{""stimulus"":""img/red_lw/1.jpg"",""time"":52},{""stimulus"":""img/red_lw/2.jpg"",""time"":108},{""stimulus"":""img/red_lw/3.jpg"",""time"":155},{""stimulus"":""img/red_lw/4.jpg"",""time"":203},{""stimulus"":""img/red_lw/5.jpg"",""time"":252},{""stimulus"":""img/red_lw/6.jpg"",""time"":308},{""stimulus"":""img/red_lw/7.jpg"",""time"":353},{""stimulus"":""img/red_lw/8.jpg"",""time"":403},{""stimulus"":""img/red_lw/9.jpg"",""time"":452},{""stimulus"":""img/red_lw/10.jpg"",""time"":508},{""stimulus"":""img/red_lw/11.jpg"",""time"":556}]","[]"
"","","","choice","","5ad2c8334d061300011b1985","bdp_lott","Tue Mar 28 2023 14:58:22 GMT-0500 (Central Daylight Time)","303644","red","green","image-keyboard-response","25","73955","0.0-5.0-1.10","","1382","","img/red_lw/choose11.jpg","1","215","green","0.5","0.5","0.5","w","",""
"","","","","","5ad2c8334d061300011b1985","bdp_lott","Tue Mar 28 2023 14:58:22 GMT-0500 (Central Daylight Time)","303644","red","green","animation","26","74563","0.0-5.0-2.10","","","","","","215","","","","","","[{""stimulus"":""img/green_ww/1.jpg"",""time"":56},{""stimulus"":""img/green_ww/2.jpg"",""time"":104},{""stimulus"":""img/green_ww/3.jpg"",""time"":152},{""stimulus"":""img/green_ww/4.jpg"",""time"":207},{""stimulus"":""img/green_ww/5.jpg"",""time"":255},{""stimulus"":""img/green_ww/6.jpg"",""time"":304},{""stimulus"":""img/green_ww/7.jpg"",""time"":352},{""stimulus"":""img/green_ww/8.jpg"",""time"":408},{""stimulus"":""img/green_ww/9.jpg"",""time"":456},{""stimulus"":""img/green_ww/10.jpg"",""time"":504},{""stimulus"":""img/green_ww/11.jpg"",""time"":552}]","[]"
"","","","choice","","5ad2c8334d061300011b1985","bdp_lott","Tue Mar 28 2023 14:58:22 GMT-0500 (Central Daylight Time)","303644","red","green","image-keyboard-response","27","76038","0.0-5.0-1.11","","1473","","img/green_ww/choose11.jpg","2","214","red","0.5","0.5","0.5","w","",""
"","","","","","5ad2c8334d061300011b1985","bdp_lott","Tue Mar 28 2023 14:58:22 GMT-0500 (Central Daylight Time)","303644","red","green","animation","28","76643","0.0-5.0-2.11","","","","","","214","","","","","","[{""stimulus"":""img/red_ww/1.jpg"",""time"":53},{""stimulus"":""img/red_ww/2.jpg"",""time"":109},{""stimulus"":""img/red_ww/3.jpg"",""time"":157},{""stimulus"":""img/red_ww/4.jpg"",""time"":205},{""stimulus"":""img/red_ww/5.jpg"",""time"":253},{""stimulus"":""img/red_ww/6.jpg"",""time"":309},{""stimulus"":""img/red_ww/7.jpg"",""time"":356},{""stimulus"":""img/red_ww/8.jpg"",""time"":405},{""stimulus"":""img/red_ww/9.jpg"",""time"":453},{""stimulus"":""img/red_ww/10.jpg"",""time"":509},{""stimulus"":""img/red_ww/11.jpg"",""time"":557}]","[]"
"","","","choice","","5ad2c8334d061300011b1985","bdp_lott","Tue Mar 28 2023 14:58:22 GMT-0500 (Central Daylight Time)","303644","red","green","image-keyboard-response","29","77293","0.0-5.0-1.12","","648","","img/red_ww/choose11.jpg","1","213","green","0.5","0.5","0.5","l","",""
"","","","","","5ad2c8334d061300011b1985","bdp_lott","Tue Mar 28 2023 14:58:22 GMT-0500 (Central Daylight Time)","303644","red","green","animation","30","77899","0.0-5.0-2.12","","","","","","213","","","","","","[{""stimulus"":""img/green_lw/1.jpg"",""time"":54},{""stimulus"":""img/green_lw/2.jpg"",""time"":102},{""stimulus"":""img/green_lw/3.jpg"",""time"":158},{""stimulus"":""img/green_lw/4.jpg"",""time"":206},{""stimulus"":""img/green_lw/5.jpg"",""time"":254},{""stimulus"":""img/green_lw/6.jpg"",""time"":302},{""stimulus"":""img/green_lw/7.jpg"",""time"":358},{""stimulus"":""img/green_lw/8.jpg"",""time"":406},{""stimulus"":""img/green_lw/9.jpg"",""time"":453},{""stimulus"":""img/green_lw/10.jpg"",""time"":502},{""stimulus"":""img/green_lw/11.jpg"",""time"":558}]","[]"
"","","","choice","","5ad2c8334d061300011b1985","bdp_lott","Tue Mar 28 2023 14:58:22 GMT-0500 (Central Daylight Time)","303644","red","green","image-keyboard-response","31","78346","0.0-5.0-1.13","","445","","img/green_lw/choose11.jpg","1","212","green","0.5","0.5","0.5","w","",""
"","","","","","5ad2c8334d061300011b1985","bdp_lott","Tue Mar 28 2023 14:58:22 GMT-0500 (Central Daylight Time)","303644","red","green","animation","32","78955","0.0-5.0-2.13","","","","","","212","","","","","","[{""stimulus"":""img/green_ww/1.jpg"",""time"":57},{""stimulus"":""img/green_ww/2.jpg"",""time"":105},{""stimulus"":""img/green_ww/3.jpg"",""time"":152},{""stimulus"":""img/green_ww/4.jpg"",""time"":209},{""stimulus"":""img/green_ww/5.jpg"",""time"":257},{""stimulus"":""img/green_ww/6.jpg"",""time"":305},{""stimulus"":""img/green_ww/7.jpg"",""time"":353},{""stimulus"":""img/green_ww/8.jpg"",""time"":409},{""stimulus"":""img/green_ww/9.jpg"",""time"":457},{""stimulus"":""img/green_ww/10.jpg"",""time"":505},{""stimulus"":""img/green_ww/11.jpg"",""time"":553}]","[]"
"","","","choice","","5ad2c8334d061300011b1985","bdp_lott","Tue Mar 28 2023 14:58:22 GMT-0500 (Central Daylight Time)","303644","red","green","image-keyboard-response","33","79838","0.0-5.0-1.14","","882","","img/green_ww/choose11.jpg","2","211","red","0.5","0.5","0.5","l","",""
"","","","","","5ad2c8334d061300011b1985","bdp_lott","Tue Mar 28 2023 14:58:22 GMT-0500 (Central Daylight Time)","303644","red","green","animation","34","80443","0.0-5.0-2.14","","","","","","211","","","","","","[{""stimulus"":""img/red_wl/1.jpg"",""time"":53},{""stimulus"":""img/red_wl/2.jpg"",""time"":101},{""stimulus"":""img/red_wl/3.jpg"",""time"":157},{""stimulus"":""img/red_wl/4.jpg"",""time"":205},{""stimulus"":""img/red_wl/5.jpg"",""time"":253},{""stimulus"":""img/red_wl/6.jpg"",""time"":308},{""stimulus"":""img/red_wl/7.jpg"",""time"":357},{""stimulus"":""img/red_wl/8.jpg"",""time"":405},{""stimulus"":""img/red_wl/9.jpg"",""time"":453},{""stimulus"":""img/red_wl/10.jpg"",""time"":501},{""stimulus"":""img/red_wl/11.jpg"",""time"":556}]","[]"
"","","","choice","","5ad2c8334d061300011b1985","bdp_lott","Tue Mar 28 2023 14:58:22 GMT-0500 (Central Daylight Time)","303644","red","green","image-keyboard-response","35","80776","0.0-5.0-1.15","","331","","img/red_wl/choose11.jpg","2","210","red","0.5","0.5","0.5","w","",""
"","","","","","5ad2c8334d061300011b1985","bdp_lott","Tue Mar 28 2023 14:58:22 GMT-0500 (Central Daylight Time)","303644","red","green","animation","36","81379","0.0-5.0-2.15","","","","","","210","","","","","","[{""stimulus"":""img/red_ww/1.jpg"",""time"":59},{""stimulus"":""img/red_ww/2.jpg"",""time"":107},{""stimulus"":""img/red_ww/3.jpg"",""time"":154},{""stimulus"":""img/red_ww/4.jpg"",""time"":202},{""stimulus"":""img/red_ww/5.jpg"",""time"":258},{""stimulus"":""img/red_ww/6.jpg"",""time"":303},{""stimulus"":""img/red_ww/7.jpg"",""time"":353},{""stimulus"":""img/red_ww/8.jpg"",""time"":402},{""stimulus"":""img/red_ww/9.jpg"",""time"":459},{""stimulus"":""img/red_ww/10.jpg"",""time"":507},{""stimulus"":""img/red_ww/11.jpg"",""time"":555}]","[]"
"","","","choice","","5ad2c8334d061300011b1985","bdp_lott","Tue Mar 28 2023 14:58:22 GMT-0500 (Central Daylight Time)","303644","red","green","image-keyboard-response","37","82213","0.0-5.0-1.16","","833","","img/red_ww/choose11.jpg","1","209","green","0.5","0.5","0.5","l","",""
"","","","","","5ad2c8334d061300011b1985","bdp_lott","Tue Mar 28 2023 14:58:22 GMT-0500 (Central Daylight Time)","303644","red","green","animation","38","82819","0.0-5.0-2.16","","","","","","209","","","","","","[{""stimulus"":""img/green_lw/1.jpg"",""time"":54},{""stimulus"":""img/green_lw/2.jpg"",""time"":102},{""stimulus"":""img/green_lw/3.jpg"",""time"":158},{""stimulus"":""img/green_lw/4.jpg"",""time"":206},{""stimulus"":""img/green_lw/5.jpg"",""time"":254},{""stimulus"":""img/green_lw/6.jpg"",""time"":302},{""stimulus"":""img/green_lw/7.jpg"",""time"":358},{""stimulus"":""img/green_lw/8.jpg"",""time"":406},{""stimulus"":""img/green_lw/9.jpg"",""time"":454},{""stimulus"":""img/green_lw/10.jpg"",""time"":502},{""stimulus"":""img/green_lw/11.jpg"",""time"":558}]","[]"
"","","","choice","","5ad2c8334d061300011b1985","bdp_lott","Tue Mar 28 2023 14:58:22 GMT-0500 (Central Daylight Time)","303644","red","green","image-keyboard-response","39","83213","0.0-5.0-1.17","","392","","img/green_lw/choose11.jpg","1","208","green","0.5","0.5","0.5","w","",""
"","","","","","5ad2c8334d061300011b1985","bdp_lott","Tue Mar 28 2023 14:58:22 GMT-0500 (Central Daylight Time)","303644","red","green","animation","40","83819","0.0-5.0-2.17","","","","","","208","","","","","","[{""stimulus"":""img/green_ww/1.jpg"",""time"":55},{""stimulus"":""img/green_ww/2.jpg"",""time"":103},{""stimulus"":""img/green_ww/3.jpg"",""time"":159},{""stimulus"":""img/green_ww/4.jpg"",""time"":207},{""stimulus"":""img/green_ww/5.jpg"",""time"":255},{""stimulus"":""img/green_ww/6.jpg"",""time"":303},{""stimulus"":""img/green_ww/7.jpg"",""time"":359},{""stimulus"":""img/green_ww/8.jpg"",""time"":407},{""stimulus"":""img/green_ww/9.jpg"",""time"":455},{""stimulus"":""img/green_ww/10.jpg"",""time"":502},{""stimulus"":""img/green_ww/11.jpg"",""time"":559}]","[]"
"","","","choice","","5ad2c8334d061300011b1985","bdp_lott","Tue Mar 28 2023 14:58:22 GMT-0500 (Central Daylight Time)","303644","red","green","image-keyboard-response","41","84106","0.0-5.0-1.18","","285","","img/green_ww/choose11.jpg","1","207","green","0.5","0.5","0.5","w","",""
"","","","","","5ad2c8334d061300011b1985","bdp_lott","Tue Mar 28 2023 14:58:22 GMT-0500 (Central Daylight Time)","303644","red","green","animation","42","84715","0.0-5.0-2.18","","","","","","207","","","","","","[{""stimulus"":""img/green_ww/1.jpg"",""time"":57},{""stimulus"":""img/green_ww/2.jpg"",""time"":105},{""stimulus"":""img/green_ww/3.jpg"",""time"":153},{""stimulus"":""img/green_ww/4.jpg"",""time"":209},{""stimulus"":""img/green_ww/5.jpg"",""time"":257},{""stimulus"":""img/green_ww/6.jpg"",""time"":305},{""stimulus"":""img/green_ww/7.jpg"",""time"":352},{""stimulus"":""img/green_ww/8.jpg"",""time"":408},{""stimulus"":""img/green_ww/9.jpg"",""time"":457},{""stimulus"":""img/green_ww/10.jpg"",""time"":505},{""stimulus"":""img/green_ww/11.jpg"",""time"":552}]","[]"
"","","","choice","","5ad2c8334d061300011b1985","bdp_lott","Tue Mar 28 2023 14:58:22 GMT-0500 (Central Daylight Time)","303644","red","green","image-keyboard-response","43","85299","0.0-5.0-1.19","","583","","img/green_ww/choose11.jpg","2","206","red","0.5","0.5","0.5","w","",""
"","","","","","5ad2c8334d061300011b1985","bdp_lott","Tue Mar 28 2023 14:58:22 GMT-0500 (Central Daylight Time)","303644","red","green","animation","44","85907","0.0-5.0-2.19","","","","","","206","","","","","","[{""stimulus"":""img/red_ww/1.jpg"",""time"":57},{""stimulus"":""img/red_ww/2.jpg"",""time"":105},{""stimulus"":""img/red_ww/3.jpg"",""time"":153},{""stimulus"":""img/red_ww/4.jpg"",""time"":209},{""stimulus"":""img/red_ww/5.jpg"",""time"":257},{""stimulus"":""img/red_ww/6.jpg"",""time"":305},{""stimulus"":""img/red_ww/7.jpg"",""time"":353},{""stimulus"":""img/red_ww/8.jpg"",""time"":409},{""stimulus"":""img/red_ww/9.jpg"",""time"":457},{""stimulus"":""img/red_ww/10.jpg"",""time"":505},{""stimulus"":""img/red_ww/11.jpg"",""time"":553}]","[]"
"","","","choice","","5ad2c8334d061300011b1985","bdp_lott","Tue Mar 28 2023 14:58:22 GMT-0500 (Central Daylight Time)","303644","red","green","image-keyboard-response","45","87587","0.0-5.0-1.20","","1678","","img/red_ww/choose11.jpg","2","205","red","0.5","0.5","0.5","l","",""
"","","","","","5ad2c8334d061300011b1985","bdp_lott","Tue Mar 28 2023 14:58:22 GMT-0500 (Central Daylight Time)","303644","red","green","animation","46","88195","0.0-5.0-2.20","","","","","","205","","","","","","[{""stimulus"":""img/red_wl/1.jpg"",""time"":56},{""stimulus"":""img/red_wl/2.jpg"",""time"":104},{""stimulus"":""img/red_wl/3.jpg"",""time"":160},{""stimulus"":""img/red_wl/4.jpg"",""time"":208},{""stimulus"":""img/red_wl/5.jpg"",""time"":255},{""stimulus"":""img/red_wl/6.jpg"",""time"":303},{""stimulus"":""img/red_wl/7.jpg"",""time"":359},{""stimulus"":""img/red_wl/8.jpg"",""time"":408},{""stimulus"":""img/red_wl/9.jpg"",""time"":456},{""stimulus"":""img/red_wl/10.jpg"",""time"":503},{""stimulus"":""img/red_wl/11.jpg"",""time"":560}]","[]"
"","","","choice","","5ad2c8334d061300011b1985","bdp_lott","Tue Mar 28 2023 14:58:22 GMT-0500 (Central Daylight Time)","303644","red","green","image-keyboard-response","47","88703","0.0-5.0-1.21","","506","","img/red_wl/choose11.jpg","2","204","red","0.5","0.5","0.5","l","",""
"","","","","","5ad2c8334d061300011b1985","bdp_lott","Tue Mar 28 2023 14:58:22 GMT-0500 (Central Daylight Time)","303644","red","green","animation","48","89307","0.0-5.0-2.21","","","","","","204","","","","","","[{""stimulus"":""img/red_wl/1.jpg"",""time"":53},{""stimulus"":""img/red_wl/2.jpg"",""time"":109},{""stimulus"":""img/red_wl/3.jpg"",""time"":157},{""stimulus"":""img/red_wl/4.jpg"",""time"":205},{""stimulus"":""img/red_wl/5.jpg"",""time"":253},{""stimulus"":""img/red_wl/6.jpg"",""time"":309},{""stimulus"":""img/red_wl/7.jpg"",""time"":356},{""stimulus"":""img/red_wl/8.jpg"",""time"":404},{""stimulus"":""img/red_wl/9.jpg"",""time"":452},{""stimulus"":""img/red_wl/10.jpg"",""time"":508},{""stimulus"":""img/red_wl/11.jpg"",""time"":557}]","[]"
"","","","choice","","5ad2c8334d061300011b1985","bdp_lott","Tue Mar 28 2023 14:58:22 GMT-0500 (Central Daylight Time)","303644","red","green","image-keyboard-response","49","89726","0.0-5.0-1.22","","417","","img/red_wl/choose11.jpg","2","203","red","0.5","0.5","0.5","w","",""
"","","","","","5ad2c8334d061300011b1985","bdp_lott","Tue Mar 28 2023 14:58:22 GMT-0500 (Central Daylight Time)","303644","red","green","animation","50","90332","0.0-5.0-2.22","","","","","","203","","","","","","[{""stimulus"":""img/red_ww/1.jpg"",""time"":53},{""stimulus"":""img/red_ww/2.jpg"",""time"":109},{""stimulus"":""img/red_ww/3.jpg"",""time"":157},{""stimulus"":""img/red_ww/4.jpg"",""time"":205},{""stimulus"":""img/red_ww/5.jpg"",""time"":252},{""stimulus"":""img/red_ww/6.jpg"",""time"":309},{""stimulus"":""img/red_ww/7.jpg"",""time"":357},{""stimulus"":""img/red_ww/8.jpg"",""time"":405},{""stimulus"":""img/red_ww/9.jpg"",""time"":453},{""stimulus"":""img/red_ww/10.jpg"",""time"":509},{""stimulus"":""img/red_ww/11.jpg"",""time"":557}]","[]"
"","","","choice","","5ad2c8334d061300011b1985","bdp_lott","Tue Mar 28 2023 14:58:22 GMT-0500 (Central Daylight Time)","303644","red","green","image-keyboard-response","51","91044","0.0-5.0-1.23","","709","","img/red_ww/choose11.jpg","1","202","green","0.5","0.5","0.5","w","",""
"","","","","","5ad2c8334d061300011b1985","bdp_lott","Tue Mar 28 2023 14:58:22 GMT-0500 (Central Daylight Time)","303644","red","green","animation","52","91651","0.0-5.0-2.23","","","","","","202","","","","","","[{""stimulus"":""img/green_ww/1.jpg"",""time"":56},{""stimulus"":""img/green_ww/2.jpg"",""time"":104},{""stimulus"":""img/green_ww/3.jpg"",""time"":152},{""stimulus"":""img/green_ww/4.jpg"",""time"":203},{""stimulus"":""img/green_ww/5.jpg"",""time"":256},{""stimulus"":""img/green_ww/6.jpg"",""time"":304},{""stimulus"":""img/green_ww/7.jpg"",""time"":351},{""stimulus"":""img/green_ww/8.jpg"",""time"":408},{""stimulus"":""img/green_ww/9.jpg"",""time"":456},{""stimulus"":""img/green_ww/10.jpg"",""time"":503},{""stimulus"":""img/green_ww/11.jpg"",""time"":552}]","[]"
"","","","choice","","5ad2c8334d061300011b1985","bdp_lott","Tue Mar 28 2023 14:58:22 GMT-0500 (Central Daylight Time)","303644","red","green","image-keyboard-response","53","93546","0.0-5.0-1.24","","1893","","img/green_ww/choose11.jpg","2","201","red","0.5","0.5","0.5","l","",""
"","","","","","5ad2c8334d061300011b1985","bdp_lott","Tue Mar 28 2023 14:58:22 GMT-0500 (Central Daylight Time)","303644","red","green","animation","54","94155","0.0-5.0-2.24","","","","","","201","","","","","","[{""stimulus"":""img/red_wl/1.jpg"",""time"":57},{""stimulus"":""img/red_wl/2.jpg"",""time"":105},{""stimulus"":""img/red_wl/3.jpg"",""time"":153},{""stimulus"":""img/red_wl/4.jpg"",""time"":209},{""stimulus"":""img/red_wl/5.jpg"",""time"":257},{""stimulus"":""img/red_wl/6.jpg"",""time"":304},{""stimulus"":""img/red_wl/7.jpg"",""time"":353},{""stimulus"":""img/red_wl/8.jpg"",""time"":409},{""stimulus"":""img/red_wl/9.jpg"",""time"":456},{""stimulus"":""img/red_wl/10.jpg"",""time"":504},{""stimulus"":""img/red_wl/11.jpg"",""time"":553}]","[]"
"","","","choice","","5ad2c8334d061300011b1985","bdp_lott","Tue Mar 28 2023 14:58:22 GMT-0500 (Central Daylight Time)","303644","red","green","image-keyboard-response","55","94763","0.0-5.0-1.25","","606","","img/red_wl/choose11.jpg","1","200","green","0.5","0.5","0.5","l","",""
"","","","","","5ad2c8334d061300011b1985","bdp_lott","Tue Mar 28 2023 14:58:22 GMT-0500 (Central Daylight Time)","303644","red","green","animation","56","95371","0.0-5.0-2.25","","","","","","200","","","","","","[{""stimulus"":""img/green_ll/1.jpg"",""time"":56},{""stimulus"":""img/green_ll/2.jpg"",""time"":104},{""stimulus"":""img/green_ll/3.jpg"",""time"":152},{""stimulus"":""img/green_ll/4.jpg"",""time"":206},{""stimulus"":""img/green_ll/5.jpg"",""time"":256},{""stimulus"":""img/green_ll/6.jpg"",""time"":304},{""stimulus"":""img/green_ll/7.jpg"",""time"":352},{""stimulus"":""img/green_ll/8.jpg"",""time"":408},{""stimulus"":""img/green_ll/9.jpg"",""time"":456},{""stimulus"":""img/green_ll/10.jpg"",""time"":503},{""stimulus"":""img/green_ll/11.jpg"",""time"":552}]","[]"
"","","","choice","","5ad2c8334d061300011b1985","bdp_lott","Tue Mar 28 2023 14:58:22 GMT-0500 (Central Daylight Time)","303644","red","green","image-keyboard-response","57","96450","0.0-5.0-1.26","","1076","","img/green_ll/choose11.jpg","2","199","red","0.5","0.5","0.5","l","",""
"","","","","","5ad2c8334d061300011b1985","bdp_lott","Tue Mar 28 2023 14:58:22 GMT-0500 (Central Daylight Time)","303644","red","green","animation","58","97051","0.0-5.0-2.26","","","","","","199","","","","","","[{""stimulus"":""img/red_ll/1.jpg"",""time"":58},{""stimulus"":""img/red_ll/2.jpg"",""time"":106},{""stimulus"":""img/red_ll/3.jpg"",""time"":154},{""stimulus"":""img/red_ll/4.jpg"",""time"":202},{""stimulus"":""img/red_ll/5.jpg"",""time"":258},{""stimulus"":""img/red_ll/6.jpg"",""time"":306},{""stimulus"":""img/red_ll/7.jpg"",""time"":354},{""stimulus"":""img/red_ll/8.jpg"",""time"":402},{""stimulus"":""img/red_ll/9.jpg"",""time"":458},{""stimulus"":""img/red_ll/10.jpg"",""time"":506},{""stimulus"":""img/red_ll/11.jpg"",""time"":554}]","[]"
"","","","choice","","5ad2c8334d061300011b1985","bdp_lott","Tue Mar 28 2023 14:58:22 GMT-0500 (Central Daylight Time)","303644","red","green","image-keyboard-response","59","97378","0.0-5.0-1.27","","325","","img/red_ll/choose11.jpg","2","198","red","0.5","0.5","0.5","w","",""
"","","","","","5ad2c8334d061300011b1985","bdp_lott","Tue Mar 28 2023 14:58:22 GMT-0500 (Central Daylight Time)","303644","red","green","animation","60","97979","0.0-5.0-2.27","","","","","","198","","","","","","[{""stimulus"":""img/red_lw/1.jpg"",""time"":58},{""stimulus"":""img/red_lw/2.jpg"",""time"":106},{""stimulus"":""img/red_lw/3.jpg"",""time"":154},{""stimulus"":""img/red_lw/4.jpg"",""time"":202},{""stimulus"":""img/red_lw/5.jpg"",""time"":258},{""stimulus"":""img/red_lw/6.jpg"",""time"":306},{""stimulus"":""img/red_lw/7.jpg"",""time"":354},{""stimulus"":""img/red_lw/8.jpg"",""time"":402},{""stimulus"":""img/red_lw/9.jpg"",""time"":457},{""stimulus"":""img/red_lw/10.jpg"",""time"":506},{""stimulus"":""img/red_lw/11.jpg"",""time"":554}]","[]"
"","","","choice","","5ad2c8334d061300011b1985","bdp_lott","Tue Mar 28 2023 14:58:22 GMT-0500 (Central Daylight Time)","303644","red","green","image-keyboard-response","61","98416","0.0-5.0-1.28","","435","","img/red_lw/choose11.jpg","1","197","green","0.5","0.5","0.5","l","",""
"","","","","","5ad2c8334d061300011b1985","bdp_lott","Tue Mar 28 2023 14:58:22 GMT-0500 (Central Daylight Time)","303644","red","green","animation","62","99019","0.0-5.0-2.28","","","","","","197","","","","","","[{""stimulus"":""img/green_lw/1.jpg"",""time"":60},{""stimulus"":""img/green_lw/2.jpg"",""time"":108},{""stimulus"":""img/green_lw/3.jpg"",""time"":156},{""stimulus"":""img/green_lw/4.jpg"",""time"":204},{""stimulus"":""img/green_lw/5.jpg"",""time"":259},{""stimulus"":""img/green_lw/6.jpg"",""time"":308},{""stimulus"":""img/green_lw/7.jpg"",""time"":356},{""stimulus"":""img/green_lw/8.jpg"",""time"":404},{""stimulus"":""img/green_lw/9.jpg"",""time"":460},{""stimulus"":""img/green_lw/10.jpg"",""time"":508},{""stimulus"":""img/green_lw/11.jpg"",""time"":556}]","[]"
"","","","choice","","5ad2c8334d061300011b1985","bdp_lott","Tue Mar 28 2023 14:58:22 GMT-0500 (Central Daylight Time)","303644","red","green","image-keyboard-response","63","99376","0.0-5.0-1.29","","355","","img/green_lw/choose11.jpg","1","196","green","0.5","0.5","0.5","w","",""
"","","","","","5ad2c8334d061300011b1985","bdp_lott","Tue Mar 28 2023 14:58:22 GMT-0500 (Central Daylight Time)","303644","red","green","animation","64","99979","0.0-5.0-2.29","","","","","","196","","","","","","[{""stimulus"":""img/green_ww/1.jpg"",""time"":59},{""stimulus"":""img/green_ww/2.jpg"",""time"":107},{""stimulus"":""img/green_ww/3.jpg"",""time"":154},{""stimulus"":""img/green_ww/4.jpg"",""time"":203},{""stimulus"":""img/green_ww/5.jpg"",""time"":259},{""stimulus"":""img/green_ww/6.jpg"",""time"":306},{""stimulus"":""img/green_ww/7.jpg"",""time"":355},{""stimulus"":""img/green_ww/8.jpg"",""time"":403},{""stimulus"":""img/green_ww/9.jpg"",""time"":459},{""stimulus"":""img/green_ww/10.jpg"",""time"":507},{""stimulus"":""img/green_ww/11.jpg"",""time"":554}]","[]"
"","","","choice","","5ad2c8334d061300011b1985","bdp_lott","Tue Mar 28 2023 14:58:22 GMT-0500 (Central Daylight Time)","303644","red","green","image-keyboard-response","65","100602","0.0-5.0-1.30","","621","","img/green_ww/choose11.jpg","2","195","red","0.5","0.5","0.5","l","",""
"","","","","","5ad2c8334d061300011b1985","bdp_lott","Tue Mar 28 2023 14:58:22 GMT-0500 (Central Daylight Time)","303644","red","green","animation","66","101203","0.0-5.0-2.30","","","","","","195","","","","","","[{""stimulus"":""img/red_wl/1.jpg"",""time"":58},{""stimulus"":""img/red_wl/2.jpg"",""time"":106},{""stimulus"":""img/red_wl/3.jpg"",""time"":153},{""stimulus"":""img/red_wl/4.jpg"",""time"":202},{""stimulus"":""img/red_wl/5.jpg"",""time"":257},{""stimulus"":""img/red_wl/6.jpg"",""time"":306},{""stimulus"":""img/red_wl/7.jpg"",""time"":354},{""stimulus"":""img/red_wl/8.jpg"",""time"":402},{""stimulus"":""img/red_wl/9.jpg"",""time"":458},{""stimulus"":""img/red_wl/10.jpg"",""time"":506},{""stimulus"":""img/red_wl/11.jpg"",""time"":554}]","[]"
"","","","choice","","5ad2c8334d061300011b1985","bdp_lott","Tue Mar 28 2023 14:58:22 GMT-0500 (Central Daylight Time)","303644","red","green","image-keyboard-response","67","101467","0.0-5.0-1.31","","262","","img/red_wl/choose11.jpg","2","194","red","0.5","0.5","0.5","w","",""
"","","","","","5ad2c8334d061300011b1985","bdp_lott","Tue Mar 28 2023 14:58:22 GMT-0500 (Central Daylight Time)","303644","red","green","animation","68","102075","0.0-5.0-2.31","","","","","","194","","","","","","[{""stimulus"":""img/red_ww/1.jpg"",""time"":56},{""stimulus"":""img/red_ww/2.jpg"",""time"":104},{""stimulus"":""img/red_ww/3.jpg"",""time"":152},{""stimulus"":""img/red_ww/4.jpg"",""time"":208},{""stimulus"":""img/red_ww/5.jpg"",""time"":256},{""stimulus"":""img/red_ww/6.jpg"",""time"":303},{""stimulus"":""img/red_ww/7.jpg"",""time"":352},{""stimulus"":""img/red_ww/8.jpg"",""time"":408},{""stimulus"":""img/red_ww/9.jpg"",""time"":456},{""stimulus"":""img/red_ww/10.jpg"",""time"":504},{""stimulus"":""img/red_ww/11.jpg"",""time"":552}]","[]"
"","","","choice","","5ad2c8334d061300011b1985","bdp_lott","Tue Mar 28 2023 14:58:22 GMT-0500 (Central Daylight Time)","303644","red","green","image-keyboard-response","69","102579","0.0-5.0-1.32","","502","","img/red_ww/choose11.jpg","1","193","green","0.5","0.5","0.5","l","",""
"","","","","","5ad2c8334d061300011b1985","bdp_lott","Tue Mar 28 2023 14:58:22 GMT-0500 (Central Daylight Time)","303644","red","green","animation","70","103187","0.0-5.0-2.32","","","","","","193","","","","","","[{""stimulus"":""img/green_lw/1.jpg"",""time"":56},{""stimulus"":""img/green_lw/2.jpg"",""time"":104},{""stimulus"":""img/green_lw/3.jpg"",""time"":152},{""stimulus"":""img/green_lw/4.jpg"",""time"":208},{""stimulus"":""img/green_lw/5.jpg"",""time"":256},{""stimulus"":""img/green_lw/6.jpg"",""time"":304},{""stimulus"":""img/green_lw/7.jpg"",""time"":352},{""stimulus"":""img/green_lw/8.jpg"",""time"":408},{""stimulus"":""img/green_lw/9.jpg"",""time"":456},{""stimulus"":""img/green_lw/10.jpg"",""time"":504},{""stimulus"":""img/green_lw/11.jpg"",""time"":551}]","[]"
"","","","choice","","5ad2c8334d061300011b1985","bdp_lott","Tue Mar 28 2023 14:58:22 GMT-0500 (Central Daylight Time)","303644","red","green","image-keyboard-response","71","103539","0.0-5.0-1.33","","350","","img/green_lw/choose11.jpg","1","192","green","0.5","0.5","0.5","w","",""
"","","","","","5ad2c8334d061300011b1985","bdp_lott","Tue Mar 28 2023 14:58:22 GMT-0500 (Central Daylight Time)","303644","red","green","animation","72","104147","0.0-5.0-2.33","","","","","","192","","","","","","[{""stimulus"":""img/green_ww/1.jpg"",""time"":57},{""stimulus"":""img/green_ww/2.jpg"",""time"":105},{""stimulus"":""img/green_ww/3.jpg"",""time"":153},{""stimulus"":""img/green_ww/4.jpg"",""time"":209},{""stimulus"":""img/green_ww/5.jpg"",""time"":257},{""stimulus"":""img/green_ww/6.jpg"",""time"":305},{""stimulus"":""img/green_ww/7.jpg"",""time"":353},{""stimulus"":""img/green_ww/8.jpg"",""time"":409},{""stimulus"":""img/green_ww/9.jpg"",""time"":457},{""stimulus"":""img/green_ww/10.jpg"",""time"":504},{""stimulus"":""img/green_ww/11.jpg"",""time"":553}]","[]"
"","","","choice","","5ad2c8334d061300011b1985","bdp_lott","Tue Mar 28 2023 14:58:22 GMT-0500 (Central Daylight Time)","303644","red","green","image-keyboard-response","73","104726","0.0-5.0-1.34","","577","","img/green_ww/choose11.jpg","2","191","red","0.5","0.5","0.5","l","",""
"","","","","","5ad2c8334d061300011b1985","bdp_lott","Tue Mar 28 2023 14:58:22 GMT-0500 (Central Daylight Time)","303644","red","green","animation","74","105331","0.0-5.0-2.34","","","","","","191","","","","","","[{""stimulus"":""img/red_wl/1.jpg"",""time"":53},{""stimulus"":""img/red_wl/2.jpg"",""time"":109},{""stimulus"":""img/red_wl/3.jpg"",""time"":157},{""stimulus"":""img/red_wl/4.jpg"",""time"":205},{""stimulus"":""img/red_wl/5.jpg"",""time"":253},{""stimulus"":""img/red_wl/6.jpg"",""time"":309},{""stimulus"":""img/red_wl/7.jpg"",""time"":357},{""stimulus"":""img/red_wl/8.jpg"",""time"":405},{""stimulus"":""img/red_wl/9.jpg"",""time"":453},{""stimulus"":""img/red_wl/10.jpg"",""time"":509},{""stimulus"":""img/red_wl/11.jpg"",""time"":557}]","[]"
"","","","choice","","5ad2c8334d061300011b1985","bdp_lott","Tue Mar 28 2023 14:58:22 GMT-0500 (Central Daylight Time)","303644","red","green","image-keyboard-response","75","105501","0.0-5.0-1.35","","169","","img/red_wl/choose11.jpg","2","190","red","0.5","0.5","0.5","w","",""
"","","","","","5ad2c8334d061300011b1985","bdp_lott","Tue Mar 28 2023 14:58:22 GMT-0500 (Central Daylight Time)","303644","red","green","animation","76","106107","0.0-5.0-2.35","","","","","","190","","","","","","[{""stimulus"":""img/red_ww/1.jpg"",""time"":53},{""stimulus"":""img/red_ww/2.jpg"",""time"":102},{""stimulus"":""img/red_ww/3.jpg"",""time"":158},{""stimulus"":""img/red_ww/4.jpg"",""time"":206},{""stimulus"":""img/red_ww/5.jpg"",""time"":254},{""stimulus"":""img/red_ww/6.jpg"",""time"":302},{""stimulus"":""img/red_ww/7.jpg"",""time"":358},{""stimulus"":""img/red_ww/8.jpg"",""time"":406},{""stimulus"":""img/red_ww/9.jpg"",""time"":454},{""stimulus"":""img/red_ww/10.jpg"",""time"":502},{""stimulus"":""img/red_ww/11.jpg"",""time"":558}]","[]"
"","","","choice","","5ad2c8334d061300011b1985","bdp_lott","Tue Mar 28 2023 14:58:22 GMT-0500 (Central Daylight Time)","303644","red","green","image-keyboard-response","77","106511","0.0-5.0-1.36","","402","","img/red_ww/choose11.jpg","1","189","green","0.5","0.5","0.5","w","",""
"","","","","","5ad2c8334d061300011b1985","bdp_lott","Tue Mar 28 2023 14:58:22 GMT-0500 (Central Daylight Time)","303644","red","green","animation","78","107115","0.0-5.0-2.36","","","","","","189","","","","","","[{""stimulus"":""img/green_ww/1.jpg"",""time"":53},{""stimulus"":""img/green_ww/2.jpg"",""time"":109},{""stimulus"":""img/green_ww/3.jpg"",""time"":156},{""stimulus"":""img/green_ww/4.jpg"",""time"":202},{""stimulus"":""img/green_ww/5.jpg"",""time"":252},{""stimulus"":""img/green_ww/6.jpg"",""time"":309},{""stimulus"":""img/green_ww/7.jpg"",""time"":357},{""stimulus"":""img/green_ww/8.jpg"",""time"":405},{""stimulus"":""img/green_ww/9.jpg"",""time"":453},{""stimulus"":""img/green_ww/10.jpg"",""time"":509},{""stimulus"":""img/green_ww/11.jpg"",""time"":557}]","[]"
"","","","choice","","5ad2c8334d061300011b1985","bdp_lott","Tue Mar 28 2023 14:58:22 GMT-0500 (Central Daylight Time)","303644","red","green","image-keyboard-response","79","107185","0.0-5.0-1.37","","68","","img/green_ww/choose11.jpg","1","188","green","0.5","0.5","0.5","l","",""
"","","","","","5ad2c8334d061300011b1985","bdp_lott","Tue Mar 28 2023 14:58:22 GMT-0500 (Central Daylight Time)","303644","red","green","animation","80","107787","0.0-5.0-2.37","","","","","","188","","","","","","[{""stimulus"":""img/green_lw/1.jpg"",""time"":59},{""stimulus"":""img/green_lw/2.jpg"",""time"":107},{""stimulus"":""img/green_lw/3.jpg"",""time"":155},{""stimulus"":""img/green_lw/4.jpg"",""time"":202},{""stimulus"":""img/green_lw/5.jpg"",""time"":258},{""stimulus"":""img/green_lw/6.jpg"",""time"":307},{""stimulus"":""img/green_lw/7.jpg"",""time"":355},{""stimulus"":""img/green_lw/8.jpg"",""time"":403},{""stimulus"":""img/green_lw/9.jpg"",""time"":459},{""stimulus"":""img/green_lw/10.jpg"",""time"":507},{""stimulus"":""img/green_lw/11.jpg"",""time"":555}]","[]"
"","","","choice","","5ad2c8334d061300011b1985","bdp_lott","Tue Mar 28 2023 14:58:22 GMT-0500 (Central Daylight Time)","303644","red","green","image-keyboard-response","81","109043","0.0-5.0-1.38","","1254","","img/green_lw/choose11.jpg","2","187","red","0.5","0.5","0.5","l","",""
"","","","","","5ad2c8334d061300011b1985","bdp_lott","Tue Mar 28 2023 14:58:22 GMT-0500 (Central Daylight Time)","303644","red","green","animation","82","109651","0.0-5.0-2.38","","","","","","187","","","","","","[{""stimulus"":""img/red_ll/1.jpg"",""time"":56},{""stimulus"":""img/red_ll/2.jpg"",""time"":104},{""stimulus"":""img/red_ll/3.jpg"",""time"":152},{""stimulus"":""img/red_ll/4.jpg"",""time"":208},{""stimulus"":""img/red_ll/5.jpg"",""time"":256},{""stimulus"":""img/red_ll/6.jpg"",""time"":304},{""stimulus"":""img/red_ll/7.jpg"",""time"":352},{""stimulus"":""img/red_ll/8.jpg"",""time"":408},{""stimulus"":""img/red_ll/9.jpg"",""time"":456},{""stimulus"":""img/red_ll/10.jpg"",""time"":504},{""stimulus"":""img/red_ll/11.jpg"",""time"":552}]","[]"
"","","","choice","","5ad2c8334d061300011b1985","bdp_lott","Tue Mar 28 2023 14:58:22 GMT-0500 (Central Daylight Time)","303644","red","green","image-keyboard-response","83","109926","0.0-5.0-1.39","","273","","img/red_ll/choose11.jpg","2","186","red","0.5","0.5","0.5","l","",""
"","","","","","5ad2c8334d061300011b1985","bdp_lott","Tue Mar 28 2023 14:58:22 GMT-0500 (Central Daylight Time)","303644","red","green","animation","84","110531","0.0-5.0-2.39","","","","","","186","","","","","","[{""stimulus"":""img/red_ll/1.jpg"",""time"":53},{""stimulus"":""img/red_ll/2.jpg"",""time"":101},{""stimulus"":""img/red_ll/3.jpg"",""time"":151},{""stimulus"":""img/red_ll/4.jpg"",""time"":205},{""stimulus"":""img/red_ll/5.jpg"",""time"":253},{""stimulus"":""img/red_ll/6.jpg"",""time"":309},{""stimulus"":""img/red_ll/7.jpg"",""time"":357},{""stimulus"":""img/red_ll/8.jpg"",""time"":405},{""stimulus"":""img/red_ll/9.jpg"",""time"":453},{""stimulus"":""img/red_ll/10.jpg"",""time"":509},{""stimulus"":""img/red_ll/11.jpg"",""time"":557}]","[]"
"","","","choice","","5ad2c8334d061300011b1985","bdp_lott","Tue Mar 28 2023 14:58:22 GMT-0500 (Central Daylight Time)","303644","red","green","image-keyboard-response","85","110741","0.0-5.0-1.40","","208","","img/red_ll/choose11.jpg","2","185","red","0.5","0.5","0.5","l","",""
"","","","","","5ad2c8334d061300011b1985","bdp_lott","Tue Mar 28 2023 14:58:22 GMT-0500 (Central Daylight Time)","303644","red","green","animation","86","111347","0.0-5.0-2.40","","","","","","185","","","","","","[{""stimulus"":""img/red_ll/1.jpg"",""time"":55},{""stimulus"":""img/red_ll/2.jpg"",""time"":103},{""stimulus"":""img/red_ll/3.jpg"",""time"":159},{""stimulus"":""img/red_ll/4.jpg"",""time"":207},{""stimulus"":""img/red_ll/5.jpg"",""time"":255},{""stimulus"":""img/red_ll/6.jpg"",""time"":303},{""stimulus"":""img/red_ll/7.jpg"",""time"":359},{""stimulus"":""img/red_ll/8.jpg"",""time"":407},{""stimulus"":""img/red_ll/9.jpg"",""time"":455},{""stimulus"":""img/red_ll/10.jpg"",""time"":503},{""stimulus"":""img/red_ll/11.jpg"",""time"":559}]","[]"
"","","","choice","","5ad2c8334d061300011b1985","bdp_lott","Tue Mar 28 2023 14:58:22 GMT-0500 (Central Daylight Time)","303644","red","green","image-keyboard-response","87","111632","0.0-5.0-1.41","","282","","img/red_ll/choose11.jpg","2","184","red","0.5","0.5","0.5","w","",""
"","","","","","5ad2c8334d061300011b1985","bdp_lott","Tue Mar 28 2023 14:58:22 GMT-0500 (Central Daylight Time)","303644","red","green","animation","88","112235","0.0-5.0-2.41","","","","","","184","","","","","","[{""stimulus"":""img/red_lw/1.jpg"",""time"":52},{""stimulus"":""img/red_lw/2.jpg"",""time"":108},{""stimulus"":""img/red_lw/3.jpg"",""time"":156},{""stimulus"":""img/red_lw/4.jpg"",""time"":204},{""stimulus"":""img/red_lw/5.jpg"",""time"":252},{""stimulus"":""img/red_lw/6.jpg"",""time"":308},{""stimulus"":""img/red_lw/7.jpg"",""time"":356},{""stimulus"":""img/red_lw/8.jpg"",""time"":404},{""stimulus"":""img/red_lw/9.jpg"",""time"":452},{""stimulus"":""img/red_lw/10.jpg"",""time"":508},{""stimulus"":""img/red_lw/11.jpg"",""time"":556}]","[]"
"","","","choice","","5ad2c8334d061300011b1985","bdp_lott","Tue Mar 28 2023 14:58:22 GMT-0500 (Central Daylight Time)","303644","red","green","image-keyboard-response","89","112738","0.0-5.0-1.42","","502","","img/red_lw/choose11.jpg","1","183","green","0.5","0.5","0.5","w","",""
"","","","","","5ad2c8334d061300011b1985","bdp_lott","Tue Mar 28 2023 14:58:22 GMT-0500 (Central Daylight Time)","303644","red","green","animation","90","113347","0.0-5.0-2.42","","","","","","183","","","","","","[{""stimulus"":""img/green_ww/1.jpg"",""time"":58},{""stimulus"":""img/green_ww/2.jpg"",""time"":106},{""stimulus"":""img/green_ww/3.jpg"",""time"":154},{""stimulus"":""img/green_ww/4.jpg"",""time"":210},{""stimulus"":""img/green_ww/5.jpg"",""time"":258},{""stimulus"":""img/green_ww/6.jpg"",""time"":306},{""stimulus"":""img/green_ww/7.jpg"",""time"":354},{""stimulus"":""img/green_ww/8.jpg"",""time"":410},{""stimulus"":""img/green_ww/9.jpg"",""time"":458},{""stimulus"":""img/green_ww/10.jpg"",""time"":506},{""stimulus"":""img/green_ww/11.jpg"",""time"":554}]","[]"
"","","","choice","","5ad2c8334d061300011b1985","bdp_lott","Tue Mar 28 2023 14:58:22 GMT-0500 (Central Daylight Time)","303644","red","green","image-keyboard-response","91","115120","0.0-5.0-1.43","","1771","","img/green_ww/choose11.jpg","2","182","red","0.5","0.5","0.5","l","",""
"","","","","","5ad2c8334d061300011b1985","bdp_lott","Tue Mar 28 2023 14:58:22 GMT-0500 (Central Daylight Time)","303644","red","green","animation","92","115723","0.0-5.0-2.43","","","","","","182","","","","","","[{""stimulus"":""img/red_wl/1.jpg"",""time"":59},{""stimulus"":""img/red_wl/2.jpg"",""time"":107},{""stimulus"":""img/red_wl/3.jpg"",""time"":155},{""stimulus"":""img/red_wl/4.jpg"",""time"":203},{""stimulus"":""img/red_wl/5.jpg"",""time"":259},{""stimulus"":""img/red_wl/6.jpg"",""time"":307},{""stimulus"":""img/red_wl/7.jpg"",""time"":355},{""stimulus"":""img/red_wl/8.jpg"",""time"":403},{""stimulus"":""img/red_wl/9.jpg"",""time"":459},{""stimulus"":""img/red_wl/10.jpg"",""time"":507},{""stimulus"":""img/red_wl/11.jpg"",""time"":555}]","[]"
"","","","choice","","5ad2c8334d061300011b1985","bdp_lott","Tue Mar 28 2023 14:58:22 GMT-0500 (Central Daylight Time)","303644","red","green","image-keyboard-response","93","116010","0.0-5.0-1.44","","285","","img/red_wl/choose11.jpg","2","181","red","0.5","0.5","0.5","l","",""
"","","","","","5ad2c8334d061300011b1985","bdp_lott","Tue Mar 28 2023 14:58:22 GMT-0500 (Central Daylight Time)","303644","red","green","animation","94","116619","0.0-5.0-2.44","","","","","","181","","","","","","[{""stimulus"":""img/red_wl/1.jpg"",""time"":58},{""stimulus"":""img/red_wl/2.jpg"",""time"":106},{""stimulus"":""img/red_wl/3.jpg"",""time"":154},{""stimulus"":""img/red_wl/4.jpg"",""time"":210},{""stimulus"":""img/red_wl/5.jpg"",""time"":258},{""stimulus"":""img/red_wl/6.jpg"",""time"":305},{""stimulus"":""img/red_wl/7.jpg"",""time"":354},{""stimulus"":""img/red_wl/8.jpg"",""time"":410},{""stimulus"":""img/red_wl/9.jpg"",""time"":458},{""stimulus"":""img/red_wl/10.jpg"",""time"":506},{""stimulus"":""img/red_wl/11.jpg"",""time"":554}]","[]"
"","","","choice","","5ad2c8334d061300011b1985","bdp_lott","Tue Mar 28 2023 14:58:22 GMT-0500 (Central Daylight Time)","303644","red","green","image-keyboard-response","95","116936","0.0-5.0-1.45","","314","","img/red_wl/choose11.jpg","2","180","red","0.5","0.5","0.5","l","",""
"","","","","","5ad2c8334d061300011b1985","bdp_lott","Tue Mar 28 2023 14:58:22 GMT-0500 (Central Daylight Time)","303644","red","green","animation","96","117539","0.0-5.0-2.45","","","","","","180","","","","","","[{""stimulus"":""img/red_wl/1.jpg"",""time"":52},{""stimulus"":""img/red_wl/2.jpg"",""time"":108},{""stimulus"":""img/red_wl/3.jpg"",""time"":156},{""stimulus"":""img/red_wl/4.jpg"",""time"":204},{""stimulus"":""img/red_wl/5.jpg"",""time"":252},{""stimulus"":""img/red_wl/6.jpg"",""time"":308},{""stimulus"":""img/red_wl/7.jpg"",""time"":356},{""stimulus"":""img/red_wl/8.jpg"",""time"":404},{""stimulus"":""img/red_wl/9.jpg"",""time"":451},{""stimulus"":""img/red_wl/10.jpg"",""time"":508},{""stimulus"":""img/red_wl/11.jpg"",""time"":556}]","[]"
"","","","choice","","5ad2c8334d061300011b1985","bdp_lott","Tue Mar 28 2023 14:58:22 GMT-0500 (Central Daylight Time)","303644","red","green","image-keyboard-response","97","117803","0.0-5.0-1.46","","262","","img/red_wl/choose11.jpg","2","179","red","0.5","0.5","0.5","w","",""
"","","","","","5ad2c8334d061300011b1985","bdp_lott","Tue Mar 28 2023 14:58:22 GMT-0500 (Central Daylight Time)","303644","red","green","animation","98","118411","0.0-5.0-2.46","","","","","","179","","","","","","[{""stimulus"":""img/red_ww/1.jpg"",""time"":56},{""stimulus"":""img/red_ww/2.jpg"",""time"":104},{""stimulus"":""img/red_ww/3.jpg"",""time"":152},{""stimulus"":""img/red_ww/4.jpg"",""time"":208},{""stimulus"":""img/red_ww/5.jpg"",""time"":256},{""stimulus"":""img/red_ww/6.jpg"",""time"":304},{""stimulus"":""img/red_ww/7.jpg"",""time"":352},{""stimulus"":""img/red_ww/8.jpg"",""time"":408},{""stimulus"":""img/red_ww/9.jpg"",""time"":455},{""stimulus"":""img/red_ww/10.jpg"",""time"":504},{""stimulus"":""img/red_ww/11.jpg"",""time"":552}]","[]"
"","","","choice","","5ad2c8334d061300011b1985","bdp_lott","Tue Mar 28 2023 14:58:22 GMT-0500 (Central Daylight Time)","303644","red","green","image-keyboard-response","99","118907","0.0-5.0-1.47","","493","","img/red_ww/choose11.jpg","1","178","green","0.5","0.5","0.5","l","",""
"","","","","","5ad2c8334d061300011b1985","bdp_lott","Tue Mar 28 2023 14:58:22 GMT-0500 (Central Daylight Time)","303644","red","green","animation","100","119515","0.0-5.0-2.47","","","","","","178","","","","","","[{""stimulus"":""img/green_lw/1.jpg"",""time"":57},{""stimulus"":""img/green_lw/2.jpg"",""time"":105},{""stimulus"":""img/green_lw/3.jpg"",""time"":152},{""stimulus"":""img/green_lw/4.jpg"",""time"":208},{""stimulus"":""img/green_lw/5.jpg"",""time"":256},{""stimulus"":""img/green_lw/6.jpg"",""time"":305},{""stimulus"":""img/green_lw/7.jpg"",""time"":353},{""stimulus"":""img/green_lw/8.jpg"",""time"":409},{""stimulus"":""img/green_lw/9.jpg"",""time"":457},{""stimulus"":""img/green_lw/10.jpg"",""time"":505},{""stimulus"":""img/green_lw/11.jpg"",""time"":553}]","[]"
"","","","choice","","5ad2c8334d061300011b1985","bdp_lott","Tue Mar 28 2023 14:58:22 GMT-0500 (Central Daylight Time)","303644","red","green","image-keyboard-response","101","120017","0.0-5.0-1.48","","500","","img/green_lw/choose11.jpg","1","177","green","0.5","0.5","0.5","w","",""
"","","","","","5ad2c8334d061300011b1985","bdp_lott","Tue Mar 28 2023 14:58:22 GMT-0500 (Central Daylight Time)","303644","red","green","animation","102","120619","0.0-5.0-2.48","","","","","","177","","","","","","[{""stimulus"":""img/green_ww/1.jpg"",""time"":58},{""stimulus"":""img/green_ww/2.jpg"",""time"":106},{""stimulus"":""img/green_ww/3.jpg"",""time"":154},{""stimulus"":""img/green_ww/4.jpg"",""time"":202},{""stimulus"":""img/green_ww/5.jpg"",""time"":258},{""stimulus"":""img/green_ww/6.jpg"",""time"":306},{""stimulus"":""img/green_ww/7.jpg"",""time"":354},{""stimulus"":""img/green_ww/8.jpg"",""time"":402},{""stimulus"":""img/green_ww/9.jpg"",""time"":458},{""stimulus"":""img/green_ww/10.jpg"",""time"":506},{""stimulus"":""img/green_ww/11.jpg"",""time"":553}]","[]"
"","","","choice","","5ad2c8334d061300011b1985","bdp_lott","Tue Mar 28 2023 14:58:22 GMT-0500 (Central Daylight Time)","303644","red","green","image-keyboard-response","103","121220","0.0-5.0-1.49","","599","","img/green_ww/choose11.jpg","2","176","red","0.5","0.5","0.5","l","",""
"","","","","","5ad2c8334d061300011b1985","bdp_lott","Tue Mar 28 2023 14:58:22 GMT-0500 (Central Daylight Time)","303644","red","green","animation","104","121827","0.0-5.0-2.49","","","","","","176","","","","","","[{""stimulus"":""img/red_wl/1.jpg"",""time"":55},{""stimulus"":""img/red_wl/2.jpg"",""time"":103},{""stimulus"":""img/red_wl/3.jpg"",""time"":159},{""stimulus"":""img/red_wl/4.jpg"",""time"":207},{""stimulus"":""img/red_wl/5.jpg"",""time"":255},{""stimulus"":""img/red_wl/6.jpg"",""time"":303},{""stimulus"":""img/red_wl/7.jpg"",""time"":359},{""stimulus"":""img/red_wl/8.jpg"",""time"":407},{""stimulus"":""img/red_wl/9.jpg"",""time"":455},{""stimulus"":""img/red_wl/10.jpg"",""time"":503},{""stimulus"":""img/red_wl/11.jpg"",""time"":559}]","[]"
"","","","choice","","5ad2c8334d061300011b1985","bdp_lott","Tue Mar 28 2023 14:58:22 GMT-0500 (Central Daylight Time)","303644","red","green","image-keyboard-response","105","122114","0.0-5.0-1.50","","286","","img/red_wl/choose11.jpg","2","175","red","0.5","0.5","0.5","l","",""
"","","","","","5ad2c8334d061300011b1985","bdp_lott","Tue Mar 28 2023 14:58:22 GMT-0500 (Central Daylight Time)","303644","red","green","animation","106","122723","0.0-5.0-2.50","","","","","","175","","","","","","[{""stimulus"":""img/red_wl/1.jpg"",""time"":57},{""stimulus"":""img/red_wl/2.jpg"",""time"":105},{""stimulus"":""img/red_wl/3.jpg"",""time"":153},{""stimulus"":""img/red_wl/4.jpg"",""time"":209},{""stimulus"":""img/red_wl/5.jpg"",""time"":257},{""stimulus"":""img/red_wl/6.jpg"",""time"":304},{""stimulus"":""img/red_wl/7.jpg"",""time"":353},{""stimulus"":""img/red_wl/8.jpg"",""time"":409},{""stimulus"":""img/red_wl/9.jpg"",""time"":457},{""stimulus"":""img/red_wl/10.jpg"",""time"":505},{""stimulus"":""img/red_wl/11.jpg"",""time"":553}]","[]"
"","","","choice","","5ad2c8334d061300011b1985","bdp_lott","Tue Mar 28 2023 14:58:22 GMT-0500 (Central Daylight Time)","303644","red","green","image-keyboard-response","107","122945","0.0-5.0-1.51","","220","","img/red_wl/choose11.jpg","2","174","red","0.5","0.5","0.5","l","",""
"","","","","","5ad2c8334d061300011b1985","bdp_lott","Tue Mar 28 2023 14:58:22 GMT-0500 (Central Daylight Time)","303644","red","green","animation","108","123547","0.0-5.0-2.51","","","","","","174","","","","","","[{""stimulus"":""img/red_wl/1.jpg"",""time"":59},{""stimulus"":""img/red_wl/2.jpg"",""time"":107},{""stimulus"":""img/red_wl/3.jpg"",""time"":155},{""stimulus"":""img/red_wl/4.jpg"",""time"":203},{""stimulus"":""img/red_wl/5.jpg"",""time"":259},{""stimulus"":""img/red_wl/6.jpg"",""time"":307},{""stimulus"":""img/red_wl/7.jpg"",""time"":355},{""stimulus"":""img/red_wl/8.jpg"",""time"":403},{""stimulus"":""img/red_wl/9.jpg"",""time"":459},{""stimulus"":""img/red_wl/10.jpg"",""time"":507},{""stimulus"":""img/red_wl/11.jpg"",""time"":555}]","[]"
"","","","choice","","5ad2c8334d061300011b1985","bdp_lott","Tue Mar 28 2023 14:58:22 GMT-0500 (Central Daylight Time)","303644","red","green","image-keyboard-response","109","123829","0.0-5.0-1.52","","280","","img/red_wl/choose11.jpg","2","173","red","0.5","0.5","0.5","l","",""
"","","","","","5ad2c8334d061300011b1985","bdp_lott","Tue Mar 28 2023 14:58:22 GMT-0500 (Central Daylight Time)","303644","red","green","animation","110","124435","0.0-5.0-2.52","","","","","","173","","","","","","[{""stimulus"":""img/red_wl/1.jpg"",""time"":55},{""stimulus"":""img/red_wl/2.jpg"",""time"":103},{""stimulus"":""img/red_wl/3.jpg"",""time"":158},{""stimulus"":""img/red_wl/4.jpg"",""time"":207},{""stimulus"":""img/red_wl/5.jpg"",""time"":255},{""stimulus"":""img/red_wl/6.jpg"",""time"":303},{""stimulus"":""img/red_wl/7.jpg"",""time"":359},{""stimulus"":""img/red_wl/8.jpg"",""time"":407},{""stimulus"":""img/red_wl/9.jpg"",""time"":455},{""stimulus"":""img/red_wl/10.jpg"",""time"":503},{""stimulus"":""img/red_wl/11.jpg"",""time"":558}]","[]"
"","","","choice","","5ad2c8334d061300011b1985","bdp_lott","Tue Mar 28 2023 14:58:22 GMT-0500 (Central Daylight Time)","303644","red","green","image-keyboard-response","111","124659","0.0-5.0-1.53","","222","","img/red_wl/choose11.jpg","2","172","red","0.5","0.5","0.5","w","",""
"","","","","","5ad2c8334d061300011b1985","bdp_lott","Tue Mar 28 2023 14:58:22 GMT-0500 (Central Daylight Time)","303644","red","green","animation","112","125267","0.0-5.0-2.53","","","","","","172","","","","","","[{""stimulus"":""img/red_ww/1.jpg"",""time"":56},{""stimulus"":""img/red_ww/2.jpg"",""time"":104},{""stimulus"":""img/red_ww/3.jpg"",""time"":152},{""stimulus"":""img/red_ww/4.jpg"",""time"":208},{""stimulus"":""img/red_ww/5.jpg"",""time"":256},{""stimulus"":""img/red_ww/6.jpg"",""time"":304},{""stimulus"":""img/red_ww/7.jpg"",""time"":351},{""stimulus"":""img/red_ww/8.jpg"",""time"":408},{""stimulus"":""img/red_ww/9.jpg"",""time"":456},{""stimulus"":""img/red_ww/10.jpg"",""time"":504},{""stimulus"":""img/red_ww/11.jpg"",""time"":552}]","[]"
"","","","choice","","5ad2c8334d061300011b1985","bdp_lott","Tue Mar 28 2023 14:58:22 GMT-0500 (Central Daylight Time)","303644","red","green","image-keyboard-response","113","125692","0.0-5.0-1.54","","423","","img/red_ww/choose11.jpg","1","171","green","0.5","0.5","0.5","w","",""
"","","","","","5ad2c8334d061300011b1985","bdp_lott","Tue Mar 28 2023 14:58:22 GMT-0500 (Central Daylight Time)","303644","red","green","animation","114","126299","0.0-5.0-2.54","","","","","","171","","","","","","[{""stimulus"":""img/green_ww/1.jpg"",""time"":55},{""stimulus"":""img/green_ww/2.jpg"",""time"":103},{""stimulus"":""img/green_ww/3.jpg"",""time"":159},{""stimulus"":""img/green_ww/4.jpg"",""time"":207},{""stimulus"":""img/green_ww/5.jpg"",""time"":255},{""stimulus"":""img/green_ww/6.jpg"",""time"":303},{""stimulus"":""img/green_ww/7.jpg"",""time"":358},{""stimulus"":""img/green_ww/8.jpg"",""time"":407},{""stimulus"":""img/green_ww/9.jpg"",""time"":455},{""stimulus"":""img/green_ww/10.jpg"",""time"":503},{""stimulus"":""img/green_ww/11.jpg"",""time"":559}]","[]"
"","","","choice","","5ad2c8334d061300011b1985","bdp_lott","Tue Mar 28 2023 14:58:22 GMT-0500 (Central Daylight Time)","303644","red","green","image-keyboard-response","115","127295","0.0-5.0-1.55","","993","","img/green_ww/choose11.jpg","2","170","red","0.5","0.5","0.5","w","",""
"","","","","","5ad2c8334d061300011b1985","bdp_lott","Tue Mar 28 2023 14:58:22 GMT-0500 (Central Daylight Time)","303644","red","green","animation","116","127899","0.0-5.0-2.55","","","","","","170","","","","","","[{""stimulus"":""img/red_ww/1.jpg"",""time"":53},{""stimulus"":""img/red_ww/2.jpg"",""time"":108},{""stimulus"":""img/red_ww/3.jpg"",""time"":157},{""stimulus"":""img/red_ww/4.jpg"",""time"":205},{""stimulus"":""img/red_ww/5.jpg"",""time"":252},{""stimulus"":""img/red_ww/6.jpg"",""time"":309},{""stimulus"":""img/red_ww/7.jpg"",""time"":357},{""stimulus"":""img/red_ww/8.jpg"",""time"":405},{""stimulus"":""img/red_ww/9.jpg"",""time"":453},{""stimulus"":""img/red_ww/10.jpg"",""time"":509},{""stimulus"":""img/red_ww/11.jpg"",""time"":556}]","[]"
"","","","choice","","5ad2c8334d061300011b1985","bdp_lott","Tue Mar 28 2023 14:58:22 GMT-0500 (Central Daylight Time)","303644","red","green","image-keyboard-response","117","128462","0.0-5.0-1.56","","561","","img/red_ww/choose11.jpg","1","169","green","0.5","0.5","0.5","w","",""
"blur","118","128479","blurevent","3","5ad2c8334d061300011b1985","bdp_lott","Tue Mar 28 2023 14:58:22 GMT-0500 (Central Daylight Time)","303644","red","green","","","","","","","","","","","","","","","","",""
"focus","118","128482","focusevent","","5ad2c8334d061300011b1985","bdp_lott","Tue Mar 28 2023 14:58:22 GMT-0500 (Central Daylight Time)","303644","red","green","","","","","","","","","","","","","","","","",""
"blur","118","128479","","3","5ad2c8334d061300011b1985","bdp_lott","Tue Mar 28 2023 14:58:22 GMT-0500 (Central Daylight Time)","303644","red","green","animation","118","129067","0.0-5.0-2.56","","","","","","169","","","","","","[{""stimulus"":""img/green_ww/1.jpg"",""time"":53},{""stimulus"":""img/green_ww/2.jpg"",""time"":109},{""stimulus"":""img/green_ww/3.jpg"",""time"":157},{""stimulus"":""img/green_ww/4.jpg"",""time"":205},{""stimulus"":""img/green_ww/5.jpg"",""time"":253},{""stimulus"":""img/green_ww/6.jpg"",""time"":309},{""stimulus"":""img/green_ww/7.jpg"",""time"":357},{""stimulus"":""img/green_ww/8.jpg"",""time"":405},{""stimulus"":""img/green_ww/9.jpg"",""time"":453},{""stimulus"":""img/green_ww/10.jpg"",""time"":508},{""stimulus"":""img/green_ww/11.jpg"",""time"":557}]","[]"
"","","","blurwarn","3","5ad2c8334d061300011b1985","bdp_lott","Tue Mar 28 2023 14:58:22 GMT-0500 (Central Daylight Time)","303644","red","green","image-keyboard-response","119","130737","0.0-5.0-0.57-0.57","","1669","","","49","","","","","","","",""
"","","","choice","","5ad2c8334d061300011b1985","bdp_lott","Tue Mar 28 2023 14:58:22 GMT-0500 (Central Daylight Time)","303644","red","green","image-keyboard-response","120","134912","0.0-5.0-1.57","","3915","","img/green_ww/choose11.jpg","2","168","red","0.5","0.5","0.5","l","",""
"","","","","","5ad2c8334d061300011b1985","bdp_lott","Tue Mar 28 2023 14:58:22 GMT-0500 (Central Daylight Time)","303644","red","green","animation","121","135515","0.0-5.0-2.57","","","","","","168","","","","","","[{""stimulus"":""img/red_wl/1.jpg"",""time"":58},{""stimulus"":""img/red_wl/2.jpg"",""time"":106},{""stimulus"":""img/red_wl/3.jpg"",""time"":154},{""stimulus"":""img/red_wl/4.jpg"",""time"":202},{""stimulus"":""img/red_wl/5.jpg"",""time"":258},{""stimulus"":""img/red_wl/6.jpg"",""time"":306},{""stimulus"":""img/red_wl/7.jpg"",""time"":353},{""stimulus"":""img/red_wl/8.jpg"",""time"":402},{""stimulus"":""img/red_wl/9.jpg"",""time"":458},{""stimulus"":""img/red_wl/10.jpg"",""time"":506},{""stimulus"":""img/red_wl/11.jpg"",""time"":554}]","[]"
"","","","choice","","5ad2c8334d061300011b1985","bdp_lott","Tue Mar 28 2023 14:58:22 GMT-0500 (Central Daylight Time)","303644","red","green","image-keyboard-response","122","135852","0.0-5.0-1.58","","335","","img/red_wl/choose11.jpg","2","167","red","0.5","0.5","0.5","l","",""
"","","","","","5ad2c8334d061300011b1985","bdp_lott","Tue Mar 28 2023 14:58:22 GMT-0500 (Central Daylight Time)","303644","red","green","animation","123","136459","0.0-5.0-2.58","","","","","","167","","","","","","[{""stimulus"":""img/red_wl/1.jpg"",""time"":56},{""stimulus"":""img/red_wl/2.jpg"",""time"":104},{""stimulus"":""img/red_wl/3.jpg"",""time"":160},{""stimulus"":""img/red_wl/4.jpg"",""time"":208},{""stimulus"":""img/red_wl/5.jpg"",""time"":256},{""stimulus"":""img/red_wl/6.jpg"",""time"":304},{""stimulus"":""img/red_wl/7.jpg"",""time"":360},{""stimulus"":""img/red_wl/8.jpg"",""time"":408},{""stimulus"":""img/red_wl/9.jpg"",""time"":456},{""stimulus"":""img/red_wl/10.jpg"",""time"":504},{""stimulus"":""img/red_wl/11.jpg"",""time"":560}]","[]"
"","","","choice","","5ad2c8334d061300011b1985","bdp_lott","Tue Mar 28 2023 14:58:22 GMT-0500 (Central Daylight Time)","303644","red","green","image-keyboard-response","124","136753","0.0-5.0-1.59","","292","","img/red_wl/choose11.jpg","2","166","red","0.5","0.5","0.5","l","",""
"","","","","","5ad2c8334d061300011b1985","bdp_lott","Tue Mar 28 2023 14:58:22 GMT-0500 (Central Daylight Time)","303644","red","green","animation","125","137355","0.0-5.0-2.59","","","","","","166","","","","","","[{""stimulus"":""img/red_wl/1.jpg"",""time"":58},{""stimulus"":""img/red_wl/2.jpg"",""time"":106},{""stimulus"":""img/red_wl/3.jpg"",""time"":154},{""stimulus"":""img/red_wl/4.jpg"",""time"":202},{""stimulus"":""img/red_wl/5.jpg"",""time"":258},{""stimulus"":""img/red_wl/6.jpg"",""time"":306},{""stimulus"":""img/red_wl/7.jpg"",""time"":354},{""stimulus"":""img/red_wl/8.jpg"",""time"":402},{""stimulus"":""img/red_wl/9.jpg"",""time"":457},{""stimulus"":""img/red_wl/10.jpg"",""time"":506},{""stimulus"":""img/red_wl/11.jpg"",""time"":554}]","[]"
"","","","choice","","5ad2c8334d061300011b1985","bdp_lott","Tue Mar 28 2023 14:58:22 GMT-0500 (Central Daylight Time)","303644","red","green","image-keyboard-response","126","137635","0.0-5.0-1.60","","278","","img/red_wl/choose11.jpg","2","165","red","0.5","0.5","0.5","l","",""
"","","","","","5ad2c8334d061300011b1985","bdp_lott","Tue Mar 28 2023 14:58:22 GMT-0500 (Central Daylight Time)","303644","red","green","animation","127","138243","0.0-5.0-2.60","","","","","","165","","","","","","[{""stimulus"":""img/red_wl/1.jpg"",""time"":57},{""stimulus"":""img/red_wl/2.jpg"",""time"":105},{""stimulus"":""img/red_wl/3.jpg"",""time"":153},{""stimulus"":""img/red_wl/4.jpg"",""time"":209},{""stimulus"":""img/red_wl/5.jpg"",""time"":257},{""stimulus"":""img/red_wl/6.jpg"",""time"":305},{""stimulus"":""img/red_wl/7.jpg"",""time"":353},{""stimulus"":""img/red_wl/8.jpg"",""time"":408},{""stimulus"":""img/red_wl/9.jpg"",""time"":457},{""stimulus"":""img/red_wl/10.jpg"",""time"":505},{""stimulus"":""img/red_wl/11.jpg"",""time"":553}]","[]"
"","","","choice","","5ad2c8334d061300011b1985","bdp_lott","Tue Mar 28 2023 14:58:22 GMT-0500 (Central Daylight Time)","303644","red","green","image-keyboard-response","128","138426","0.0-5.0-1.61","","181","","img/red_wl/choose11.jpg","2","164","red","0.5","0.5","0.5","w","",""
"","","","","","5ad2c8334d061300011b1985","bdp_lott","Tue Mar 28 2023 14:58:22 GMT-0500 (Central Daylight Time)","303644","red","green","animation","129","139027","0.0-5.0-2.61","","","","","","164","","","","","","[{""stimulus"":""img/red_ww/1.jpg"",""time"":58},{""stimulus"":""img/red_ww/2.jpg"",""time"":106},{""stimulus"":""img/red_ww/3.jpg"",""time"":153},{""stimulus"":""img/red_ww/4.jpg"",""time"":202},{""stimulus"":""img/red_ww/5.jpg"",""time"":258},{""stimulus"":""img/red_ww/6.jpg"",""time"":306},{""stimulus"":""img/red_ww/7.jpg"",""time"":354},{""stimulus"":""img/red_ww/8.jpg"",""time"":402},{""stimulus"":""img/red_ww/9.jpg"",""time"":458},{""stimulus"":""img/red_ww/10.jpg"",""time"":506},{""stimulus"":""img/red_ww/11.jpg"",""time"":553}]","[]"
"","","","choice","","5ad2c8334d061300011b1985","bdp_lott","Tue Mar 28 2023 14:58:22 GMT-0500 (Central Daylight Time)","303644","red","green","image-keyboard-response","130","139544","0.0-5.0-1.62","","515","","img/red_ww/choose11.jpg","1","163","green","0.5","0.5","0.5","w","",""
"","","","","","5ad2c8334d061300011b1985","bdp_lott","Tue Mar 28 2023 14:58:22 GMT-0500 (Central Daylight Time)","303644","red","green","animation","131","140147","0.0-5.0-2.62","","","","","","163","","","","","","[{""stimulus"":""img/green_ww/1.jpg"",""time"":52},{""stimulus"":""img/green_ww/2.jpg"",""time"":108},{""stimulus"":""img/green_ww/3.jpg"",""time"":156},{""stimulus"":""img/green_ww/4.jpg"",""time"":204},{""stimulus"":""img/green_ww/5.jpg"",""time"":251},{""stimulus"":""img/green_ww/6.jpg"",""time"":308},{""stimulus"":""img/green_ww/7.jpg"",""time"":356},{""stimulus"":""img/green_ww/8.jpg"",""time"":404},{""stimulus"":""img/green_ww/9.jpg"",""time"":452},{""stimulus"":""img/green_ww/10.jpg"",""time"":508},{""stimulus"":""img/green_ww/11.jpg"",""time"":556}]","[]"
"","","","choice","","5ad2c8334d061300011b1985","bdp_lott","Tue Mar 28 2023 14:58:22 GMT-0500 (Central Daylight Time)","303644","red","green","image-keyboard-response","132","140768","0.0-5.0-1.63","","618","","img/green_ww/choose11.jpg","1","162","green","0.5","0.5","0.5","w","",""
"","","","","","5ad2c8334d061300011b1985","bdp_lott","Tue Mar 28 2023 14:58:22 GMT-0500 (Central Daylight Time)","303644","red","green","animation","133","141371","0.0-5.0-2.63","","","","","","162","","","","","","[{""stimulus"":""img/green_ww/1.jpg"",""time"":52},{""stimulus"":""img/green_ww/2.jpg"",""time"":108},{""stimulus"":""img/green_ww/3.jpg"",""time"":155},{""stimulus"":""img/green_ww/4.jpg"",""time"":203},{""stimulus"":""img/green_ww/5.jpg"",""time"":252},{""stimulus"":""img/green_ww/6.jpg"",""time"":308},{""stimulus"":""img/green_ww/7.jpg"",""time"":356},{""stimulus"":""img/green_ww/8.jpg"",""time"":404},{""stimulus"":""img/green_ww/9.jpg"",""time"":452},{""stimulus"":""img/green_ww/10.jpg"",""time"":508},{""stimulus"":""img/green_ww/11.jpg"",""time"":556}]","[]"
"","","","choice","","5ad2c8334d061300011b1985","bdp_lott","Tue Mar 28 2023 14:58:22 GMT-0500 (Central Daylight Time)","303644","red","green","image-keyboard-response","134","142327","0.0-5.0-1.64","","953","","img/green_ww/choose11.jpg","2","161","red","0.5","0.5","0.5","l","",""
"","","","","","5ad2c8334d061300011b1985","bdp_lott","Tue Mar 28 2023 14:58:22 GMT-0500 (Central Daylight Time)","303644","red","green","animation","135","142931","0.0-5.0-2.64","","","","","","161","","","","","","[{""stimulus"":""img/red_wl/1.jpg"",""time"":53},{""stimulus"":""img/red_wl/2.jpg"",""time"":108},{""stimulus"":""img/red_wl/3.jpg"",""time"":157},{""stimulus"":""img/red_wl/4.jpg"",""time"":205},{""stimulus"":""img/red_wl/5.jpg"",""time"":253},{""stimulus"":""img/red_wl/6.jpg"",""time"":309},{""stimulus"":""img/red_wl/7.jpg"",""time"":357},{""stimulus"":""img/red_wl/8.jpg"",""time"":405},{""stimulus"":""img/red_wl/9.jpg"",""time"":453},{""stimulus"":""img/red_wl/10.jpg"",""time"":508},{""stimulus"":""img/red_wl/11.jpg"",""time"":557}]","[]"
"","","","choice","","5ad2c8334d061300011b1985","bdp_lott","Tue Mar 28 2023 14:58:22 GMT-0500 (Central Daylight Time)","303644","red","green","image-keyboard-response","136","143244","0.0-5.0-1.65","","311","","img/red_wl/choose11.jpg","2","160","red","0.5","0.5","0.5","l","",""
"","","","","","5ad2c8334d061300011b1985","bdp_lott","Tue Mar 28 2023 14:58:22 GMT-0500 (Central Daylight Time)","303644","red","green","animation","137","143851","0.0-5.0-2.65","","","","","","160","","","","","","[{""stimulus"":""img/red_wl/1.jpg"",""time"":55},{""stimulus"":""img/red_wl/2.jpg"",""time"":103},{""stimulus"":""img/red_wl/3.jpg"",""time"":159},{""stimulus"":""img/red_wl/4.jpg"",""time"":205},{""stimulus"":""img/red_wl/5.jpg"",""time"":255},{""stimulus"":""img/red_wl/6.jpg"",""time"":303},{""stimulus"":""img/red_wl/7.jpg"",""time"":359},{""stimulus"":""img/red_wl/8.jpg"",""time"":407},{""stimulus"":""img/red_wl/9.jpg"",""time"":455},{""stimulus"":""img/red_wl/10.jpg"",""time"":503},{""stimulus"":""img/red_wl/11.jpg"",""time"":559}]","[]"
"","","","choice","","5ad2c8334d061300011b1985","bdp_lott","Tue Mar 28 2023 14:58:22 GMT-0500 (Central Daylight Time)","303644","red","green","image-keyboard-response","138","144138","0.0-5.0-1.66","","285","","img/red_wl/choose11.jpg","2","159","red","0.5","0.5","0.5","l","",""
"","","","","","5ad2c8334d061300011b1985","bdp_lott","Tue Mar 28 2023 14:58:22 GMT-0500 (Central Daylight Time)","303644","red","green","animation","139","144739","0.0-5.0-2.66","","","","","","159","","","","","","[{""stimulus"":""img/red_wl/1.jpg"",""time"":58},{""stimulus"":""img/red_wl/2.jpg"",""time"":106},{""stimulus"":""img/red_wl/3.jpg"",""time"":153},{""stimulus"":""img/red_wl/4.jpg"",""time"":202},{""stimulus"":""img/red_wl/5.jpg"",""time"":258},{""stimulus"":""img/red_wl/6.jpg"",""time"":306},{""stimulus"":""img/red_wl/7.jpg"",""time"":353},{""stimulus"":""img/red_wl/8.jpg"",""time"":402},{""stimulus"":""img/red_wl/9.jpg"",""time"":458},{""stimulus"":""img/red_wl/10.jpg"",""time"":506},{""stimulus"":""img/red_wl/11.jpg"",""time"":554}]","[]"
"","","","choice","","5ad2c8334d061300011b1985","bdp_lott","Tue Mar 28 2023 14:58:22 GMT-0500 (Central Daylight Time)","303644","red","green","image-keyboard-response","140","145003","0.0-5.0-1.67","","262","","img/red_wl/choose11.jpg","2","158","red","0.5","0.5","0.5","w","",""
"","","","","","5ad2c8334d061300011b1985","bdp_lott","Tue Mar 28 2023 14:58:22 GMT-0500 (Central Daylight Time)","303644","red","green","animation","141","145611","0.0-5.0-2.67","","","","","","158","","","","","","[{""stimulus"":""img/red_ww/1.jpg"",""time"":56},{""stimulus"":""img/red_ww/2.jpg"",""time"":104},{""stimulus"":""img/red_ww/3.jpg"",""time"":152},{""stimulus"":""img/red_ww/4.jpg"",""time"":207},{""stimulus"":""img/red_ww/5.jpg"",""time"":256},{""stimulus"":""img/red_ww/6.jpg"",""time"":304},{""stimulus"":""img/red_ww/7.jpg"",""time"":352},{""stimulus"":""img/red_ww/8.jpg"",""time"":408},{""stimulus"":""img/red_ww/9.jpg"",""time"":456},{""stimulus"":""img/red_ww/10.jpg"",""time"":504},{""stimulus"":""img/red_ww/11.jpg"",""time"":552}]","[]"
"","","","choice","","5ad2c8334d061300011b1985","bdp_lott","Tue Mar 28 2023 14:58:22 GMT-0500 (Central Daylight Time)","303644","red","green","image-keyboard-response","142","146089","0.0-5.0-1.68","","476","","img/red_ww/choose11.jpg","1","157","green","0.5","0.5","0.5","w","",""
"","","","","","5ad2c8334d061300011b1985","bdp_lott","Tue Mar 28 2023 14:58:22 GMT-0500 (Central Daylight Time)","303644","red","green","animation","143","146691","0.0-5.0-2.68","","","","","","157","","","","","","[{""stimulus"":""img/green_ww/1.jpg"",""time"":58},{""stimulus"":""img/green_ww/2.jpg"",""time"":106},{""stimulus"":""img/green_ww/3.jpg"",""time"":154},{""stimulus"":""img/green_ww/4.jpg"",""time"":202},{""stimulus"":""img/green_ww/5.jpg"",""time"":258},{""stimulus"":""img/green_ww/6.jpg"",""time"":305},{""stimulus"":""img/green_ww/7.jpg"",""time"":354},{""stimulus"":""img/green_ww/8.jpg"",""time"":401},{""stimulus"":""img/green_ww/9.jpg"",""time"":458},{""stimulus"":""img/green_ww/10.jpg"",""time"":506},{""stimulus"":""img/green_ww/11.jpg"",""time"":554}]","[]"
"","","","choice","","5ad2c8334d061300011b1985","bdp_lott","Tue Mar 28 2023 14:58:22 GMT-0500 (Central Daylight Time)","303644","red","green","image-keyboard-response","144","147339","0.0-5.0-1.69","","647","","img/green_ww/choose11.jpg","2","156","red","0.5","0.5","0.5","w","",""
"","","","","","5ad2c8334d061300011b1985","bdp_lott","Tue Mar 28 2023 14:58:22 GMT-0500 (Central Daylight Time)","303644","red","green","animation","145","147947","0.0-5.0-2.69","","","","","","156","","","","","","[{""stimulus"":""img/red_ww/1.jpg"",""time"":57},{""stimulus"":""img/red_ww/2.jpg"",""time"":105},{""stimulus"":""img/red_ww/3.jpg"",""time"":153},{""stimulus"":""img/red_ww/4.jpg"",""time"":208},{""stimulus"":""img/red_ww/5.jpg"",""time"":257},{""stimulus"":""img/red_ww/6.jpg"",""time"":305},{""stimulus"":""img/red_ww/7.jpg"",""time"":353},{""stimulus"":""img/red_ww/8.jpg"",""time"":409},{""stimulus"":""img/red_ww/9.jpg"",""time"":457},{""stimulus"":""img/red_ww/10.jpg"",""time"":505},{""stimulus"":""img/red_ww/11.jpg"",""time"":553}]","[]"
"","","","choice","","5ad2c8334d061300011b1985","bdp_lott","Tue Mar 28 2023 14:58:22 GMT-0500 (Central Daylight Time)","303644","red","green","image-keyboard-response","146","148675","0.0-5.0-1.70","","726","","img/red_ww/choose11.jpg","1","155","green","0.5","0.5","0.5","l","",""
"","","","","","5ad2c8334d061300011b1985","bdp_lott","Tue Mar 28 2023 14:58:22 GMT-0500 (Central Daylight Time)","303644","red","green","animation","147","149283","0.0-5.0-2.70","","","","","","155","","","","","","[{""stimulus"":""img/green_lw/1.jpg"",""time"":56},{""stimulus"":""img/green_lw/2.jpg"",""time"":104},{""stimulus"":""img/green_lw/3.jpg"",""time"":152},{""stimulus"":""img/green_lw/4.jpg"",""time"":208},{""stimulus"":""img/green_lw/5.jpg"",""time"":256},{""stimulus"":""img/green_lw/6.jpg"",""time"":304},{""stimulus"":""img/green_lw/7.jpg"",""time"":352},{""stimulus"":""img/green_lw/8.jpg"",""time"":408},{""stimulus"":""img/green_lw/9.jpg"",""time"":455},{""stimulus"":""img/green_lw/10.jpg"",""time"":504},{""stimulus"":""img/green_lw/11.jpg"",""time"":552}]","[]"
"","","","choice","","5ad2c8334d061300011b1985","bdp_lott","Tue Mar 28 2023 14:58:22 GMT-0500 (Central Daylight Time)","303644","red","green","image-keyboard-response","148","149637","0.0-5.0-1.71","","352","","img/green_lw/choose11.jpg","1","154","green","0.5","0.5","0.5","w","",""
"","","","","","5ad2c8334d061300011b1985","bdp_lott","Tue Mar 28 2023 14:58:22 GMT-0500 (Central Daylight Time)","303644","red","green","animation","149","150243","0.0-5.0-2.71","","","","","","154","","","","","","[{""stimulus"":""img/green_ww/1.jpg"",""time"":55},{""stimulus"":""img/green_ww/2.jpg"",""time"":103},{""stimulus"":""img/green_ww/3.jpg"",""time"":159},{""stimulus"":""img/green_ww/4.jpg"",""time"":207},{""stimulus"":""img/green_ww/5.jpg"",""time"":255},{""stimulus"":""img/green_ww/6.jpg"",""time"":303},{""stimulus"":""img/green_ww/7.jpg"",""time"":359},{""stimulus"":""img/green_ww/8.jpg"",""time"":407},{""stimulus"":""img/green_ww/9.jpg"",""time"":455},{""stimulus"":""img/green_ww/10.jpg"",""time"":503},{""stimulus"":""img/green_ww/11.jpg"",""time"":559}]","[]"
"","","","choice","","5ad2c8334d061300011b1985","bdp_lott","Tue Mar 28 2023 14:58:22 GMT-0500 (Central Daylight Time)","303644","red","green","image-keyboard-response","150","150810","0.0-5.0-1.72","","565","","img/green_ww/choose11.jpg","2","153","red","0.5","0.5","0.5","w","",""
"","","","","","5ad2c8334d061300011b1985","bdp_lott","Tue Mar 28 2023 14:58:22 GMT-0500 (Central Daylight Time)","303644","red","green","animation","151","151419","0.0-5.0-2.72","","","","","","153","","","","","","[{""stimulus"":""img/red_ww/1.jpg"",""time"":58},{""stimulus"":""img/red_ww/2.jpg"",""time"":105},{""stimulus"":""img/red_ww/3.jpg"",""time"":154},{""stimulus"":""img/red_ww/4.jpg"",""time"":210},{""stimulus"":""img/red_ww/5.jpg"",""time"":258},{""stimulus"":""img/red_ww/6.jpg"",""time"":306},{""stimulus"":""img/red_ww/7.jpg"",""time"":354},{""stimulus"":""img/red_ww/8.jpg"",""time"":410},{""stimulus"":""img/red_ww/9.jpg"",""time"":458},{""stimulus"":""img/red_ww/10.jpg"",""time"":506},{""stimulus"":""img/red_ww/11.jpg"",""time"":554}]","[]"
"","","","choice","","5ad2c8334d061300011b1985","bdp_lott","Tue Mar 28 2023 14:58:22 GMT-0500 (Central Daylight Time)","303644","red","green","image-keyboard-response","152","152243","0.0-5.0-1.73","","823","","img/red_ww/choose11.jpg","2","152","red","0.5","0.5","0.5","w","",""
"","","","","","5ad2c8334d061300011b1985","bdp_lott","Tue Mar 28 2023 14:58:22 GMT-0500 (Central Daylight Time)","303644","red","green","animation","153","152851","0.0-5.0-2.73","","","","","","152","","","","","","[{""stimulus"":""img/red_ww/1.jpg"",""time"":56},{""stimulus"":""img/red_ww/2.jpg"",""time"":104},{""stimulus"":""img/red_ww/3.jpg"",""time"":151},{""stimulus"":""img/red_ww/4.jpg"",""time"":208},{""stimulus"":""img/red_ww/5.jpg"",""time"":256},{""stimulus"":""img/red_ww/6.jpg"",""time"":304},{""stimulus"":""img/red_ww/7.jpg"",""time"":352},{""stimulus"":""img/red_ww/8.jpg"",""time"":408},{""stimulus"":""img/red_ww/9.jpg"",""time"":456},{""stimulus"":""img/red_ww/10.jpg"",""time"":504},{""stimulus"":""img/red_ww/11.jpg"",""time"":551}]","[]"
"","","","choice","","5ad2c8334d061300011b1985","bdp_lott","Tue Mar 28 2023 14:58:22 GMT-0500 (Central Daylight Time)","303644","red","green","image-keyboard-response","154","153473","0.0-5.0-1.74","","620","","img/red_ww/choose11.jpg","1","151","green","0.5","0.5","0.5","w","",""
"","","","","","5ad2c8334d061300011b1985","bdp_lott","Tue Mar 28 2023 14:58:22 GMT-0500 (Central Daylight Time)","303644","red","green","animation","155","154075","0.0-5.0-2.74","","","","","","151","","","","","","[{""stimulus"":""img/green_ww/1.jpg"",""time"":58},{""stimulus"":""img/green_ww/2.jpg"",""time"":106},{""stimulus"":""img/green_ww/3.jpg"",""time"":154},{""stimulus"":""img/green_ww/4.jpg"",""time"":202},{""stimulus"":""img/green_ww/5.jpg"",""time"":258},{""stimulus"":""img/green_ww/6.jpg"",""time"":306},{""stimulus"":""img/green_ww/7.jpg"",""time"":353},{""stimulus"":""img/green_ww/8.jpg"",""time"":402},{""stimulus"":""img/green_ww/9.jpg"",""time"":458},{""stimulus"":""img/green_ww/10.jpg"",""time"":506},{""stimulus"":""img/green_ww/11.jpg"",""time"":554}]","[]"
"","","","choice","","5ad2c8334d061300011b1985","bdp_lott","Tue Mar 28 2023 14:58:22 GMT-0500 (Central Daylight Time)","303644","red","green","image-keyboard-response","156","155488","0.0-5.0-1.75","","1411","","img/green_ww/choose11.jpg","1","150","green","0.5","0.5","0.5","l","",""
"","","","","","5ad2c8334d061300011b1985","bdp_lott","Tue Mar 28 2023 14:58:22 GMT-0500 (Central Daylight Time)","303644","red","green","animation","157","156092","0.0-5.0-2.75","","","","","","150","","","","","","[{""stimulus"":""img/green_lw/1.jpg"",""time"":59},{""stimulus"":""img/green_lw/2.jpg"",""time"":107},{""stimulus"":""img/green_lw/3.jpg"",""time"":155},{""stimulus"":""img/green_lw/4.jpg"",""time"":202},{""stimulus"":""img/green_lw/5.jpg"",""time"":259},{""stimulus"":""img/green_lw/6.jpg"",""time"":307},{""stimulus"":""img/green_lw/7.jpg"",""time"":355},{""stimulus"":""img/green_lw/8.jpg"",""time"":403},{""stimulus"":""img/green_lw/9.jpg"",""time"":459},{""stimulus"":""img/green_lw/10.jpg"",""time"":507},{""stimulus"":""img/green_lw/11.jpg"",""time"":555}]","[]"
"","","","choice","","5ad2c8334d061300011b1985","bdp_lott","Tue Mar 28 2023 14:58:22 GMT-0500 (Central Daylight Time)","303644","red","green","image-keyboard-response","158","156911","0.0-5.0-1.76","","818","","img/green_lw/choose11.jpg","1","149","green","0.5","0.1","0.1","l","",""
"","","","","","5ad2c8334d061300011b1985","bdp_lott","Tue Mar 28 2023 14:58:22 GMT-0500 (Central Daylight Time)","303644","red","green","animation","159","157515","0.0-5.0-2.76","","","","","","149","","","","","","[{""stimulus"":""img/green_lw/1.jpg"",""time"":53},{""stimulus"":""img/green_lw/2.jpg"",""time"":109},{""stimulus"":""img/green_lw/3.jpg"",""time"":157},{""stimulus"":""img/green_lw/4.jpg"",""time"":205},{""stimulus"":""img/green_lw/5.jpg"",""time"":253},{""stimulus"":""img/green_lw/6.jpg"",""time"":308},{""stimulus"":""img/green_lw/7.jpg"",""time"":357},{""stimulus"":""img/green_lw/8.jpg"",""time"":404},{""stimulus"":""img/green_lw/9.jpg"",""time"":453},{""stimulus"":""img/green_lw/10.jpg"",""time"":509},{""stimulus"":""img/green_lw/11.jpg"",""time"":557}]","[]"
"","","","choice","","5ad2c8334d061300011b1985","bdp_lott","Tue Mar 28 2023 14:58:22 GMT-0500 (Central Daylight Time)","303644","red","green","image-keyboard-response","160","157921","0.0-5.0-1.77","","404","","img/green_lw/choose11.jpg","1","148","green","0.5","0.1","0.1","l","",""
"","","","","","5ad2c8334d061300011b1985","bdp_lott","Tue Mar 28 2023 14:58:22 GMT-0500 (Central Daylight Time)","303644","red","green","animation","161","158523","0.0-5.0-2.77","","","","","","148","","","","","","[{""stimulus"":""img/green_lw/1.jpg"",""time"":59},{""stimulus"":""img/green_lw/2.jpg"",""time"":107},{""stimulus"":""img/green_lw/3.jpg"",""time"":155},{""stimulus"":""img/green_lw/4.jpg"",""time"":203},{""stimulus"":""img/green_lw/5.jpg"",""time"":258},{""stimulus"":""img/green_lw/6.jpg"",""time"":307},{""stimulus"":""img/green_lw/7.jpg"",""time"":355},{""stimulus"":""img/green_lw/8.jpg"",""time"":403},{""stimulus"":""img/green_lw/9.jpg"",""time"":459},{""stimulus"":""img/green_lw/10.jpg"",""time"":507},{""stimulus"":""img/green_lw/11.jpg"",""time"":555}]","[]"
"","","","choice","","5ad2c8334d061300011b1985","bdp_lott","Tue Mar 28 2023 14:58:22 GMT-0500 (Central Daylight Time)","303644","red","green","image-keyboard-response","162","158889","0.0-5.0-1.78","","364","","img/green_lw/choose11.jpg","1","147","green","0.5","0.1","0.1","l","",""
"","","","","","5ad2c8334d061300011b1985","bdp_lott","Tue Mar 28 2023 14:58:22 GMT-0500 (Central Daylight Time)","303644","red","green","animation","163","159491","0.0-5.0-2.78","","","","","","147","","","","","","[{""stimulus"":""img/green_lw/1.jpg"",""time"":59},{""stimulus"":""img/green_lw/2.jpg"",""time"":107},{""stimulus"":""img/green_lw/3.jpg"",""time"":155},{""stimulus"":""img/green_lw/4.jpg"",""time"":203},{""stimulus"":""img/green_lw/5.jpg"",""time"":259},{""stimulus"":""img/green_lw/6.jpg"",""time"":307},{""stimulus"":""img/green_lw/7.jpg"",""time"":355},{""stimulus"":""img/green_lw/8.jpg"",""time"":403},{""stimulus"":""img/green_lw/9.jpg"",""time"":459},{""stimulus"":""img/green_lw/10.jpg"",""time"":506},{""stimulus"":""img/green_lw/11.jpg"",""time"":554}]","[]"
"","","","choice","","5ad2c8334d061300011b1985","bdp_lott","Tue Mar 28 2023 14:58:22 GMT-0500 (Central Daylight Time)","303644","red","green","image-keyboard-response","164","159890","0.0-5.0-1.79","","397","","img/green_lw/choose11.jpg","1","146","green","0.5","0.1","0.1","l","",""
"","","","","","5ad2c8334d061300011b1985","bdp_lott","Tue Mar 28 2023 14:58:22 GMT-0500 (Central Daylight Time)","303644","red","green","animation","165","160499","0.0-5.0-2.79","","","","","","146","","","","","","[{""stimulus"":""img/green_lw/1.jpg"",""time"":58},{""stimulus"":""img/green_lw/2.jpg"",""time"":106},{""stimulus"":""img/green_lw/3.jpg"",""time"":154},{""stimulus"":""img/green_lw/4.jpg"",""time"":210},{""stimulus"":""img/green_lw/5.jpg"",""time"":258},{""stimulus"":""img/green_lw/6.jpg"",""time"":306},{""stimulus"":""img/green_lw/7.jpg"",""time"":354},{""stimulus"":""img/green_lw/8.jpg"",""time"":410},{""stimulus"":""img/green_lw/9.jpg"",""time"":458},{""stimulus"":""img/green_lw/10.jpg"",""time"":506},{""stimulus"":""img/green_lw/11.jpg"",""time"":553}]","[]"
"","","","choice","","5ad2c8334d061300011b1985","bdp_lott","Tue Mar 28 2023 14:58:22 GMT-0500 (Central Daylight Time)","303644","red","green","image-keyboard-response","166","160836","0.0-5.0-1.80","","335","","img/green_lw/choose11.jpg","1","145","green","0.5","0.1","0.1","l","",""
"","","","","","5ad2c8334d061300011b1985","bdp_lott","Tue Mar 28 2023 14:58:22 GMT-0500 (Central Daylight Time)","303644","red","green","animation","167","161443","0.0-5.0-2.80","","","","","","145","","","","","","[{""stimulus"":""img/green_lw/1.jpg"",""time"":56},{""stimulus"":""img/green_lw/2.jpg"",""time"":104},{""stimulus"":""img/green_lw/3.jpg"",""time"":151},{""stimulus"":""img/green_lw/4.jpg"",""time"":208},{""stimulus"":""img/green_lw/5.jpg"",""time"":256},{""stimulus"":""img/green_lw/6.jpg"",""time"":304},{""stimulus"":""img/green_lw/7.jpg"",""time"":352},{""stimulus"":""img/green_lw/8.jpg"",""time"":408},{""stimulus"":""img/green_lw/9.jpg"",""time"":456},{""stimulus"":""img/green_lw/10.jpg"",""time"":504},{""stimulus"":""img/green_lw/11.jpg"",""time"":551}]","[]"
"","","","choice","","5ad2c8334d061300011b1985","bdp_lott","Tue Mar 28 2023 14:58:22 GMT-0500 (Central Daylight Time)","303644","red","green","image-keyboard-response","168","161819","0.0-5.0-1.81","","373","","img/green_lw/choose11.jpg","2","144","red","0.5","0.1","0.5","w","",""
"","","","","","5ad2c8334d061300011b1985","bdp_lott","Tue Mar 28 2023 14:58:22 GMT-0500 (Central Daylight Time)","303644","red","green","animation","169","162427","0.0-5.0-2.81","","","","","","144","","","","","","[{""stimulus"":""img/red_lw/1.jpg"",""time"":57},{""stimulus"":""img/red_lw/2.jpg"",""time"":105},{""stimulus"":""img/red_lw/3.jpg"",""time"":153},{""stimulus"":""img/red_lw/4.jpg"",""time"":209},{""stimulus"":""img/red_lw/5.jpg"",""time"":257},{""stimulus"":""img/red_lw/6.jpg"",""time"":305},{""stimulus"":""img/red_lw/7.jpg"",""time"":353},{""stimulus"":""img/red_lw/8.jpg"",""time"":409},{""stimulus"":""img/red_lw/9.jpg"",""time"":457},{""stimulus"":""img/red_lw/10.jpg"",""time"":505},{""stimulus"":""img/red_lw/11.jpg"",""time"":553}]","[]"
"","","","choice","","5ad2c8334d061300011b1985","bdp_lott","Tue Mar 28 2023 14:58:22 GMT-0500 (Central Daylight Time)","303644","red","green","image-keyboard-response","170","162925","0.0-5.0-1.82","","496","","img/red_lw/choose11.jpg","1","143","green","0.5","0.1","0.1","l","",""
"","","","","","5ad2c8334d061300011b1985","bdp_lott","Tue Mar 28 2023 14:58:22 GMT-0500 (Central Daylight Time)","303644","red","green","animation","171","163531","0.0-5.0-2.82","","","","","","143","","","","","","[{""stimulus"":""img/green_lw/1.jpg"",""time"":54},{""stimulus"":""img/green_lw/2.jpg"",""time"":102},{""stimulus"":""img/green_lw/3.jpg"",""time"":157},{""stimulus"":""img/green_lw/4.jpg"",""time"":206},{""stimulus"":""img/green_lw/5.jpg"",""time"":254},{""stimulus"":""img/green_lw/6.jpg"",""time"":302},{""stimulus"":""img/green_lw/7.jpg"",""time"":358},{""stimulus"":""img/green_lw/8.jpg"",""time"":406},{""stimulus"":""img/green_lw/9.jpg"",""time"":454},{""stimulus"":""img/green_lw/10.jpg"",""time"":502},{""stimulus"":""img/green_lw/11.jpg"",""time"":557}]","[]"
"","","","choice","","5ad2c8334d061300011b1985","bdp_lott","Tue Mar 28 2023 14:58:22 GMT-0500 (Central Daylight Time)","303644","red","green","image-keyboard-response","172","163892","0.0-5.0-1.83","","359","","img/green_lw/choose11.jpg","1","142","green","0.5","0.1","0.1","l","",""
"","","","","","5ad2c8334d061300011b1985","bdp_lott","Tue Mar 28 2023 14:58:22 GMT-0500 (Central Daylight Time)","303644","red","green","animation","173","164499","0.0-5.0-2.83","","","","","","142","","","","","","[{""stimulus"":""img/green_lw/1.jpg"",""time"":55},{""stimulus"":""img/green_lw/2.jpg"",""time"":103},{""stimulus"":""img/green_lw/3.jpg"",""time"":159},{""stimulus"":""img/green_lw/4.jpg"",""time"":207},{""stimulus"":""img/green_lw/5.jpg"",""time"":255},{""stimulus"":""img/green_lw/6.jpg"",""time"":303},{""stimulus"":""img/green_lw/7.jpg"",""time"":359},{""stimulus"":""img/green_lw/8.jpg"",""time"":407},{""stimulus"":""img/green_lw/9.jpg"",""time"":455},{""stimulus"":""img/green_lw/10.jpg"",""time"":503},{""stimulus"":""img/green_lw/11.jpg"",""time"":559}]","[]"
"","","","choice","","5ad2c8334d061300011b1985","bdp_lott","Tue Mar 28 2023 14:58:22 GMT-0500 (Central Daylight Time)","303644","red","green","image-keyboard-response","174","164896","0.0-5.0-1.84","","395","","img/green_lw/choose11.jpg","2","141","red","0.5","0.1","0.5","l","",""
"","","","","","5ad2c8334d061300011b1985","bdp_lott","Tue Mar 28 2023 14:58:22 GMT-0500 (Central Daylight Time)","303644","red","green","animation","175","165499","0.0-5.0-2.84","","","","","","141","","","","","","[{""stimulus"":""img/red_ll/1.jpg"",""time"":60},{""stimulus"":""img/red_ll/2.jpg"",""time"":108},{""stimulus"":""img/red_ll/3.jpg"",""time"":156},{""stimulus"":""img/red_ll/4.jpg"",""time"":204},{""stimulus"":""img/red_ll/5.jpg"",""time"":260},{""stimulus"":""img/red_ll/6.jpg"",""time"":308},{""stimulus"":""img/red_ll/7.jpg"",""time"":355},{""stimulus"":""img/red_ll/8.jpg"",""time"":404},{""stimulus"":""img/red_ll/9.jpg"",""time"":460},{""stimulus"":""img/red_ll/10.jpg"",""time"":507},{""stimulus"":""img/red_ll/11.jpg"",""time"":555}]","[]"
"","","","choice","","5ad2c8334d061300011b1985","bdp_lott","Tue Mar 28 2023 14:58:22 GMT-0500 (Central Daylight Time)","303644","red","green","image-keyboard-response","176","165910","0.0-5.0-1.85","","409","","img/red_ll/choose11.jpg","2","140","red","0.5","0.1","0.5","l","",""
"","","","","","5ad2c8334d061300011b1985","bdp_lott","Tue Mar 28 2023 14:58:22 GMT-0500 (Central Daylight Time)","303644","red","green","animation","177","166515","0.0-5.0-2.85","","","","","","140","","","","","","[{""stimulus"":""img/red_ll/1.jpg"",""time"":54},{""stimulus"":""img/red_ll/2.jpg"",""time"":102},{""stimulus"":""img/red_ll/3.jpg"",""time"":158},{""stimulus"":""img/red_ll/4.jpg"",""time"":206},{""stimulus"":""img/red_ll/5.jpg"",""time"":254},{""stimulus"":""img/red_ll/6.jpg"",""time"":302},{""stimulus"":""img/red_ll/7.jpg"",""time"":358},{""stimulus"":""img/red_ll/8.jpg"",""time"":406},{""stimulus"":""img/red_ll/9.jpg"",""time"":454},{""stimulus"":""img/red_ll/10.jpg"",""time"":502},{""stimulus"":""img/red_ll/11.jpg"",""time"":558}]","[]"
"","","","choice","","5ad2c8334d061300011b1985","bdp_lott","Tue Mar 28 2023 14:58:22 GMT-0500 (Central Daylight Time)","303644","red","green","image-keyboard-response","178","167050","0.0-5.0-1.86","","533","","img/red_ll/choose11.jpg","2","139","red","0.5","0.1","0.5","w","",""
"","","","","","5ad2c8334d061300011b1985","bdp_lott","Tue Mar 28 2023 14:58:22 GMT-0500 (Central Daylight Time)","303644","red","green","animation","179","167659","0.0-5.0-2.86","","","","","","139","","","","","","[{""stimulus"":""img/red_lw/1.jpg"",""time"":58},{""stimulus"":""img/red_lw/2.jpg"",""time"":106},{""stimulus"":""img/red_lw/3.jpg"",""time"":154},{""stimulus"":""img/red_lw/4.jpg"",""time"":210},{""stimulus"":""img/red_lw/5.jpg"",""time"":258},{""stimulus"":""img/red_lw/6.jpg"",""time"":306},{""stimulus"":""img/red_lw/7.jpg"",""time"":354},{""stimulus"":""img/red_lw/8.jpg"",""time"":410},{""stimulus"":""img/red_lw/9.jpg"",""time"":458},{""stimulus"":""img/red_lw/10.jpg"",""time"":506},{""stimulus"":""img/red_lw/11.jpg"",""time"":553}]","[]"
"","","","choice","","5ad2c8334d061300011b1985","bdp_lott","Tue Mar 28 2023 14:58:22 GMT-0500 (Central Daylight Time)","303644","red","green","image-keyboard-response","180","168059","0.0-5.0-1.87","","398","","img/red_lw/choose11.jpg","1","138","green","0.5","0.1","0.1","l","",""
"","","","","","5ad2c8334d061300011b1985","bdp_lott","Tue Mar 28 2023 14:58:22 GMT-0500 (Central Daylight Time)","303644","red","green","animation","181","168667","0.0-5.0-2.87","","","","","","138","","","","","","[{""stimulus"":""img/green_lw/1.jpg"",""time"":56},{""stimulus"":""img/green_lw/2.jpg"",""time"":104},{""stimulus"":""img/green_lw/3.jpg"",""time"":152},{""stimulus"":""img/green_lw/4.jpg"",""time"":208},{""stimulus"":""img/green_lw/5.jpg"",""time"":256},{""stimulus"":""img/green_lw/6.jpg"",""time"":304},{""stimulus"":""img/green_lw/7.jpg"",""time"":352},{""stimulus"":""img/green_lw/8.jpg"",""time"":408},{""stimulus"":""img/green_lw/9.jpg"",""time"":456},{""stimulus"":""img/green_lw/10.jpg"",""time"":504},{""stimulus"":""img/green_lw/11.jpg"",""time"":552}]","[]"
"","","","choice","","5ad2c8334d061300011b1985","bdp_lott","Tue Mar 28 2023 14:58:22 GMT-0500 (Central Daylight Time)","303644","red","green","image-keyboard-response","182","169008","0.0-5.0-1.88","","340","","img/green_lw/choose11.jpg","1","137","green","0.5","0.1","0.1","l","",""
"","","","","","5ad2c8334d061300011b1985","bdp_lott","Tue Mar 28 2023 14:58:22 GMT-0500 (Central Daylight Time)","303644","red","green","animation","183","169611","0.0-5.0-2.88","","","","","","137","","","","","","[{""stimulus"":""img/green_lw/1.jpg"",""time"":52},{""stimulus"":""img/green_lw/2.jpg"",""time"":107},{""stimulus"":""img/green_lw/3.jpg"",""time"":156},{""stimulus"":""img/green_lw/4.jpg"",""time"":204},{""stimulus"":""img/green_lw/5.jpg"",""time"":252},{""stimulus"":""img/green_lw/6.jpg"",""time"":308},{""stimulus"":""img/green_lw/7.jpg"",""time"":356},{""stimulus"":""img/green_lw/8.jpg"",""time"":404},{""stimulus"":""img/green_lw/9.jpg"",""time"":451},{""stimulus"":""img/green_lw/10.jpg"",""time"":508},{""stimulus"":""img/green_lw/11.jpg"",""time"":556}]","[]"
"","","","choice","","5ad2c8334d061300011b1985","bdp_lott","Tue Mar 28 2023 14:58:22 GMT-0500 (Central Daylight Time)","303644","red","green","image-keyboard-response","184","169914","0.0-5.0-1.89","","301","","img/green_lw/choose11.jpg","1","136","green","0.5","0.1","0.1","l","",""
"","","","","","5ad2c8334d061300011b1985","bdp_lott","Tue Mar 28 2023 14:58:22 GMT-0500 (Central Daylight Time)","303644","red","green","animation","185","170515","0.0-5.0-2.89","","","","","","136","","","","","","[{""stimulus"":""img/green_lw/1.jpg"",""time"":58},{""stimulus"":""img/green_lw/2.jpg"",""time"":106},{""stimulus"":""img/green_lw/3.jpg"",""time"":154},{""stimulus"":""img/green_lw/4.jpg"",""time"":202},{""stimulus"":""img/green_lw/5.jpg"",""time"":258},{""stimulus"":""img/green_lw/6.jpg"",""time"":306},{""stimulus"":""img/green_lw/7.jpg"",""time"":354},{""stimulus"":""img/green_lw/8.jpg"",""time"":402},{""stimulus"":""img/green_lw/9.jpg"",""time"":459},{""stimulus"":""img/green_lw/10.jpg"",""time"":505},{""stimulus"":""img/green_lw/11.jpg"",""time"":554}]","[]"
"","","","choice","","5ad2c8334d061300011b1985","bdp_lott","Tue Mar 28 2023 14:58:22 GMT-0500 (Central Daylight Time)","303644","red","green","image-keyboard-response","186","170840","0.0-5.0-1.90","","323","","img/green_lw/choose11.jpg","1","135","green","0.5","0.1","0.1","l","",""
"","","","","","5ad2c8334d061300011b1985","bdp_lott","Tue Mar 28 2023 14:58:22 GMT-0500 (Central Daylight Time)","303644","red","green","animation","187","171443","0.0-5.0-2.90","","","","","","135","","","","","","[{""stimulus"":""img/green_lw/1.jpg"",""time"":59},{""stimulus"":""img/green_lw/2.jpg"",""time"":107},{""stimulus"":""img/green_lw/3.jpg"",""time"":155},{""stimulus"":""img/green_lw/4.jpg"",""time"":203},{""stimulus"":""img/green_lw/5.jpg"",""time"":259},{""stimulus"":""img/green_lw/6.jpg"",""time"":307},{""stimulus"":""img/green_lw/7.jpg"",""time"":355},{""stimulus"":""img/green_lw/8.jpg"",""time"":403},{""stimulus"":""img/green_lw/9.jpg"",""time"":459},{""stimulus"":""img/green_lw/10.jpg"",""time"":507},{""stimulus"":""img/green_lw/11.jpg"",""time"":554}]","[]"
"","","","choice","","5ad2c8334d061300011b1985","bdp_lott","Tue Mar 28 2023 14:58:22 GMT-0500 (Central Daylight Time)","303644","red","green","image-keyboard-response","188","171795","0.0-5.0-1.91","","350","","img/green_lw/choose11.jpg","1","134","green","0.5","0.1","0.1","l","",""
