"trial_type","trial_index","time_elapsed","internal_node_id","subject_id","task","startTime","totalTime","fairMachine","unfairMachine","view_history","rt","event","trial","time","trialtype","success","stimulus","key_press","roundsLeft","chosen","pFairMachWin","pUnfairMachWin","pTrialWin","outcome","animation_sequence","responses"
"pavlovia","0","4","0.0-0.0","5f5691fb24d1090e6bcdf1ec","bdp_lott","Sat Mar 25 2023 09:29:23 GMT-0500 (Central Daylight Time)","251858","green","red","","","","","","","","","","","","","","","","",""
"instructions","1","2417","0.0-1.0","5f5691fb24d1090e6bcdf1ec","bdp_lott","Sat Mar 25 2023 09:29:23 GMT-0500 (Central Daylight Time)","251858","green","red","[{""page_index"":0,""viewing_time"":2411}]","2412","","","","","","","","","","","","","","",""
"","","","","5f5691fb24d1090e6bcdf1ec","bdp_lott","Sat Mar 25 2023 09:29:23 GMT-0500 (Central Daylight Time)","251858","green","red","","","fullscreenenter","2","4827","fullscreenenter","","","","","","","","","","",""
"fullscreen","2","5818","0.0-2.0","5f5691fb24d1090e6bcdf1ec","bdp_lott","Sat Mar 25 2023 09:29:23 GMT-0500 (Central Daylight Time)","251858","green","red","","","","","","","true","","","","","","","","","",""
"instructions","3","19225","0.0-4.0","5f5691fb24d1090e6bcdf1ec","bdp_lott","Sat Mar 25 2023 09:29:23 GMT-0500 (Central Daylight Time)","251858","green","red","[{""page_index"":0,""viewing_time"":13401}]","13401","","","","","","","","","","","","","","",""
"image-keyboard-response","4","23016","0.0-5.0-1.0","5f5691fb24d1090e6bcdf1ec","bdp_lott","Sat Mar 25 2023 09:29:23 GMT-0500 (Central Daylight Time)","251858","green","red","","3788","","","","choice","","img/red_ll/initchoose11.jpg","1","225","green","0.5","0.5","0.5","w","",""
"animation","5","23622","0.0-5.0-2.0","5f5691fb24d1090e6bcdf1ec","bdp_lott","Sat Mar 25 2023 09:29:23 GMT-0500 (Central Daylight Time)","251858","green","red","","","","","","","","","","225","","","","","","[{""stimulus"":""img/green_wl/1.jpg"",""time"":55},{""stimulus"":""img/green_wl/2.jpg"",""time"":101},{""stimulus"":""img/green_wl/3.jpg"",""time"":150},{""stimulus"":""img/green_wl/4.jpg"",""time"":205},{""stimulus"":""img/green_wl/5.jpg"",""time"":255},{""stimulus"":""img/green_wl/6.jpg"",""time"":305},{""stimulus"":""img/green_wl/7.jpg"",""time"":355},{""stimulus"":""img/green_wl/8.jpg"",""time"":405},{""stimulus"":""img/green_wl/9.jpg"",""time"":455},{""stimulus"":""img/green_wl/10.jpg"",""time"":501},{""stimulus"":""img/green_wl/11.jpg"",""time"":555}]","[]"
"image-keyboard-response","6","24916","0.0-5.0-1.1","5f5691fb24d1090e6bcdf1ec","bdp_lott","Sat Mar 25 2023 09:29:23 GMT-0500 (Central Daylight Time)","251858","green","red","","1291","","","","choice","","img/green_wl/choose11.jpg","1","224","green","0.5","0.5","0.5","w","",""
"animation","7","25522","0.0-5.0-2.1","5f5691fb24d1090e6bcdf1ec","bdp_lott","Sat Mar 25 2023 09:29:23 GMT-0500 (Central Daylight Time)","251858","green","red","","","","","","","","","","224","","","","","","[{""stimulus"":""img/green_wl/1.jpg"",""time"":57},{""stimulus"":""img/green_wl/2.jpg"",""time"":102},{""stimulus"":""img/green_wl/3.jpg"",""time"":152},{""stimulus"":""img/green_wl/4.jpg"",""time"":206},{""stimulus"":""img/green_wl/5.jpg"",""time"":252},{""stimulus"":""img/green_wl/6.jpg"",""time"":306},{""stimulus"":""img/green_wl/7.jpg"",""time"":356},{""stimulus"":""img/green_wl/8.jpg"",""time"":406},{""stimulus"":""img/green_wl/9.jpg"",""time"":456},{""stimulus"":""img/green_wl/10.jpg"",""time"":502},{""stimulus"":""img/green_wl/11.jpg"",""time"":556}]","[]"
"image-keyboard-response","8","26324","0.0-5.0-1.2","5f5691fb24d1090e6bcdf1ec","bdp_lott","Sat Mar 25 2023 09:29:23 GMT-0500 (Central Daylight Time)","251858","green","red","","799","","","","choice","","img/green_wl/choose11.jpg","1","223","green","0.5","0.5","0.5","w","",""
"animation","9","26927","0.0-5.0-2.2","5f5691fb24d1090e6bcdf1ec","bdp_lott","Sat Mar 25 2023 09:29:23 GMT-0500 (Central Daylight Time)","251858","green","red","","","","","","","","","","223","","","","","","[{""stimulus"":""img/green_wl/1.jpg"",""time"":56},{""stimulus"":""img/green_wl/2.jpg"",""time"":101},{""stimulus"":""img/green_wl/3.jpg"",""time"":152},{""stimulus"":""img/green_wl/4.jpg"",""time"":203},{""stimulus"":""img/green_wl/5.jpg"",""time"":252},{""stimulus"":""img/green_wl/6.jpg"",""time"":302},{""stimulus"":""img/green_wl/7.jpg"",""time"":352},{""stimulus"":""img/green_wl/8.jpg"",""time"":402},{""stimulus"":""img/green_wl/9.jpg"",""time"":452},{""stimulus"":""img/green_wl/10.jpg"",""time"":502},{""stimulus"":""img/green_wl/11.jpg"",""time"":552}]","[]"
"image-keyboard-response","10","27420","0.0-5.0-1.3","5f5691fb24d1090e6bcdf1ec","bdp_lott","Sat Mar 25 2023 09:29:23 GMT-0500 (Central Daylight Time)","251858","green","red","","491","","","","choice","","img/green_wl/choose11.jpg","1","222","green","0.5","0.5","0.5","l","",""
"animation","11","28026","0.0-5.0-2.3","5f5691fb24d1090e6bcdf1ec","bdp_lott","Sat Mar 25 2023 09:29:23 GMT-0500 (Central Daylight Time)","251858","green","red","","","","","","","","","","222","","","","","","[{""stimulus"":""img/green_ll/1.jpg"",""time"":56},{""stimulus"":""img/green_ll/2.jpg"",""time"":101},{""stimulus"":""img/green_ll/3.jpg"",""time"":155},{""stimulus"":""img/green_ll/4.jpg"",""time"":201},{""stimulus"":""img/green_ll/5.jpg"",""time"":255},{""stimulus"":""img/green_ll/6.jpg"",""time"":301},{""stimulus"":""img/green_ll/7.jpg"",""time"":355},{""stimulus"":""img/green_ll/8.jpg"",""time"":405},{""stimulus"":""img/green_ll/9.jpg"",""time"":455},{""stimulus"":""img/green_ll/10.jpg"",""time"":501},{""stimulus"":""img/green_ll/11.jpg"",""time"":555}]","[]"
"image-keyboard-response","12","28550","0.0-5.0-1.4","5f5691fb24d1090e6bcdf1ec","bdp_lott","Sat Mar 25 2023 09:29:23 GMT-0500 (Central Daylight Time)","251858","green","red","","521","","","","choice","","img/green_ll/choose11.jpg","1","221","green","0.5","0.5","0.5","w","",""
"animation","13","29155","0.0-5.0-2.4","5f5691fb24d1090e6bcdf1ec","bdp_lott","Sat Mar 25 2023 09:29:23 GMT-0500 (Central Daylight Time)","251858","green","red","","","","","","","","","","221","","","","","","[{""stimulus"":""img/green_wl/1.jpg"",""time"":57},{""stimulus"":""img/green_wl/2.jpg"",""time"":102},{""stimulus"":""img/green_wl/3.jpg"",""time"":151},{""stimulus"":""img/green_wl/4.jpg"",""time"":205},{""stimulus"":""img/green_wl/5.jpg"",""time"":251},{""stimulus"":""img/green_wl/6.jpg"",""time"":306},{""stimulus"":""img/green_wl/7.jpg"",""time"":356},{""stimulus"":""img/green_wl/8.jpg"",""time"":405},{""stimulus"":""img/green_wl/9.jpg"",""time"":455},{""stimulus"":""img/green_wl/10.jpg"",""time"":501},{""stimulus"":""img/green_wl/11.jpg"",""time"":555}]","[]"
"image-keyboard-response","14","29418","0.0-5.0-1.5","5f5691fb24d1090e6bcdf1ec","bdp_lott","Sat Mar 25 2023 09:29:23 GMT-0500 (Central Daylight Time)","251858","green","red","","262","","","","choice","","img/green_wl/choose11.jpg","1","220","green","0.5","0.5","0.5","w","",""
"animation","15","30022","0.0-5.0-2.5","5f5691fb24d1090e6bcdf1ec","bdp_lott","Sat Mar 25 2023 09:29:23 GMT-0500 (Central Daylight Time)","251858","green","red","","","","","","","","","","220","","","","","","[{""stimulus"":""img/green_wl/1.jpg"",""time"":56},{""stimulus"":""img/green_wl/2.jpg"",""time"":104},{""stimulus"":""img/green_wl/3.jpg"",""time"":153},{""stimulus"":""img/green_wl/4.jpg"",""time"":200},{""stimulus"":""img/green_wl/5.jpg"",""time"":253},{""stimulus"":""img/green_wl/6.jpg"",""time"":303},{""stimulus"":""img/green_wl/7.jpg"",""time"":353},{""stimulus"":""img/green_wl/8.jpg"",""time"":403},{""stimulus"":""img/green_wl/9.jpg"",""time"":453},{""stimulus"":""img/green_wl/10.jpg"",""time"":503},{""stimulus"":""img/green_wl/11.jpg"",""time"":553}]","[]"
"image-keyboard-response","16","30090","0.0-5.0-1.6","5f5691fb24d1090e6bcdf1ec","bdp_lott","Sat Mar 25 2023 09:29:23 GMT-0500 (Central Daylight Time)","251858","green","red","","66","","","","choice","","img/green_wl/choose11.jpg","1","219","green","0.5","0.5","0.5","l","",""
"animation","17","30693","0.0-5.0-2.6","5f5691fb24d1090e6bcdf1ec","bdp_lott","Sat Mar 25 2023 09:29:23 GMT-0500 (Central Daylight Time)","251858","green","red","","","","","","","","","","219","","","","","","[{""stimulus"":""img/green_ll/1.jpg"",""time"":54},{""stimulus"":""img/green_ll/2.jpg"",""time"":102},{""stimulus"":""img/green_ll/3.jpg"",""time"":150},{""stimulus"":""img/green_ll/4.jpg"",""time"":202},{""stimulus"":""img/green_ll/5.jpg"",""time"":252},{""stimulus"":""img/green_ll/6.jpg"",""time"":302},{""stimulus"":""img/green_ll/7.jpg"",""time"":352},{""stimulus"":""img/green_ll/8.jpg"",""time"":402},{""stimulus"":""img/green_ll/9.jpg"",""time"":452},{""stimulus"":""img/green_ll/10.jpg"",""time"":502},{""stimulus"":""img/green_ll/11.jpg"",""time"":552}]","[]"
"image-keyboard-response","18","30806","0.0-5.0-1.7","5f5691fb24d1090e6bcdf1ec","bdp_lott","Sat Mar 25 2023 09:29:23 GMT-0500 (Central Daylight Time)","251858","green","red","","112","","","","choice","","img/green_ll/choose11.jpg","1","218","green","0.5","0.5","0.5","w","",""
"animation","19","31409","0.0-5.0-2.7","5f5691fb24d1090e6bcdf1ec","bdp_lott","Sat Mar 25 2023 09:29:23 GMT-0500 (Central Daylight Time)","251858","green","red","","","","","","","","","","218","","","","","","[{""stimulus"":""img/green_wl/1.jpg"",""time"":52},{""stimulus"":""img/green_wl/2.jpg"",""time"":104},{""stimulus"":""img/green_wl/3.jpg"",""time"":154},{""stimulus"":""img/green_wl/4.jpg"",""time"":204},{""stimulus"":""img/green_wl/5.jpg"",""time"":253},{""stimulus"":""img/green_wl/6.jpg"",""time"":303},{""stimulus"":""img/green_wl/7.jpg"",""time"":354},{""stimulus"":""img/green_wl/8.jpg"",""time"":403},{""stimulus"":""img/green_wl/9.jpg"",""time"":453},{""stimulus"":""img/green_wl/10.jpg"",""time"":504},{""stimulus"":""img/green_wl/11.jpg"",""time"":554}]","[]"
"image-keyboard-response","20","31458","0.0-5.0-1.8","5f5691fb24d1090e6bcdf1ec","bdp_lott","Sat Mar 25 2023 09:29:23 GMT-0500 (Central Daylight Time)","251858","green","red","","47","","","","choice","","img/green_wl/choose11.jpg","1","217","green","0.5","0.5","0.5","w","",""
"animation","21","32063","0.0-5.0-2.8","5f5691fb24d1090e6bcdf1ec","bdp_lott","Sat Mar 25 2023 09:29:23 GMT-0500 (Central Daylight Time)","251858","green","red","","","","","","","","","","217","","","","","","[{""stimulus"":""img/green_wl/1.jpg"",""time"":54},{""stimulus"":""img/green_wl/2.jpg"",""time"":105},{""stimulus"":""img/green_wl/3.jpg"",""time"":155},{""stimulus"":""img/green_wl/4.jpg"",""time"":205},{""stimulus"":""img/green_wl/5.jpg"",""time"":255},{""stimulus"":""img/green_wl/6.jpg"",""time"":305},{""stimulus"":""img/green_wl/7.jpg"",""time"":355},{""stimulus"":""img/green_wl/8.jpg"",""time"":405},{""stimulus"":""img/green_wl/9.jpg"",""time"":455},{""stimulus"":""img/green_wl/10.jpg"",""time"":501},{""stimulus"":""img/green_wl/11.jpg"",""time"":555}]","[]"
"image-keyboard-response","22","32101","0.0-5.0-1.9","5f5691fb24d1090e6bcdf1ec","bdp_lott","Sat Mar 25 2023 09:29:23 GMT-0500 (Central Daylight Time)","251858","green","red","","36","","","","choice","","img/green_wl/choose11.jpg","1","216","green","0.5","0.5","0.5","l","",""
"animation","23","32705","0.0-5.0-2.9","5f5691fb24d1090e6bcdf1ec","bdp_lott","Sat Mar 25 2023 09:29:23 GMT-0500 (Central Daylight Time)","251858","green","red","","","","","","","","","","216","","","","","","[{""stimulus"":""img/green_ll/1.jpg"",""time"":55},{""stimulus"":""img/green_ll/2.jpg"",""time"":104},{""stimulus"":""img/green_ll/3.jpg"",""time"":153},{""stimulus"":""img/green_ll/4.jpg"",""time"":204},{""stimulus"":""img/green_ll/5.jpg"",""time"":254},{""stimulus"":""img/green_ll/6.jpg"",""time"":303},{""stimulus"":""img/green_ll/7.jpg"",""time"":353},{""stimulus"":""img/green_ll/8.jpg"",""time"":403},{""stimulus"":""img/green_ll/9.jpg"",""time"":453},{""stimulus"":""img/green_ll/10.jpg"",""time"":503},{""stimulus"":""img/green_ll/11.jpg"",""time"":553}]","[]"
"image-keyboard-response","24","32963","0.0-5.0-1.10","5f5691fb24d1090e6bcdf1ec","bdp_lott","Sat Mar 25 2023 09:29:23 GMT-0500 (Central Daylight Time)","251858","green","red","","256","","","","choice","","img/green_ll/choose11.jpg","2","215","red","0.5","0.5","0.5","l","",""
"animation","25","33568","0.0-5.0-2.10","5f5691fb24d1090e6bcdf1ec","bdp_lott","Sat Mar 25 2023 09:29:23 GMT-0500 (Central Daylight Time)","251858","green","red","","","","","","","","","","215","","","","","","[{""stimulus"":""img/red_ll/1.jpg"",""time"":54},{""stimulus"":""img/red_ll/2.jpg"",""time"":104},{""stimulus"":""img/red_ll/3.jpg"",""time"":154},{""stimulus"":""img/red_ll/4.jpg"",""time"":204},{""stimulus"":""img/red_ll/5.jpg"",""time"":254},{""stimulus"":""img/red_ll/6.jpg"",""time"":304},{""stimulus"":""img/red_ll/7.jpg"",""time"":354},{""stimulus"":""img/red_ll/8.jpg"",""time"":404},{""stimulus"":""img/red_ll/9.jpg"",""time"":454},{""stimulus"":""img/red_ll/10.jpg"",""time"":504},{""stimulus"":""img/red_ll/11.jpg"",""time"":554}]","[]"
"image-keyboard-response","26","34040","0.0-5.0-1.11","5f5691fb24d1090e6bcdf1ec","bdp_lott","Sat Mar 25 2023 09:29:23 GMT-0500 (Central Daylight Time)","251858","green","red","","471","","","","choice","","img/red_ll/choose11.jpg","1","214","green","0.5","0.5","0.5","l","",""
"animation","27","34642","0.0-5.0-2.11","5f5691fb24d1090e6bcdf1ec","bdp_lott","Sat Mar 25 2023 09:29:23 GMT-0500 (Central Daylight Time)","251858","green","red","","","","","","","","","","214","","","","","","[{""stimulus"":""img/green_ll/1.jpg"",""time"":55},{""stimulus"":""img/green_ll/2.jpg"",""time"":102},{""stimulus"":""img/green_ll/3.jpg"",""time"":152},{""stimulus"":""img/green_ll/4.jpg"",""time"":202},{""stimulus"":""img/green_ll/5.jpg"",""time"":252},{""stimulus"":""img/green_ll/6.jpg"",""time"":302},{""stimulus"":""img/green_ll/7.jpg"",""time"":352},{""stimulus"":""img/green_ll/8.jpg"",""time"":402},{""stimulus"":""img/green_ll/9.jpg"",""time"":452},{""stimulus"":""img/green_ll/10.jpg"",""time"":502},{""stimulus"":""img/green_ll/11.jpg"",""time"":552}]","[]"
"image-keyboard-response","28","34737","0.0-5.0-1.12","5f5691fb24d1090e6bcdf1ec","bdp_lott","Sat Mar 25 2023 09:29:23 GMT-0500 (Central Daylight Time)","251858","green","red","","93","","","","choice","","img/green_ll/choose11.jpg","2","213","red","0.5","0.5","0.5","w","",""
"animation","29","35338","0.0-5.0-2.12","5f5691fb24d1090e6bcdf1ec","bdp_lott","Sat Mar 25 2023 09:29:23 GMT-0500 (Central Daylight Time)","251858","green","red","","","","","","","","","","213","","","","","","[{""stimulus"":""img/red_lw/1.jpg"",""time"":56},{""stimulus"":""img/red_lw/2.jpg"",""time"":100},{""stimulus"":""img/red_lw/3.jpg"",""time"":155},{""stimulus"":""img/red_lw/4.jpg"",""time"":205},{""stimulus"":""img/red_lw/5.jpg"",""time"":251},{""stimulus"":""img/red_lw/6.jpg"",""time"":306},{""stimulus"":""img/red_lw/7.jpg"",""time"":352},{""stimulus"":""img/red_lw/8.jpg"",""time"":405},{""stimulus"":""img/red_lw/9.jpg"",""time"":455},{""stimulus"":""img/red_lw/10.jpg"",""time"":505},{""stimulus"":""img/red_lw/11.jpg"",""time"":555}]","[]"
"image-keyboard-response","30","35389","0.0-5.0-1.13","5f5691fb24d1090e6bcdf1ec","bdp_lott","Sat Mar 25 2023 09:29:23 GMT-0500 (Central Daylight Time)","251858","green","red","","49","","","","choice","","img/red_lw/choose11.jpg","1","212","green","0.5","0.5","0.5","l","",""
"animation","31","35991","0.0-5.0-2.13","5f5691fb24d1090e6bcdf1ec","bdp_lott","Sat Mar 25 2023 09:29:23 GMT-0500 (Central Daylight Time)","251858","green","red","","","","","","","","","","212","","","","","","[{""stimulus"":""img/green_lw/1.jpg"",""time"":54},{""stimulus"":""img/green_lw/2.jpg"",""time"":102},{""stimulus"":""img/green_lw/3.jpg"",""time"":153},{""stimulus"":""img/green_lw/4.jpg"",""time"":202},{""stimulus"":""img/green_lw/5.jpg"",""time"":253},{""stimulus"":""img/green_lw/6.jpg"",""time"":302},{""stimulus"":""img/green_lw/7.jpg"",""time"":353},{""stimulus"":""img/green_lw/8.jpg"",""time"":405},{""stimulus"":""img/green_lw/9.jpg"",""time"":453},{""stimulus"":""img/green_lw/10.jpg"",""time"":503},{""stimulus"":""img/green_lw/11.jpg"",""time"":553}]","[]"
"image-keyboard-response","32","36000","0.0-5.0-1.14","5f5691fb24d1090e6bcdf1ec","bdp_lott","Sat Mar 25 2023 09:29:23 GMT-0500 (Central Daylight Time)","251858","green","red","","6","","","","choice","","img/green_lw/choose11.jpg","1","211","green","0.5","0.5","0.5","w","",""
"animation","33","36605","0.0-5.0-2.14","5f5691fb24d1090e6bcdf1ec","bdp_lott","Sat Mar 25 2023 09:29:23 GMT-0500 (Central Daylight Time)","251858","green","red","","","","","","","","","","211","","","","","","[{""stimulus"":""img/green_ww/1.jpg"",""time"":52},{""stimulus"":""img/green_ww/2.jpg"",""time"":101},{""stimulus"":""img/green_ww/3.jpg"",""time"":155},{""stimulus"":""img/green_ww/4.jpg"",""time"":206},{""stimulus"":""img/green_ww/5.jpg"",""time"":255},{""stimulus"":""img/green_ww/6.jpg"",""time"":305},{""stimulus"":""img/green_ww/7.jpg"",""time"":355},{""stimulus"":""img/green_ww/8.jpg"",""time"":401},{""stimulus"":""img/green_ww/9.jpg"",""time"":455},{""stimulus"":""img/green_ww/10.jpg"",""time"":501},{""stimulus"":""img/green_ww/11.jpg"",""time"":551}]","[]"
"image-keyboard-response","34","36920","0.0-5.0-1.15","5f5691fb24d1090e6bcdf1ec","bdp_lott","Sat Mar 25 2023 09:29:23 GMT-0500 (Central Daylight Time)","251858","green","red","","313","","","","choice","","img/green_ww/choose11.jpg","2","210","red","0.5","0.5","0.5","w","",""
"animation","35","37526","0.0-5.0-2.15","5f5691fb24d1090e6bcdf1ec","bdp_lott","Sat Mar 25 2023 09:29:23 GMT-0500 (Central Daylight Time)","251858","green","red","","","","","","","","","","210","","","","","","[{""stimulus"":""img/red_ww/1.jpg"",""time"":56},{""stimulus"":""img/red_ww/2.jpg"",""time"":101},{""stimulus"":""img/red_ww/3.jpg"",""time"":155},{""stimulus"":""img/red_ww/4.jpg"",""time"":205},{""stimulus"":""img/red_ww/5.jpg"",""time"":255},{""stimulus"":""img/red_ww/6.jpg"",""time"":305},{""stimulus"":""img/red_ww/7.jpg"",""time"":351},{""stimulus"":""img/red_ww/8.jpg"",""time"":405},{""stimulus"":""img/red_ww/9.jpg"",""time"":455},{""stimulus"":""img/red_ww/10.jpg"",""time"":501},{""stimulus"":""img/red_ww/11.jpg"",""time"":556}]","[]"
"image-keyboard-response","36","37920","0.0-5.0-1.16","5f5691fb24d1090e6bcdf1ec","bdp_lott","Sat Mar 25 2023 09:29:23 GMT-0500 (Central Daylight Time)","251858","green","red","","393","","","","choice","","img/red_ww/choose11.jpg","1","209","green","0.5","0.5","0.5","w","",""
"animation","37","38526","0.0-5.0-2.16","5f5691fb24d1090e6bcdf1ec","bdp_lott","Sat Mar 25 2023 09:29:23 GMT-0500 (Central Daylight Time)","251858","green","red","","","","","","","","","","209","","","","","","[{""stimulus"":""img/green_ww/1.jpg"",""time"":56},{""stimulus"":""img/green_ww/2.jpg"",""time"":101},{""stimulus"":""img/green_ww/3.jpg"",""time"":155},{""stimulus"":""img/green_ww/4.jpg"",""time"":205},{""stimulus"":""img/green_ww/5.jpg"",""time"":255},{""stimulus"":""img/green_ww/6.jpg"",""time"":301},{""stimulus"":""img/green_ww/7.jpg"",""time"":355},{""stimulus"":""img/green_ww/8.jpg"",""time"":405},{""stimulus"":""img/green_ww/9.jpg"",""time"":455},{""stimulus"":""img/green_ww/10.jpg"",""time"":501},{""stimulus"":""img/green_ww/11.jpg"",""time"":554}]","[]"
"image-keyboard-response","38","38892","0.0-5.0-1.17","5f5691fb24d1090e6bcdf1ec","bdp_lott","Sat Mar 25 2023 09:29:23 GMT-0500 (Central Daylight Time)","251858","green","red","","365","","","","choice","","img/green_ww/choose11.jpg","2","208","red","0.5","0.5","0.5","w","",""
"animation","39","39497","0.0-5.0-2.17","5f5691fb24d1090e6bcdf1ec","bdp_lott","Sat Mar 25 2023 09:29:23 GMT-0500 (Central Daylight Time)","251858","green","red","","","","","","","","","","208","","","","","","[{""stimulus"":""img/red_ww/1.jpg"",""time"":56},{""stimulus"":""img/red_ww/2.jpg"",""time"":101},{""stimulus"":""img/red_ww/3.jpg"",""time"":155},{""stimulus"":""img/red_ww/4.jpg"",""time"":205},{""stimulus"":""img/red_ww/5.jpg"",""time"":255},{""stimulus"":""img/red_ww/6.jpg"",""time"":305},{""stimulus"":""img/red_ww/7.jpg"",""time"":355},{""stimulus"":""img/red_ww/8.jpg"",""time"":405},{""stimulus"":""img/red_ww/9.jpg"",""time"":455},{""stimulus"":""img/red_ww/10.jpg"",""time"":505},{""stimulus"":""img/red_ww/11.jpg"",""time"":555}]","[]"
"image-keyboard-response","40","39502","0.0-5.0-1.18","5f5691fb24d1090e6bcdf1ec","bdp_lott","Sat Mar 25 2023 09:29:23 GMT-0500 (Central Daylight Time)","251858","green","red","","3","","","","choice","","img/red_ww/choose11.jpg","2","207","red","0.5","0.5","0.5","w","",""
"animation","41","40103","0.0-5.0-2.18","5f5691fb24d1090e6bcdf1ec","bdp_lott","Sat Mar 25 2023 09:29:23 GMT-0500 (Central Daylight Time)","251858","green","red","","","","","","","","","","207","","","","","","[{""stimulus"":""img/red_ww/1.jpg"",""time"":51},{""stimulus"":""img/red_ww/2.jpg"",""time"":102},{""stimulus"":""img/red_ww/3.jpg"",""time"":152},{""stimulus"":""img/red_ww/4.jpg"",""time"":202},{""stimulus"":""img/red_ww/5.jpg"",""time"":252},{""stimulus"":""img/red_ww/6.jpg"",""time"":302},{""stimulus"":""img/red_ww/7.jpg"",""time"":353},{""stimulus"":""img/red_ww/8.jpg"",""time"":403},{""stimulus"":""img/red_ww/9.jpg"",""time"":454},{""stimulus"":""img/red_ww/10.jpg"",""time"":503},{""stimulus"":""img/red_ww/11.jpg"",""time"":554}]","[]"
"image-keyboard-response","42","40182","0.0-5.0-1.19","5f5691fb24d1090e6bcdf1ec","bdp_lott","Sat Mar 25 2023 09:29:23 GMT-0500 (Central Daylight Time)","251858","green","red","","77","","","","choice","","img/red_ww/choose11.jpg","2","206","red","0.5","0.5","0.5","l","",""
"animation","43","40784","0.0-5.0-2.19","5f5691fb24d1090e6bcdf1ec","bdp_lott","Sat Mar 25 2023 09:29:23 GMT-0500 (Central Daylight Time)","251858","green","red","","","","","","","","","","206","","","","","","[{""stimulus"":""img/red_wl/1.jpg"",""time"":56},{""stimulus"":""img/red_wl/2.jpg"",""time"":102},{""stimulus"":""img/red_wl/3.jpg"",""time"":152},{""stimulus"":""img/red_wl/4.jpg"",""time"":202},{""stimulus"":""img/red_wl/5.jpg"",""time"":252},{""stimulus"":""img/red_wl/6.jpg"",""time"":301},{""stimulus"":""img/red_wl/7.jpg"",""time"":355},{""stimulus"":""img/red_wl/8.jpg"",""time"":405},{""stimulus"":""img/red_wl/9.jpg"",""time"":451},{""stimulus"":""img/red_wl/10.jpg"",""time"":502},{""stimulus"":""img/red_wl/11.jpg"",""time"":555}]","[]"
"image-keyboard-response","44","41135","0.0-5.0-1.20","5f5691fb24d1090e6bcdf1ec","bdp_lott","Sat Mar 25 2023 09:29:23 GMT-0500 (Central Daylight Time)","251858","green","red","","350","","","","choice","","img/red_wl/choose11.jpg","1","205","green","0.5","0.5","0.5","l","",""
"animation","45","41738","0.0-5.0-2.20","5f5691fb24d1090e6bcdf1ec","bdp_lott","Sat Mar 25 2023 09:29:23 GMT-0500 (Central Daylight Time)","251858","green","red","","","","","","","","","","205","","","","","","[{""stimulus"":""img/green_ll/1.jpg"",""time"":55},{""stimulus"":""img/green_ll/2.jpg"",""time"":103},{""stimulus"":""img/green_ll/3.jpg"",""time"":152},{""stimulus"":""img/green_ll/4.jpg"",""time"":203},{""stimulus"":""img/green_ll/5.jpg"",""time"":253},{""stimulus"":""img/green_ll/6.jpg"",""time"":303},{""stimulus"":""img/green_ll/7.jpg"",""time"":353},{""stimulus"":""img/green_ll/8.jpg"",""time"":403},{""stimulus"":""img/green_ll/9.jpg"",""time"":454},{""stimulus"":""img/green_ll/10.jpg"",""time"":503},{""stimulus"":""img/green_ll/11.jpg"",""time"":553}]","[]"
"image-keyboard-response","46","42177","0.0-5.0-1.21","5f5691fb24d1090e6bcdf1ec","bdp_lott","Sat Mar 25 2023 09:29:23 GMT-0500 (Central Daylight Time)","251858","green","red","","437","","","","choice","","img/green_ll/choose11.jpg","1","204","green","0.5","0.5","0.5","w","",""
"animation","47","42782","0.0-5.0-2.21","5f5691fb24d1090e6bcdf1ec","bdp_lott","Sat Mar 25 2023 09:29:23 GMT-0500 (Central Daylight Time)","251858","green","red","","","","","","","","","","204","","","","","","[{""stimulus"":""img/green_wl/1.jpg"",""time"":55},{""stimulus"":""img/green_wl/2.jpg"",""time"":104},{""stimulus"":""img/green_wl/3.jpg"",""time"":155},{""stimulus"":""img/green_wl/4.jpg"",""time"":205},{""stimulus"":""img/green_wl/5.jpg"",""time"":252},{""stimulus"":""img/green_wl/6.jpg"",""time"":305},{""stimulus"":""img/green_wl/7.jpg"",""time"":355},{""stimulus"":""img/green_wl/8.jpg"",""time"":405},{""stimulus"":""img/green_wl/9.jpg"",""time"":455},{""stimulus"":""img/green_wl/10.jpg"",""time"":502},{""stimulus"":""img/green_wl/11.jpg"",""time"":555}]","[]"
"image-keyboard-response","48","43177","0.0-5.0-1.22","5f5691fb24d1090e6bcdf1ec","bdp_lott","Sat Mar 25 2023 09:29:23 GMT-0500 (Central Daylight Time)","251858","green","red","","393","","","","choice","","img/green_wl/choose11.jpg","1","203","green","0.5","0.5","0.5","w","",""
"animation","49","43783","0.0-5.0-2.22","5f5691fb24d1090e6bcdf1ec","bdp_lott","Sat Mar 25 2023 09:29:23 GMT-0500 (Central Daylight Time)","251858","green","red","","","","","","","","","","203","","","","","","[{""stimulus"":""img/green_wl/1.jpg"",""time"":56},{""stimulus"":""img/green_wl/2.jpg"",""time"":104},{""stimulus"":""img/green_wl/3.jpg"",""time"":155},{""stimulus"":""img/green_wl/4.jpg"",""time"":205},{""stimulus"":""img/green_wl/5.jpg"",""time"":255},{""stimulus"":""img/green_wl/6.jpg"",""time"":305},{""stimulus"":""img/green_wl/7.jpg"",""time"":355},{""stimulus"":""img/green_wl/8.jpg"",""time"":405},{""stimulus"":""img/green_wl/9.jpg"",""time"":455},{""stimulus"":""img/green_wl/10.jpg"",""time"":502},{""stimulus"":""img/green_wl/11.jpg"",""time"":555}]","[]"
"image-keyboard-response","50","44120","0.0-5.0-1.23","5f5691fb24d1090e6bcdf1ec","bdp_lott","Sat Mar 25 2023 09:29:23 GMT-0500 (Central Daylight Time)","251858","green","red","","336","","","","choice","","img/green_wl/choose11.jpg","1","202","green","0.5","0.5","0.5","l","",""
"animation","51","44722","0.0-5.0-2.23","5f5691fb24d1090e6bcdf1ec","bdp_lott","Sat Mar 25 2023 09:29:23 GMT-0500 (Central Daylight Time)","251858","green","red","","","","","","","","","","202","","","","","","[{""stimulus"":""img/green_ll/1.jpg"",""time"":52},{""stimulus"":""img/green_ll/2.jpg"",""time"":102},{""stimulus"":""img/green_ll/3.jpg"",""time"":152},{""stimulus"":""img/green_ll/4.jpg"",""time"":205},{""stimulus"":""img/green_ll/5.jpg"",""time"":252},{""stimulus"":""img/green_ll/6.jpg"",""time"":304},{""stimulus"":""img/green_ll/7.jpg"",""time"":352},{""stimulus"":""img/green_ll/8.jpg"",""time"":406},{""stimulus"":""img/green_ll/9.jpg"",""time"":452},{""stimulus"":""img/green_ll/10.jpg"",""time"":502},{""stimulus"":""img/green_ll/11.jpg"",""time"":552}]","[]"
"image-keyboard-response","52","45074","0.0-5.0-1.24","5f5691fb24d1090e6bcdf1ec","bdp_lott","Sat Mar 25 2023 09:29:23 GMT-0500 (Central Daylight Time)","251858","green","red","","351","","","","choice","","img/green_ll/choose11.jpg","1","201","green","0.5","0.5","0.5","w","",""
"animation","53","45680","0.0-5.0-2.24","5f5691fb24d1090e6bcdf1ec","bdp_lott","Sat Mar 25 2023 09:29:23 GMT-0500 (Central Daylight Time)","251858","green","red","","","","","","","","","","201","","","","","","[{""stimulus"":""img/green_wl/1.jpg"",""time"":52},{""stimulus"":""img/green_wl/2.jpg"",""time"":102},{""stimulus"":""img/green_wl/3.jpg"",""time"":156},{""stimulus"":""img/green_wl/4.jpg"",""time"":201},{""stimulus"":""img/green_wl/5.jpg"",""time"":255},{""stimulus"":""img/green_wl/6.jpg"",""time"":305},{""stimulus"":""img/green_wl/7.jpg"",""time"":356},{""stimulus"":""img/green_wl/8.jpg"",""time"":405},{""stimulus"":""img/green_wl/9.jpg"",""time"":455},{""stimulus"":""img/green_wl/10.jpg"",""time"":501},{""stimulus"":""img/green_wl/11.jpg"",""time"":555}]","[]"
"image-keyboard-response","54","45687","0.0-5.0-1.25","5f5691fb24d1090e6bcdf1ec","bdp_lott","Sat Mar 25 2023 09:29:23 GMT-0500 (Central Daylight Time)","251858","green","red","","4","","","","choice","","img/green_wl/choose11.jpg","1","200","green","0.5","0.5","0.5","w","",""
"animation","55","46288","0.0-5.0-2.25","5f5691fb24d1090e6bcdf1ec","bdp_lott","Sat Mar 25 2023 09:29:23 GMT-0500 (Central Daylight Time)","251858","green","red","","","","","","","","","","200","","","","","","[{""stimulus"":""img/green_wl/1.jpg"",""time"":51},{""stimulus"":""img/green_wl/2.jpg"",""time"":102},{""stimulus"":""img/green_wl/3.jpg"",""time"":152},{""stimulus"":""img/green_wl/4.jpg"",""time"":203},{""stimulus"":""img/green_wl/5.jpg"",""time"":252},{""stimulus"":""img/green_wl/6.jpg"",""time"":302},{""stimulus"":""img/green_wl/7.jpg"",""time"":352},{""stimulus"":""img/green_wl/8.jpg"",""time"":403},{""stimulus"":""img/green_wl/9.jpg"",""time"":453},{""stimulus"":""img/green_wl/10.jpg"",""time"":502},{""stimulus"":""img/green_wl/11.jpg"",""time"":552}]","[]"
"image-keyboard-response","56","46403","0.0-5.0-1.26","5f5691fb24d1090e6bcdf1ec","bdp_lott","Sat Mar 25 2023 09:29:23 GMT-0500 (Central Daylight Time)","251858","green","red","","114","","","","choice","","img/green_wl/choose11.jpg","1","199","green","0.5","0.5","0.5","w","",""
"animation","57","47009","0.0-5.0-2.26","5f5691fb24d1090e6bcdf1ec","bdp_lott","Sat Mar 25 2023 09:29:23 GMT-0500 (Central Daylight Time)","251858","green","red","","","","","","","","","","199","","","","","","[{""stimulus"":""img/green_wl/1.jpg"",""time"":56},{""stimulus"":""img/green_wl/2.jpg"",""time"":101},{""stimulus"":""img/green_wl/3.jpg"",""time"":155},{""stimulus"":""img/green_wl/4.jpg"",""time"":206},{""stimulus"":""img/green_wl/5.jpg"",""time"":251},{""stimulus"":""img/green_wl/6.jpg"",""time"":306},{""stimulus"":""img/green_wl/7.jpg"",""time"":356},{""stimulus"":""img/green_wl/8.jpg"",""time"":406},{""stimulus"":""img/green_wl/9.jpg"",""time"":456},{""stimulus"":""img/green_wl/10.jpg"",""time"":501},{""stimulus"":""img/green_wl/11.jpg"",""time"":555}]","[]"
"image-keyboard-response","58","47012","0.0-5.0-1.27","5f5691fb24d1090e6bcdf1ec","bdp_lott","Sat Mar 25 2023 09:29:23 GMT-0500 (Central Daylight Time)","251858","green","red","","1","","","","choice","","img/green_wl/choose11.jpg","1","198","green","0.5","0.5","0.5","w","",""
"animation","59","47617","0.0-5.0-2.27","5f5691fb24d1090e6bcdf1ec","bdp_lott","Sat Mar 25 2023 09:29:23 GMT-0500 (Central Daylight Time)","251858","green","red","","","","","","","","","","198","","","","","","[{""stimulus"":""img/green_wl/1.jpg"",""time"":51},{""stimulus"":""img/green_wl/2.jpg"",""time"":101},{""stimulus"":""img/green_wl/3.jpg"",""time"":155},{""stimulus"":""img/green_wl/4.jpg"",""time"":200},{""stimulus"":""img/green_wl/5.jpg"",""time"":255},{""stimulus"":""img/green_wl/6.jpg"",""time"":304},{""stimulus"":""img/green_wl/7.jpg"",""time"":354},{""stimulus"":""img/green_wl/8.jpg"",""time"":404},{""stimulus"":""img/green_wl/9.jpg"",""time"":455},{""stimulus"":""img/green_wl/10.jpg"",""time"":505},{""stimulus"":""img/green_wl/11.jpg"",""time"":555}]","[]"
"image-keyboard-response","60","47769","0.0-5.0-1.28","5f5691fb24d1090e6bcdf1ec","bdp_lott","Sat Mar 25 2023 09:29:23 GMT-0500 (Central Daylight Time)","251858","green","red","","150","","","","choice","","img/green_wl/choose11.jpg","1","197","green","0.5","0.5","0.5","l","",""
"animation","61","48372","0.0-5.0-2.28","5f5691fb24d1090e6bcdf1ec","bdp_lott","Sat Mar 25 2023 09:29:23 GMT-0500 (Central Daylight Time)","251858","green","red","","","","","","","","","","197","","","","","","[{""stimulus"":""img/green_ll/1.jpg"",""time"":56},{""stimulus"":""img/green_ll/2.jpg"",""time"":101},{""stimulus"":""img/green_ll/3.jpg"",""time"":152},{""stimulus"":""img/green_ll/4.jpg"",""time"":202},{""stimulus"":""img/green_ll/5.jpg"",""time"":252},{""stimulus"":""img/green_ll/6.jpg"",""time"":302},{""stimulus"":""img/green_ll/7.jpg"",""time"":352},{""stimulus"":""img/green_ll/8.jpg"",""time"":405},{""stimulus"":""img/green_ll/9.jpg"",""time"":452},{""stimulus"":""img/green_ll/10.jpg"",""time"":502},{""stimulus"":""img/green_ll/11.jpg"",""time"":552}]","[]"
"image-keyboard-response","62","48547","0.0-5.0-1.29","5f5691fb24d1090e6bcdf1ec","bdp_lott","Sat Mar 25 2023 09:29:23 GMT-0500 (Central Daylight Time)","251858","green","red","","174","","","","choice","","img/green_ll/choose11.jpg","1","196","green","0.5","0.5","0.5","l","",""
"animation","63","49151","0.0-5.0-2.29","5f5691fb24d1090e6bcdf1ec","bdp_lott","Sat Mar 25 2023 09:29:23 GMT-0500 (Central Daylight Time)","251858","green","red","","","","","","","","","","196","","","","","","[{""stimulus"":""img/green_ll/1.jpg"",""time"":56},{""stimulus"":""img/green_ll/2.jpg"",""time"":103},{""stimulus"":""img/green_ll/3.jpg"",""time"":153},{""stimulus"":""img/green_ll/4.jpg"",""time"":203},{""stimulus"":""img/green_ll/5.jpg"",""time"":253},{""stimulus"":""img/green_ll/6.jpg"",""time"":303},{""stimulus"":""img/green_ll/7.jpg"",""time"":353},{""stimulus"":""img/green_ll/8.jpg"",""time"":403},{""stimulus"":""img/green_ll/9.jpg"",""time"":453},{""stimulus"":""img/green_ll/10.jpg"",""time"":503},{""stimulus"":""img/green_ll/11.jpg"",""time"":552}]","[]"
"image-keyboard-response","64","49529","0.0-5.0-1.30","5f5691fb24d1090e6bcdf1ec","bdp_lott","Sat Mar 25 2023 09:29:23 GMT-0500 (Central Daylight Time)","251858","green","red","","377","","","","choice","","img/green_ll/choose11.jpg","1","195","green","0.5","0.5","0.5","w","",""
"animation","65","50130","0.0-5.0-2.30","5f5691fb24d1090e6bcdf1ec","bdp_lott","Sat Mar 25 2023 09:29:23 GMT-0500 (Central Daylight Time)","251858","green","red","","","","","","","","","","195","","","","","","[{""stimulus"":""img/green_wl/1.jpg"",""time"":54},{""stimulus"":""img/green_wl/2.jpg"",""time"":106},{""stimulus"":""img/green_wl/3.jpg"",""time"":151},{""stimulus"":""img/green_wl/4.jpg"",""time"":205},{""stimulus"":""img/green_wl/5.jpg"",""time"":254},{""stimulus"":""img/green_wl/6.jpg"",""time"":305},{""stimulus"":""img/green_wl/7.jpg"",""time"":355},{""stimulus"":""img/green_wl/8.jpg"",""time"":405},{""stimulus"":""img/green_wl/9.jpg"",""time"":456},{""stimulus"":""img/green_wl/10.jpg"",""time"":506},{""stimulus"":""img/green_wl/11.jpg"",""time"":556}]","[]"
"image-keyboard-response","66","50274","0.0-5.0-1.31","5f5691fb24d1090e6bcdf1ec","bdp_lott","Sat Mar 25 2023 09:29:23 GMT-0500 (Central Daylight Time)","251858","green","red","","143","","","","choice","","img/green_wl/choose11.jpg","1","194","green","0.5","0.5","0.5","w","",""
"animation","67","50878","0.0-5.0-2.31","5f5691fb24d1090e6bcdf1ec","bdp_lott","Sat Mar 25 2023 09:29:23 GMT-0500 (Central Daylight Time)","251858","green","red","","","","","","","","","","194","","","","","","[{""stimulus"":""img/green_wl/1.jpg"",""time"":53},{""stimulus"":""img/green_wl/2.jpg"",""time"":100},{""stimulus"":""img/green_wl/3.jpg"",""time"":151},{""stimulus"":""img/green_wl/4.jpg"",""time"":201},{""stimulus"":""img/green_wl/5.jpg"",""time"":251},{""stimulus"":""img/green_wl/6.jpg"",""time"":301},{""stimulus"":""img/green_wl/7.jpg"",""time"":351},{""stimulus"":""img/green_wl/8.jpg"",""time"":402},{""stimulus"":""img/green_wl/9.jpg"",""time"":451},{""stimulus"":""img/green_wl/10.jpg"",""time"":502},{""stimulus"":""img/green_wl/11.jpg"",""time"":551}]","[]"
"image-keyboard-response","68","50921","0.0-5.0-1.32","5f5691fb24d1090e6bcdf1ec","bdp_lott","Sat Mar 25 2023 09:29:23 GMT-0500 (Central Daylight Time)","251858","green","red","","43","","","","choice","","img/green_wl/choose11.jpg","1","193","green","0.5","0.5","0.5","w","",""
"animation","69","51526","0.0-5.0-2.32","5f5691fb24d1090e6bcdf1ec","bdp_lott","Sat Mar 25 2023 09:29:23 GMT-0500 (Central Daylight Time)","251858","green","red","","","","","","","","","","193","","","","","","[{""stimulus"":""img/green_wl/1.jpg"",""time"":54},{""stimulus"":""img/green_wl/2.jpg"",""time"":105},{""stimulus"":""img/green_wl/3.jpg"",""time"":155},{""stimulus"":""img/green_wl/4.jpg"",""time"":201},{""stimulus"":""img/green_wl/5.jpg"",""time"":255},{""stimulus"":""img/green_wl/6.jpg"",""time"":305},{""stimulus"":""img/green_wl/7.jpg"",""time"":351},{""stimulus"":""img/green_wl/8.jpg"",""time"":405},{""stimulus"":""img/green_wl/9.jpg"",""time"":455},{""stimulus"":""img/green_wl/10.jpg"",""time"":500},{""stimulus"":""img/green_wl/11.jpg"",""time"":555}]","[]"
"image-keyboard-response","70","51562","0.0-5.0-1.33","5f5691fb24d1090e6bcdf1ec","bdp_lott","Sat Mar 25 2023 09:29:23 GMT-0500 (Central Daylight Time)","251858","green","red","","34","","","","choice","","img/green_wl/choose11.jpg","1","192","green","0.5","0.5","0.5","l","",""
"animation","71","52167","0.0-5.0-2.33","5f5691fb24d1090e6bcdf1ec","bdp_lott","Sat Mar 25 2023 09:29:23 GMT-0500 (Central Daylight Time)","251858","green","red","","","","","","","","","","192","","","","","","[{""stimulus"":""img/green_ll/1.jpg"",""time"":56},{""stimulus"":""img/green_ll/2.jpg"",""time"":102},{""stimulus"":""img/green_ll/3.jpg"",""time"":152},{""stimulus"":""img/green_ll/4.jpg"",""time"":206},{""stimulus"":""img/green_ll/5.jpg"",""time"":252},{""stimulus"":""img/green_ll/6.jpg"",""time"":306},{""stimulus"":""img/green_ll/7.jpg"",""time"":356},{""stimulus"":""img/green_ll/8.jpg"",""time"":406},{""stimulus"":""img/green_ll/9.jpg"",""time"":456},{""stimulus"":""img/green_ll/10.jpg"",""time"":502},{""stimulus"":""img/green_ll/11.jpg"",""time"":556}]","[]"
"image-keyboard-response","72","52187","0.0-5.0-1.34","5f5691fb24d1090e6bcdf1ec","bdp_lott","Sat Mar 25 2023 09:29:23 GMT-0500 (Central Daylight Time)","251858","green","red","","18","","","","choice","","img/green_ll/choose11.jpg","1","191","green","0.5","0.5","0.5","w","",""
"animation","73","52788","0.0-5.0-2.34","5f5691fb24d1090e6bcdf1ec","bdp_lott","Sat Mar 25 2023 09:29:23 GMT-0500 (Central Daylight Time)","251858","green","red","","","","","","","","","","191","","","","","","[{""stimulus"":""img/green_wl/1.jpg"",""time"":56},{""stimulus"":""img/green_wl/2.jpg"",""time"":105},{""stimulus"":""img/green_wl/3.jpg"",""time"":153},{""stimulus"":""img/green_wl/4.jpg"",""time"":205},{""stimulus"":""img/green_wl/5.jpg"",""time"":253},{""stimulus"":""img/green_wl/6.jpg"",""time"":302},{""stimulus"":""img/green_wl/7.jpg"",""time"":355},{""stimulus"":""img/green_wl/8.jpg"",""time"":405},{""stimulus"":""img/green_wl/9.jpg"",""time"":451},{""stimulus"":""img/green_wl/10.jpg"",""time"":501},{""stimulus"":""img/green_wl/11.jpg"",""time"":555}]","[]"
"image-keyboard-response","74","53497","0.0-5.0-1.35","5f5691fb24d1090e6bcdf1ec","bdp_lott","Sat Mar 25 2023 09:29:23 GMT-0500 (Central Daylight Time)","251858","green","red","","707","","","","choice","","img/green_wl/choose11.jpg","1","190","green","0.5","0.5","0.5","l","",""
"animation","75","54101","0.0-5.0-2.35","5f5691fb24d1090e6bcdf1ec","bdp_lott","Sat Mar 25 2023 09:29:23 GMT-0500 (Central Daylight Time)","251858","green","red","","","","","","","","","","190","","","","","","[{""stimulus"":""img/green_ll/1.jpg"",""time"":54},{""stimulus"":""img/green_ll/2.jpg"",""time"":103},{""stimulus"":""img/green_ll/3.jpg"",""time"":153},{""stimulus"":""img/green_ll/4.jpg"",""time"":203},{""stimulus"":""img/green_ll/5.jpg"",""time"":253},{""stimulus"":""img/green_ll/6.jpg"",""time"":304},{""stimulus"":""img/green_ll/7.jpg"",""time"":353},{""stimulus"":""img/green_ll/8.jpg"",""time"":405},{""stimulus"":""img/green_ll/9.jpg"",""time"":453},{""stimulus"":""img/green_ll/10.jpg"",""time"":504},{""stimulus"":""img/green_ll/11.jpg"",""time"":553}]","[]"
"image-keyboard-response","76","54824","0.0-5.0-1.36","5f5691fb24d1090e6bcdf1ec","bdp_lott","Sat Mar 25 2023 09:29:23 GMT-0500 (Central Daylight Time)","251858","green","red","","721","","","","choice","","img/green_ll/choose11.jpg","1","189","green","0.5","0.5","0.5","w","",""
"animation","77","55426","0.0-5.0-2.36","5f5691fb24d1090e6bcdf1ec","bdp_lott","Sat Mar 25 2023 09:29:23 GMT-0500 (Central Daylight Time)","251858","green","red","","","","","","","","","","189","","","","","","[{""stimulus"":""img/green_wl/1.jpg"",""time"":57},{""stimulus"":""img/green_wl/2.jpg"",""time"":102},{""stimulus"":""img/green_wl/3.jpg"",""time"":152},{""stimulus"":""img/green_wl/4.jpg"",""time"":202},{""stimulus"":""img/green_wl/5.jpg"",""time"":252},{""stimulus"":""img/green_wl/6.jpg"",""time"":302},{""stimulus"":""img/green_wl/7.jpg"",""time"":352},{""stimulus"":""img/green_wl/8.jpg"",""time"":402},{""stimulus"":""img/green_wl/9.jpg"",""time"":456},{""stimulus"":""img/green_wl/10.jpg"",""time"":502},{""stimulus"":""img/green_wl/11.jpg"",""time"":552}]","[]"
"image-keyboard-response","78","55649","0.0-5.0-1.37","5f5691fb24d1090e6bcdf1ec","bdp_lott","Sat Mar 25 2023 09:29:23 GMT-0500 (Central Daylight Time)","251858","green","red","","223","","","","choice","","img/green_wl/choose11.jpg","1","188","green","0.5","0.5","0.5","l","",""
"animation","79","56251","0.0-5.0-2.37","5f5691fb24d1090e6bcdf1ec","bdp_lott","Sat Mar 25 2023 09:29:23 GMT-0500 (Central Daylight Time)","251858","green","red","","","","","","","","","","188","","","","","","[{""stimulus"":""img/green_ll/1.jpg"",""time"":54},{""stimulus"":""img/green_ll/2.jpg"",""time"":101},{""stimulus"":""img/green_ll/3.jpg"",""time"":155},{""stimulus"":""img/green_ll/4.jpg"",""time"":205},{""stimulus"":""img/green_ll/5.jpg"",""time"":255},{""stimulus"":""img/green_ll/6.jpg"",""time"":305},{""stimulus"":""img/green_ll/7.jpg"",""time"":355},{""stimulus"":""img/green_ll/8.jpg"",""time"":405},{""stimulus"":""img/green_ll/9.jpg"",""time"":455},{""stimulus"":""img/green_ll/10.jpg"",""time"":501},{""stimulus"":""img/green_ll/11.jpg"",""time"":555}]","[]"
"image-keyboard-response","80","56592","0.0-5.0-1.38","5f5691fb24d1090e6bcdf1ec","bdp_lott","Sat Mar 25 2023 09:29:23 GMT-0500 (Central Daylight Time)","251858","green","red","","340","","","","choice","","img/green_ll/choose11.jpg","1","187","green","0.5","0.5","0.5","l","",""
"animation","81","57196","0.0-5.0-2.38","5f5691fb24d1090e6bcdf1ec","bdp_lott","Sat Mar 25 2023 09:29:23 GMT-0500 (Central Daylight Time)","251858","green","red","","","","","","","","","","187","","","","","","[{""stimulus"":""img/green_ll/1.jpg"",""time"":54},{""stimulus"":""img/green_ll/2.jpg"",""time"":104},{""stimulus"":""img/green_ll/3.jpg"",""time"":153},{""stimulus"":""img/green_ll/4.jpg"",""time"":204},{""stimulus"":""img/green_ll/5.jpg"",""time"":254},{""stimulus"":""img/green_ll/6.jpg"",""time"":304},{""stimulus"":""img/green_ll/7.jpg"",""time"":354},{""stimulus"":""img/green_ll/8.jpg"",""time"":404},{""stimulus"":""img/green_ll/9.jpg"",""time"":454},{""stimulus"":""img/green_ll/10.jpg"",""time"":504},{""stimulus"":""img/green_ll/11.jpg"",""time"":551}]","[]"
"image-keyboard-response","82","57238","0.0-5.0-1.39","5f5691fb24d1090e6bcdf1ec","bdp_lott","Sat Mar 25 2023 09:29:23 GMT-0500 (Central Daylight Time)","251858","green","red","","40","","","","choice","","img/green_ll/choose11.jpg","1","186","green","0.5","0.5","0.5","w","",""
"animation","83","57842","0.0-5.0-2.39","5f5691fb24d1090e6bcdf1ec","bdp_lott","Sat Mar 25 2023 09:29:23 GMT-0500 (Central Daylight Time)","251858","green","red","","","","","","","","","","186","","","","","","[{""stimulus"":""img/green_wl/1.jpg"",""time"":53},{""stimulus"":""img/green_wl/2.jpg"",""time"":105},{""stimulus"":""img/green_wl/3.jpg"",""time"":153},{""stimulus"":""img/green_wl/4.jpg"",""time"":202},{""stimulus"":""img/green_wl/5.jpg"",""time"":253},{""stimulus"":""img/green_wl/6.jpg"",""time"":302},{""stimulus"":""img/green_wl/7.jpg"",""time"":355},{""stimulus"":""img/green_wl/8.jpg"",""time"":401},{""stimulus"":""img/green_wl/9.jpg"",""time"":455},{""stimulus"":""img/green_wl/10.jpg"",""time"":505},{""stimulus"":""img/green_wl/11.jpg"",""time"":555}]","[]"
"image-keyboard-response","84","57951","0.0-5.0-1.40","5f5691fb24d1090e6bcdf1ec","bdp_lott","Sat Mar 25 2023 09:29:23 GMT-0500 (Central Daylight Time)","251858","green","red","","107","","","","choice","","img/green_wl/choose11.jpg","1","185","green","0.5","0.5","0.5","l","",""
"animation","85","58555","0.0-5.0-2.40","5f5691fb24d1090e6bcdf1ec","bdp_lott","Sat Mar 25 2023 09:29:23 GMT-0500 (Central Daylight Time)","251858","green","red","","","","","","","","","","185","","","","","","[{""stimulus"":""img/green_ll/1.jpg"",""time"":57},{""stimulus"":""img/green_ll/2.jpg"",""time"":105},{""stimulus"":""img/green_ll/3.jpg"",""time"":154},{""stimulus"":""img/green_ll/4.jpg"",""time"":202},{""stimulus"":""img/green_ll/5.jpg"",""time"":254},{""stimulus"":""img/green_ll/6.jpg"",""time"":304},{""stimulus"":""img/green_ll/7.jpg"",""time"":354},{""stimulus"":""img/green_ll/8.jpg"",""time"":404},{""stimulus"":""img/green_ll/9.jpg"",""time"":454},{""stimulus"":""img/green_ll/10.jpg"",""time"":504},{""stimulus"":""img/green_ll/11.jpg"",""time"":554}]","[]"
"image-keyboard-response","86","58561","0.0-5.0-1.41","5f5691fb24d1090e6bcdf1ec","bdp_lott","Sat Mar 25 2023 09:29:23 GMT-0500 (Central Daylight Time)","251858","green","red","","3","","","","choice","","img/green_ll/choose11.jpg","1","184","green","0.5","0.5","0.5","l","",""
"animation","87","59163","0.0-5.0-2.41","5f5691fb24d1090e6bcdf1ec","bdp_lott","Sat Mar 25 2023 09:29:23 GMT-0500 (Central Daylight Time)","251858","green","red","","","","","","","","","","184","","","","","","[{""stimulus"":""img/green_ll/1.jpg"",""time"":52},{""stimulus"":""img/green_ll/2.jpg"",""time"":101},{""stimulus"":""img/green_ll/3.jpg"",""time"":153},{""stimulus"":""img/green_ll/4.jpg"",""time"":203},{""stimulus"":""img/green_ll/5.jpg"",""time"":253},{""stimulus"":""img/green_ll/6.jpg"",""time"":303},{""stimulus"":""img/green_ll/7.jpg"",""time"":353},{""stimulus"":""img/green_ll/8.jpg"",""time"":402},{""stimulus"":""img/green_ll/9.jpg"",""time"":452},{""stimulus"":""img/green_ll/10.jpg"",""time"":502},{""stimulus"":""img/green_ll/11.jpg"",""time"":553}]","[]"
"image-keyboard-response","88","59217","0.0-5.0-1.42","5f5691fb24d1090e6bcdf1ec","bdp_lott","Sat Mar 25 2023 09:29:23 GMT-0500 (Central Daylight Time)","251858","green","red","","53","","","","choice","","img/green_ll/choose11.jpg","1","183","green","0.5","0.5","0.5","l","",""
"animation","89","59819","0.0-5.0-2.42","5f5691fb24d1090e6bcdf1ec","bdp_lott","Sat Mar 25 2023 09:29:23 GMT-0500 (Central Daylight Time)","251858","green","red","","","","","","","","","","183","","","","","","[{""stimulus"":""img/green_ll/1.jpg"",""time"":53},{""stimulus"":""img/green_ll/2.jpg"",""time"":105},{""stimulus"":""img/green_ll/3.jpg"",""time"":155},{""stimulus"":""img/green_ll/4.jpg"",""time"":205},{""stimulus"":""img/green_ll/5.jpg"",""time"":255},{""stimulus"":""img/green_ll/6.jpg"",""time"":305},{""stimulus"":""img/green_ll/7.jpg"",""time"":355},{""stimulus"":""img/green_ll/8.jpg"",""time"":405},{""stimulus"":""img/green_ll/9.jpg"",""time"":455},{""stimulus"":""img/green_ll/10.jpg"",""time"":501},{""stimulus"":""img/green_ll/11.jpg"",""time"":555}]","[]"
"image-keyboard-response","90","60070","0.0-5.0-1.43","5f5691fb24d1090e6bcdf1ec","bdp_lott","Sat Mar 25 2023 09:29:23 GMT-0500 (Central Daylight Time)","251858","green","red","","250","","","","choice","","img/green_ll/choose11.jpg","1","182","green","0.5","0.5","0.5","w","",""
"animation","91","60675","0.0-5.0-2.43","5f5691fb24d1090e6bcdf1ec","bdp_lott","Sat Mar 25 2023 09:29:23 GMT-0500 (Central Daylight Time)","251858","green","red","","","","","","","","","","182","","","","","","[{""stimulus"":""img/green_wl/1.jpg"",""time"":55},{""stimulus"":""img/green_wl/2.jpg"",""time"":101},{""stimulus"":""img/green_wl/3.jpg"",""time"":151},{""stimulus"":""img/green_wl/4.jpg"",""time"":205},{""stimulus"":""img/green_wl/5.jpg"",""time"":255},{""stimulus"":""img/green_wl/6.jpg"",""time"":305},{""stimulus"":""img/green_wl/7.jpg"",""time"":355},{""stimulus"":""img/green_wl/8.jpg"",""time"":405},{""stimulus"":""img/green_wl/9.jpg"",""time"":455},{""stimulus"":""img/green_wl/10.jpg"",""time"":505},{""stimulus"":""img/green_wl/11.jpg"",""time"":555}]","[]"
"image-keyboard-response","92","60980","0.0-5.0-1.44","5f5691fb24d1090e6bcdf1ec","bdp_lott","Sat Mar 25 2023 09:29:23 GMT-0500 (Central Daylight Time)","251858","green","red","","304","","","","choice","","img/green_wl/choose11.jpg","1","181","green","0.5","0.5","0.5","l","",""
"animation","93","61584","0.0-5.0-2.44","5f5691fb24d1090e6bcdf1ec","bdp_lott","Sat Mar 25 2023 09:29:23 GMT-0500 (Central Daylight Time)","251858","green","red","","","","","","","","","","181","","","","","","[{""stimulus"":""img/green_ll/1.jpg"",""time"":52},{""stimulus"":""img/green_ll/2.jpg"",""time"":104},{""stimulus"":""img/green_ll/3.jpg"",""time"":153},{""stimulus"":""img/green_ll/4.jpg"",""time"":203},{""stimulus"":""img/green_ll/5.jpg"",""time"":254},{""stimulus"":""img/green_ll/6.jpg"",""time"":303},{""stimulus"":""img/green_ll/7.jpg"",""time"":354},{""stimulus"":""img/green_ll/8.jpg"",""time"":404},{""stimulus"":""img/green_ll/9.jpg"",""time"":453},{""stimulus"":""img/green_ll/10.jpg"",""time"":504},{""stimulus"":""img/green_ll/11.jpg"",""time"":555}]","[]"
"image-keyboard-response","94","61593","0.0-5.0-1.45","5f5691fb24d1090e6bcdf1ec","bdp_lott","Sat Mar 25 2023 09:29:23 GMT-0500 (Central Daylight Time)","251858","green","red","","7","","","","choice","","img/green_ll/choose11.jpg","1","180","green","0.5","0.5","0.5","l","",""
"animation","95","62196","0.0-5.0-2.45","5f5691fb24d1090e6bcdf1ec","bdp_lott","Sat Mar 25 2023 09:29:23 GMT-0500 (Central Daylight Time)","251858","green","red","","","","","","","","","","180","","","","","","[{""stimulus"":""img/green_ll/1.jpg"",""time"":51},{""stimulus"":""img/green_ll/2.jpg"",""time"":101},{""stimulus"":""img/green_ll/3.jpg"",""time"":154},{""stimulus"":""img/green_ll/4.jpg"",""time"":204},{""stimulus"":""img/green_ll/5.jpg"",""time"":254},{""stimulus"":""img/green_ll/6.jpg"",""time"":304},{""stimulus"":""img/green_ll/7.jpg"",""time"":354},{""stimulus"":""img/green_ll/8.jpg"",""time"":404},{""stimulus"":""img/green_ll/9.jpg"",""time"":454},{""stimulus"":""img/green_ll/10.jpg"",""time"":504},{""stimulus"":""img/green_ll/11.jpg"",""time"":554}]","[]"
"image-keyboard-response","96","62346","0.0-5.0-1.46","5f5691fb24d1090e6bcdf1ec","bdp_lott","Sat Mar 25 2023 09:29:23 GMT-0500 (Central Daylight Time)","251858","green","red","","147","","","","choice","","img/green_ll/choose11.jpg","1","179","green","0.5","0.5","0.5","w","",""
"animation","97","62951","0.0-5.0-2.46","5f5691fb24d1090e6bcdf1ec","bdp_lott","Sat Mar 25 2023 09:29:23 GMT-0500 (Central Daylight Time)","251858","green","red","","","","","","","","","","179","","","","","","[{""stimulus"":""img/green_wl/1.jpg"",""time"":56},{""stimulus"":""img/green_wl/2.jpg"",""time"":101},{""stimulus"":""img/green_wl/3.jpg"",""time"":152},{""stimulus"":""img/green_wl/4.jpg"",""time"":205},{""stimulus"":""img/green_wl/5.jpg"",""time"":251},{""stimulus"":""img/green_wl/6.jpg"",""time"":305},{""stimulus"":""img/green_wl/7.jpg"",""time"":352},{""stimulus"":""img/green_wl/8.jpg"",""time"":405},{""stimulus"":""img/green_wl/9.jpg"",""time"":455},{""stimulus"":""img/green_wl/10.jpg"",""time"":501},{""stimulus"":""img/green_wl/11.jpg"",""time"":555}]","[]"
"image-keyboard-response","98","63009","0.0-5.0-1.47","5f5691fb24d1090e6bcdf1ec","bdp_lott","Sat Mar 25 2023 09:29:23 GMT-0500 (Central Daylight Time)","251858","green","red","","57","","","","choice","","img/green_wl/choose11.jpg","1","178","green","0.5","0.5","0.5","l","",""
"animation","99","63613","0.0-5.0-2.47","5f5691fb24d1090e6bcdf1ec","bdp_lott","Sat Mar 25 2023 09:29:23 GMT-0500 (Central Daylight Time)","251858","green","red","","","","","","","","","","178","","","","","","[{""stimulus"":""img/green_ll/1.jpg"",""time"":52},{""stimulus"":""img/green_ll/2.jpg"",""time"":105},{""stimulus"":""img/green_ll/3.jpg"",""time"":150},{""stimulus"":""img/green_ll/4.jpg"",""time"":205},{""stimulus"":""img/green_ll/5.jpg"",""time"":255},{""stimulus"":""img/green_ll/6.jpg"",""time"":304},{""stimulus"":""img/green_ll/7.jpg"",""time"":354},{""stimulus"":""img/green_ll/8.jpg"",""time"":403},{""stimulus"":""img/green_ll/9.jpg"",""time"":454},{""stimulus"":""img/green_ll/10.jpg"",""time"":504},{""stimulus"":""img/green_ll/11.jpg"",""time"":554}]","[]"
"image-keyboard-response","100","63834","0.0-5.0-1.48","5f5691fb24d1090e6bcdf1ec","bdp_lott","Sat Mar 25 2023 09:29:23 GMT-0500 (Central Daylight Time)","251858","green","red","","219","","","","choice","","img/green_ll/choose11.jpg","2","177","red","0.5","0.5","0.5","w","",""
"animation","101","64438","0.0-5.0-2.48","5f5691fb24d1090e6bcdf1ec","bdp_lott","Sat Mar 25 2023 09:29:23 GMT-0500 (Central Daylight Time)","251858","green","red","","","","","","","","","","177","","","","","","[{""stimulus"":""img/red_lw/1.jpg"",""time"":51},{""stimulus"":""img/red_lw/2.jpg"",""time"":104},{""stimulus"":""img/red_lw/3.jpg"",""time"":154},{""stimulus"":""img/red_lw/4.jpg"",""time"":204},{""stimulus"":""img/red_lw/5.jpg"",""time"":255},{""stimulus"":""img/red_lw/6.jpg"",""time"":304},{""stimulus"":""img/red_lw/7.jpg"",""time"":354},{""stimulus"":""img/red_lw/8.jpg"",""time"":404},{""stimulus"":""img/red_lw/9.jpg"",""time"":454},{""stimulus"":""img/red_lw/10.jpg"",""time"":504},{""stimulus"":""img/red_lw/11.jpg"",""time"":554}]","[]"
"image-keyboard-response","102","64922","0.0-5.0-1.49","5f5691fb24d1090e6bcdf1ec","bdp_lott","Sat Mar 25 2023 09:29:23 GMT-0500 (Central Daylight Time)","251858","green","red","","483","","","","choice","","img/red_lw/choose11.jpg","2","176","red","0.5","0.5","0.5","l","",""
"animation","103","65526","0.0-5.0-2.49","5f5691fb24d1090e6bcdf1ec","bdp_lott","Sat Mar 25 2023 09:29:23 GMT-0500 (Central Daylight Time)","251858","green","red","","","","","","","","","","176","","","","","","[{""stimulus"":""img/red_ll/1.jpg"",""time"":54},{""stimulus"":""img/red_ll/2.jpg"",""time"":103},{""stimulus"":""img/red_ll/3.jpg"",""time"":153},{""stimulus"":""img/red_ll/4.jpg"",""time"":203},{""stimulus"":""img/red_ll/5.jpg"",""time"":253},{""stimulus"":""img/red_ll/6.jpg"",""time"":303},{""stimulus"":""img/red_ll/7.jpg"",""time"":353},{""stimulus"":""img/red_ll/8.jpg"",""time"":404},{""stimulus"":""img/red_ll/9.jpg"",""time"":453},{""stimulus"":""img/red_ll/10.jpg"",""time"":503},{""stimulus"":""img/red_ll/11.jpg"",""time"":553}]","[]"
"image-keyboard-response","104","65924","0.0-5.0-1.50","5f5691fb24d1090e6bcdf1ec","bdp_lott","Sat Mar 25 2023 09:29:23 GMT-0500 (Central Daylight Time)","251858","green","red","","397","","","","choice","","img/red_ll/choose11.jpg","1","175","green","0.5","0.5","0.5","l","",""
"animation","105","66529","0.0-5.0-2.50","5f5691fb24d1090e6bcdf1ec","bdp_lott","Sat Mar 25 2023 09:29:23 GMT-0500 (Central Daylight Time)","251858","green","red","","","","","","","","","","175","","","","","","[{""stimulus"":""img/green_ll/1.jpg"",""time"":52},{""stimulus"":""img/green_ll/2.jpg"",""time"":103},{""stimulus"":""img/green_ll/3.jpg"",""time"":151},{""stimulus"":""img/green_ll/4.jpg"",""time"":202},{""stimulus"":""img/green_ll/5.jpg"",""time"":253},{""stimulus"":""img/green_ll/6.jpg"",""time"":302},{""stimulus"":""img/green_ll/7.jpg"",""time"":353},{""stimulus"":""img/green_ll/8.jpg"",""time"":402},{""stimulus"":""img/green_ll/9.jpg"",""time"":452},{""stimulus"":""img/green_ll/10.jpg"",""time"":502},{""stimulus"":""img/green_ll/11.jpg"",""time"":552}]","[]"
"image-keyboard-response","106","66642","0.0-5.0-1.51","5f5691fb24d1090e6bcdf1ec","bdp_lott","Sat Mar 25 2023 09:29:23 GMT-0500 (Central Daylight Time)","251858","green","red","","111","","","","choice","","img/green_ll/choose11.jpg","1","174","green","0.5","0.5","0.5","w","",""
"animation","107","67247","0.0-5.0-2.51","5f5691fb24d1090e6bcdf1ec","bdp_lott","Sat Mar 25 2023 09:29:23 GMT-0500 (Central Daylight Time)","251858","green","red","","","","","","","","","","174","","","","","","[{""stimulus"":""img/green_wl/1.jpg"",""time"":53},{""stimulus"":""img/green_wl/2.jpg"",""time"":101},{""stimulus"":""img/green_wl/3.jpg"",""time"":155},{""stimulus"":""img/green_wl/4.jpg"",""time"":205},{""stimulus"":""img/green_wl/5.jpg"",""time"":251},{""stimulus"":""img/green_wl/6.jpg"",""time"":305},{""stimulus"":""img/green_wl/7.jpg"",""time"":355},{""stimulus"":""img/green_wl/8.jpg"",""time"":405},{""stimulus"":""img/green_wl/9.jpg"",""time"":455},{""stimulus"":""img/green_wl/10.jpg"",""time"":504},{""stimulus"":""img/green_wl/11.jpg"",""time"":555}]","[]"
"image-keyboard-response","108","67296","0.0-5.0-1.52","5f5691fb24d1090e6bcdf1ec","bdp_lott","Sat Mar 25 2023 09:29:23 GMT-0500 (Central Daylight Time)","251858","green","red","","47","","","","choice","","img/green_wl/choose11.jpg","1","173","green","0.5","0.5","0.5","w","",""
"animation","109","67901","0.0-5.0-2.52","5f5691fb24d1090e6bcdf1ec","bdp_lott","Sat Mar 25 2023 09:29:23 GMT-0500 (Central Daylight Time)","251858","green","red","","","","","","","","","","173","","","","","","[{""stimulus"":""img/green_wl/1.jpg"",""time"":56},{""stimulus"":""img/green_wl/2.jpg"",""time"":101},{""stimulus"":""img/green_wl/3.jpg"",""time"":155},{""stimulus"":""img/green_wl/4.jpg"",""time"":205},{""stimulus"":""img/green_wl/5.jpg"",""time"":255},{""stimulus"":""img/green_wl/6.jpg"",""time"":305},{""stimulus"":""img/green_wl/7.jpg"",""time"":355},{""stimulus"":""img/green_wl/8.jpg"",""time"":401},{""stimulus"":""img/green_wl/9.jpg"",""time"":455},{""stimulus"":""img/green_wl/10.jpg"",""time"":501},{""stimulus"":""img/green_wl/11.jpg"",""time"":555}]","[]"
"image-keyboard-response","110","67906","0.0-5.0-1.53","5f5691fb24d1090e6bcdf1ec","bdp_lott","Sat Mar 25 2023 09:29:23 GMT-0500 (Central Daylight Time)","251858","green","red","","2","","","","choice","","img/green_wl/choose11.jpg","1","172","green","0.5","0.5","0.5","w","",""
"animation","111","68509","0.0-5.0-2.53","5f5691fb24d1090e6bcdf1ec","bdp_lott","Sat Mar 25 2023 09:29:23 GMT-0500 (Central Daylight Time)","251858","green","red","","","","","","","","","","172","","","","","","[{""stimulus"":""img/green_wl/1.jpg"",""time"":53},{""stimulus"":""img/green_wl/2.jpg"",""time"":104},{""stimulus"":""img/green_wl/3.jpg"",""time"":154},{""stimulus"":""img/green_wl/4.jpg"",""time"":203},{""stimulus"":""img/green_wl/5.jpg"",""time"":253},{""stimulus"":""img/green_wl/6.jpg"",""time"":303},{""stimulus"":""img/green_wl/7.jpg"",""time"":353},{""stimulus"":""img/green_wl/8.jpg"",""time"":403},{""stimulus"":""img/green_wl/9.jpg"",""time"":453},{""stimulus"":""img/green_wl/10.jpg"",""time"":503},{""stimulus"":""img/green_wl/11.jpg"",""time"":554}]","[]"
"image-keyboard-response","112","68953","0.0-5.0-1.54","5f5691fb24d1090e6bcdf1ec","bdp_lott","Sat Mar 25 2023 09:29:23 GMT-0500 (Central Daylight Time)","251858","green","red","","443","","","","choice","","img/green_wl/choose11.jpg","1","171","green","0.5","0.5","0.5","w","",""
"animation","113","69555","0.0-5.0-2.54","5f5691fb24d1090e6bcdf1ec","bdp_lott","Sat Mar 25 2023 09:29:23 GMT-0500 (Central Daylight Time)","251858","green","red","","","","","","","","","","171","","","","","","[{""stimulus"":""img/green_wl/1.jpg"",""time"":52},{""stimulus"":""img/green_wl/2.jpg"",""time"":104},{""stimulus"":""img/green_wl/3.jpg"",""time"":151},{""stimulus"":""img/green_wl/4.jpg"",""time"":205},{""stimulus"":""img/green_wl/5.jpg"",""time"":251},{""stimulus"":""img/green_wl/6.jpg"",""time"":301},{""stimulus"":""img/green_wl/7.jpg"",""time"":351},{""stimulus"":""img/green_wl/8.jpg"",""time"":401},{""stimulus"":""img/green_wl/9.jpg"",""time"":451},{""stimulus"":""img/green_wl/10.jpg"",""time"":501},{""stimulus"":""img/green_wl/11.jpg"",""time"":551}]","[]"
"image-keyboard-response","114","69577","0.0-5.0-1.55","5f5691fb24d1090e6bcdf1ec","bdp_lott","Sat Mar 25 2023 09:29:23 GMT-0500 (Central Daylight Time)","251858","green","red","","21","","","","choice","","img/green_wl/choose11.jpg","2","170","red","0.5","0.5","0.5","w","",""
"animation","115","70178","0.0-5.0-2.55","5f5691fb24d1090e6bcdf1ec","bdp_lott","Sat Mar 25 2023 09:29:23 GMT-0500 (Central Daylight Time)","251858","green","red","","","","","","","","","","170","","","","","","[{""stimulus"":""img/red_ww/1.jpg"",""time"":54},{""stimulus"":""img/red_ww/2.jpg"",""time"":103},{""stimulus"":""img/red_ww/3.jpg"",""time"":156},{""stimulus"":""img/red_ww/4.jpg"",""time"":202},{""stimulus"":""img/red_ww/5.jpg"",""time"":255},{""stimulus"":""img/red_ww/6.jpg"",""time"":306},{""stimulus"":""img/red_ww/7.jpg"",""time"":351},{""stimulus"":""img/red_ww/8.jpg"",""time"":406},{""stimulus"":""img/red_ww/9.jpg"",""time"":456},{""stimulus"":""img/red_ww/10.jpg"",""time"":502},{""stimulus"":""img/red_ww/11.jpg"",""time"":556}]","[]"
"image-keyboard-response","116","70426","0.0-5.0-1.56","5f5691fb24d1090e6bcdf1ec","bdp_lott","Sat Mar 25 2023 09:29:23 GMT-0500 (Central Daylight Time)","251858","green","red","","246","","","","choice","","img/red_ww/choose11.jpg","2","169","red","0.5","0.5","0.5","l","",""
"animation","117","71030","0.0-5.0-2.56","5f5691fb24d1090e6bcdf1ec","bdp_lott","Sat Mar 25 2023 09:29:23 GMT-0500 (Central Daylight Time)","251858","green","red","","","","","","","","","","169","","","","","","[{""stimulus"":""img/red_wl/1.jpg"",""time"":55},{""stimulus"":""img/red_wl/2.jpg"",""time"":103},{""stimulus"":""img/red_wl/3.jpg"",""time"":153},{""stimulus"":""img/red_wl/4.jpg"",""time"":203},{""stimulus"":""img/red_wl/5.jpg"",""time"":253},{""stimulus"":""img/red_wl/6.jpg"",""time"":303},{""stimulus"":""img/red_wl/7.jpg"",""time"":353},{""stimulus"":""img/red_wl/8.jpg"",""time"":403},{""stimulus"":""img/red_wl/9.jpg"",""time"":453},{""stimulus"":""img/red_wl/10.jpg"",""time"":503},{""stimulus"":""img/red_wl/11.jpg"",""time"":553}]","[]"
"image-keyboard-response","118","71181","0.0-5.0-1.57","5f5691fb24d1090e6bcdf1ec","bdp_lott","Sat Mar 25 2023 09:29:23 GMT-0500 (Central Daylight Time)","251858","green","red","","149","","","","choice","","img/red_wl/choose11.jpg","2","168","red","0.5","0.5","0.5","l","",""
"animation","119","71784","0.0-5.0-2.57","5f5691fb24d1090e6bcdf1ec","bdp_lott","Sat Mar 25 2023 09:29:23 GMT-0500 (Central Daylight Time)","251858","green","red","","","","","","","","","","168","","","","","","[{""stimulus"":""img/red_wl/1.jpg"",""time"":52},{""stimulus"":""img/red_wl/2.jpg"",""time"":104},{""stimulus"":""img/red_wl/3.jpg"",""time"":153},{""stimulus"":""img/red_wl/4.jpg"",""time"":203},{""stimulus"":""img/red_wl/5.jpg"",""time"":253},{""stimulus"":""img/red_wl/6.jpg"",""time"":303},{""stimulus"":""img/red_wl/7.jpg"",""time"":353},{""stimulus"":""img/red_wl/8.jpg"",""time"":403},{""stimulus"":""img/red_wl/9.jpg"",""time"":453},{""stimulus"":""img/red_wl/10.jpg"",""time"":503},{""stimulus"":""img/red_wl/11.jpg"",""time"":553}]","[]"
"image-keyboard-response","120","71835","0.0-5.0-1.58","5f5691fb24d1090e6bcdf1ec","bdp_lott","Sat Mar 25 2023 09:29:23 GMT-0500 (Central Daylight Time)","251858","green","red","","50","","","","choice","","img/red_wl/choose11.jpg","2","167","red","0.5","0.5","0.5","w","",""
"animation","121","72438","0.0-5.0-2.58","5f5691fb24d1090e6bcdf1ec","bdp_lott","Sat Mar 25 2023 09:29:23 GMT-0500 (Central Daylight Time)","251858","green","red","","","","","","","","","","167","","","","","","[{""stimulus"":""img/red_ww/1.jpg"",""time"":56},{""stimulus"":""img/red_ww/2.jpg"",""time"":103},{""stimulus"":""img/red_ww/3.jpg"",""time"":152},{""stimulus"":""img/red_ww/4.jpg"",""time"":202},{""stimulus"":""img/red_ww/5.jpg"",""time"":254},{""stimulus"":""img/red_ww/6.jpg"",""time"":302},{""stimulus"":""img/red_ww/7.jpg"",""time"":351},{""stimulus"":""img/red_ww/8.jpg"",""time"":403},{""stimulus"":""img/red_ww/9.jpg"",""time"":452},{""stimulus"":""img/red_ww/10.jpg"",""time"":502},{""stimulus"":""img/red_ww/11.jpg"",""time"":552}]","[]"
"image-keyboard-response","122","72543","0.0-5.0-1.59","5f5691fb24d1090e6bcdf1ec","bdp_lott","Sat Mar 25 2023 09:29:23 GMT-0500 (Central Daylight Time)","251858","green","red","","102","","","","choice","","img/red_ww/choose11.jpg","2","166","red","0.5","0.5","0.5","w","",""
"animation","123","73147","0.0-5.0-2.59","5f5691fb24d1090e6bcdf1ec","bdp_lott","Sat Mar 25 2023 09:29:23 GMT-0500 (Central Daylight Time)","251858","green","red","","","","","","","","","","166","","","","","","[{""stimulus"":""img/red_ww/1.jpg"",""time"":56},{""stimulus"":""img/red_ww/2.jpg"",""time"":104},{""stimulus"":""img/red_ww/3.jpg"",""time"":154},{""stimulus"":""img/red_ww/4.jpg"",""time"":204},{""stimulus"":""img/red_ww/5.jpg"",""time"":254},{""stimulus"":""img/red_ww/6.jpg"",""time"":304},{""stimulus"":""img/red_ww/7.jpg"",""time"":354},{""stimulus"":""img/red_ww/8.jpg"",""time"":404},{""stimulus"":""img/red_ww/9.jpg"",""time"":454},{""stimulus"":""img/red_ww/10.jpg"",""time"":504},{""stimulus"":""img/red_ww/11.jpg"",""time"":554}]","[]"
"image-keyboard-response","124","73226","0.0-5.0-1.60","5f5691fb24d1090e6bcdf1ec","bdp_lott","Sat Mar 25 2023 09:29:23 GMT-0500 (Central Daylight Time)","251858","green","red","","78","","","","choice","","img/red_ww/choose11.jpg","2","165","red","0.5","0.5","0.5","l","",""
"animation","125","73830","0.0-5.0-2.60","5f5691fb24d1090e6bcdf1ec","bdp_lott","Sat Mar 25 2023 09:29:23 GMT-0500 (Central Daylight Time)","251858","green","red","","","","","","","","","","165","","","","","","[{""stimulus"":""img/red_wl/1.jpg"",""time"":53},{""stimulus"":""img/red_wl/2.jpg"",""time"":104},{""stimulus"":""img/red_wl/3.jpg"",""time"":151},{""stimulus"":""img/red_wl/4.jpg"",""time"":203},{""stimulus"":""img/red_wl/5.jpg"",""time"":253},{""stimulus"":""img/red_wl/6.jpg"",""time"":300},{""stimulus"":""img/red_wl/7.jpg"",""time"":353},{""stimulus"":""img/red_wl/8.jpg"",""time"":403},{""stimulus"":""img/red_wl/9.jpg"",""time"":454},{""stimulus"":""img/red_wl/10.jpg"",""time"":501},{""stimulus"":""img/red_wl/11.jpg"",""time"":553}]","[]"
"image-keyboard-response","126","73909","0.0-5.0-1.61","5f5691fb24d1090e6bcdf1ec","bdp_lott","Sat Mar 25 2023 09:29:23 GMT-0500 (Central Daylight Time)","251858","green","red","","78","","","","choice","","img/red_wl/choose11.jpg","2","164","red","0.5","0.5","0.5","w","",""
"animation","127","74513","0.0-5.0-2.61","5f5691fb24d1090e6bcdf1ec","bdp_lott","Sat Mar 25 2023 09:29:23 GMT-0500 (Central Daylight Time)","251858","green","red","","","","","","","","","","164","","","","","","[{""stimulus"":""img/red_ww/1.jpg"",""time"":56},{""stimulus"":""img/red_ww/2.jpg"",""time"":104},{""stimulus"":""img/red_ww/3.jpg"",""time"":154},{""stimulus"":""img/red_ww/4.jpg"",""time"":204},{""stimulus"":""img/red_ww/5.jpg"",""time"":254},{""stimulus"":""img/red_ww/6.jpg"",""time"":303},{""stimulus"":""img/red_ww/7.jpg"",""time"":354},{""stimulus"":""img/red_ww/8.jpg"",""time"":403},{""stimulus"":""img/red_ww/9.jpg"",""time"":453},{""stimulus"":""img/red_ww/10.jpg"",""time"":504},{""stimulus"":""img/red_ww/11.jpg"",""time"":551}]","[]"
"image-keyboard-response","128","74693","0.0-5.0-1.62","5f5691fb24d1090e6bcdf1ec","bdp_lott","Sat Mar 25 2023 09:29:23 GMT-0500 (Central Daylight Time)","251858","green","red","","179","","","","choice","","img/red_ww/choose11.jpg","2","163","red","0.5","0.5","0.5","l","",""
"animation","129","75298","0.0-5.0-2.62","5f5691fb24d1090e6bcdf1ec","bdp_lott","Sat Mar 25 2023 09:29:23 GMT-0500 (Central Daylight Time)","251858","green","red","","","","","","","","","","163","","","","","","[{""stimulus"":""img/red_wl/1.jpg"",""time"":53},{""stimulus"":""img/red_wl/2.jpg"",""time"":103},{""stimulus"":""img/red_wl/3.jpg"",""time"":153},{""stimulus"":""img/red_wl/4.jpg"",""time"":204},{""stimulus"":""img/red_wl/5.jpg"",""time"":253},{""stimulus"":""img/red_wl/6.jpg"",""time"":305},{""stimulus"":""img/red_wl/7.jpg"",""time"":353},{""stimulus"":""img/red_wl/8.jpg"",""time"":401},{""stimulus"":""img/red_wl/9.jpg"",""time"":452},{""stimulus"":""img/red_wl/10.jpg"",""time"":500},{""stimulus"":""img/red_wl/11.jpg"",""time"":550}]","[]"
"image-keyboard-response","130","75440","0.0-5.0-1.63","5f5691fb24d1090e6bcdf1ec","bdp_lott","Sat Mar 25 2023 09:29:23 GMT-0500 (Central Daylight Time)","251858","green","red","","141","","","","choice","","img/red_wl/choose11.jpg","2","162","red","0.5","0.5","0.5","w","",""
"animation","131","76043","0.0-5.0-2.63","5f5691fb24d1090e6bcdf1ec","bdp_lott","Sat Mar 25 2023 09:29:23 GMT-0500 (Central Daylight Time)","251858","green","red","","","","","","","","","","162","","","","","","[{""stimulus"":""img/red_ww/1.jpg"",""time"":53},{""stimulus"":""img/red_ww/2.jpg"",""time"":102},{""stimulus"":""img/red_ww/3.jpg"",""time"":152},{""stimulus"":""img/red_ww/4.jpg"",""time"":202},{""stimulus"":""img/red_ww/5.jpg"",""time"":252},{""stimulus"":""img/red_ww/6.jpg"",""time"":302},{""stimulus"":""img/red_ww/7.jpg"",""time"":353},{""stimulus"":""img/red_ww/8.jpg"",""time"":402},{""stimulus"":""img/red_ww/9.jpg"",""time"":452},{""stimulus"":""img/red_ww/10.jpg"",""time"":502},{""stimulus"":""img/red_ww/11.jpg"",""time"":552}]","[]"
"image-keyboard-response","132","76244","0.0-5.0-1.64","5f5691fb24d1090e6bcdf1ec","bdp_lott","Sat Mar 25 2023 09:29:23 GMT-0500 (Central Daylight Time)","251858","green","red","","199","","","","choice","","img/red_ww/choose11.jpg","1","161","green","0.5","0.5","0.5","w","",""
"animation","133","76848","0.0-5.0-2.64","5f5691fb24d1090e6bcdf1ec","bdp_lott","Sat Mar 25 2023 09:29:23 GMT-0500 (Central Daylight Time)","251858","green","red","","","","","","","","","","161","","","","","","[{""stimulus"":""img/green_ww/1.jpg"",""time"":56},{""stimulus"":""img/green_ww/2.jpg"",""time"":103},{""stimulus"":""img/green_ww/3.jpg"",""time"":153},{""stimulus"":""img/green_ww/4.jpg"",""time"":201},{""stimulus"":""img/green_ww/5.jpg"",""time"":253},{""stimulus"":""img/green_ww/6.jpg"",""time"":303},{""stimulus"":""img/green_ww/7.jpg"",""time"":353},{""stimulus"":""img/green_ww/8.jpg"",""time"":403},{""stimulus"":""img/green_ww/9.jpg"",""time"":453},{""stimulus"":""img/green_ww/10.jpg"",""time"":503},{""stimulus"":""img/green_ww/11.jpg"",""time"":553}]","[]"
"image-keyboard-response","134","77165","0.0-5.0-1.65","5f5691fb24d1090e6bcdf1ec","bdp_lott","Sat Mar 25 2023 09:29:23 GMT-0500 (Central Daylight Time)","251858","green","red","","314","","","","choice","","img/green_ww/choose11.jpg","1","160","green","0.5","0.5","0.5","w","",""
"animation","135","77767","0.0-5.0-2.65","5f5691fb24d1090e6bcdf1ec","bdp_lott","Sat Mar 25 2023 09:29:23 GMT-0500 (Central Daylight Time)","251858","green","red","","","","","","","","","","160","","","","","","[{""stimulus"":""img/green_ww/1.jpg"",""time"":55},{""stimulus"":""img/green_ww/2.jpg"",""time"":103},{""stimulus"":""img/green_ww/3.jpg"",""time"":153},{""stimulus"":""img/green_ww/4.jpg"",""time"":203},{""stimulus"":""img/green_ww/5.jpg"",""time"":253},{""stimulus"":""img/green_ww/6.jpg"",""time"":303},{""stimulus"":""img/green_ww/7.jpg"",""time"":353},{""stimulus"":""img/green_ww/8.jpg"",""time"":403},{""stimulus"":""img/green_ww/9.jpg"",""time"":453},{""stimulus"":""img/green_ww/10.jpg"",""time"":503},{""stimulus"":""img/green_ww/11.jpg"",""time"":553}]","[]"
"image-keyboard-response","136","77835","0.0-5.0-1.66","5f5691fb24d1090e6bcdf1ec","bdp_lott","Sat Mar 25 2023 09:29:23 GMT-0500 (Central Daylight Time)","251858","green","red","","66","","","","choice","","img/green_ww/choose11.jpg","1","159","green","0.5","0.5","0.5","w","",""
"animation","137","78438","0.0-5.0-2.66","5f5691fb24d1090e6bcdf1ec","bdp_lott","Sat Mar 25 2023 09:29:23 GMT-0500 (Central Daylight Time)","251858","green","red","","","","","","","","","","159","","","","","","[{""stimulus"":""img/green_ww/1.jpg"",""time"":54},{""stimulus"":""img/green_ww/2.jpg"",""time"":103},{""stimulus"":""img/green_ww/3.jpg"",""time"":152},{""stimulus"":""img/green_ww/4.jpg"",""time"":203},{""stimulus"":""img/green_ww/5.jpg"",""time"":256},{""stimulus"":""img/green_ww/6.jpg"",""time"":301},{""stimulus"":""img/green_ww/7.jpg"",""time"":352},{""stimulus"":""img/green_ww/8.jpg"",""time"":402},{""stimulus"":""img/green_ww/9.jpg"",""time"":453},{""stimulus"":""img/green_ww/10.jpg"",""time"":502},{""stimulus"":""img/green_ww/11.jpg"",""time"":552}]","[]"
"image-keyboard-response","138","78452","0.0-5.0-1.67","5f5691fb24d1090e6bcdf1ec","bdp_lott","Sat Mar 25 2023 09:29:23 GMT-0500 (Central Daylight Time)","251858","green","red","","13","","","","choice","","img/green_ww/choose11.jpg","1","158","green","0.5","0.5","0.5","l","",""
"animation","139","79055","0.0-5.0-2.67","5f5691fb24d1090e6bcdf1ec","bdp_lott","Sat Mar 25 2023 09:29:23 GMT-0500 (Central Daylight Time)","251858","green","red","","","","","","","","","","158","","","","","","[{""stimulus"":""img/green_lw/1.jpg"",""time"":52},{""stimulus"":""img/green_lw/2.jpg"",""time"":100},{""stimulus"":""img/green_lw/3.jpg"",""time"":152},{""stimulus"":""img/green_lw/4.jpg"",""time"":202},{""stimulus"":""img/green_lw/5.jpg"",""time"":252},{""stimulus"":""img/green_lw/6.jpg"",""time"":301},{""stimulus"":""img/green_lw/7.jpg"",""time"":352},{""stimulus"":""img/green_lw/8.jpg"",""time"":402},{""stimulus"":""img/green_lw/9.jpg"",""time"":453},{""stimulus"":""img/green_lw/10.jpg"",""time"":502},{""stimulus"":""img/green_lw/11.jpg"",""time"":554}]","[]"
"image-keyboard-response","140","79384","0.0-5.0-1.68","5f5691fb24d1090e6bcdf1ec","bdp_lott","Sat Mar 25 2023 09:29:23 GMT-0500 (Central Daylight Time)","251858","green","red","","328","","","","choice","","img/green_lw/choose11.jpg","1","157","green","0.5","0.5","0.5","l","",""
"animation","141","79988","0.0-5.0-2.68","5f5691fb24d1090e6bcdf1ec","bdp_lott","Sat Mar 25 2023 09:29:23 GMT-0500 (Central Daylight Time)","251858","green","red","","","","","","","","","","157","","","","","","[{""stimulus"":""img/green_lw/1.jpg"",""time"":54},{""stimulus"":""img/green_lw/2.jpg"",""time"":103},{""stimulus"":""img/green_lw/3.jpg"",""time"":153},{""stimulus"":""img/green_lw/4.jpg"",""time"":204},{""stimulus"":""img/green_lw/5.jpg"",""time"":253},{""stimulus"":""img/green_lw/6.jpg"",""time"":303},{""stimulus"":""img/green_lw/7.jpg"",""time"":353},{""stimulus"":""img/green_lw/8.jpg"",""time"":403},{""stimulus"":""img/green_lw/9.jpg"",""time"":454},{""stimulus"":""img/green_lw/10.jpg"",""time"":504},{""stimulus"":""img/green_lw/11.jpg"",""time"":553}]","[]"
"image-keyboard-response","142","80241","0.0-5.0-1.69","5f5691fb24d1090e6bcdf1ec","bdp_lott","Sat Mar 25 2023 09:29:23 GMT-0500 (Central Daylight Time)","251858","green","red","","252","","","","choice","","img/green_lw/choose11.jpg","1","156","green","0.5","0.5","0.5","l","",""
"animation","143","80842","0.0-5.0-2.69","5f5691fb24d1090e6bcdf1ec","bdp_lott","Sat Mar 25 2023 09:29:23 GMT-0500 (Central Daylight Time)","251858","green","red","","","","","","","","","","156","","","","","","[{""stimulus"":""img/green_lw/1.jpg"",""time"":55},{""stimulus"":""img/green_lw/2.jpg"",""time"":102},{""stimulus"":""img/green_lw/3.jpg"",""time"":156},{""stimulus"":""img/green_lw/4.jpg"",""time"":206},{""stimulus"":""img/green_lw/5.jpg"",""time"":256},{""stimulus"":""img/green_lw/6.jpg"",""time"":302},{""stimulus"":""img/green_lw/7.jpg"",""time"":356},{""stimulus"":""img/green_lw/8.jpg"",""time"":402},{""stimulus"":""img/green_lw/9.jpg"",""time"":452},{""stimulus"":""img/green_lw/10.jpg"",""time"":502},{""stimulus"":""img/green_lw/11.jpg"",""time"":552}]","[]"
"image-keyboard-response","144","81251","0.0-5.0-1.70","5f5691fb24d1090e6bcdf1ec","bdp_lott","Sat Mar 25 2023 09:29:23 GMT-0500 (Central Daylight Time)","251858","green","red","","408","","","","choice","","img/green_lw/choose11.jpg","1","155","green","0.5","0.5","0.5","l","",""
"animation","145","81857","0.0-5.0-2.70","5f5691fb24d1090e6bcdf1ec","bdp_lott","Sat Mar 25 2023 09:29:23 GMT-0500 (Central Daylight Time)","251858","green","red","","","","","","","","","","155","","","","","","[{""stimulus"":""img/green_lw/1.jpg"",""time"":53},{""stimulus"":""img/green_lw/2.jpg"",""time"":104},{""stimulus"":""img/green_lw/3.jpg"",""time"":153},{""stimulus"":""img/green_lw/4.jpg"",""time"":203},{""stimulus"":""img/green_lw/5.jpg"",""time"":253},{""stimulus"":""img/green_lw/6.jpg"",""time"":303},{""stimulus"":""img/green_lw/7.jpg"",""time"":353},{""stimulus"":""img/green_lw/8.jpg"",""time"":403},{""stimulus"":""img/green_lw/9.jpg"",""time"":453},{""stimulus"":""img/green_lw/10.jpg"",""time"":504},{""stimulus"":""img/green_lw/11.jpg"",""time"":553}]","[]"
"image-keyboard-response","146","82469","0.0-5.0-1.71","5f5691fb24d1090e6bcdf1ec","bdp_lott","Sat Mar 25 2023 09:29:23 GMT-0500 (Central Daylight Time)","251858","green","red","","611","","","","choice","","img/green_lw/choose11.jpg","1","154","green","0.5","0.5","0.5","w","",""
"animation","147","83071","0.0-5.0-2.71","5f5691fb24d1090e6bcdf1ec","bdp_lott","Sat Mar 25 2023 09:29:23 GMT-0500 (Central Daylight Time)","251858","green","red","","","","","","","","","","154","","","","","","[{""stimulus"":""img/green_ww/1.jpg"",""time"":56},{""stimulus"":""img/green_ww/2.jpg"",""time"":103},{""stimulus"":""img/green_ww/3.jpg"",""time"":153},{""stimulus"":""img/green_ww/4.jpg"",""time"":203},{""stimulus"":""img/green_ww/5.jpg"",""time"":253},{""stimulus"":""img/green_ww/6.jpg"",""time"":303},{""stimulus"":""img/green_ww/7.jpg"",""time"":353},{""stimulus"":""img/green_ww/8.jpg"",""time"":403},{""stimulus"":""img/green_ww/9.jpg"",""time"":455},{""stimulus"":""img/green_ww/10.jpg"",""time"":502},{""stimulus"":""img/green_ww/11.jpg"",""time"":553}]","[]"
"image-keyboard-response","148","83193","0.0-5.0-1.72","5f5691fb24d1090e6bcdf1ec","bdp_lott","Sat Mar 25 2023 09:29:23 GMT-0500 (Central Daylight Time)","251858","green","red","","120","","","","choice","","img/green_ww/choose11.jpg","1","153","green","0.5","0.5","0.5","w","",""
"animation","149","83794","0.0-5.0-2.72","5f5691fb24d1090e6bcdf1ec","bdp_lott","Sat Mar 25 2023 09:29:23 GMT-0500 (Central Daylight Time)","251858","green","red","","","","","","","","","","153","","","","","","[{""stimulus"":""img/green_ww/1.jpg"",""time"":55},{""stimulus"":""img/green_ww/2.jpg"",""time"":104},{""stimulus"":""img/green_ww/3.jpg"",""time"":152},{""stimulus"":""img/green_ww/4.jpg"",""time"":205},{""stimulus"":""img/green_ww/5.jpg"",""time"":251},{""stimulus"":""img/green_ww/6.jpg"",""time"":304},{""stimulus"":""img/green_ww/7.jpg"",""time"":354},{""stimulus"":""img/green_ww/8.jpg"",""time"":404},{""stimulus"":""img/green_ww/9.jpg"",""time"":454},{""stimulus"":""img/green_ww/10.jpg"",""time"":504},{""stimulus"":""img/green_ww/11.jpg"",""time"":553}]","[]"
"image-keyboard-response","150","84055","0.0-5.0-1.73","5f5691fb24d1090e6bcdf1ec","bdp_lott","Sat Mar 25 2023 09:29:23 GMT-0500 (Central Daylight Time)","251858","green","red","","260","","","","choice","","img/green_ww/choose11.jpg","1","152","green","0.5","0.5","0.5","w","",""
"animation","151","84659","0.0-5.0-2.73","5f5691fb24d1090e6bcdf1ec","bdp_lott","Sat Mar 25 2023 09:29:23 GMT-0500 (Central Daylight Time)","251858","green","red","","","","","","","","","","152","","","","","","[{""stimulus"":""img/green_ww/1.jpg"",""time"":56},{""stimulus"":""img/green_ww/2.jpg"",""time"":103},{""stimulus"":""img/green_ww/3.jpg"",""time"":151},{""stimulus"":""img/green_ww/4.jpg"",""time"":204},{""stimulus"":""img/green_ww/5.jpg"",""time"":254},{""stimulus"":""img/green_ww/6.jpg"",""time"":304},{""stimulus"":""img/green_ww/7.jpg"",""time"":354},{""stimulus"":""img/green_ww/8.jpg"",""time"":404},{""stimulus"":""img/green_ww/9.jpg"",""time"":454},{""stimulus"":""img/green_ww/10.jpg"",""time"":504},{""stimulus"":""img/green_ww/11.jpg"",""time"":554}]","[]"
"image-keyboard-response","152","84677","0.0-5.0-1.74","5f5691fb24d1090e6bcdf1ec","bdp_lott","Sat Mar 25 2023 09:29:23 GMT-0500 (Central Daylight Time)","251858","green","red","","17","","","","choice","","img/green_ww/choose11.jpg","1","151","green","0.5","0.5","0.5","w","",""
"animation","153","85282","0.0-5.0-2.74","5f5691fb24d1090e6bcdf1ec","bdp_lott","Sat Mar 25 2023 09:29:23 GMT-0500 (Central Daylight Time)","251858","green","red","","","","","","","","","","151","","","","","","[{""stimulus"":""img/green_ww/1.jpg"",""time"":52},{""stimulus"":""img/green_ww/2.jpg"",""time"":103},{""stimulus"":""img/green_ww/3.jpg"",""time"":155},{""stimulus"":""img/green_ww/4.jpg"",""time"":202},{""stimulus"":""img/green_ww/5.jpg"",""time"":256},{""stimulus"":""img/green_ww/6.jpg"",""time"":306},{""stimulus"":""img/green_ww/7.jpg"",""time"":357},{""stimulus"":""img/green_ww/8.jpg"",""time"":405},{""stimulus"":""img/green_ww/9.jpg"",""time"":455},{""stimulus"":""img/green_ww/10.jpg"",""time"":503},{""stimulus"":""img/green_ww/11.jpg"",""time"":553}]","[]"
"image-keyboard-response","154","85744","0.0-5.0-1.75","5f5691fb24d1090e6bcdf1ec","bdp_lott","Sat Mar 25 2023 09:29:23 GMT-0500 (Central Daylight Time)","251858","green","red","","460","","","","choice","","img/green_ww/choose11.jpg","1","150","green","0.5","0.5","0.5","l","",""
"animation","155","86346","0.0-5.0-2.75","5f5691fb24d1090e6bcdf1ec","bdp_lott","Sat Mar 25 2023 09:29:23 GMT-0500 (Central Daylight Time)","251858","green","red","","","","","","","","","","150","","","","","","[{""stimulus"":""img/green_lw/1.jpg"",""time"":53},{""stimulus"":""img/green_lw/2.jpg"",""time"":103},{""stimulus"":""img/green_lw/3.jpg"",""time"":153},{""stimulus"":""img/green_lw/4.jpg"",""time"":203},{""stimulus"":""img/green_lw/5.jpg"",""time"":253},{""stimulus"":""img/green_lw/6.jpg"",""time"":303},{""stimulus"":""img/green_lw/7.jpg"",""time"":352},{""stimulus"":""img/green_lw/8.jpg"",""time"":402},{""stimulus"":""img/green_lw/9.jpg"",""time"":453},{""stimulus"":""img/green_lw/10.jpg"",""time"":503},{""stimulus"":""img/green_lw/11.jpg"",""time"":553}]","[]"
"image-keyboard-response","156","93009","0.0-5.0-1.76","5f5691fb24d1090e6bcdf1ec","bdp_lott","Sat Mar 25 2023 09:29:23 GMT-0500 (Central Daylight Time)","251858","green","red","","6661","","","","choice","","img/green_lw/choose11.jpg","1","149","green","0.5","0.1","0.5","l","",""
"animation","157","93613","0.0-5.0-2.76","5f5691fb24d1090e6bcdf1ec","bdp_lott","Sat Mar 25 2023 09:29:23 GMT-0500 (Central Daylight Time)","251858","green","red","","","","","","","","","","149","","","","","","[{""stimulus"":""img/green_lw/1.jpg"",""time"":53},{""stimulus"":""img/green_lw/2.jpg"",""time"":103},{""stimulus"":""img/green_lw/3.jpg"",""time"":154},{""stimulus"":""img/green_lw/4.jpg"",""time"":203},{""stimulus"":""img/green_lw/5.jpg"",""time"":255},{""stimulus"":""img/green_lw/6.jpg"",""time"":303},{""stimulus"":""img/green_lw/7.jpg"",""time"":356},{""stimulus"":""img/green_lw/8.jpg"",""time"":403},{""stimulus"":""img/green_lw/9.jpg"",""time"":452},{""stimulus"":""img/green_lw/10.jpg"",""time"":503},{""stimulus"":""img/green_lw/11.jpg"",""time"":553}]","[]"
"image-keyboard-response","158","93764","0.0-5.0-1.77","5f5691fb24d1090e6bcdf1ec","bdp_lott","Sat Mar 25 2023 09:29:23 GMT-0500 (Central Daylight Time)","251858","green","red","","150","","","","choice","","img/green_lw/choose11.jpg","1","148","green","0.5","0.1","0.5","w","",""
"animation","159","94367","0.0-5.0-2.77","5f5691fb24d1090e6bcdf1ec","bdp_lott","Sat Mar 25 2023 09:29:23 GMT-0500 (Central Daylight Time)","251858","green","red","","","","","","","","","","148","","","","","","[{""stimulus"":""img/green_ww/1.jpg"",""time"":56},{""stimulus"":""img/green_ww/2.jpg"",""time"":100},{""stimulus"":""img/green_ww/3.jpg"",""time"":153},{""stimulus"":""img/green_ww/4.jpg"",""time"":204},{""stimulus"":""img/green_ww/5.jpg"",""time"":253},{""stimulus"":""img/green_ww/6.jpg"",""time"":301},{""stimulus"":""img/green_ww/7.jpg"",""time"":355},{""stimulus"":""img/green_ww/8.jpg"",""time"":403},{""stimulus"":""img/green_ww/9.jpg"",""time"":453},{""stimulus"":""img/green_ww/10.jpg"",""time"":503},{""stimulus"":""img/green_ww/11.jpg"",""time"":552}]","[]"
"image-keyboard-response","160","94396","0.0-5.0-1.78","5f5691fb24d1090e6bcdf1ec","bdp_lott","Sat Mar 25 2023 09:29:23 GMT-0500 (Central Daylight Time)","251858","green","red","","27","","","","choice","","img/green_ww/choose11.jpg","1","147","green","0.5","0.1","0.5","l","",""
"animation","161","95001","0.0-5.0-2.78","5f5691fb24d1090e6bcdf1ec","bdp_lott","Sat Mar 25 2023 09:29:23 GMT-0500 (Central Daylight Time)","251858","green","red","","","","","","","","","","147","","","","","","[{""stimulus"":""img/green_lw/1.jpg"",""time"":55},{""stimulus"":""img/green_lw/2.jpg"",""time"":105},{""stimulus"":""img/green_lw/3.jpg"",""time"":151},{""stimulus"":""img/green_lw/4.jpg"",""time"":204},{""stimulus"":""img/green_lw/5.jpg"",""time"":251},{""stimulus"":""img/green_lw/6.jpg"",""time"":305},{""stimulus"":""img/green_lw/7.jpg"",""time"":352},{""stimulus"":""img/green_lw/8.jpg"",""time"":405},{""stimulus"":""img/green_lw/9.jpg"",""time"":455},{""stimulus"":""img/green_lw/10.jpg"",""time"":502},{""stimulus"":""img/green_lw/11.jpg"",""time"":555}]","[]"
"image-keyboard-response","162","95321","0.0-5.0-1.79","5f5691fb24d1090e6bcdf1ec","bdp_lott","Sat Mar 25 2023 09:29:23 GMT-0500 (Central Daylight Time)","251858","green","red","","319","","","","choice","","img/green_lw/choose11.jpg","1","146","green","0.5","0.1","0.5","w","",""
"animation","163","95925","0.0-5.0-2.79","5f5691fb24d1090e6bcdf1ec","bdp_lott","Sat Mar 25 2023 09:29:23 GMT-0500 (Central Daylight Time)","251858","green","red","","","","","","","","","","146","","","","","","[{""stimulus"":""img/green_ww/1.jpg"",""time"":52},{""stimulus"":""img/green_ww/2.jpg"",""time"":105},{""stimulus"":""img/green_ww/3.jpg"",""time"":155},{""stimulus"":""img/green_ww/4.jpg"",""time"":205},{""stimulus"":""img/green_ww/5.jpg"",""time"":254},{""stimulus"":""img/green_ww/6.jpg"",""time"":305},{""stimulus"":""img/green_ww/7.jpg"",""time"":354},{""stimulus"":""img/green_ww/8.jpg"",""time"":404},{""stimulus"":""img/green_ww/9.jpg"",""time"":450},{""stimulus"":""img/green_ww/10.jpg"",""time"":505},{""stimulus"":""img/green_ww/11.jpg"",""time"":551}]","[]"
"image-keyboard-response","164","96282","0.0-5.0-1.80","5f5691fb24d1090e6bcdf1ec","bdp_lott","Sat Mar 25 2023 09:29:23 GMT-0500 (Central Daylight Time)","251858","green","red","","355","","","","choice","","img/green_ww/choose11.jpg","1","145","green","0.5","0.1","0.5","l","",""
"animation","165","96889","0.0-5.0-2.80","5f5691fb24d1090e6bcdf1ec","bdp_lott","Sat Mar 25 2023 09:29:23 GMT-0500 (Central Daylight Time)","251858","green","red","","","","","","","","","","145","","","","","","[{""stimulus"":""img/green_lw/1.jpg"",""time"":56},{""stimulus"":""img/green_lw/2.jpg"",""time"":101},{""stimulus"":""img/green_lw/3.jpg"",""time"":155},{""stimulus"":""img/green_lw/4.jpg"",""time"":206},{""stimulus"":""img/green_lw/5.jpg"",""time"":255},{""stimulus"":""img/green_lw/6.jpg"",""time"":306},{""stimulus"":""img/green_lw/7.jpg"",""time"":356},{""stimulus"":""img/green_lw/8.jpg"",""time"":401},{""stimulus"":""img/green_lw/9.jpg"",""time"":455},{""stimulus"":""img/green_lw/10.jpg"",""time"":501},{""stimulus"":""img/green_lw/11.jpg"",""time"":555}]","[]"
"image-keyboard-response","166","96891","0.0-5.0-1.81","5f5691fb24d1090e6bcdf1ec","bdp_lott","Sat Mar 25 2023 09:29:23 GMT-0500 (Central Daylight Time)","251858","green","red","","0","","","","choice","","img/green_lw/choose11.jpg","1","144","green","0.5","0.1","0.5","l","",""
"animation","167","97496","0.0-5.0-2.81","5f5691fb24d1090e6bcdf1ec","bdp_lott","Sat Mar 25 2023 09:29:23 GMT-0500 (Central Daylight Time)","251858","green","red","","","","","","","","","","144","","","","","","[{""stimulus"":""img/green_lw/1.jpg"",""time"":51},{""stimulus"":""img/green_lw/2.jpg"",""time"":101},{""stimulus"":""img/green_lw/3.jpg"",""time"":155},{""stimulus"":""img/green_lw/4.jpg"",""time"":205},{""stimulus"":""img/green_lw/5.jpg"",""time"":255},{""stimulus"":""img/green_lw/6.jpg"",""time"":305},{""stimulus"":""img/green_lw/7.jpg"",""time"":355},{""stimulus"":""img/green_lw/8.jpg"",""time"":405},{""stimulus"":""img/green_lw/9.jpg"",""time"":451},{""stimulus"":""img/green_lw/10.jpg"",""time"":505},{""stimulus"":""img/green_lw/11.jpg"",""time"":555}]","[]"
"image-keyboard-response","168","97599","0.0-5.0-1.82","5f5691fb24d1090e6bcdf1ec","bdp_lott","Sat Mar 25 2023 09:29:23 GMT-0500 (Central Daylight Time)","251858","green","red","","101","","","","choice","","img/green_lw/choose11.jpg","1","143","green","0.5","0.1","0.5","w","",""
"animation","169","98205","0.0-5.0-2.82","5f5691fb24d1090e6bcdf1ec","bdp_lott","Sat Mar 25 2023 09:29:23 GMT-0500 (Central Daylight Time)","251858","green","red","","","","","","","","","","143","","","","","","[{""stimulus"":""img/green_ww/1.jpg"",""time"":56},{""stimulus"":""img/green_ww/2.jpg"",""time"":101},{""stimulus"":""img/green_ww/3.jpg"",""time"":151},{""stimulus"":""img/green_ww/4.jpg"",""time"":205},{""stimulus"":""img/green_ww/5.jpg"",""time"":251},{""stimulus"":""img/green_ww/6.jpg"",""time"":305},{""stimulus"":""img/green_ww/7.jpg"",""time"":355},{""stimulus"":""img/green_ww/8.jpg"",""time"":405},{""stimulus"":""img/green_ww/9.jpg"",""time"":455},{""stimulus"":""img/green_ww/10.jpg"",""time"":505},{""stimulus"":""img/green_ww/11.jpg"",""time"":555}]","[]"
"image-keyboard-response","170","98259","0.0-5.0-1.83","5f5691fb24d1090e6bcdf1ec","bdp_lott","Sat Mar 25 2023 09:29:23 GMT-0500 (Central Daylight Time)","251858","green","red","","52","","","","choice","","img/green_ww/choose11.jpg","1","142","green","0.5","0.1","0.5","l","",""
"animation","171","98863","0.0-5.0-2.83","5f5691fb24d1090e6bcdf1ec","bdp_lott","Sat Mar 25 2023 09:29:23 GMT-0500 (Central Daylight Time)","251858","green","red","","","","","","","","","","142","","","","","","[{""stimulus"":""img/green_lw/1.jpg"",""time"":53},{""stimulus"":""img/green_lw/2.jpg"",""time"":105},{""stimulus"":""img/green_lw/3.jpg"",""time"":154},{""stimulus"":""img/green_lw/4.jpg"",""time"":204},{""stimulus"":""img/green_lw/5.jpg"",""time"":254},{""stimulus"":""img/green_lw/6.jpg"",""time"":304},{""stimulus"":""img/green_lw/7.jpg"",""time"":354},{""stimulus"":""img/green_lw/8.jpg"",""time"":404},{""stimulus"":""img/green_lw/9.jpg"",""time"":455},{""stimulus"":""img/green_lw/10.jpg"",""time"":504},{""stimulus"":""img/green_lw/11.jpg"",""time"":551}]","[]"
"image-keyboard-response","172","98919","0.0-5.0-1.84","5f5691fb24d1090e6bcdf1ec","bdp_lott","Sat Mar 25 2023 09:29:23 GMT-0500 (Central Daylight Time)","251858","green","red","","55","","","","choice","","img/green_lw/choose11.jpg","1","141","green","0.5","0.1","0.5","l","",""
"animation","173","99521","0.0-5.0-2.84","5f5691fb24d1090e6bcdf1ec","bdp_lott","Sat Mar 25 2023 09:29:23 GMT-0500 (Central Daylight Time)","251858","green","red","","","","","","","","","","141","","","","","","[{""stimulus"":""img/green_lw/1.jpg"",""time"":51},{""stimulus"":""img/green_lw/2.jpg"",""time"":102},{""stimulus"":""img/green_lw/3.jpg"",""time"":152},{""stimulus"":""img/green_lw/4.jpg"",""time"":200},{""stimulus"":""img/green_lw/5.jpg"",""time"":252},{""stimulus"":""img/green_lw/6.jpg"",""time"":302},{""stimulus"":""img/green_lw/7.jpg"",""time"":351},{""stimulus"":""img/green_lw/8.jpg"",""time"":401},{""stimulus"":""img/green_lw/9.jpg"",""time"":452},{""stimulus"":""img/green_lw/10.jpg"",""time"":502},{""stimulus"":""img/green_lw/11.jpg"",""time"":552}]","[]"
"image-keyboard-response","174","99680","0.0-5.0-1.85","5f5691fb24d1090e6bcdf1ec","bdp_lott","Sat Mar 25 2023 09:29:23 GMT-0500 (Central Daylight Time)","251858","green","red","","156","","","","choice","","img/green_lw/choose11.jpg","1","140","green","0.5","0.1","0.5","w","",""
"animation","175","100284","0.0-5.0-2.85","5f5691fb24d1090e6bcdf1ec","bdp_lott","Sat Mar 25 2023 09:29:23 GMT-0500 (Central Daylight Time)","251858","green","red","","","","","","","","","","140","","","","","","[{""stimulus"":""img/green_ww/1.jpg"",""time"":53},{""stimulus"":""img/green_ww/2.jpg"",""time"":101},{""stimulus"":""img/green_ww/3.jpg"",""time"":154},{""stimulus"":""img/green_ww/4.jpg"",""time"":204},{""stimulus"":""img/green_ww/5.jpg"",""time"":255},{""stimulus"":""img/green_ww/6.jpg"",""time"":304},{""stimulus"":""img/green_ww/7.jpg"",""time"":351},{""stimulus"":""img/green_ww/8.jpg"",""time"":401},{""stimulus"":""img/green_ww/9.jpg"",""time"":451},{""stimulus"":""img/green_ww/10.jpg"",""time"":505},{""stimulus"":""img/green_ww/11.jpg"",""time"":555}]","[]"
"image-keyboard-response","176","100468","0.0-5.0-1.86","5f5691fb24d1090e6bcdf1ec","bdp_lott","Sat Mar 25 2023 09:29:23 GMT-0500 (Central Daylight Time)","251858","green","red","","183","","","","choice","","img/green_ww/choose11.jpg","1","139","green","0.5","0.1","0.5","l","",""
"animation","177","101071","0.0-5.0-2.86","5f5691fb24d1090e6bcdf1ec","bdp_lott","Sat Mar 25 2023 09:29:23 GMT-0500 (Central Daylight Time)","251858","green","red","","","","","","","","","","139","","","","","","[{""stimulus"":""img/green_lw/1.jpg"",""time"":52},{""stimulus"":""img/green_lw/2.jpg"",""time"":103},{""stimulus"":""img/green_lw/3.jpg"",""time"":153},{""stimulus"":""img/green_lw/4.jpg"",""time"":204},{""stimulus"":""img/green_lw/5.jpg"",""time"":253},{""stimulus"":""img/green_lw/6.jpg"",""time"":304},{""stimulus"":""img/green_lw/7.jpg"",""time"":355},{""stimulus"":""img/green_lw/8.jpg"",""time"":403},{""stimulus"":""img/green_lw/9.jpg"",""time"":452},{""stimulus"":""img/green_lw/10.jpg"",""time"":502},{""stimulus"":""img/green_lw/11.jpg"",""time"":552}]","[]"
"image-keyboard-response","178","101237","0.0-5.0-1.87","5f5691fb24d1090e6bcdf1ec","bdp_lott","Sat Mar 25 2023 09:29:23 GMT-0500 (Central Daylight Time)","251858","green","red","","165","","","","choice","","img/green_lw/choose11.jpg","1","138","green","0.5","0.1","0.5","w","",""
"animation","179","101842","0.0-5.0-2.87","5f5691fb24d1090e6bcdf1ec","bdp_lott","Sat Mar 25 2023 09:29:23 GMT-0500 (Central Daylight Time)","251858","green","red","","","","","","","","","","138","","","","","","[{""stimulus"":""img/green_ww/1.jpg"",""time"":53},{""stimulus"":""img/green_ww/2.jpg"",""time"":102},{""stimulus"":""img/green_ww/3.jpg"",""time"":156},{""stimulus"":""img/green_ww/4.jpg"",""time"":206},{""stimulus"":""img/green_ww/5.jpg"",""time"":256},{""stimulus"":""img/green_ww/6.jpg"",""time"":306},{""stimulus"":""img/green_ww/7.jpg"",""time"":356},{""stimulus"":""img/green_ww/8.jpg"",""time"":401},{""stimulus"":""img/green_ww/9.jpg"",""time"":456},{""stimulus"":""img/green_ww/10.jpg"",""time"":505},{""stimulus"":""img/green_ww/11.jpg"",""time"":551}]","[]"
"image-keyboard-response","180","101926","0.0-5.0-1.88","5f5691fb24d1090e6bcdf1ec","bdp_lott","Sat Mar 25 2023 09:29:23 GMT-0500 (Central Daylight Time)","251858","green","red","","83","","","","choice","","img/green_ww/choose11.jpg","1","137","green","0.5","0.1","0.5","w","",""
"animation","181","102530","0.0-5.0-2.88","5f5691fb24d1090e6bcdf1ec","bdp_lott","Sat Mar 25 2023 09:29:23 GMT-0500 (Central Daylight Time)","251858","green","red","","","","","","","","","","137","","","","","","[{""stimulus"":""img/green_ww/1.jpg"",""time"":51},{""stimulus"":""img/green_ww/2.jpg"",""time"":104},{""stimulus"":""img/green_ww/3.jpg"",""time"":153},{""stimulus"":""img/green_ww/4.jpg"",""time"":201},{""stimulus"":""img/green_ww/5.jpg"",""time"":253},{""stimulus"":""img/green_ww/6.jpg"",""time"":303},{""stimulus"":""img/green_ww/7.jpg"",""time"":355},{""stimulus"":""img/green_ww/8.jpg"",""time"":403},{""stimulus"":""img/green_ww/9.jpg"",""time"":453},{""stimulus"":""img/green_ww/10.jpg"",""time"":503},{""stimulus"":""img/green_ww/11.jpg"",""time"":553}]","[]"
"image-keyboard-response","182","102535","0.0-5.0-1.89","5f5691fb24d1090e6bcdf1ec","bdp_lott","Sat Mar 25 2023 09:29:23 GMT-0500 (Central Daylight Time)","251858","green","red","","4","","","","choice","","img/green_ww/choose11.jpg","1","136","green","0.5","0.1","0.5","l","",""
"animation","183","103136","0.0-5.0-2.89","5f5691fb24d1090e6bcdf1ec","bdp_lott","Sat Mar 25 2023 09:29:23 GMT-0500 (Central Daylight Time)","251858","green","red","","","","","","","","","","136","","","","","","[{""stimulus"":""img/green_lw/1.jpg"",""time"":52},{""stimulus"":""img/green_lw/2.jpg"",""time"":101},{""stimulus"":""img/green_lw/3.jpg"",""time"":152},{""stimulus"":""img/green_lw/4.jpg"",""time"":204},{""stimulus"":""img/green_lw/5.jpg"",""time"":253},{""stimulus"":""img/green_lw/6.jpg"",""time"":302},{""stimulus"":""img/green_lw/7.jpg"",""time"":352},{""stimulus"":""img/green_lw/8.jpg"",""time"":402},{""stimulus"":""img/green_lw/9.jpg"",""time"":452},{""stimulus"":""img/green_lw/10.jpg"",""time"":502},{""stimulus"":""img/green_lw/11.jpg"",""time"":551}]","[]"
"image-keyboard-response","184","103291","0.0-5.0-1.90","5f5691fb24d1090e6bcdf1ec","bdp_lott","Sat Mar 25 2023 09:29:23 GMT-0500 (Central Daylight Time)","251858","green","red","","154","","","","choice","","img/green_lw/choose11.jpg","1","135","green","0.5","0.1","0.5","w","",""
"animation","185","103894","0.0-5.0-2.90","5f5691fb24d1090e6bcdf1ec","bdp_lott","Sat Mar 25 2023 09:29:23 GMT-0500 (Central Daylight Time)","251858","green","red","","","","","","","","","","135","","","","","","[{""stimulus"":""img/green_ww/1.jpg"",""time"":53},{""stimulus"":""img/green_ww/2.jpg"",""time"":101},{""stimulus"":""img/green_ww/3.jpg"",""time"":151},{""stimulus"":""img/green_ww/4.jpg"",""time"":201},{""stimulus"":""img/green_ww/5.jpg"",""time"":256},{""stimulus"":""img/green_ww/6.jpg"",""time"":302},{""stimulus"":""img/green_ww/7.jpg"",""time"":355},{""stimulus"":""img/green_ww/8.jpg"",""time"":405},{""stimulus"":""img/green_ww/9.jpg"",""time"":450},{""stimulus"":""img/green_ww/10.jpg"",""time"":501},{""stimulus"":""img/green_ww/11.jpg"",""time"":556}]","[]"
"image-keyboard-response","186","104059","0.0-5.0-1.91","5f5691fb24d1090e6bcdf1ec","bdp_lott","Sat Mar 25 2023 09:29:23 GMT-0500 (Central Daylight Time)","251858","green","red","","163","","","","choice","","img/green_ww/choose11.jpg","1","134","green","0.5","0.1","0.5","w","",""
"animation","187","104663","0.0-5.0-2.91","5f5691fb24d1090e6bcdf1ec","bdp_lott","Sat Mar 25 2023 09:29:23 GMT-0500 (Central Daylight Time)","251858","green","red","","","","","","","","","","134","","","","","","[{""stimulus"":""img/green_ww/1.jpg"",""time"":56},{""stimulus"":""img/green_ww/2.jpg"",""time"":102},{""stimulus"":""img/green_ww/3.jpg"",""time"":154},{""stimulus"":""img/green_ww/4.jpg"",""time"":204},{""stimulus"":""img/green_ww/5.jpg"",""time"":252},{""stimulus"":""img/green_ww/6.jpg"",""time"":304},{""stimulus"":""img/green_ww/7.jpg"",""time"":352},{""stimulus"":""img/green_ww/8.jpg"",""time"":404},{""stimulus"":""img/green_ww/9.jpg"",""time"":454},{""stimulus"":""img/green_ww/10.jpg"",""time"":504},{""stimulus"":""img/green_ww/11.jpg"",""time"":553}]","[]"
"image-keyboard-response","188","104736","0.0-5.0-1.92","5f5691fb24d1090e6bcdf1ec","bdp_lott","Sat Mar 25 2023 09:29:23 GMT-0500 (Central Daylight Time)","251858","green","red","","72","","","","choice","","img/green_ww/choose11.jpg","1","133","green","0.5","0.1","0.5","w","",""
"animation","189","105338","0.0-5.0-2.92","5f5691fb24d1090e6bcdf1ec","bdp_lott","Sat Mar 25 2023 09:29:23 GMT-0500 (Central Daylight Time)","251858","green","red","","","","","","","","","","133","","","","","","[{""stimulus"":""img/green_ww/1.jpg"",""time"":55},{""stimulus"":""img/green_ww/2.jpg"",""time"":102},{""stimulus"":""img/green_ww/3.jpg"",""time"":151},{""stimulus"":""img/green_ww/4.jpg"",""time"":201},{""stimulus"":""img/green_ww/5.jpg"",""time"":251},{""stimulus"":""img/green_ww/6.jpg"",""time"":301},{""stimulus"":""img/green_ww/7.jpg"",""time"":353},{""stimulus"":""img/green_ww/8.jpg"",""time"":402},{""stimulus"":""img/green_ww/9.jpg"",""time"":451},{""stimulus"":""img/green_ww/10.jpg"",""time"":501},{""stimulus"":""img/green_ww/11.jpg"",""time"":551}]","[]"
"image-keyboard-response","190","105439","0.0-5.0-1.93","5f5691fb24d1090e6bcdf1ec","bdp_lott","Sat Mar 25 2023 09:29:23 GMT-0500 (Central Daylight Time)","251858","green","red","","100","","","","choice","","img/green_ww/choose11.jpg","1","132","green","0.5","0.1","0.5","l","",""
