"trial_type","trial_index","time_elapsed","internal_node_id","subject_id","task","startTime","totalTime","fairMachine","unfairMachine","view_history","rt","event","trial","time","trialtype","success","stimulus","key_press","roundsLeft","chosen","pFairMachWin","pUnfairMachWin","pTrialWin","outcome","animation_sequence","responses","numBlurs"
"pavlovia","0","3","0.0-0.0","63f7eb4fd0c75f760998818c","bdp_lott","Mon Mar 27 2023 14:53:02 GMT-0700 (Pacific Daylight Time)","455873","green","red","","","","","","","","","","","","","","","","","",""
"instructions","1","4724","0.0-1.0","63f7eb4fd0c75f760998818c","bdp_lott","Mon Mar 27 2023 14:53:02 GMT-0700 (Pacific Daylight Time)","455873","green","red","[{""page_index"":0,""viewing_time"":4720}]","4720","","","","","","","","","","","","","","","",""
"","","","","63f7eb4fd0c75f760998818c","bdp_lott","Mon Mar 27 2023 14:53:02 GMT-0700 (Pacific Daylight Time)","455873","green","red","","","fullscreenenter","2","8288","fullscreenenter","","","","","","","","","","","",""
"fullscreen","2","9270","0.0-2.0","63f7eb4fd0c75f760998818c","bdp_lott","Mon Mar 27 2023 14:53:02 GMT-0700 (Pacific Daylight Time)","455873","green","red","","","","","","","true","","","","","","","","","","",""
"instructions","3","127121","0.0-4.0","63f7eb4fd0c75f760998818c","bdp_lott","Mon Mar 27 2023 14:53:02 GMT-0700 (Pacific Daylight Time)","455873","green","red","[{""page_index"":0,""viewing_time"":117850}]","117850","","","","","","","","","","","","","","","",""
"image-keyboard-response","4","135574","0.0-5.0-1.0","63f7eb4fd0c75f760998818c","bdp_lott","Mon Mar 27 2023 14:53:02 GMT-0700 (Pacific Daylight Time)","455873","green","red","","8448","","","","choice","","img/red_ll/initchoose11.jpg","1","225","green","0.5","0.5","0.5","w","","",""
"animation","5","136183","0.0-5.0-2.0","63f7eb4fd0c75f760998818c","bdp_lott","Mon Mar 27 2023 14:53:02 GMT-0700 (Pacific Daylight Time)","455873","green","red","","","","","","","","","","225","","","","","","[{""stimulus"":""img/green_wl/1.jpg"",""time"":60},{""stimulus"":""img/green_wl/2.jpg"",""time"":107},{""stimulus"":""img/green_wl/3.jpg"",""time"":158},{""stimulus"":""img/green_wl/4.jpg"",""time"":208},{""stimulus"":""img/green_wl/5.jpg"",""time"":269},{""stimulus"":""img/green_wl/6.jpg"",""time"":307},{""stimulus"":""img/green_wl/7.jpg"",""time"":358},{""stimulus"":""img/green_wl/8.jpg"",""time"":408},{""stimulus"":""img/green_wl/9.jpg"",""time"":459},{""stimulus"":""img/green_wl/10.jpg"",""time"":512},{""stimulus"":""img/green_wl/11.jpg"",""time"":558}]","[]",""
"image-keyboard-response","6","139250","0.0-5.0-1.1","63f7eb4fd0c75f760998818c","bdp_lott","Mon Mar 27 2023 14:53:02 GMT-0700 (Pacific Daylight Time)","455873","green","red","","3066","","","","choice","","img/green_wl/choose11.jpg","1","224","green","0.5","0.5","0.5","l","","",""
"animation","7","139856","0.0-5.0-2.1","63f7eb4fd0c75f760998818c","bdp_lott","Mon Mar 27 2023 14:53:02 GMT-0700 (Pacific Daylight Time)","455873","green","red","","","","","","","","","","224","","","","","","[{""stimulus"":""img/green_ll/1.jpg"",""time"":59},{""stimulus"":""img/green_ll/2.jpg"",""time"":111},{""stimulus"":""img/green_ll/3.jpg"",""time"":152},{""stimulus"":""img/green_ll/4.jpg"",""time"":205},{""stimulus"":""img/green_ll/5.jpg"",""time"":251},{""stimulus"":""img/green_ll/6.jpg"",""time"":313},{""stimulus"":""img/green_ll/7.jpg"",""time"":357},{""stimulus"":""img/green_ll/8.jpg"",""time"":408},{""stimulus"":""img/green_ll/9.jpg"",""time"":452},{""stimulus"":""img/green_ll/10.jpg"",""time"":510},{""stimulus"":""img/green_ll/11.jpg"",""time"":557}]","[]",""
"image-keyboard-response","8","142061","0.0-5.0-1.2","63f7eb4fd0c75f760998818c","bdp_lott","Mon Mar 27 2023 14:53:02 GMT-0700 (Pacific Daylight Time)","455873","green","red","","2204","","","","choice","","img/green_ll/choose11.jpg","2","223","red","0.5","0.5","0.5","w","","",""
"animation","9","142665","0.0-5.0-2.2","63f7eb4fd0c75f760998818c","bdp_lott","Mon Mar 27 2023 14:53:02 GMT-0700 (Pacific Daylight Time)","455873","green","red","","","","","","","","","","223","","","","","","[{""stimulus"":""img/red_lw/1.jpg"",""time"":62},{""stimulus"":""img/red_lw/2.jpg"",""time"":109},{""stimulus"":""img/red_lw/3.jpg"",""time"":158},{""stimulus"":""img/red_lw/4.jpg"",""time"":204},{""stimulus"":""img/red_lw/5.jpg"",""time"":252},{""stimulus"":""img/red_lw/6.jpg"",""time"":295},{""stimulus"":""img/red_lw/7.jpg"",""time"":358},{""stimulus"":""img/red_lw/8.jpg"",""time"":415},{""stimulus"":""img/red_lw/9.jpg"",""time"":464},{""stimulus"":""img/red_lw/10.jpg"",""time"":511},{""stimulus"":""img/red_lw/11.jpg"",""time"":559}]","[]",""
"image-keyboard-response","10","144114","0.0-5.0-1.3","63f7eb4fd0c75f760998818c","bdp_lott","Mon Mar 27 2023 14:53:02 GMT-0700 (Pacific Daylight Time)","455873","green","red","","1448","","","","choice","","img/red_lw/choose11.jpg","2","222","red","0.5","0.5","0.5","l","","",""
"animation","11","144713","0.0-5.0-2.3","63f7eb4fd0c75f760998818c","bdp_lott","Mon Mar 27 2023 14:53:02 GMT-0700 (Pacific Daylight Time)","455873","green","red","","","","","","","","","","222","","","","","","[{""stimulus"":""img/red_ll/1.jpg"",""time"":64},{""stimulus"":""img/red_ll/2.jpg"",""time"":111},{""stimulus"":""img/red_ll/3.jpg"",""time"":159},{""stimulus"":""img/red_ll/4.jpg"",""time"":213},{""stimulus"":""img/red_ll/5.jpg"",""time"":260},{""stimulus"":""img/red_ll/6.jpg"",""time"":309},{""stimulus"":""img/red_ll/7.jpg"",""time"":357},{""stimulus"":""img/red_ll/8.jpg"",""time"":421},{""stimulus"":""img/red_ll/9.jpg"",""time"":461},{""stimulus"":""img/red_ll/10.jpg"",""time"":504},{""stimulus"":""img/red_ll/11.jpg"",""time"":562}]","[]",""
"image-keyboard-response","12","146740","0.0-5.0-1.4","63f7eb4fd0c75f760998818c","bdp_lott","Mon Mar 27 2023 14:53:02 GMT-0700 (Pacific Daylight Time)","455873","green","red","","2025","","","","choice","","img/red_ll/choose11.jpg","2","221","red","0.5","0.5","0.5","l","","",""
"animation","13","147353","0.0-5.0-2.4","63f7eb4fd0c75f760998818c","bdp_lott","Mon Mar 27 2023 14:53:02 GMT-0700 (Pacific Daylight Time)","455873","green","red","","","","","","","","","","221","","","","","","[{""stimulus"":""img/red_ll/1.jpg"",""time"":55},{""stimulus"":""img/red_ll/2.jpg"",""time"":102},{""stimulus"":""img/red_ll/3.jpg"",""time"":151},{""stimulus"":""img/red_ll/4.jpg"",""time"":207},{""stimulus"":""img/red_ll/5.jpg"",""time"":264},{""stimulus"":""img/red_ll/6.jpg"",""time"":312},{""stimulus"":""img/red_ll/7.jpg"",""time"":376},{""stimulus"":""img/red_ll/8.jpg"",""time"":424},{""stimulus"":""img/red_ll/9.jpg"",""time"":452},{""stimulus"":""img/red_ll/10.jpg"",""time"":521},{""stimulus"":""img/red_ll/11.jpg"",""time"":584}]","[]",""
"image-keyboard-response","14","148199","0.0-5.0-1.5","63f7eb4fd0c75f760998818c","bdp_lott","Mon Mar 27 2023 14:53:02 GMT-0700 (Pacific Daylight Time)","455873","green","red","","846","","","","choice","","img/red_ll/choose11.jpg","1","220","green","0.5","0.5","0.5","l","","",""
"animation","15","148815","0.0-5.0-2.5","63f7eb4fd0c75f760998818c","bdp_lott","Mon Mar 27 2023 14:53:02 GMT-0700 (Pacific Daylight Time)","455873","green","red","","","","","","","","","","220","","","","","","[{""stimulus"":""img/green_ll/1.jpg"",""time"":61},{""stimulus"":""img/green_ll/2.jpg"",""time"":115},{""stimulus"":""img/green_ll/3.jpg"",""time"":158},{""stimulus"":""img/green_ll/4.jpg"",""time"":207},{""stimulus"":""img/green_ll/5.jpg"",""time"":254},{""stimulus"":""img/green_ll/6.jpg"",""time"":306},{""stimulus"":""img/green_ll/7.jpg"",""time"":378},{""stimulus"":""img/green_ll/8.jpg"",""time"":416},{""stimulus"":""img/green_ll/9.jpg"",""time"":460},{""stimulus"":""img/green_ll/10.jpg"",""time"":514},{""stimulus"":""img/green_ll/11.jpg"",""time"":571}]","[]",""
"image-keyboard-response","16","150585","0.0-5.0-1.6","63f7eb4fd0c75f760998818c","bdp_lott","Mon Mar 27 2023 14:53:02 GMT-0700 (Pacific Daylight Time)","455873","green","red","","1769","","","","choice","","img/green_ll/choose11.jpg","1","219","green","0.5","0.5","0.5","w","","",""
"animation","17","151189","0.0-5.0-2.6","63f7eb4fd0c75f760998818c","bdp_lott","Mon Mar 27 2023 14:53:02 GMT-0700 (Pacific Daylight Time)","455873","green","red","","","","","","","","","","219","","","","","","[{""stimulus"":""img/green_wl/1.jpg"",""time"":57},{""stimulus"":""img/green_wl/2.jpg"",""time"":106},{""stimulus"":""img/green_wl/3.jpg"",""time"":145},{""stimulus"":""img/green_wl/4.jpg"",""time"":213},{""stimulus"":""img/green_wl/5.jpg"",""time"":266},{""stimulus"":""img/green_wl/6.jpg"",""time"":314},{""stimulus"":""img/green_wl/7.jpg"",""time"":361},{""stimulus"":""img/green_wl/8.jpg"",""time"":409},{""stimulus"":""img/green_wl/9.jpg"",""time"":455},{""stimulus"":""img/green_wl/10.jpg"",""time"":500},{""stimulus"":""img/green_wl/11.jpg"",""time"":545}]","[]",""
"image-keyboard-response","18","151618","0.0-5.0-1.7","63f7eb4fd0c75f760998818c","bdp_lott","Mon Mar 27 2023 14:53:02 GMT-0700 (Pacific Daylight Time)","455873","green","red","","427","","","","choice","","img/green_wl/choose11.jpg","1","218","green","0.5","0.5","0.5","w","","",""
"animation","19","152212","0.0-5.0-2.7","63f7eb4fd0c75f760998818c","bdp_lott","Mon Mar 27 2023 14:53:02 GMT-0700 (Pacific Daylight Time)","455873","green","red","","","","","","","","","","218","","","","","","[{""stimulus"":""img/green_wl/1.jpg"",""time"":58},{""stimulus"":""img/green_wl/2.jpg"",""time"":106},{""stimulus"":""img/green_wl/3.jpg"",""time"":145},{""stimulus"":""img/green_wl/4.jpg"",""time"":198},{""stimulus"":""img/green_wl/5.jpg"",""time"":269},{""stimulus"":""img/green_wl/6.jpg"",""time"":316},{""stimulus"":""img/green_wl/7.jpg"",""time"":363},{""stimulus"":""img/green_wl/8.jpg"",""time"":410},{""stimulus"":""img/green_wl/9.jpg"",""time"":456},{""stimulus"":""img/green_wl/10.jpg"",""time"":505},{""stimulus"":""img/green_wl/11.jpg"",""time"":550}]","[]",""
"image-keyboard-response","20","152665","0.0-5.0-1.8","63f7eb4fd0c75f760998818c","bdp_lott","Mon Mar 27 2023 14:53:02 GMT-0700 (Pacific Daylight Time)","455873","green","red","","452","","","","choice","","img/green_wl/choose11.jpg","1","217","green","0.5","0.5","0.5","w","","",""
"animation","21","153290","0.0-5.0-2.8","63f7eb4fd0c75f760998818c","bdp_lott","Mon Mar 27 2023 14:53:02 GMT-0700 (Pacific Daylight Time)","455873","green","red","","","","","","","","","","217","","","","","","[{""stimulus"":""img/green_wl/1.jpg"",""time"":57},{""stimulus"":""img/green_wl/2.jpg"",""time"":117},{""stimulus"":""img/green_wl/3.jpg"",""time"":158},{""stimulus"":""img/green_wl/4.jpg"",""time"":215},{""stimulus"":""img/green_wl/5.jpg"",""time"":266},{""stimulus"":""img/green_wl/6.jpg"",""time"":325},{""stimulus"":""img/green_wl/7.jpg"",""time"":374},{""stimulus"":""img/green_wl/8.jpg"",""time"":419},{""stimulus"":""img/green_wl/9.jpg"",""time"":464},{""stimulus"":""img/green_wl/10.jpg"",""time"":509},{""stimulus"":""img/green_wl/11.jpg"",""time"":585}]","[]",""
"image-keyboard-response","22","153614","0.0-5.0-1.9","63f7eb4fd0c75f760998818c","bdp_lott","Mon Mar 27 2023 14:53:02 GMT-0700 (Pacific Daylight Time)","455873","green","red","","323","","","","choice","","img/green_wl/choose11.jpg","1","216","green","0.5","0.5","0.5","w","","",""
"animation","23","154220","0.0-5.0-2.9","63f7eb4fd0c75f760998818c","bdp_lott","Mon Mar 27 2023 14:53:02 GMT-0700 (Pacific Daylight Time)","455873","green","red","","","","","","","","","","216","","","","","","[{""stimulus"":""img/green_wl/1.jpg"",""time"":62},{""stimulus"":""img/green_wl/2.jpg"",""time"":111},{""stimulus"":""img/green_wl/3.jpg"",""time"":147},{""stimulus"":""img/green_wl/4.jpg"",""time"":206},{""stimulus"":""img/green_wl/5.jpg"",""time"":254},{""stimulus"":""img/green_wl/6.jpg"",""time"":302},{""stimulus"":""img/green_wl/7.jpg"",""time"":366},{""stimulus"":""img/green_wl/8.jpg"",""time"":405},{""stimulus"":""img/green_wl/9.jpg"",""time"":450},{""stimulus"":""img/green_wl/10.jpg"",""time"":504},{""stimulus"":""img/green_wl/11.jpg"",""time"":558}]","[]",""
"image-keyboard-response","24","154568","0.0-5.0-1.10","63f7eb4fd0c75f760998818c","bdp_lott","Mon Mar 27 2023 14:53:02 GMT-0700 (Pacific Daylight Time)","455873","green","red","","348","","","","choice","","img/green_wl/choose11.jpg","1","215","green","0.5","0.5","0.5","w","","",""
"animation","25","155163","0.0-5.0-2.10","63f7eb4fd0c75f760998818c","bdp_lott","Mon Mar 27 2023 14:53:02 GMT-0700 (Pacific Daylight Time)","455873","green","red","","","","","","","","","","215","","","","","","[{""stimulus"":""img/green_wl/1.jpg"",""time"":65},{""stimulus"":""img/green_wl/2.jpg"",""time"":107},{""stimulus"":""img/green_wl/3.jpg"",""time"":149},{""stimulus"":""img/green_wl/4.jpg"",""time"":197},{""stimulus"":""img/green_wl/5.jpg"",""time"":245},{""stimulus"":""img/green_wl/6.jpg"",""time"":306},{""stimulus"":""img/green_wl/7.jpg"",""time"":354},{""stimulus"":""img/green_wl/8.jpg"",""time"":416},{""stimulus"":""img/green_wl/9.jpg"",""time"":457},{""stimulus"":""img/green_wl/10.jpg"",""time"":500},{""stimulus"":""img/green_wl/11.jpg"",""time"":548}]","[]",""
"image-keyboard-response","26","155588","0.0-5.0-1.11","63f7eb4fd0c75f760998818c","bdp_lott","Mon Mar 27 2023 14:53:02 GMT-0700 (Pacific Daylight Time)","455873","green","red","","424","","","","choice","","img/green_wl/choose11.jpg","2","214","red","0.5","0.5","0.5","l","","",""
"animation","27","156196","0.0-5.0-2.11","63f7eb4fd0c75f760998818c","bdp_lott","Mon Mar 27 2023 14:53:02 GMT-0700 (Pacific Daylight Time)","455873","green","red","","","","","","","","","","214","","","","","","[{""stimulus"":""img/red_wl/1.jpg"",""time"":54},{""stimulus"":""img/red_wl/2.jpg"",""time"":97},{""stimulus"":""img/red_wl/3.jpg"",""time"":151},{""stimulus"":""img/red_wl/4.jpg"",""time"":205},{""stimulus"":""img/red_wl/5.jpg"",""time"":260},{""stimulus"":""img/red_wl/6.jpg"",""time"":308},{""stimulus"":""img/red_wl/7.jpg"",""time"":357},{""stimulus"":""img/red_wl/8.jpg"",""time"":407},{""stimulus"":""img/red_wl/9.jpg"",""time"":454},{""stimulus"":""img/red_wl/10.jpg"",""time"":501},{""stimulus"":""img/red_wl/11.jpg"",""time"":545}]","[]",""
"image-keyboard-response","28","156666","0.0-5.0-1.12","63f7eb4fd0c75f760998818c","bdp_lott","Mon Mar 27 2023 14:53:02 GMT-0700 (Pacific Daylight Time)","455873","green","red","","469","","","","choice","","img/red_wl/choose11.jpg","2","213","red","0.5","0.5","0.5","w","","",""
"animation","29","157261","0.0-5.0-2.12","63f7eb4fd0c75f760998818c","bdp_lott","Mon Mar 27 2023 14:53:02 GMT-0700 (Pacific Daylight Time)","455873","green","red","","","","","","","","","","213","","","","","","[{""stimulus"":""img/red_ww/1.jpg"",""time"":65},{""stimulus"":""img/red_ww/2.jpg"",""time"":106},{""stimulus"":""img/red_ww/3.jpg"",""time"":150},{""stimulus"":""img/red_ww/4.jpg"",""time"":208},{""stimulus"":""img/red_ww/5.jpg"",""time"":256},{""stimulus"":""img/red_ww/6.jpg"",""time"":305},{""stimulus"":""img/red_ww/7.jpg"",""time"":353},{""stimulus"":""img/red_ww/8.jpg"",""time"":400},{""stimulus"":""img/red_ww/9.jpg"",""time"":448},{""stimulus"":""img/red_ww/10.jpg"",""time"":509},{""stimulus"":""img/red_ww/11.jpg"",""time"":557}]","[]",""
"image-keyboard-response","30","157854","0.0-5.0-1.13","63f7eb4fd0c75f760998818c","bdp_lott","Mon Mar 27 2023 14:53:02 GMT-0700 (Pacific Daylight Time)","455873","green","red","","592","","","","choice","","img/red_ww/choose11.jpg","1","212","green","0.5","0.5","0.5","w","","",""
"animation","31","158457","0.0-5.0-2.13","63f7eb4fd0c75f760998818c","bdp_lott","Mon Mar 27 2023 14:53:02 GMT-0700 (Pacific Daylight Time)","455873","green","red","","","","","","","","","","212","","","","","","[{""stimulus"":""img/green_ww/1.jpg"",""time"":61},{""stimulus"":""img/green_ww/2.jpg"",""time"":98},{""stimulus"":""img/green_ww/3.jpg"",""time"":154},{""stimulus"":""img/green_ww/4.jpg"",""time"":204},{""stimulus"":""img/green_ww/5.jpg"",""time"":252},{""stimulus"":""img/green_ww/6.jpg"",""time"":300},{""stimulus"":""img/green_ww/7.jpg"",""time"":365},{""stimulus"":""img/green_ww/8.jpg"",""time"":401},{""stimulus"":""img/green_ww/9.jpg"",""time"":446},{""stimulus"":""img/green_ww/10.jpg"",""time"":494},{""stimulus"":""img/green_ww/11.jpg"",""time"":542}]","[]",""
"image-keyboard-response","32","158890","0.0-5.0-1.14","63f7eb4fd0c75f760998818c","bdp_lott","Mon Mar 27 2023 14:53:02 GMT-0700 (Pacific Daylight Time)","455873","green","red","","432","","","","choice","","img/green_ww/choose11.jpg","2","211","red","0.5","0.5","0.5","w","","",""
"animation","33","159513","0.0-5.0-2.14","63f7eb4fd0c75f760998818c","bdp_lott","Mon Mar 27 2023 14:53:02 GMT-0700 (Pacific Daylight Time)","455873","green","red","","","","","","","","","","211","","","","","","[{""stimulus"":""img/red_ww/1.jpg"",""time"":65},{""stimulus"":""img/red_ww/2.jpg"",""time"":128},{""stimulus"":""img/red_ww/3.jpg"",""time"":175},{""stimulus"":""img/red_ww/4.jpg"",""time"":223},{""stimulus"":""img/red_ww/5.jpg"",""time"":271},{""stimulus"":""img/red_ww/6.jpg"",""time"":319},{""stimulus"":""img/red_ww/7.jpg"",""time"":365},{""stimulus"":""img/red_ww/8.jpg"",""time"":412},{""stimulus"":""img/red_ww/9.jpg"",""time"":474},{""stimulus"":""img/red_ww/10.jpg"",""time"":528},{""stimulus"":""img/red_ww/11.jpg"",""time"":575}]","[]",""
"image-keyboard-response","34","160169","0.0-5.0-1.15","63f7eb4fd0c75f760998818c","bdp_lott","Mon Mar 27 2023 14:53:02 GMT-0700 (Pacific Daylight Time)","455873","green","red","","654","","","","choice","","img/red_ww/choose11.jpg","2","210","red","0.5","0.5","0.5","w","","",""
"animation","35","160764","0.0-5.0-2.15","63f7eb4fd0c75f760998818c","bdp_lott","Mon Mar 27 2023 14:53:02 GMT-0700 (Pacific Daylight Time)","455873","green","red","","","","","","","","","","210","","","","","","[{""stimulus"":""img/red_ww/1.jpg"",""time"":61},{""stimulus"":""img/red_ww/2.jpg"",""time"":110},{""stimulus"":""img/red_ww/3.jpg"",""time"":155},{""stimulus"":""img/red_ww/4.jpg"",""time"":193},{""stimulus"":""img/red_ww/5.jpg"",""time"":240},{""stimulus"":""img/red_ww/6.jpg"",""time"":302},{""stimulus"":""img/red_ww/7.jpg"",""time"":368},{""stimulus"":""img/red_ww/8.jpg"",""time"":404},{""stimulus"":""img/red_ww/9.jpg"",""time"":451},{""stimulus"":""img/red_ww/10.jpg"",""time"":499},{""stimulus"":""img/red_ww/11.jpg"",""time"":546}]","[]",""
"image-keyboard-response","36","161061","0.0-5.0-1.16","63f7eb4fd0c75f760998818c","bdp_lott","Mon Mar 27 2023 14:53:02 GMT-0700 (Pacific Daylight Time)","455873","green","red","","296","","","","choice","","img/red_ww/choose11.jpg","1","209","green","0.5","0.5","0.5","w","","",""
"animation","37","161684","0.0-5.0-2.16","63f7eb4fd0c75f760998818c","bdp_lott","Mon Mar 27 2023 14:53:02 GMT-0700 (Pacific Daylight Time)","455873","green","red","","","","","","","","","","209","","","","","","[{""stimulus"":""img/green_ww/1.jpg"",""time"":53},{""stimulus"":""img/green_ww/2.jpg"",""time"":128},{""stimulus"":""img/green_ww/3.jpg"",""time"":176},{""stimulus"":""img/green_ww/4.jpg"",""time"":224},{""stimulus"":""img/green_ww/5.jpg"",""time"":274},{""stimulus"":""img/green_ww/6.jpg"",""time"":318},{""stimulus"":""img/green_ww/7.jpg"",""time"":364},{""stimulus"":""img/green_ww/8.jpg"",""time"":413},{""stimulus"":""img/green_ww/9.jpg"",""time"":464},{""stimulus"":""img/green_ww/10.jpg"",""time"":523},{""stimulus"":""img/green_ww/11.jpg"",""time"":577}]","[]",""
"image-keyboard-response","38","163542","0.0-5.0-1.17","63f7eb4fd0c75f760998818c","bdp_lott","Mon Mar 27 2023 14:53:02 GMT-0700 (Pacific Daylight Time)","455873","green","red","","1857","","","","choice","","img/green_ww/choose11.jpg","1","208","green","0.5","0.5","0.5","w","","",""
"animation","39","164177","0.0-5.0-2.17","63f7eb4fd0c75f760998818c","bdp_lott","Mon Mar 27 2023 14:53:02 GMT-0700 (Pacific Daylight Time)","455873","green","red","","","","","","","","","","208","","","","","","[{""stimulus"":""img/green_ww/1.jpg"",""time"":62},{""stimulus"":""img/green_ww/2.jpg"",""time"":112},{""stimulus"":""img/green_ww/3.jpg"",""time"":148},{""stimulus"":""img/green_ww/4.jpg"",""time"":207},{""stimulus"":""img/green_ww/5.jpg"",""time"":252},{""stimulus"":""img/green_ww/6.jpg"",""time"":313},{""stimulus"":""img/green_ww/7.jpg"",""time"":366},{""stimulus"":""img/green_ww/8.jpg"",""time"":430},{""stimulus"":""img/green_ww/9.jpg"",""time"":460},{""stimulus"":""img/green_ww/10.jpg"",""time"":527},{""stimulus"":""img/green_ww/11.jpg"",""time"":573}]","[]",""
"image-keyboard-response","40","165178","0.0-5.0-1.18","63f7eb4fd0c75f760998818c","bdp_lott","Mon Mar 27 2023 14:53:02 GMT-0700 (Pacific Daylight Time)","455873","green","red","","1000","","","","choice","","img/green_ww/choose11.jpg","1","207","green","0.5","0.5","0.5","l","","",""
"animation","41","165777","0.0-5.0-2.18","63f7eb4fd0c75f760998818c","bdp_lott","Mon Mar 27 2023 14:53:02 GMT-0700 (Pacific Daylight Time)","455873","green","red","","","","","","","","","","207","","","","","","[{""stimulus"":""img/green_lw/1.jpg"",""time"":55},{""stimulus"":""img/green_lw/2.jpg"",""time"":104},{""stimulus"":""img/green_lw/3.jpg"",""time"":163},{""stimulus"":""img/green_lw/4.jpg"",""time"":215},{""stimulus"":""img/green_lw/5.jpg"",""time"":255},{""stimulus"":""img/green_lw/6.jpg"",""time"":297},{""stimulus"":""img/green_lw/7.jpg"",""time"":345},{""stimulus"":""img/green_lw/8.jpg"",""time"":393},{""stimulus"":""img/green_lw/9.jpg"",""time"":454},{""stimulus"":""img/green_lw/10.jpg"",""time"":515},{""stimulus"":""img/green_lw/11.jpg"",""time"":555}]","[]",""
"image-keyboard-response","42","166221","0.0-5.0-1.19","63f7eb4fd0c75f760998818c","bdp_lott","Mon Mar 27 2023 14:53:02 GMT-0700 (Pacific Daylight Time)","455873","green","red","","443","","","","choice","","img/green_lw/choose11.jpg","2","206","red","0.5","0.5","0.5","w","","",""
"animation","43","166832","0.0-5.0-2.19","63f7eb4fd0c75f760998818c","bdp_lott","Mon Mar 27 2023 14:53:02 GMT-0700 (Pacific Daylight Time)","455873","green","red","","","","","","","","","","206","","","","","","[{""stimulus"":""img/red_lw/1.jpg"",""time"":58},{""stimulus"":""img/red_lw/2.jpg"",""time"":116},{""stimulus"":""img/red_lw/3.jpg"",""time"":157},{""stimulus"":""img/red_lw/4.jpg"",""time"":209},{""stimulus"":""img/red_lw/5.jpg"",""time"":263},{""stimulus"":""img/red_lw/6.jpg"",""time"":324},{""stimulus"":""img/red_lw/7.jpg"",""time"":372},{""stimulus"":""img/red_lw/8.jpg"",""time"":425},{""stimulus"":""img/red_lw/9.jpg"",""time"":471},{""stimulus"":""img/red_lw/10.jpg"",""time"":520},{""stimulus"":""img/red_lw/11.jpg"",""time"":566}]","[]",""
"image-keyboard-response","44","167337","0.0-5.0-1.20","63f7eb4fd0c75f760998818c","bdp_lott","Mon Mar 27 2023 14:53:02 GMT-0700 (Pacific Daylight Time)","455873","green","red","","504","","","","choice","","img/red_lw/choose11.jpg","2","205","red","0.5","0.5","0.5","w","","",""
"animation","45","167957","0.0-5.0-2.20","63f7eb4fd0c75f760998818c","bdp_lott","Mon Mar 27 2023 14:53:02 GMT-0700 (Pacific Daylight Time)","455873","green","red","","","","","","","","","","205","","","","","","[{""stimulus"":""img/red_lw/1.jpg"",""time"":52},{""stimulus"":""img/red_lw/2.jpg"",""time"":124},{""stimulus"":""img/red_lw/3.jpg"",""time"":159},{""stimulus"":""img/red_lw/4.jpg"",""time"":213},{""stimulus"":""img/red_lw/5.jpg"",""time"":268},{""stimulus"":""img/red_lw/6.jpg"",""time"":316},{""stimulus"":""img/red_lw/7.jpg"",""time"":366},{""stimulus"":""img/red_lw/8.jpg"",""time"":411},{""stimulus"":""img/red_lw/9.jpg"",""time"":456},{""stimulus"":""img/red_lw/10.jpg"",""time"":503},{""stimulus"":""img/red_lw/11.jpg"",""time"":566}]","[]",""
"image-keyboard-response","46","168182","0.0-5.0-1.21","63f7eb4fd0c75f760998818c","bdp_lott","Mon Mar 27 2023 14:53:02 GMT-0700 (Pacific Daylight Time)","455873","green","red","","224","","","","choice","","img/red_lw/choose11.jpg","1","204","green","0.5","0.5","0.5","l","","",""
"animation","47","168779","0.0-5.0-2.21","63f7eb4fd0c75f760998818c","bdp_lott","Mon Mar 27 2023 14:53:02 GMT-0700 (Pacific Daylight Time)","455873","green","red","","","","","","","","","","204","","","","","","[{""stimulus"":""img/green_lw/1.jpg"",""time"":62},{""stimulus"":""img/green_lw/2.jpg"",""time"":111},{""stimulus"":""img/green_lw/3.jpg"",""time"":149},{""stimulus"":""img/green_lw/4.jpg"",""time"":194},{""stimulus"":""img/green_lw/5.jpg"",""time"":255},{""stimulus"":""img/green_lw/6.jpg"",""time"":304},{""stimulus"":""img/green_lw/7.jpg"",""time"":354},{""stimulus"":""img/green_lw/8.jpg"",""time"":413},{""stimulus"":""img/green_lw/9.jpg"",""time"":456},{""stimulus"":""img/green_lw/10.jpg"",""time"":500},{""stimulus"":""img/green_lw/11.jpg"",""time"":548}]","[]",""
"image-keyboard-response","48","169362","0.0-5.0-1.22","63f7eb4fd0c75f760998818c","bdp_lott","Mon Mar 27 2023 14:53:02 GMT-0700 (Pacific Daylight Time)","455873","green","red","","582","","","","choice","","img/green_lw/choose11.jpg","1","203","green","0.5","0.5","0.5","l","","",""
"animation","49","169990","0.0-5.0-2.22","63f7eb4fd0c75f760998818c","bdp_lott","Mon Mar 27 2023 14:53:02 GMT-0700 (Pacific Daylight Time)","455873","green","red","","","","","","","","","","203","","","","","","[{""stimulus"":""img/green_lw/1.jpg"",""time"":61},{""stimulus"":""img/green_lw/2.jpg"",""time"":121},{""stimulus"":""img/green_lw/3.jpg"",""time"":171},{""stimulus"":""img/green_lw/4.jpg"",""time"":211},{""stimulus"":""img/green_lw/5.jpg"",""time"":257},{""stimulus"":""img/green_lw/6.jpg"",""time"":306},{""stimulus"":""img/green_lw/7.jpg"",""time"":366},{""stimulus"":""img/green_lw/8.jpg"",""time"":427},{""stimulus"":""img/green_lw/9.jpg"",""time"":493},{""stimulus"":""img/green_lw/10.jpg"",""time"":555},{""stimulus"":""img/green_lw/11.jpg"",""time"":579}]","[]",""
"image-keyboard-response","50","170525","0.0-5.0-1.23","63f7eb4fd0c75f760998818c","bdp_lott","Mon Mar 27 2023 14:53:02 GMT-0700 (Pacific Daylight Time)","455873","green","red","","535","","","","choice","","img/green_lw/choose11.jpg","1","202","green","0.5","0.5","0.5","l","","",""
"animation","51","171148","0.0-5.0-2.23","63f7eb4fd0c75f760998818c","bdp_lott","Mon Mar 27 2023 14:53:02 GMT-0700 (Pacific Daylight Time)","455873","green","red","","","","","","","","","","202","","","","","","[{""stimulus"":""img/green_lw/1.jpg"",""time"":56},{""stimulus"":""img/green_lw/2.jpg"",""time"":115},{""stimulus"":""img/green_lw/3.jpg"",""time"":161},{""stimulus"":""img/green_lw/4.jpg"",""time"":213},{""stimulus"":""img/green_lw/5.jpg"",""time"":273},{""stimulus"":""img/green_lw/6.jpg"",""time"":318},{""stimulus"":""img/green_lw/7.jpg"",""time"":370},{""stimulus"":""img/green_lw/8.jpg"",""time"":411},{""stimulus"":""img/green_lw/9.jpg"",""time"":456},{""stimulus"":""img/green_lw/10.jpg"",""time"":502},{""stimulus"":""img/green_lw/11.jpg"",""time"":562}]","[]",""
"image-keyboard-response","52","171629","0.0-5.0-1.24","63f7eb4fd0c75f760998818c","bdp_lott","Mon Mar 27 2023 14:53:02 GMT-0700 (Pacific Daylight Time)","455873","green","red","","480","","","","choice","","img/green_lw/choose11.jpg","1","201","green","0.5","0.5","0.5","l","","",""
"animation","53","172237","0.0-5.0-2.24","63f7eb4fd0c75f760998818c","bdp_lott","Mon Mar 27 2023 14:53:02 GMT-0700 (Pacific Daylight Time)","455873","green","red","","","","","","","","","","201","","","","","","[{""stimulus"":""img/green_lw/1.jpg"",""time"":51},{""stimulus"":""img/green_lw/2.jpg"",""time"":115},{""stimulus"":""img/green_lw/3.jpg"",""time"":164},{""stimulus"":""img/green_lw/4.jpg"",""time"":211},{""stimulus"":""img/green_lw/5.jpg"",""time"":261},{""stimulus"":""img/green_lw/6.jpg"",""time"":307},{""stimulus"":""img/green_lw/7.jpg"",""time"":355},{""stimulus"":""img/green_lw/8.jpg"",""time"":398},{""stimulus"":""img/green_lw/9.jpg"",""time"":466},{""stimulus"":""img/green_lw/10.jpg"",""time"":513},{""stimulus"":""img/green_lw/11.jpg"",""time"":561}]","[]",""
"image-keyboard-response","54","173006","0.0-5.0-1.25","63f7eb4fd0c75f760998818c","bdp_lott","Mon Mar 27 2023 14:53:02 GMT-0700 (Pacific Daylight Time)","455873","green","red","","766","","","","choice","","img/green_lw/choose11.jpg","2","200","red","0.5","0.5","0.5","l","","",""
"animation","55","173622","0.0-5.0-2.25","63f7eb4fd0c75f760998818c","bdp_lott","Mon Mar 27 2023 14:53:02 GMT-0700 (Pacific Daylight Time)","455873","green","red","","","","","","","","","","200","","","","","","[{""stimulus"":""img/red_ll/1.jpg"",""time"":56},{""stimulus"":""img/red_ll/2.jpg"",""time"":103},{""stimulus"":""img/red_ll/3.jpg"",""time"":138},{""stimulus"":""img/red_ll/4.jpg"",""time"":217},{""stimulus"":""img/red_ll/5.jpg"",""time"":264},{""stimulus"":""img/red_ll/6.jpg"",""time"":313},{""stimulus"":""img/red_ll/7.jpg"",""time"":363},{""stimulus"":""img/red_ll/8.jpg"",""time"":409},{""stimulus"":""img/red_ll/9.jpg"",""time"":451},{""stimulus"":""img/red_ll/10.jpg"",""time"":504},{""stimulus"":""img/red_ll/11.jpg"",""time"":543}]","[]",""
"image-keyboard-response","56","174130","0.0-5.0-1.26","63f7eb4fd0c75f760998818c","bdp_lott","Mon Mar 27 2023 14:53:02 GMT-0700 (Pacific Daylight Time)","455873","green","red","","506","","","","choice","","img/red_ll/choose11.jpg","1","199","green","0.5","0.5","0.5","l","","",""
"animation","57","174734","0.0-5.0-2.26","63f7eb4fd0c75f760998818c","bdp_lott","Mon Mar 27 2023 14:53:02 GMT-0700 (Pacific Daylight Time)","455873","green","red","","","","","","","","","","199","","","","","","[{""stimulus"":""img/green_ll/1.jpg"",""time"":54},{""stimulus"":""img/green_ll/2.jpg"",""time"":101},{""stimulus"":""img/green_ll/3.jpg"",""time"":164},{""stimulus"":""img/green_ll/4.jpg"",""time"":213},{""stimulus"":""img/green_ll/5.jpg"",""time"":263},{""stimulus"":""img/green_ll/6.jpg"",""time"":308},{""stimulus"":""img/green_ll/7.jpg"",""time"":356},{""stimulus"":""img/green_ll/8.jpg"",""time"":402},{""stimulus"":""img/green_ll/9.jpg"",""time"":449},{""stimulus"":""img/green_ll/10.jpg"",""time"":494},{""stimulus"":""img/green_ll/11.jpg"",""time"":540}]","[]",""
"image-keyboard-response","58","175206","0.0-5.0-1.27","63f7eb4fd0c75f760998818c","bdp_lott","Mon Mar 27 2023 14:53:02 GMT-0700 (Pacific Daylight Time)","455873","green","red","","471","","","","choice","","img/green_ll/choose11.jpg","2","198","red","0.5","0.5","0.5","l","","",""
"animation","59","175820","0.0-5.0-2.27","63f7eb4fd0c75f760998818c","bdp_lott","Mon Mar 27 2023 14:53:02 GMT-0700 (Pacific Daylight Time)","455873","green","red","","","","","","","","","","198","","","","","","[{""stimulus"":""img/red_ll/1.jpg"",""time"":58},{""stimulus"":""img/red_ll/2.jpg"",""time"":104},{""stimulus"":""img/red_ll/3.jpg"",""time"":144},{""stimulus"":""img/red_ll/4.jpg"",""time"":190},{""stimulus"":""img/red_ll/5.jpg"",""time"":252},{""stimulus"":""img/red_ll/6.jpg"",""time"":312},{""stimulus"":""img/red_ll/7.jpg"",""time"":377},{""stimulus"":""img/red_ll/8.jpg"",""time"":443},{""stimulus"":""img/red_ll/9.jpg"",""time"":457},{""stimulus"":""img/red_ll/10.jpg"",""time"":522},{""stimulus"":""img/red_ll/11.jpg"",""time"":585}]","[]",""
"image-keyboard-response","60","176163","0.0-5.0-1.28","63f7eb4fd0c75f760998818c","bdp_lott","Mon Mar 27 2023 14:53:02 GMT-0700 (Pacific Daylight Time)","455873","green","red","","342","","","","choice","","img/red_ll/choose11.jpg","2","197","red","0.5","0.5","0.5","l","","",""
"animation","61","176772","0.0-5.0-2.28","63f7eb4fd0c75f760998818c","bdp_lott","Mon Mar 27 2023 14:53:02 GMT-0700 (Pacific Daylight Time)","455873","green","red","","","","","","","","","","197","","","","","","[{""stimulus"":""img/red_ll/1.jpg"",""time"":65},{""stimulus"":""img/red_ll/2.jpg"",""time"":112},{""stimulus"":""img/red_ll/3.jpg"",""time"":147},{""stimulus"":""img/red_ll/4.jpg"",""time"":194},{""stimulus"":""img/red_ll/5.jpg"",""time"":256},{""stimulus"":""img/red_ll/6.jpg"",""time"":303},{""stimulus"":""img/red_ll/7.jpg"",""time"":353},{""stimulus"":""img/red_ll/8.jpg"",""time"":397},{""stimulus"":""img/red_ll/9.jpg"",""time"":460},{""stimulus"":""img/red_ll/10.jpg"",""time"":513},{""stimulus"":""img/red_ll/11.jpg"",""time"":560}]","[]",""
"image-keyboard-response","62","177097","0.0-5.0-1.29","63f7eb4fd0c75f760998818c","bdp_lott","Mon Mar 27 2023 14:53:02 GMT-0700 (Pacific Daylight Time)","455873","green","red","","323","","","","choice","","img/red_ll/choose11.jpg","1","196","green","0.5","0.5","0.5","l","","",""
"animation","63","177691","0.0-5.0-2.29","63f7eb4fd0c75f760998818c","bdp_lott","Mon Mar 27 2023 14:53:02 GMT-0700 (Pacific Daylight Time)","455873","green","red","","","","","","","","","","196","","","","","","[{""stimulus"":""img/green_ll/1.jpg"",""time"":59},{""stimulus"":""img/green_ll/2.jpg"",""time"":108},{""stimulus"":""img/green_ll/3.jpg"",""time"":143},{""stimulus"":""img/green_ll/4.jpg"",""time"":193},{""stimulus"":""img/green_ll/5.jpg"",""time"":240},{""stimulus"":""img/green_ll/6.jpg"",""time"":318},{""stimulus"":""img/green_ll/7.jpg"",""time"":366},{""stimulus"":""img/green_ll/8.jpg"",""time"":399},{""stimulus"":""img/green_ll/9.jpg"",""time"":448},{""stimulus"":""img/green_ll/10.jpg"",""time"":497},{""stimulus"":""img/green_ll/11.jpg"",""time"":544}]","[]",""
"image-keyboard-response","64","178114","0.0-5.0-1.30","63f7eb4fd0c75f760998818c","bdp_lott","Mon Mar 27 2023 14:53:02 GMT-0700 (Pacific Daylight Time)","455873","green","red","","422","","","","choice","","img/green_ll/choose11.jpg","1","195","green","0.5","0.5","0.5","w","","",""
"animation","65","178736","0.0-5.0-2.30","63f7eb4fd0c75f760998818c","bdp_lott","Mon Mar 27 2023 14:53:02 GMT-0700 (Pacific Daylight Time)","455873","green","red","","","","","","","","","","195","","","","","","[{""stimulus"":""img/green_wl/1.jpg"",""time"":56},{""stimulus"":""img/green_wl/2.jpg"",""time"":114},{""stimulus"":""img/green_wl/3.jpg"",""time"":162},{""stimulus"":""img/green_wl/4.jpg"",""time"":227},{""stimulus"":""img/green_wl/5.jpg"",""time"":274},{""stimulus"":""img/green_wl/6.jpg"",""time"":319},{""stimulus"":""img/green_wl/7.jpg"",""time"":366},{""stimulus"":""img/green_wl/8.jpg"",""time"":412},{""stimulus"":""img/green_wl/9.jpg"",""time"":459},{""stimulus"":""img/green_wl/10.jpg"",""time"":504},{""stimulus"":""img/green_wl/11.jpg"",""time"":566}]","[]",""
"image-keyboard-response","66","179126","0.0-5.0-1.31","63f7eb4fd0c75f760998818c","bdp_lott","Mon Mar 27 2023 14:53:02 GMT-0700 (Pacific Daylight Time)","455873","green","red","","389","","","","choice","","img/green_wl/choose11.jpg","1","194","green","0.5","0.5","0.5","l","","",""
"animation","67","179734","0.0-5.0-2.31","63f7eb4fd0c75f760998818c","bdp_lott","Mon Mar 27 2023 14:53:02 GMT-0700 (Pacific Daylight Time)","455873","green","red","","","","","","","","","","194","","","","","","[{""stimulus"":""img/green_ll/1.jpg"",""time"":63},{""stimulus"":""img/green_ll/2.jpg"",""time"":105},{""stimulus"":""img/green_ll/3.jpg"",""time"":146},{""stimulus"":""img/green_ll/4.jpg"",""time"":195},{""stimulus"":""img/green_ll/5.jpg"",""time"":242},{""stimulus"":""img/green_ll/6.jpg"",""time"":303},{""stimulus"":""img/green_ll/7.jpg"",""time"":351},{""stimulus"":""img/green_ll/8.jpg"",""time"":401},{""stimulus"":""img/green_ll/9.jpg"",""time"":462},{""stimulus"":""img/green_ll/10.jpg"",""time"":503},{""stimulus"":""img/green_ll/11.jpg"",""time"":545}]","[]",""
"image-keyboard-response","68","180158","0.0-5.0-1.32","63f7eb4fd0c75f760998818c","bdp_lott","Mon Mar 27 2023 14:53:02 GMT-0700 (Pacific Daylight Time)","455873","green","red","","422","","","","choice","","img/green_ll/choose11.jpg","1","193","green","0.5","0.5","0.5","l","","",""
"animation","69","180761","0.0-5.0-2.32","63f7eb4fd0c75f760998818c","bdp_lott","Mon Mar 27 2023 14:53:02 GMT-0700 (Pacific Daylight Time)","455873","green","red","","","","","","","","","","193","","","","","","[{""stimulus"":""img/green_ll/1.jpg"",""time"":65},{""stimulus"":""img/green_ll/2.jpg"",""time"":114},{""stimulus"":""img/green_ll/3.jpg"",""time"":149},{""stimulus"":""img/green_ll/4.jpg"",""time"":207},{""stimulus"":""img/green_ll/5.jpg"",""time"":256},{""stimulus"":""img/green_ll/6.jpg"",""time"":301},{""stimulus"":""img/green_ll/7.jpg"",""time"":363},{""stimulus"":""img/green_ll/8.jpg"",""time"":414},{""stimulus"":""img/green_ll/9.jpg"",""time"":462},{""stimulus"":""img/green_ll/10.jpg"",""time"":509},{""stimulus"":""img/green_ll/11.jpg"",""time"":557}]","[]",""
"image-keyboard-response","70","180951","0.0-5.0-1.33","63f7eb4fd0c75f760998818c","bdp_lott","Mon Mar 27 2023 14:53:02 GMT-0700 (Pacific Daylight Time)","455873","green","red","","189","","","","choice","","img/green_ll/choose11.jpg","2","192","red","0.5","0.5","0.5","w","","",""
"animation","71","181584","0.0-5.0-2.33","63f7eb4fd0c75f760998818c","bdp_lott","Mon Mar 27 2023 14:53:02 GMT-0700 (Pacific Daylight Time)","455873","green","red","","","","","","","","","","192","","","","","","[{""stimulus"":""img/red_lw/1.jpg"",""time"":61},{""stimulus"":""img/red_lw/2.jpg"",""time"":111},{""stimulus"":""img/red_lw/3.jpg"",""time"":157},{""stimulus"":""img/red_lw/4.jpg"",""time"":200},{""stimulus"":""img/red_lw/5.jpg"",""time"":271},{""stimulus"":""img/red_lw/6.jpg"",""time"":334},{""stimulus"":""img/red_lw/7.jpg"",""time"":397},{""stimulus"":""img/red_lw/8.jpg"",""time"":414},{""stimulus"":""img/red_lw/9.jpg"",""time"":478},{""stimulus"":""img/red_lw/10.jpg"",""time"":542},{""stimulus"":""img/red_lw/11.jpg"",""time"":567}]","[]",""
"image-keyboard-response","72","181742","0.0-5.0-1.34","63f7eb4fd0c75f760998818c","bdp_lott","Mon Mar 27 2023 14:53:02 GMT-0700 (Pacific Daylight Time)","455873","green","red","","158","","","","choice","","img/red_lw/choose11.jpg","2","191","red","0.5","0.5","0.5","w","","",""
"animation","73","182345","0.0-5.0-2.34","63f7eb4fd0c75f760998818c","bdp_lott","Mon Mar 27 2023 14:53:02 GMT-0700 (Pacific Daylight Time)","455873","green","red","","","","","","","","","","191","","","","","","[{""stimulus"":""img/red_lw/1.jpg"",""time"":53},{""stimulus"":""img/red_lw/2.jpg"",""time"":101},{""stimulus"":""img/red_lw/3.jpg"",""time"":154},{""stimulus"":""img/red_lw/4.jpg"",""time"":212},{""stimulus"":""img/red_lw/5.jpg"",""time"":258},{""stimulus"":""img/red_lw/6.jpg"",""time"":306},{""stimulus"":""img/red_lw/7.jpg"",""time"":348},{""stimulus"":""img/red_lw/8.jpg"",""time"":393},{""stimulus"":""img/red_lw/9.jpg"",""time"":453},{""stimulus"":""img/red_lw/10.jpg"",""time"":511},{""stimulus"":""img/red_lw/11.jpg"",""time"":558}]","[]",""
"image-keyboard-response","74","184192","0.0-5.0-1.35","63f7eb4fd0c75f760998818c","bdp_lott","Mon Mar 27 2023 14:53:02 GMT-0700 (Pacific Daylight Time)","455873","green","red","","1847","","","","choice","","img/red_lw/choose11.jpg","1","190","green","0.5","0.5","0.5","w","","",""
"animation","75","184804","0.0-5.0-2.35","63f7eb4fd0c75f760998818c","bdp_lott","Mon Mar 27 2023 14:53:02 GMT-0700 (Pacific Daylight Time)","455873","green","red","","","","","","","","","","190","","","","","","[{""stimulus"":""img/green_ww/1.jpg"",""time"":55},{""stimulus"":""img/green_ww/2.jpg"",""time"":108},{""stimulus"":""img/green_ww/3.jpg"",""time"":162},{""stimulus"":""img/green_ww/4.jpg"",""time"":219},{""stimulus"":""img/green_ww/5.jpg"",""time"":266},{""stimulus"":""img/green_ww/6.jpg"",""time"":311},{""stimulus"":""img/green_ww/7.jpg"",""time"":358},{""stimulus"":""img/green_ww/8.jpg"",""time"":402},{""stimulus"":""img/green_ww/9.jpg"",""time"":446},{""stimulus"":""img/green_ww/10.jpg"",""time"":508},{""stimulus"":""img/green_ww/11.jpg"",""time"":567}]","[]",""
"image-keyboard-response","76","184960","0.0-5.0-1.36","63f7eb4fd0c75f760998818c","bdp_lott","Mon Mar 27 2023 14:53:02 GMT-0700 (Pacific Daylight Time)","455873","green","red","","156","","","","choice","","img/green_ww/choose11.jpg","1","189","green","0.5","0.5","0.5","w","","",""
"animation","77","185565","0.0-5.0-2.36","63f7eb4fd0c75f760998818c","bdp_lott","Mon Mar 27 2023 14:53:02 GMT-0700 (Pacific Daylight Time)","455873","green","red","","","","","","","","","","189","","","","","","[{""stimulus"":""img/green_ww/1.jpg"",""time"":65},{""stimulus"":""img/green_ww/2.jpg"",""time"":117},{""stimulus"":""img/green_ww/3.jpg"",""time"":165},{""stimulus"":""img/green_ww/4.jpg"",""time"":210},{""stimulus"":""img/green_ww/5.jpg"",""time"":255},{""stimulus"":""img/green_ww/6.jpg"",""time"":301},{""stimulus"":""img/green_ww/7.jpg"",""time"":347},{""stimulus"":""img/green_ww/8.jpg"",""time"":407},{""stimulus"":""img/green_ww/9.jpg"",""time"":468},{""stimulus"":""img/green_ww/10.jpg"",""time"":513},{""stimulus"":""img/green_ww/11.jpg"",""time"":561}]","[]",""
"image-keyboard-response","78","185839","0.0-5.0-1.37","63f7eb4fd0c75f760998818c","bdp_lott","Mon Mar 27 2023 14:53:02 GMT-0700 (Pacific Daylight Time)","455873","green","red","","273","","","","choice","","img/green_ww/choose11.jpg","1","188","green","0.5","0.5","0.5","w","","",""
"animation","79","186457","0.0-5.0-2.37","63f7eb4fd0c75f760998818c","bdp_lott","Mon Mar 27 2023 14:53:02 GMT-0700 (Pacific Daylight Time)","455873","green","red","","","","","","","","","","188","","","","","","[{""stimulus"":""img/green_ww/1.jpg"",""time"":58},{""stimulus"":""img/green_ww/2.jpg"",""time"":110},{""stimulus"":""img/green_ww/3.jpg"",""time"":145},{""stimulus"":""img/green_ww/4.jpg"",""time"":206},{""stimulus"":""img/green_ww/5.jpg"",""time"":271},{""stimulus"":""img/green_ww/6.jpg"",""time"":318},{""stimulus"":""img/green_ww/7.jpg"",""time"":365},{""stimulus"":""img/green_ww/8.jpg"",""time"":413},{""stimulus"":""img/green_ww/9.jpg"",""time"":461},{""stimulus"":""img/green_ww/10.jpg"",""time"":509},{""stimulus"":""img/green_ww/11.jpg"",""time"":556}]","[]",""
"image-keyboard-response","80","186604","0.0-5.0-1.38","63f7eb4fd0c75f760998818c","bdp_lott","Mon Mar 27 2023 14:53:02 GMT-0700 (Pacific Daylight Time)","455873","green","red","","147","","","","choice","","img/green_ww/choose11.jpg","2","187","red","0.5","0.5","0.5","w","","",""
"animation","81","187214","0.0-5.0-2.38","63f7eb4fd0c75f760998818c","bdp_lott","Mon Mar 27 2023 14:53:02 GMT-0700 (Pacific Daylight Time)","455873","green","red","","","","","","","","","","187","","","","","","[{""stimulus"":""img/red_ww/1.jpg"",""time"":58},{""stimulus"":""img/red_ww/2.jpg"",""time"":108},{""stimulus"":""img/red_ww/3.jpg"",""time"":170},{""stimulus"":""img/red_ww/4.jpg"",""time"":234},{""stimulus"":""img/red_ww/5.jpg"",""time"":281},{""stimulus"":""img/red_ww/6.jpg"",""time"":311},{""stimulus"":""img/red_ww/7.jpg"",""time"":362},{""stimulus"":""img/red_ww/8.jpg"",""time"":439},{""stimulus"":""img/red_ww/9.jpg"",""time"":471},{""stimulus"":""img/red_ww/10.jpg"",""time"":529},{""stimulus"":""img/red_ww/11.jpg"",""time"":582}]","[]",""
"image-keyboard-response","82","187312","0.0-5.0-1.39","63f7eb4fd0c75f760998818c","bdp_lott","Mon Mar 27 2023 14:53:02 GMT-0700 (Pacific Daylight Time)","455873","green","red","","97","","","","choice","","img/red_ww/choose11.jpg","1","186","green","0.5","0.5","0.5","w","","",""
"animation","83","187929","0.0-5.0-2.39","63f7eb4fd0c75f760998818c","bdp_lott","Mon Mar 27 2023 14:53:02 GMT-0700 (Pacific Daylight Time)","455873","green","red","","","","","","","","","","186","","","","","","[{""stimulus"":""img/green_ww/1.jpg"",""time"":64},{""stimulus"":""img/green_ww/2.jpg"",""time"":125},{""stimulus"":""img/green_ww/3.jpg"",""time"":159},{""stimulus"":""img/green_ww/4.jpg"",""time"":206},{""stimulus"":""img/green_ww/5.jpg"",""time"":254},{""stimulus"":""img/green_ww/6.jpg"",""time"":315},{""stimulus"":""img/green_ww/7.jpg"",""time"":376},{""stimulus"":""img/green_ww/8.jpg"",""time"":426},{""stimulus"":""img/green_ww/9.jpg"",""time"":474},{""stimulus"":""img/green_ww/10.jpg"",""time"":521},{""stimulus"":""img/green_ww/11.jpg"",""time"":568}]","[]",""
"image-keyboard-response","84","188105","0.0-5.0-1.40","63f7eb4fd0c75f760998818c","bdp_lott","Mon Mar 27 2023 14:53:02 GMT-0700 (Pacific Daylight Time)","455873","green","red","","175","","","","choice","","img/green_ww/choose11.jpg","2","185","red","0.5","0.5","0.5","l","","",""
"animation","85","188721","0.0-5.0-2.40","63f7eb4fd0c75f760998818c","bdp_lott","Mon Mar 27 2023 14:53:02 GMT-0700 (Pacific Daylight Time)","455873","green","red","","","","","","","","","","185","","","","","","[{""stimulus"":""img/red_wl/1.jpg"",""time"":57},{""stimulus"":""img/red_wl/2.jpg"",""time"":106},{""stimulus"":""img/red_wl/3.jpg"",""time"":147},{""stimulus"":""img/red_wl/4.jpg"",""time"":206},{""stimulus"":""img/red_wl/5.jpg"",""time"":279},{""stimulus"":""img/red_wl/6.jpg"",""time"":303},{""stimulus"":""img/red_wl/7.jpg"",""time"":359},{""stimulus"":""img/red_wl/8.jpg"",""time"":407},{""stimulus"":""img/red_wl/9.jpg"",""time"":451},{""stimulus"":""img/red_wl/10.jpg"",""time"":495},{""stimulus"":""img/red_wl/11.jpg"",""time"":557}]","[]",""
"image-keyboard-response","86","188810","0.0-5.0-1.41","63f7eb4fd0c75f760998818c","bdp_lott","Mon Mar 27 2023 14:53:02 GMT-0700 (Pacific Daylight Time)","455873","green","red","","89","","","","choice","","img/red_wl/choose11.jpg","1","184","green","0.5","0.5","0.5","w","","",""
"animation","87","189411","0.0-5.0-2.41","63f7eb4fd0c75f760998818c","bdp_lott","Mon Mar 27 2023 14:53:02 GMT-0700 (Pacific Daylight Time)","455873","green","red","","","","","","","","","","184","","","","","","[{""stimulus"":""img/green_wl/1.jpg"",""time"":65},{""stimulus"":""img/green_wl/2.jpg"",""time"":114},{""stimulus"":""img/green_wl/3.jpg"",""time"":148},{""stimulus"":""img/green_wl/4.jpg"",""time"":198},{""stimulus"":""img/green_wl/5.jpg"",""time"":257},{""stimulus"":""img/green_wl/6.jpg"",""time"":301},{""stimulus"":""img/green_wl/7.jpg"",""time"":362},{""stimulus"":""img/green_wl/8.jpg"",""time"":414},{""stimulus"":""img/green_wl/9.jpg"",""time"":461},{""stimulus"":""img/green_wl/10.jpg"",""time"":509},{""stimulus"":""img/green_wl/11.jpg"",""time"":555}]","[]",""
"image-keyboard-response","88","189639","0.0-5.0-1.42","63f7eb4fd0c75f760998818c","bdp_lott","Mon Mar 27 2023 14:53:02 GMT-0700 (Pacific Daylight Time)","455873","green","red","","228","","","","choice","","img/green_wl/choose11.jpg","1","183","green","0.5","0.5","0.5","l","","",""
"animation","89","190238","0.0-5.0-2.42","63f7eb4fd0c75f760998818c","bdp_lott","Mon Mar 27 2023 14:53:02 GMT-0700 (Pacific Daylight Time)","455873","green","red","","","","","","","","","","183","","","","","","[{""stimulus"":""img/green_ll/1.jpg"",""time"":61},{""stimulus"":""img/green_ll/2.jpg"",""time"":106},{""stimulus"":""img/green_ll/3.jpg"",""time"":141},{""stimulus"":""img/green_ll/4.jpg"",""time"":189},{""stimulus"":""img/green_ll/5.jpg"",""time"":249},{""stimulus"":""img/green_ll/6.jpg"",""time"":298},{""stimulus"":""img/green_ll/7.jpg"",""time"":347},{""stimulus"":""img/green_ll/8.jpg"",""time"":394},{""stimulus"":""img/green_ll/9.jpg"",""time"":441},{""stimulus"":""img/green_ll/10.jpg"",""time"":488},{""stimulus"":""img/green_ll/11.jpg"",""time"":551}]","[]",""
"image-keyboard-response","90","190560","0.0-5.0-1.43","63f7eb4fd0c75f760998818c","bdp_lott","Mon Mar 27 2023 14:53:02 GMT-0700 (Pacific Daylight Time)","455873","green","red","","322","","","","choice","","img/green_ll/choose11.jpg","2","182","red","0.5","0.5","0.5","w","","",""
"animation","91","191162","0.0-5.0-2.43","63f7eb4fd0c75f760998818c","bdp_lott","Mon Mar 27 2023 14:53:02 GMT-0700 (Pacific Daylight Time)","455873","green","red","","","","","","","","","","182","","","","","","[{""stimulus"":""img/red_lw/1.jpg"",""time"":66},{""stimulus"":""img/red_lw/2.jpg"",""time"":118},{""stimulus"":""img/red_lw/3.jpg"",""time"":153},{""stimulus"":""img/red_lw/4.jpg"",""time"":199},{""stimulus"":""img/red_lw/5.jpg"",""time"":260},{""stimulus"":""img/red_lw/6.jpg"",""time"":307},{""stimulus"":""img/red_lw/7.jpg"",""time"":371},{""stimulus"":""img/red_lw/8.jpg"",""time"":417},{""stimulus"":""img/red_lw/9.jpg"",""time"":464},{""stimulus"":""img/red_lw/10.jpg"",""time"":510},{""stimulus"":""img/red_lw/11.jpg"",""time"":558}]","[]",""
"image-keyboard-response","92","191412","0.0-5.0-1.44","63f7eb4fd0c75f760998818c","bdp_lott","Mon Mar 27 2023 14:53:02 GMT-0700 (Pacific Daylight Time)","455873","green","red","","249","","","","choice","","img/red_lw/choose11.jpg","1","181","green","0.5","0.5","0.5","w","","",""
"animation","93","192022","0.0-5.0-2.44","63f7eb4fd0c75f760998818c","bdp_lott","Mon Mar 27 2023 14:53:02 GMT-0700 (Pacific Daylight Time)","455873","green","red","","","","","","","","","","181","","","","","","[{""stimulus"":""img/green_ww/1.jpg"",""time"":65},{""stimulus"":""img/green_ww/2.jpg"",""time"":117},{""stimulus"":""img/green_ww/3.jpg"",""time"":151},{""stimulus"":""img/green_ww/4.jpg"",""time"":209},{""stimulus"":""img/green_ww/5.jpg"",""time"":262},{""stimulus"":""img/green_ww/6.jpg"",""time"":308},{""stimulus"":""img/green_ww/7.jpg"",""time"":353},{""stimulus"":""img/green_ww/8.jpg"",""time"":413},{""stimulus"":""img/green_ww/9.jpg"",""time"":467},{""stimulus"":""img/green_ww/10.jpg"",""time"":514},{""stimulus"":""img/green_ww/11.jpg"",""time"":563}]","[]",""
"image-keyboard-response","94","192166","0.0-5.0-1.45","63f7eb4fd0c75f760998818c","bdp_lott","Mon Mar 27 2023 14:53:02 GMT-0700 (Pacific Daylight Time)","455873","green","red","","143","","","","choice","","img/green_ww/choose11.jpg","1","180","green","0.5","0.5","0.5","l","","",""
"animation","95","192781","0.0-5.0-2.45","63f7eb4fd0c75f760998818c","bdp_lott","Mon Mar 27 2023 14:53:02 GMT-0700 (Pacific Daylight Time)","455873","green","red","","","","","","","","","","180","","","","","","[{""stimulus"":""img/green_lw/1.jpg"",""time"":60},{""stimulus"":""img/green_lw/2.jpg"",""time"":108},{""stimulus"":""img/green_lw/3.jpg"",""time"":156},{""stimulus"":""img/green_lw/4.jpg"",""time"":198},{""stimulus"":""img/green_lw/5.jpg"",""time"":267},{""stimulus"":""img/green_lw/6.jpg"",""time"":316},{""stimulus"":""img/green_lw/7.jpg"",""time"":363},{""stimulus"":""img/green_lw/8.jpg"",""time"":410},{""stimulus"":""img/green_lw/9.jpg"",""time"":457},{""stimulus"":""img/green_lw/10.jpg"",""time"":502},{""stimulus"":""img/green_lw/11.jpg"",""time"":563}]","[]",""
"image-keyboard-response","96","192846","0.0-5.0-1.46","63f7eb4fd0c75f760998818c","bdp_lott","Mon Mar 27 2023 14:53:02 GMT-0700 (Pacific Daylight Time)","455873","green","red","","64","","","","choice","","img/green_lw/choose11.jpg","1","179","green","0.5","0.5","0.5","l","","",""
"animation","97","193439","0.0-5.0-2.46","63f7eb4fd0c75f760998818c","bdp_lott","Mon Mar 27 2023 14:53:02 GMT-0700 (Pacific Daylight Time)","455873","green","red","","","","","","","","","","179","","","","","","[{""stimulus"":""img/green_lw/1.jpg"",""time"":62},{""stimulus"":""img/green_lw/2.jpg"",""time"":109},{""stimulus"":""img/green_lw/3.jpg"",""time"":151},{""stimulus"":""img/green_lw/4.jpg"",""time"":197},{""stimulus"":""img/green_lw/5.jpg"",""time"":241},{""stimulus"":""img/green_lw/6.jpg"",""time"":302},{""stimulus"":""img/green_lw/7.jpg"",""time"":364},{""stimulus"":""img/green_lw/8.jpg"",""time"":409},{""stimulus"":""img/green_lw/9.jpg"",""time"":455},{""stimulus"":""img/green_lw/10.jpg"",""time"":504},{""stimulus"":""img/green_lw/11.jpg"",""time"":555}]","[]",""
"image-keyboard-response","98","193489","0.0-5.0-1.47","63f7eb4fd0c75f760998818c","bdp_lott","Mon Mar 27 2023 14:53:02 GMT-0700 (Pacific Daylight Time)","455873","green","red","","49","","","","choice","","img/green_lw/choose11.jpg","1","178","green","0.5","0.5","0.5","l","","",""
"animation","99","194089","0.0-5.0-2.47","63f7eb4fd0c75f760998818c","bdp_lott","Mon Mar 27 2023 14:53:02 GMT-0700 (Pacific Daylight Time)","455873","green","red","","","","","","","","","","178","","","","","","[{""stimulus"":""img/green_lw/1.jpg"",""time"":57},{""stimulus"":""img/green_lw/2.jpg"",""time"":104},{""stimulus"":""img/green_lw/3.jpg"",""time"":153},{""stimulus"":""img/green_lw/4.jpg"",""time"":206},{""stimulus"":""img/green_lw/5.jpg"",""time"":263},{""stimulus"":""img/green_lw/6.jpg"",""time"":314},{""stimulus"":""img/green_lw/7.jpg"",""time"":360},{""stimulus"":""img/green_lw/8.jpg"",""time"":410},{""stimulus"":""img/green_lw/9.jpg"",""time"":456},{""stimulus"":""img/green_lw/10.jpg"",""time"":506},{""stimulus"":""img/green_lw/11.jpg"",""time"":554}]","[]",""
"image-keyboard-response","100","194107","0.0-5.0-1.48","63f7eb4fd0c75f760998818c","bdp_lott","Mon Mar 27 2023 14:53:02 GMT-0700 (Pacific Daylight Time)","455873","green","red","","17","","","","choice","","img/green_lw/choose11.jpg","1","177","green","0.5","0.5","0.5","l","","",""
"animation","101","194701","0.0-5.0-2.48","63f7eb4fd0c75f760998818c","bdp_lott","Mon Mar 27 2023 14:53:02 GMT-0700 (Pacific Daylight Time)","455873","green","red","","","","","","","","","","177","","","","","","[{""stimulus"":""img/green_lw/1.jpg"",""time"":61},{""stimulus"":""img/green_lw/2.jpg"",""time"":113},{""stimulus"":""img/green_lw/3.jpg"",""time"":150},{""stimulus"":""img/green_lw/4.jpg"",""time"":208},{""stimulus"":""img/green_lw/5.jpg"",""time"":249},{""stimulus"":""img/green_lw/6.jpg"",""time"":320},{""stimulus"":""img/green_lw/7.jpg"",""time"":356},{""stimulus"":""img/green_lw/8.jpg"",""time"":406},{""stimulus"":""img/green_lw/9.jpg"",""time"":450},{""stimulus"":""img/green_lw/10.jpg"",""time"":508},{""stimulus"":""img/green_lw/11.jpg"",""time"":545}]","[]",""
"image-keyboard-response","102","194718","0.0-5.0-1.49","63f7eb4fd0c75f760998818c","bdp_lott","Mon Mar 27 2023 14:53:02 GMT-0700 (Pacific Daylight Time)","455873","green","red","","16","","","","choice","","img/green_lw/choose11.jpg","1","176","green","0.5","0.5","0.5","w","","",""
"animation","103","195327","0.0-5.0-2.49","63f7eb4fd0c75f760998818c","bdp_lott","Mon Mar 27 2023 14:53:02 GMT-0700 (Pacific Daylight Time)","455873","green","red","","","","","","","","","","176","","","","","","[{""stimulus"":""img/green_ww/1.jpg"",""time"":73},{""stimulus"":""img/green_ww/2.jpg"",""time"":120},{""stimulus"":""img/green_ww/3.jpg"",""time"":171},{""stimulus"":""img/green_ww/4.jpg"",""time"":214},{""stimulus"":""img/green_ww/5.jpg"",""time"":260},{""stimulus"":""img/green_ww/6.jpg"",""time"":316},{""stimulus"":""img/green_ww/7.jpg"",""time"":365},{""stimulus"":""img/green_ww/8.jpg"",""time"":428},{""stimulus"":""img/green_ww/9.jpg"",""time"":474},{""stimulus"":""img/green_ww/10.jpg"",""time"":519},{""stimulus"":""img/green_ww/11.jpg"",""time"":565}]","[]",""
"image-keyboard-response","104","195335","0.0-5.0-1.50","63f7eb4fd0c75f760998818c","bdp_lott","Mon Mar 27 2023 14:53:02 GMT-0700 (Pacific Daylight Time)","455873","green","red","","7","","","","choice","","img/green_ww/choose11.jpg","1","175","green","0.5","0.5","0.5","w","","",""
"animation","105","195956","0.0-5.0-2.50","63f7eb4fd0c75f760998818c","bdp_lott","Mon Mar 27 2023 14:53:02 GMT-0700 (Pacific Daylight Time)","455873","green","red","","","","","","","","","","175","","","","","","[{""stimulus"":""img/green_ww/1.jpg"",""time"":65},{""stimulus"":""img/green_ww/2.jpg"",""time"":113},{""stimulus"":""img/green_ww/3.jpg"",""time"":158},{""stimulus"":""img/green_ww/4.jpg"",""time"":225},{""stimulus"":""img/green_ww/5.jpg"",""time"":262},{""stimulus"":""img/green_ww/6.jpg"",""time"":306},{""stimulus"":""img/green_ww/7.jpg"",""time"":355},{""stimulus"":""img/green_ww/8.jpg"",""time"":403},{""stimulus"":""img/green_ww/9.jpg"",""time"":460},{""stimulus"":""img/green_ww/10.jpg"",""time"":498},{""stimulus"":""img/green_ww/11.jpg"",""time"":559}]","[]",""
"image-keyboard-response","106","195999","0.0-5.0-1.51","63f7eb4fd0c75f760998818c","bdp_lott","Mon Mar 27 2023 14:53:02 GMT-0700 (Pacific Daylight Time)","455873","green","red","","41","","","","choice","","img/green_ww/choose11.jpg","2","174","red","0.5","0.5","0.5","w","","",""
"animation","107","196615","0.0-5.0-2.51","63f7eb4fd0c75f760998818c","bdp_lott","Mon Mar 27 2023 14:53:02 GMT-0700 (Pacific Daylight Time)","455873","green","red","","","","","","","","","","174","","","","","","[{""stimulus"":""img/red_ww/1.jpg"",""time"":53},{""stimulus"":""img/red_ww/2.jpg"",""time"":102},{""stimulus"":""img/red_ww/3.jpg"",""time"":148},{""stimulus"":""img/red_ww/4.jpg"",""time"":210},{""stimulus"":""img/red_ww/5.jpg"",""time"":262},{""stimulus"":""img/red_ww/6.jpg"",""time"":311},{""stimulus"":""img/red_ww/7.jpg"",""time"":356},{""stimulus"":""img/red_ww/8.jpg"",""time"":402},{""stimulus"":""img/red_ww/9.jpg"",""time"":448},{""stimulus"":""img/red_ww/10.jpg"",""time"":494},{""stimulus"":""img/red_ww/11.jpg"",""time"":558}]","[]",""
"image-keyboard-response","108","196654","0.0-5.0-1.52","63f7eb4fd0c75f760998818c","bdp_lott","Mon Mar 27 2023 14:53:02 GMT-0700 (Pacific Daylight Time)","455873","green","red","","38","","","","choice","","img/red_ww/choose11.jpg","2","173","red","0.5","0.5","0.5","w","","",""
"animation","109","197266","0.0-5.0-2.52","63f7eb4fd0c75f760998818c","bdp_lott","Mon Mar 27 2023 14:53:02 GMT-0700 (Pacific Daylight Time)","455873","green","red","","","","","","","","","","173","","","","","","[{""stimulus"":""img/red_ww/1.jpg"",""time"":56},{""stimulus"":""img/red_ww/2.jpg"",""time"":104},{""stimulus"":""img/red_ww/3.jpg"",""time"":153},{""stimulus"":""img/red_ww/4.jpg"",""time"":212},{""stimulus"":""img/red_ww/5.jpg"",""time"":264},{""stimulus"":""img/red_ww/6.jpg"",""time"":311},{""stimulus"":""img/red_ww/7.jpg"",""time"":358},{""stimulus"":""img/red_ww/8.jpg"",""time"":407},{""stimulus"":""img/red_ww/9.jpg"",""time"":457},{""stimulus"":""img/red_ww/10.jpg"",""time"":500},{""stimulus"":""img/red_ww/11.jpg"",""time"":564}]","[]",""
"image-keyboard-response","110","197276","0.0-5.0-1.53","63f7eb4fd0c75f760998818c","bdp_lott","Mon Mar 27 2023 14:53:02 GMT-0700 (Pacific Daylight Time)","455873","green","red","","8","","","","choice","","img/red_ww/choose11.jpg","1","172","green","0.5","0.5","0.5","l","","",""
"animation","111","197875","0.0-5.0-2.53","63f7eb4fd0c75f760998818c","bdp_lott","Mon Mar 27 2023 14:53:02 GMT-0700 (Pacific Daylight Time)","455873","green","red","","","","","","","","","","172","","","","","","[{""stimulus"":""img/green_lw/1.jpg"",""time"":56},{""stimulus"":""img/green_lw/2.jpg"",""time"":121},{""stimulus"":""img/green_lw/3.jpg"",""time"":170},{""stimulus"":""img/green_lw/4.jpg"",""time"":203},{""stimulus"":""img/green_lw/5.jpg"",""time"":252},{""stimulus"":""img/green_lw/6.jpg"",""time"":301},{""stimulus"":""img/green_lw/7.jpg"",""time"":349},{""stimulus"":""img/green_lw/8.jpg"",""time"":398},{""stimulus"":""img/green_lw/9.jpg"",""time"":447},{""stimulus"":""img/green_lw/10.jpg"",""time"":494},{""stimulus"":""img/green_lw/11.jpg"",""time"":553}]","[]",""
"image-keyboard-response","112","198390","0.0-5.0-1.54","63f7eb4fd0c75f760998818c","bdp_lott","Mon Mar 27 2023 14:53:02 GMT-0700 (Pacific Daylight Time)","455873","green","red","","514","","","","choice","","img/green_lw/choose11.jpg","2","171","red","0.5","0.5","0.5","w","","",""
"animation","113","198995","0.0-5.0-2.54","63f7eb4fd0c75f760998818c","bdp_lott","Mon Mar 27 2023 14:53:02 GMT-0700 (Pacific Daylight Time)","455873","green","red","","","","","","","","","","171","","","","","","[{""stimulus"":""img/red_lw/1.jpg"",""time"":65},{""stimulus"":""img/red_lw/2.jpg"",""time"":105},{""stimulus"":""img/red_lw/3.jpg"",""time"":150},{""stimulus"":""img/red_lw/4.jpg"",""time"":194},{""stimulus"":""img/red_lw/5.jpg"",""time"":251},{""stimulus"":""img/red_lw/6.jpg"",""time"":303},{""stimulus"":""img/red_lw/7.jpg"",""time"":350},{""stimulus"":""img/red_lw/8.jpg"",""time"":410},{""stimulus"":""img/red_lw/9.jpg"",""time"":462},{""stimulus"":""img/red_lw/10.jpg"",""time"":510},{""stimulus"":""img/red_lw/11.jpg"",""time"":557}]","[]",""
"image-keyboard-response","114","199048","0.0-5.0-1.55","63f7eb4fd0c75f760998818c","bdp_lott","Mon Mar 27 2023 14:53:02 GMT-0700 (Pacific Daylight Time)","455873","green","red","","51","","","","choice","","img/red_lw/choose11.jpg","1","170","green","0.5","0.5","0.5","l","","",""
"animation","115","199641","0.0-5.0-2.55","63f7eb4fd0c75f760998818c","bdp_lott","Mon Mar 27 2023 14:53:02 GMT-0700 (Pacific Daylight Time)","455873","green","red","","","","","","","","","","170","","","","","","[{""stimulus"":""img/green_lw/1.jpg"",""time"":60},{""stimulus"":""img/green_lw/2.jpg"",""time"":107},{""stimulus"":""img/green_lw/3.jpg"",""time"":150},{""stimulus"":""img/green_lw/4.jpg"",""time"":203},{""stimulus"":""img/green_lw/5.jpg"",""time"":240},{""stimulus"":""img/green_lw/6.jpg"",""time"":303},{""stimulus"":""img/green_lw/7.jpg"",""time"":363},{""stimulus"":""img/green_lw/8.jpg"",""time"":413},{""stimulus"":""img/green_lw/9.jpg"",""time"":456},{""stimulus"":""img/green_lw/10.jpg"",""time"":504},{""stimulus"":""img/green_lw/11.jpg"",""time"":557}]","[]",""
"image-keyboard-response","116","199737","0.0-5.0-1.56","63f7eb4fd0c75f760998818c","bdp_lott","Mon Mar 27 2023 14:53:02 GMT-0700 (Pacific Daylight Time)","455873","green","red","","95","","","","choice","","img/green_lw/choose11.jpg","2","169","red","0.5","0.5","0.5","w","","",""
"animation","117","200347","0.0-5.0-2.56","63f7eb4fd0c75f760998818c","bdp_lott","Mon Mar 27 2023 14:53:02 GMT-0700 (Pacific Daylight Time)","455873","green","red","","","","","","","","","","169","","","","","","[{""stimulus"":""img/red_lw/1.jpg"",""time"":62},{""stimulus"":""img/red_lw/2.jpg"",""time"":120},{""stimulus"":""img/red_lw/3.jpg"",""time"":169},{""stimulus"":""img/red_lw/4.jpg"",""time"":211},{""stimulus"":""img/red_lw/5.jpg"",""time"":257},{""stimulus"":""img/red_lw/6.jpg"",""time"":302},{""stimulus"":""img/red_lw/7.jpg"",""time"":362},{""stimulus"":""img/red_lw/8.jpg"",""time"":424},{""stimulus"":""img/red_lw/9.jpg"",""time"":471},{""stimulus"":""img/red_lw/10.jpg"",""time"":516},{""stimulus"":""img/red_lw/11.jpg"",""time"":563}]","[]",""
"image-keyboard-response","118","200759","0.0-5.0-1.57","63f7eb4fd0c75f760998818c","bdp_lott","Mon Mar 27 2023 14:53:02 GMT-0700 (Pacific Daylight Time)","455873","green","red","","411","","","","choice","","img/red_lw/choose11.jpg","1","168","green","0.5","0.5","0.5","l","","",""
"animation","119","201371","0.0-5.0-2.57","63f7eb4fd0c75f760998818c","bdp_lott","Mon Mar 27 2023 14:53:02 GMT-0700 (Pacific Daylight Time)","455873","green","red","","","","","","","","","","168","","","","","","[{""stimulus"":""img/green_lw/1.jpg"",""time"":64},{""stimulus"":""img/green_lw/2.jpg"",""time"":120},{""stimulus"":""img/green_lw/3.jpg"",""time"":154},{""stimulus"":""img/green_lw/4.jpg"",""time"":207},{""stimulus"":""img/green_lw/5.jpg"",""time"":264},{""stimulus"":""img/green_lw/6.jpg"",""time"":311},{""stimulus"":""img/green_lw/7.jpg"",""time"":375},{""stimulus"":""img/green_lw/8.jpg"",""time"":416},{""stimulus"":""img/green_lw/9.jpg"",""time"":456},{""stimulus"":""img/green_lw/10.jpg"",""time"":505},{""stimulus"":""img/green_lw/11.jpg"",""time"":551}]","[]",""
"image-keyboard-response","120","202231","0.0-5.0-1.58","63f7eb4fd0c75f760998818c","bdp_lott","Mon Mar 27 2023 14:53:02 GMT-0700 (Pacific Daylight Time)","455873","green","red","","859","","","","choice","","img/green_lw/choose11.jpg","2","167","red","0.5","0.5","0.5","l","","",""
"animation","121","202854","0.0-5.0-2.58","63f7eb4fd0c75f760998818c","bdp_lott","Mon Mar 27 2023 14:53:02 GMT-0700 (Pacific Daylight Time)","455873","green","red","","","","","","","","","","167","","","","","","[{""stimulus"":""img/red_ll/1.jpg"",""time"":55},{""stimulus"":""img/red_ll/2.jpg"",""time"":101},{""stimulus"":""img/red_ll/3.jpg"",""time"":157},{""stimulus"":""img/red_ll/4.jpg"",""time"":213},{""stimulus"":""img/red_ll/5.jpg"",""time"":261},{""stimulus"":""img/red_ll/6.jpg"",""time"":323},{""stimulus"":""img/red_ll/7.jpg"",""time"":387},{""stimulus"":""img/red_ll/8.jpg"",""time"":412},{""stimulus"":""img/red_ll/9.jpg"",""time"":456},{""stimulus"":""img/red_ll/10.jpg"",""time"":525},{""stimulus"":""img/red_ll/11.jpg"",""time"":560}]","[]",""
"image-keyboard-response","122","202923","0.0-5.0-1.59","63f7eb4fd0c75f760998818c","bdp_lott","Mon Mar 27 2023 14:53:02 GMT-0700 (Pacific Daylight Time)","455873","green","red","","68","","","","choice","","img/red_ll/choose11.jpg","2","166","red","0.5","0.5","0.5","w","","",""
"animation","123","203536","0.0-5.0-2.59","63f7eb4fd0c75f760998818c","bdp_lott","Mon Mar 27 2023 14:53:02 GMT-0700 (Pacific Daylight Time)","455873","green","red","","","","","","","","","","166","","","","","","[{""stimulus"":""img/red_lw/1.jpg"",""time"":59},{""stimulus"":""img/red_lw/2.jpg"",""time"":106},{""stimulus"":""img/red_lw/3.jpg"",""time"":142},{""stimulus"":""img/red_lw/4.jpg"",""time"":200},{""stimulus"":""img/red_lw/5.jpg"",""time"":265},{""stimulus"":""img/red_lw/6.jpg"",""time"":312},{""stimulus"":""img/red_lw/7.jpg"",""time"":360},{""stimulus"":""img/red_lw/8.jpg"",""time"":407},{""stimulus"":""img/red_lw/9.jpg"",""time"":454},{""stimulus"":""img/red_lw/10.jpg"",""time"":502},{""stimulus"":""img/red_lw/11.jpg"",""time"":549}]","[]",""
"image-keyboard-response","124","204112","0.0-5.0-1.60","63f7eb4fd0c75f760998818c","bdp_lott","Mon Mar 27 2023 14:53:02 GMT-0700 (Pacific Daylight Time)","455873","green","red","","574","","","","choice","","img/red_lw/choose11.jpg","1","165","green","0.5","0.5","0.5","w","","",""
"animation","125","204722","0.0-5.0-2.60","63f7eb4fd0c75f760998818c","bdp_lott","Mon Mar 27 2023 14:53:02 GMT-0700 (Pacific Daylight Time)","455873","green","red","","","","","","","","","","165","","","","","","[{""stimulus"":""img/green_ww/1.jpg"",""time"":54},{""stimulus"":""img/green_ww/2.jpg"",""time"":103},{""stimulus"":""img/green_ww/3.jpg"",""time"":157},{""stimulus"":""img/green_ww/4.jpg"",""time"":213},{""stimulus"":""img/green_ww/5.jpg"",""time"":261},{""stimulus"":""img/green_ww/6.jpg"",""time"":308},{""stimulus"":""img/green_ww/7.jpg"",""time"":351},{""stimulus"":""img/green_ww/8.jpg"",""time"":399},{""stimulus"":""img/green_ww/9.jpg"",""time"":457},{""stimulus"":""img/green_ww/10.jpg"",""time"":513},{""stimulus"":""img/green_ww/11.jpg"",""time"":561}]","[]",""
"image-keyboard-response","126","204802","0.0-5.0-1.61","63f7eb4fd0c75f760998818c","bdp_lott","Mon Mar 27 2023 14:53:02 GMT-0700 (Pacific Daylight Time)","455873","green","red","","80","","","","choice","","img/green_ww/choose11.jpg","2","164","red","0.5","0.5","0.5","w","","",""
"animation","127","205417","0.0-5.0-2.61","63f7eb4fd0c75f760998818c","bdp_lott","Mon Mar 27 2023 14:53:02 GMT-0700 (Pacific Daylight Time)","455873","green","red","","","","","","","","","","164","","","","","","[{""stimulus"":""img/red_ww/1.jpg"",""time"":59},{""stimulus"":""img/red_ww/2.jpg"",""time"":110},{""stimulus"":""img/red_ww/3.jpg"",""time"":143},{""stimulus"":""img/red_ww/4.jpg"",""time"":203},{""stimulus"":""img/red_ww/5.jpg"",""time"":266},{""stimulus"":""img/red_ww/6.jpg"",""time"":314},{""stimulus"":""img/red_ww/7.jpg"",""time"":361},{""stimulus"":""img/red_ww/8.jpg"",""time"":409},{""stimulus"":""img/red_ww/9.jpg"",""time"":457},{""stimulus"":""img/red_ww/10.jpg"",""time"":504},{""stimulus"":""img/red_ww/11.jpg"",""time"":568}]","[]",""
"image-keyboard-response","128","205542","0.0-5.0-1.62","63f7eb4fd0c75f760998818c","bdp_lott","Mon Mar 27 2023 14:53:02 GMT-0700 (Pacific Daylight Time)","455873","green","red","","124","","","","choice","","img/red_ww/choose11.jpg","2","163","red","0.5","0.5","0.5","w","","",""
"animation","129","206130","0.0-5.0-2.62","63f7eb4fd0c75f760998818c","bdp_lott","Mon Mar 27 2023 14:53:02 GMT-0700 (Pacific Daylight Time)","455873","green","red","","","","","","","","","","163","","","","","","[{""stimulus"":""img/red_ww/1.jpg"",""time"":50},{""stimulus"":""img/red_ww/2.jpg"",""time"":114},{""stimulus"":""img/red_ww/3.jpg"",""time"":149},{""stimulus"":""img/red_ww/4.jpg"",""time"":201},{""stimulus"":""img/red_ww/5.jpg"",""time"":243},{""stimulus"":""img/red_ww/6.jpg"",""time"":300},{""stimulus"":""img/red_ww/7.jpg"",""time"":337},{""stimulus"":""img/red_ww/8.jpg"",""time"":401},{""stimulus"":""img/red_ww/9.jpg"",""time"":446},{""stimulus"":""img/red_ww/10.jpg"",""time"":494},{""stimulus"":""img/red_ww/11.jpg"",""time"":541}]","[]",""
"image-keyboard-response","130","206467","0.0-5.0-1.63","63f7eb4fd0c75f760998818c","bdp_lott","Mon Mar 27 2023 14:53:02 GMT-0700 (Pacific Daylight Time)","455873","green","red","","337","","","","choice","","img/red_ww/choose11.jpg","1","162","green","0.5","0.5","0.5","w","","",""
"animation","131","207082","0.0-5.0-2.63","63f7eb4fd0c75f760998818c","bdp_lott","Mon Mar 27 2023 14:53:02 GMT-0700 (Pacific Daylight Time)","455873","green","red","","","","","","","","","","162","","","","","","[{""stimulus"":""img/green_ww/1.jpg"",""time"":59},{""stimulus"":""img/green_ww/2.jpg"",""time"":120},{""stimulus"":""img/green_ww/3.jpg"",""time"":160},{""stimulus"":""img/green_ww/4.jpg"",""time"":207},{""stimulus"":""img/green_ww/5.jpg"",""time"":267},{""stimulus"":""img/green_ww/6.jpg"",""time"":327},{""stimulus"":""img/green_ww/7.jpg"",""time"":375},{""stimulus"":""img/green_ww/8.jpg"",""time"":421},{""stimulus"":""img/green_ww/9.jpg"",""time"":465},{""stimulus"":""img/green_ww/10.jpg"",""time"":510},{""stimulus"":""img/green_ww/11.jpg"",""time"":566}]","[]",""
"image-keyboard-response","132","207113","0.0-5.0-1.64","63f7eb4fd0c75f760998818c","bdp_lott","Mon Mar 27 2023 14:53:02 GMT-0700 (Pacific Daylight Time)","455873","green","red","","31","","","","choice","","img/green_ww/choose11.jpg","1","161","green","0.5","0.5","0.5","w","","",""
"animation","133","207701","0.0-5.0-2.64","63f7eb4fd0c75f760998818c","bdp_lott","Mon Mar 27 2023 14:53:02 GMT-0700 (Pacific Daylight Time)","455873","green","red","","","","","","","","","","161","","","","","","[{""stimulus"":""img/green_ww/1.jpg"",""time"":62},{""stimulus"":""img/green_ww/2.jpg"",""time"":100},{""stimulus"":""img/green_ww/3.jpg"",""time"":145},{""stimulus"":""img/green_ww/4.jpg"",""time"":191},{""stimulus"":""img/green_ww/5.jpg"",""time"":239},{""stimulus"":""img/green_ww/6.jpg"",""time"":286},{""stimulus"":""img/green_ww/7.jpg"",""time"":350},{""stimulus"":""img/green_ww/8.jpg"",""time"":399},{""stimulus"":""img/green_ww/9.jpg"",""time"":446},{""stimulus"":""img/green_ww/10.jpg"",""time"":493},{""stimulus"":""img/green_ww/11.jpg"",""time"":546}]","[]",""
"image-keyboard-response","134","208176","0.0-5.0-1.65","63f7eb4fd0c75f760998818c","bdp_lott","Mon Mar 27 2023 14:53:02 GMT-0700 (Pacific Daylight Time)","455873","green","red","","475","","","","choice","","img/green_ww/choose11.jpg","2","160","red","0.5","0.5","0.5","l","","",""
"animation","135","208793","0.0-5.0-2.65","63f7eb4fd0c75f760998818c","bdp_lott","Mon Mar 27 2023 14:53:02 GMT-0700 (Pacific Daylight Time)","455873","green","red","","","","","","","","","","160","","","","","","[{""stimulus"":""img/red_wl/1.jpg"",""time"":65},{""stimulus"":""img/red_wl/2.jpg"",""time"":125},{""stimulus"":""img/red_wl/3.jpg"",""time"":169},{""stimulus"":""img/red_wl/4.jpg"",""time"":206},{""stimulus"":""img/red_wl/5.jpg"",""time"":268},{""stimulus"":""img/red_wl/6.jpg"",""time"":316},{""stimulus"":""img/red_wl/7.jpg"",""time"":379},{""stimulus"":""img/red_wl/8.jpg"",""time"":427},{""stimulus"":""img/red_wl/9.jpg"",""time"":474},{""stimulus"":""img/red_wl/10.jpg"",""time"":522},{""stimulus"":""img/red_wl/11.jpg"",""time"":570}]","[]",""
"image-keyboard-response","136","209102","0.0-5.0-1.66","63f7eb4fd0c75f760998818c","bdp_lott","Mon Mar 27 2023 14:53:02 GMT-0700 (Pacific Daylight Time)","455873","green","red","","308","","","","choice","","img/red_wl/choose11.jpg","2","159","red","0.5","0.5","0.5","l","","",""
"animation","137","209714","0.0-5.0-2.66","63f7eb4fd0c75f760998818c","bdp_lott","Mon Mar 27 2023 14:53:02 GMT-0700 (Pacific Daylight Time)","455873","green","red","","","","","","","","","","159","","","","","","[{""stimulus"":""img/red_wl/1.jpg"",""time"":52},{""stimulus"":""img/red_wl/2.jpg"",""time"":118},{""stimulus"":""img/red_wl/3.jpg"",""time"":166},{""stimulus"":""img/red_wl/4.jpg"",""time"":215},{""stimulus"":""img/red_wl/5.jpg"",""time"":263},{""stimulus"":""img/red_wl/6.jpg"",""time"":309},{""stimulus"":""img/red_wl/7.jpg"",""time"":358},{""stimulus"":""img/red_wl/8.jpg"",""time"":403},{""stimulus"":""img/red_wl/9.jpg"",""time"":453},{""stimulus"":""img/red_wl/10.jpg"",""time"":508},{""stimulus"":""img/red_wl/11.jpg"",""time"":564}]","[]",""
"image-keyboard-response","138","209804","0.0-5.0-1.67","63f7eb4fd0c75f760998818c","bdp_lott","Mon Mar 27 2023 14:53:02 GMT-0700 (Pacific Daylight Time)","455873","green","red","","89","","","","choice","","img/red_wl/choose11.jpg","1","158","green","0.5","0.5","0.5","l","","",""
"animation","139","210416","0.0-5.0-2.67","63f7eb4fd0c75f760998818c","bdp_lott","Mon Mar 27 2023 14:53:02 GMT-0700 (Pacific Daylight Time)","455873","green","red","","","","","","","","","","158","","","","","","[{""stimulus"":""img/green_ll/1.jpg"",""time"":56},{""stimulus"":""img/green_ll/2.jpg"",""time"":102},{""stimulus"":""img/green_ll/3.jpg"",""time"":152},{""stimulus"":""img/green_ll/4.jpg"",""time"":209},{""stimulus"":""img/green_ll/5.jpg"",""time"":265},{""stimulus"":""img/green_ll/6.jpg"",""time"":311},{""stimulus"":""img/green_ll/7.jpg"",""time"":360},{""stimulus"":""img/green_ll/8.jpg"",""time"":408},{""stimulus"":""img/green_ll/9.jpg"",""time"":451},{""stimulus"":""img/green_ll/10.jpg"",""time"":504},{""stimulus"":""img/green_ll/11.jpg"",""time"":548}]","[]",""
"image-keyboard-response","140","210873","0.0-5.0-1.68","63f7eb4fd0c75f760998818c","bdp_lott","Mon Mar 27 2023 14:53:02 GMT-0700 (Pacific Daylight Time)","455873","green","red","","457","","","","choice","","img/green_ll/choose11.jpg","1","157","green","0.5","0.5","0.5","w","","",""
"animation","141","211478","0.0-5.0-2.68","63f7eb4fd0c75f760998818c","bdp_lott","Mon Mar 27 2023 14:53:02 GMT-0700 (Pacific Daylight Time)","455873","green","red","","","","","","","","","","157","","","","","","[{""stimulus"":""img/green_wl/1.jpg"",""time"":66},{""stimulus"":""img/green_wl/2.jpg"",""time"":113},{""stimulus"":""img/green_wl/3.jpg"",""time"":149},{""stimulus"":""img/green_wl/4.jpg"",""time"":194},{""stimulus"":""img/green_wl/5.jpg"",""time"":241},{""stimulus"":""img/green_wl/6.jpg"",""time"":303},{""stimulus"":""img/green_wl/7.jpg"",""time"":349},{""stimulus"":""img/green_wl/8.jpg"",""time"":410},{""stimulus"":""img/green_wl/9.jpg"",""time"":461},{""stimulus"":""img/green_wl/10.jpg"",""time"":508},{""stimulus"":""img/green_wl/11.jpg"",""time"":556}]","[]",""
"image-keyboard-response","142","211942","0.0-5.0-1.69","63f7eb4fd0c75f760998818c","bdp_lott","Mon Mar 27 2023 14:53:02 GMT-0700 (Pacific Daylight Time)","455873","green","red","","464","","","","choice","","img/green_wl/choose11.jpg","2","156","red","0.5","0.5","0.5","w","","",""
"animation","143","212553","0.0-5.0-2.69","63f7eb4fd0c75f760998818c","bdp_lott","Mon Mar 27 2023 14:53:02 GMT-0700 (Pacific Daylight Time)","455873","green","red","","","","","","","","","","156","","","","","","[{""stimulus"":""img/red_ww/1.jpg"",""time"":59},{""stimulus"":""img/red_ww/2.jpg"",""time"":105},{""stimulus"":""img/red_ww/3.jpg"",""time"":141},{""stimulus"":""img/red_ww/4.jpg"",""time"":200},{""stimulus"":""img/red_ww/5.jpg"",""time"":262},{""stimulus"":""img/red_ww/6.jpg"",""time"":311},{""stimulus"":""img/red_ww/7.jpg"",""time"":359},{""stimulus"":""img/red_ww/8.jpg"",""time"":406},{""stimulus"":""img/red_ww/9.jpg"",""time"":454},{""stimulus"":""img/red_ww/10.jpg"",""time"":501},{""stimulus"":""img/red_ww/11.jpg"",""time"":563}]","[]",""
"image-keyboard-response","144","212785","0.0-5.0-1.70","63f7eb4fd0c75f760998818c","bdp_lott","Mon Mar 27 2023 14:53:02 GMT-0700 (Pacific Daylight Time)","455873","green","red","","231","","","","choice","","img/red_ww/choose11.jpg","2","155","red","0.5","0.5","0.5","l","","",""
"animation","145","213406","0.0-5.0-2.70","63f7eb4fd0c75f760998818c","bdp_lott","Mon Mar 27 2023 14:53:02 GMT-0700 (Pacific Daylight Time)","455873","green","red","","","","","","","","","","155","","","","","","[{""stimulus"":""img/red_wl/1.jpg"",""time"":52},{""stimulus"":""img/red_wl/2.jpg"",""time"":116},{""stimulus"":""img/red_wl/3.jpg"",""time"":165},{""stimulus"":""img/red_wl/4.jpg"",""time"":212},{""stimulus"":""img/red_wl/5.jpg"",""time"":260},{""stimulus"":""img/red_wl/6.jpg"",""time"":304},{""stimulus"":""img/red_wl/7.jpg"",""time"":350},{""stimulus"":""img/red_wl/8.jpg"",""time"":394},{""stimulus"":""img/red_wl/9.jpg"",""time"":471},{""stimulus"":""img/red_wl/10.jpg"",""time"":514},{""stimulus"":""img/red_wl/11.jpg"",""time"":561}]","[]",""
"image-keyboard-response","146","213688","0.0-5.0-1.71","63f7eb4fd0c75f760998818c","bdp_lott","Mon Mar 27 2023 14:53:02 GMT-0700 (Pacific Daylight Time)","455873","green","red","","281","","","","choice","","img/red_wl/choose11.jpg","2","154","red","0.5","0.5","0.5","w","","",""
"animation","147","214297","0.0-5.0-2.71","63f7eb4fd0c75f760998818c","bdp_lott","Mon Mar 27 2023 14:53:02 GMT-0700 (Pacific Daylight Time)","455873","green","red","","","","","","","","","","154","","","","","","[{""stimulus"":""img/red_ww/1.jpg"",""time"":54},{""stimulus"":""img/red_ww/2.jpg"",""time"":101},{""stimulus"":""img/red_ww/3.jpg"",""time"":156},{""stimulus"":""img/red_ww/4.jpg"",""time"":212},{""stimulus"":""img/red_ww/5.jpg"",""time"":260},{""stimulus"":""img/red_ww/6.jpg"",""time"":308},{""stimulus"":""img/red_ww/7.jpg"",""time"":355},{""stimulus"":""img/red_ww/8.jpg"",""time"":400},{""stimulus"":""img/red_ww/9.jpg"",""time"":446},{""stimulus"":""img/red_ww/10.jpg"",""time"":507},{""stimulus"":""img/red_ww/11.jpg"",""time"":562}]","[]",""
"image-keyboard-response","148","215871","0.0-5.0-1.72","63f7eb4fd0c75f760998818c","bdp_lott","Mon Mar 27 2023 14:53:02 GMT-0700 (Pacific Daylight Time)","455873","green","red","","1574","","","","choice","","img/red_ww/choose11.jpg","2","153","red","0.5","0.5","0.5","l","","",""
"animation","149","216473","0.0-5.0-2.72","63f7eb4fd0c75f760998818c","bdp_lott","Mon Mar 27 2023 14:53:02 GMT-0700 (Pacific Daylight Time)","455873","green","red","","","","","","","","","","153","","","","","","[{""stimulus"":""img/red_wl/1.jpg"",""time"":65},{""stimulus"":""img/red_wl/2.jpg"",""time"":111},{""stimulus"":""img/red_wl/3.jpg"",""time"":146},{""stimulus"":""img/red_wl/4.jpg"",""time"":194},{""stimulus"":""img/red_wl/5.jpg"",""time"":245},{""stimulus"":""img/red_wl/6.jpg"",""time"":287},{""stimulus"":""img/red_wl/7.jpg"",""time"":366},{""stimulus"":""img/red_wl/8.jpg"",""time"":413},{""stimulus"":""img/red_wl/9.jpg"",""time"":460},{""stimulus"":""img/red_wl/10.jpg"",""time"":507},{""stimulus"":""img/red_wl/11.jpg"",""time"":556}]","[]",""
"image-keyboard-response","150","216585","0.0-5.0-1.73","63f7eb4fd0c75f760998818c","bdp_lott","Mon Mar 27 2023 14:53:02 GMT-0700 (Pacific Daylight Time)","455873","green","red","","112","","","","choice","","img/red_wl/choose11.jpg","1","152","green","0.5","0.5","0.5","w","","",""
"animation","151","217193","0.0-5.0-2.73","63f7eb4fd0c75f760998818c","bdp_lott","Mon Mar 27 2023 14:53:02 GMT-0700 (Pacific Daylight Time)","455873","green","red","","","","","","","","","","152","","","","","","[{""stimulus"":""img/green_wl/1.jpg"",""time"":62},{""stimulus"":""img/green_wl/2.jpg"",""time"":109},{""stimulus"":""img/green_wl/3.jpg"",""time"":157},{""stimulus"":""img/green_wl/4.jpg"",""time"":201},{""stimulus"":""img/green_wl/5.jpg"",""time"":248},{""stimulus"":""img/green_wl/6.jpg"",""time"":307},{""stimulus"":""img/green_wl/7.jpg"",""time"":362},{""stimulus"":""img/green_wl/8.jpg"",""time"":410},{""stimulus"":""img/green_wl/9.jpg"",""time"":456},{""stimulus"":""img/green_wl/10.jpg"",""time"":501},{""stimulus"":""img/green_wl/11.jpg"",""time"":552}]","[]",""
"image-keyboard-response","152","217326","0.0-5.0-1.74","63f7eb4fd0c75f760998818c","bdp_lott","Mon Mar 27 2023 14:53:02 GMT-0700 (Pacific Daylight Time)","455873","green","red","","132","","","","choice","","img/green_wl/choose11.jpg","2","151","red","0.5","0.5","0.5","w","","",""
"animation","153","217918","0.0-5.0-2.74","63f7eb4fd0c75f760998818c","bdp_lott","Mon Mar 27 2023 14:53:02 GMT-0700 (Pacific Daylight Time)","455873","green","red","","","","","","","","","","151","","","","","","[{""stimulus"":""img/red_ww/1.jpg"",""time"":64},{""stimulus"":""img/red_ww/2.jpg"",""time"":102},{""stimulus"":""img/red_ww/3.jpg"",""time"":147},{""stimulus"":""img/red_ww/4.jpg"",""time"":196},{""stimulus"":""img/red_ww/5.jpg"",""time"":242},{""stimulus"":""img/red_ww/6.jpg"",""time"":300},{""stimulus"":""img/red_ww/7.jpg"",""time"":353},{""stimulus"":""img/red_ww/8.jpg"",""time"":399},{""stimulus"":""img/red_ww/9.jpg"",""time"":447},{""stimulus"":""img/red_ww/10.jpg"",""time"":494},{""stimulus"":""img/red_ww/11.jpg"",""time"":542}]","[]",""
"image-keyboard-response","154","218226","0.0-5.0-1.75","63f7eb4fd0c75f760998818c","bdp_lott","Mon Mar 27 2023 14:53:02 GMT-0700 (Pacific Daylight Time)","455873","green","red","","308","","","","choice","","img/red_ww/choose11.jpg","1","150","green","0.5","0.5","0.5","l","","",""
"animation","155","218832","0.0-5.0-2.75","63f7eb4fd0c75f760998818c","bdp_lott","Mon Mar 27 2023 14:53:02 GMT-0700 (Pacific Daylight Time)","455873","green","red","","","","","","","","","","150","","","","","","[{""stimulus"":""img/green_lw/1.jpg"",""time"":53},{""stimulus"":""img/green_lw/2.jpg"",""time"":100},{""stimulus"":""img/green_lw/3.jpg"",""time"":157},{""stimulus"":""img/green_lw/4.jpg"",""time"":212},{""stimulus"":""img/green_lw/5.jpg"",""time"":259},{""stimulus"":""img/green_lw/6.jpg"",""time"":307},{""stimulus"":""img/green_lw/7.jpg"",""time"":355},{""stimulus"":""img/green_lw/8.jpg"",""time"":399},{""stimulus"":""img/green_lw/9.jpg"",""time"":444},{""stimulus"":""img/green_lw/10.jpg"",""time"":522},{""stimulus"":""img/green_lw/11.jpg"",""time"":595}]","[]",""
"image-keyboard-response","156","219111","0.0-5.0-1.76","63f7eb4fd0c75f760998818c","bdp_lott","Mon Mar 27 2023 14:53:02 GMT-0700 (Pacific Daylight Time)","455873","green","red","","279","","","","choice","","img/green_lw/choose11.jpg","2","149","red","0.5","0.1","0.1","l","","",""
"animation","157","219722","0.0-5.0-2.76","63f7eb4fd0c75f760998818c","bdp_lott","Mon Mar 27 2023 14:53:02 GMT-0700 (Pacific Daylight Time)","455873","green","red","","","","","","","","","","149","","","","","","[{""stimulus"":""img/red_ll/1.jpg"",""time"":55},{""stimulus"":""img/red_ll/2.jpg"",""time"":103},{""stimulus"":""img/red_ll/3.jpg"",""time"":167},{""stimulus"":""img/red_ll/4.jpg"",""time"":214},{""stimulus"":""img/red_ll/5.jpg"",""time"":261},{""stimulus"":""img/red_ll/6.jpg"",""time"":307},{""stimulus"":""img/red_ll/7.jpg"",""time"":353},{""stimulus"":""img/red_ll/8.jpg"",""time"":400},{""stimulus"":""img/red_ll/9.jpg"",""time"":453},{""stimulus"":""img/red_ll/10.jpg"",""time"":512},{""stimulus"":""img/red_ll/11.jpg"",""time"":563}]","[]",""
"image-keyboard-response","158","220177","0.0-5.0-1.77","63f7eb4fd0c75f760998818c","bdp_lott","Mon Mar 27 2023 14:53:02 GMT-0700 (Pacific Daylight Time)","455873","green","red","","454","","","","choice","","img/red_ll/choose11.jpg","2","148","red","0.5","0.1","0.1","l","","",""
"animation","159","220787","0.0-5.0-2.77","63f7eb4fd0c75f760998818c","bdp_lott","Mon Mar 27 2023 14:53:02 GMT-0700 (Pacific Daylight Time)","455873","green","red","","","","","","","","","","148","","","","","","[{""stimulus"":""img/red_ll/1.jpg"",""time"":54},{""stimulus"":""img/red_ll/2.jpg"",""time"":114},{""stimulus"":""img/red_ll/3.jpg"",""time"":163},{""stimulus"":""img/red_ll/4.jpg"",""time"":208},{""stimulus"":""img/red_ll/5.jpg"",""time"":258},{""stimulus"":""img/red_ll/6.jpg"",""time"":306},{""stimulus"":""img/red_ll/7.jpg"",""time"":353},{""stimulus"":""img/red_ll/8.jpg"",""time"":399},{""stimulus"":""img/red_ll/9.jpg"",""time"":466},{""stimulus"":""img/red_ll/10.jpg"",""time"":515},{""stimulus"":""img/red_ll/11.jpg"",""time"":563}]","[]",""
"image-keyboard-response","160","221307","0.0-5.0-1.78","63f7eb4fd0c75f760998818c","bdp_lott","Mon Mar 27 2023 14:53:02 GMT-0700 (Pacific Daylight Time)","455873","green","red","","519","","","","choice","","img/red_ll/choose11.jpg","1","147","green","0.5","0.1","0.5","w","","",""
"animation","161","221918","0.0-5.0-2.78","63f7eb4fd0c75f760998818c","bdp_lott","Mon Mar 27 2023 14:53:02 GMT-0700 (Pacific Daylight Time)","455873","green","red","","","","","","","","","","147","","","","","","[{""stimulus"":""img/green_wl/1.jpg"",""time"":59},{""stimulus"":""img/green_wl/2.jpg"",""time"":104},{""stimulus"":""img/green_wl/3.jpg"",""time"":153},{""stimulus"":""img/green_wl/4.jpg"",""time"":209},{""stimulus"":""img/green_wl/5.jpg"",""time"":264},{""stimulus"":""img/green_wl/6.jpg"",""time"":312},{""stimulus"":""img/green_wl/7.jpg"",""time"":358},{""stimulus"":""img/green_wl/8.jpg"",""time"":407},{""stimulus"":""img/green_wl/9.jpg"",""time"":453},{""stimulus"":""img/green_wl/10.jpg"",""time"":499},{""stimulus"":""img/green_wl/11.jpg"",""time"":553}]","[]",""
"image-keyboard-response","162","222135","0.0-5.0-1.79","63f7eb4fd0c75f760998818c","bdp_lott","Mon Mar 27 2023 14:53:02 GMT-0700 (Pacific Daylight Time)","455873","green","red","","216","","","","choice","","img/green_wl/choose11.jpg","2","146","red","0.5","0.1","0.1","l","","",""
"animation","163","222738","0.0-5.0-2.79","63f7eb4fd0c75f760998818c","bdp_lott","Mon Mar 27 2023 14:53:02 GMT-0700 (Pacific Daylight Time)","455873","green","red","","","","","","","","","","146","","","","","","[{""stimulus"":""img/red_wl/1.jpg"",""time"":62},{""stimulus"":""img/red_wl/2.jpg"",""time"":110},{""stimulus"":""img/red_wl/3.jpg"",""time"":148},{""stimulus"":""img/red_wl/4.jpg"",""time"":192},{""stimulus"":""img/red_wl/5.jpg"",""time"":254},{""stimulus"":""img/red_wl/6.jpg"",""time"":319},{""stimulus"":""img/red_wl/7.jpg"",""time"":353},{""stimulus"":""img/red_wl/8.jpg"",""time"":400},{""stimulus"":""img/red_wl/9.jpg"",""time"":447},{""stimulus"":""img/red_wl/10.jpg"",""time"":494},{""stimulus"":""img/red_wl/11.jpg"",""time"":542}]","[]",""
"image-keyboard-response","164","223595","0.0-5.0-1.80","63f7eb4fd0c75f760998818c","bdp_lott","Mon Mar 27 2023 14:53:02 GMT-0700 (Pacific Daylight Time)","455873","green","red","","856","","","","choice","","img/red_wl/choose11.jpg","1","145","green","0.5","0.1","0.5","w","","",""
"animation","165","224207","0.0-5.0-2.80","63f7eb4fd0c75f760998818c","bdp_lott","Mon Mar 27 2023 14:53:02 GMT-0700 (Pacific Daylight Time)","455873","green","red","","","","","","","","","","145","","","","","","[{""stimulus"":""img/green_wl/1.jpg"",""time"":59},{""stimulus"":""img/green_wl/2.jpg"",""time"":105},{""stimulus"":""img/green_wl/3.jpg"",""time"":144},{""stimulus"":""img/green_wl/4.jpg"",""time"":190},{""stimulus"":""img/green_wl/5.jpg"",""time"":265},{""stimulus"":""img/green_wl/6.jpg"",""time"":312},{""stimulus"":""img/green_wl/7.jpg"",""time"":359},{""stimulus"":""img/green_wl/8.jpg"",""time"":405},{""stimulus"":""img/green_wl/9.jpg"",""time"":449},{""stimulus"":""img/green_wl/10.jpg"",""time"":494},{""stimulus"":""img/green_wl/11.jpg"",""time"":570}]","[]",""
"image-keyboard-response","166","225472","0.0-5.0-1.81","63f7eb4fd0c75f760998818c","bdp_lott","Mon Mar 27 2023 14:53:02 GMT-0700 (Pacific Daylight Time)","455873","green","red","","1263","","","","choice","","img/green_wl/choose11.jpg","2","144","red","0.5","0.1","0.1","l","","",""
"animation","167","226065","0.0-5.0-2.81","63f7eb4fd0c75f760998818c","bdp_lott","Mon Mar 27 2023 14:53:02 GMT-0700 (Pacific Daylight Time)","455873","green","red","","","","","","","","","","144","","","","","","[{""stimulus"":""img/red_wl/1.jpg"",""time"":62},{""stimulus"":""img/red_wl/2.jpg"",""time"":103},{""stimulus"":""img/red_wl/3.jpg"",""time"":146},{""stimulus"":""img/red_wl/4.jpg"",""time"":195},{""stimulus"":""img/red_wl/5.jpg"",""time"":242},{""stimulus"":""img/red_wl/6.jpg"",""time"":303},{""stimulus"":""img/red_wl/7.jpg"",""time"":367},{""stimulus"":""img/red_wl/8.jpg"",""time"":404},{""stimulus"":""img/red_wl/9.jpg"",""time"":450},{""stimulus"":""img/red_wl/10.jpg"",""time"":499},{""stimulus"":""img/red_wl/11.jpg"",""time"":546}]","[]",""
"image-keyboard-response","168","226792","0.0-5.0-1.82","63f7eb4fd0c75f760998818c","bdp_lott","Mon Mar 27 2023 14:53:02 GMT-0700 (Pacific Daylight Time)","455873","green","red","","726","","","","choice","","img/red_wl/choose11.jpg","1","143","green","0.5","0.1","0.5","w","","",""
"animation","169","227416","0.0-5.0-2.82","63f7eb4fd0c75f760998818c","bdp_lott","Mon Mar 27 2023 14:53:02 GMT-0700 (Pacific Daylight Time)","455873","green","red","","","","","","","","","","143","","","","","","[{""stimulus"":""img/green_wl/1.jpg"",""time"":66},{""stimulus"":""img/green_wl/2.jpg"",""time"":125},{""stimulus"":""img/green_wl/3.jpg"",""time"":162},{""stimulus"":""img/green_wl/4.jpg"",""time"":209},{""stimulus"":""img/green_wl/5.jpg"",""time"":256},{""stimulus"":""img/green_wl/6.jpg"",""time"":319},{""stimulus"":""img/green_wl/7.jpg"",""time"":366},{""stimulus"":""img/green_wl/8.jpg"",""time"":416},{""stimulus"":""img/green_wl/9.jpg"",""time"":459},{""stimulus"":""img/green_wl/10.jpg"",""time"":520},{""stimulus"":""img/green_wl/11.jpg"",""time"":575}]","[]",""
"image-keyboard-response","170","228080","0.0-5.0-1.83","63f7eb4fd0c75f760998818c","bdp_lott","Mon Mar 27 2023 14:53:02 GMT-0700 (Pacific Daylight Time)","455873","green","red","","663","","","","choice","","img/green_wl/choose11.jpg","2","142","red","0.5","0.1","0.1","l","","",""
"animation","171","228693","0.0-5.0-2.83","63f7eb4fd0c75f760998818c","bdp_lott","Mon Mar 27 2023 14:53:02 GMT-0700 (Pacific Daylight Time)","455873","green","red","","","","","","","","","","142","","","","","","[{""stimulus"":""img/red_wl/1.jpg"",""time"":51},{""stimulus"":""img/red_wl/2.jpg"",""time"":118},{""stimulus"":""img/red_wl/3.jpg"",""time"":164},{""stimulus"":""img/red_wl/4.jpg"",""time"":214},{""stimulus"":""img/red_wl/5.jpg"",""time"":260},{""stimulus"":""img/red_wl/6.jpg"",""time"":309},{""stimulus"":""img/red_wl/7.jpg"",""time"":357},{""stimulus"":""img/red_wl/8.jpg"",""time"":404},{""stimulus"":""img/red_wl/9.jpg"",""time"":451},{""stimulus"":""img/red_wl/10.jpg"",""time"":495},{""stimulus"":""img/red_wl/11.jpg"",""time"":556}]","[]",""
"image-keyboard-response","172","229151","0.0-5.0-1.84","63f7eb4fd0c75f760998818c","bdp_lott","Mon Mar 27 2023 14:53:02 GMT-0700 (Pacific Daylight Time)","455873","green","red","","457","","","","choice","","img/red_wl/choose11.jpg","1","141","green","0.5","0.1","0.5","l","","",""
"animation","173","229758","0.0-5.0-2.84","63f7eb4fd0c75f760998818c","bdp_lott","Mon Mar 27 2023 14:53:02 GMT-0700 (Pacific Daylight Time)","455873","green","red","","","","","","","","","","141","","","","","","[{""stimulus"":""img/green_ll/1.jpg"",""time"":54},{""stimulus"":""img/green_ll/2.jpg"",""time"":103},{""stimulus"":""img/green_ll/3.jpg"",""time"":159},{""stimulus"":""img/green_ll/4.jpg"",""time"":214},{""stimulus"":""img/green_ll/5.jpg"",""time"":262},{""stimulus"":""img/green_ll/6.jpg"",""time"":310},{""stimulus"":""img/green_ll/7.jpg"",""time"":359},{""stimulus"":""img/green_ll/8.jpg"",""time"":407},{""stimulus"":""img/green_ll/9.jpg"",""time"":452},{""stimulus"":""img/green_ll/10.jpg"",""time"":505},{""stimulus"":""img/green_ll/11.jpg"",""time"":547}]","[]",""
"image-keyboard-response","174","229913","0.0-5.0-1.85","63f7eb4fd0c75f760998818c","bdp_lott","Mon Mar 27 2023 14:53:02 GMT-0700 (Pacific Daylight Time)","455873","green","red","","154","","","","choice","","img/green_ll/choose11.jpg","1","140","green","0.5","0.1","0.5","l","","",""
"animation","175","230511","0.0-5.0-2.85","63f7eb4fd0c75f760998818c","bdp_lott","Mon Mar 27 2023 14:53:02 GMT-0700 (Pacific Daylight Time)","455873","green","red","","","","","","","","","","140","","","","","","[{""stimulus"":""img/green_ll/1.jpg"",""time"":61},{""stimulus"":""img/green_ll/2.jpg"",""time"":108},{""stimulus"":""img/green_ll/3.jpg"",""time"":152},{""stimulus"":""img/green_ll/4.jpg"",""time"":199},{""stimulus"":""img/green_ll/5.jpg"",""time"":243},{""stimulus"":""img/green_ll/6.jpg"",""time"":305},{""stimulus"":""img/green_ll/7.jpg"",""time"":364},{""stimulus"":""img/green_ll/8.jpg"",""time"":410},{""stimulus"":""img/green_ll/9.jpg"",""time"":454},{""stimulus"":""img/green_ll/10.jpg"",""time"":502},{""stimulus"":""img/green_ll/11.jpg"",""time"":548}]","[]",""
"image-keyboard-response","176","230938","0.0-5.0-1.86","63f7eb4fd0c75f760998818c","bdp_lott","Mon Mar 27 2023 14:53:02 GMT-0700 (Pacific Daylight Time)","455873","green","red","","426","","","","choice","","img/green_ll/choose11.jpg","2","139","red","0.5","0.1","0.1","l","","",""
"animation","177","231554","0.0-5.0-2.86","63f7eb4fd0c75f760998818c","bdp_lott","Mon Mar 27 2023 14:53:02 GMT-0700 (Pacific Daylight Time)","455873","green","red","","","","","","","","","","139","","","","","","[{""stimulus"":""img/red_ll/1.jpg"",""time"":62},{""stimulus"":""img/red_ll/2.jpg"",""time"":121},{""stimulus"":""img/red_ll/3.jpg"",""time"":170},{""stimulus"":""img/red_ll/4.jpg"",""time"":215},{""stimulus"":""img/red_ll/5.jpg"",""time"":264},{""stimulus"":""img/red_ll/6.jpg"",""time"":323},{""stimulus"":""img/red_ll/7.jpg"",""time"":376},{""stimulus"":""img/red_ll/8.jpg"",""time"":424},{""stimulus"":""img/red_ll/9.jpg"",""time"":473},{""stimulus"":""img/red_ll/10.jpg"",""time"":522},{""stimulus"":""img/red_ll/11.jpg"",""time"":569}]","[]",""
"image-keyboard-response","178","231683","0.0-5.0-1.87","63f7eb4fd0c75f760998818c","bdp_lott","Mon Mar 27 2023 14:53:02 GMT-0700 (Pacific Daylight Time)","455873","green","red","","128","","","","choice","","img/red_ll/choose11.jpg","2","138","red","0.5","0.1","0.1","l","","",""
"animation","179","232276","0.0-5.0-2.87","63f7eb4fd0c75f760998818c","bdp_lott","Mon Mar 27 2023 14:53:02 GMT-0700 (Pacific Daylight Time)","455873","green","red","","","","","","","","","","138","","","","","","[{""stimulus"":""img/red_ll/1.jpg"",""time"":61},{""stimulus"":""img/red_ll/2.jpg"",""time"":108},{""stimulus"":""img/red_ll/3.jpg"",""time"":153},{""stimulus"":""img/red_ll/4.jpg"",""time"":199},{""stimulus"":""img/red_ll/5.jpg"",""time"":247},{""stimulus"":""img/red_ll/6.jpg"",""time"":308},{""stimulus"":""img/red_ll/7.jpg"",""time"":361},{""stimulus"":""img/red_ll/8.jpg"",""time"":409},{""stimulus"":""img/red_ll/9.jpg"",""time"":454},{""stimulus"":""img/red_ll/10.jpg"",""time"":502},{""stimulus"":""img/red_ll/11.jpg"",""time"":546}]","[]",""
"image-keyboard-response","180","232786","0.0-5.0-1.88","63f7eb4fd0c75f760998818c","bdp_lott","Mon Mar 27 2023 14:53:02 GMT-0700 (Pacific Daylight Time)","455873","green","red","","510","","","","choice","","img/red_ll/choose11.jpg","1","137","green","0.5","0.1","0.5","w","","",""
"animation","181","233391","0.0-5.0-2.88","63f7eb4fd0c75f760998818c","bdp_lott","Mon Mar 27 2023 14:53:02 GMT-0700 (Pacific Daylight Time)","455873","green","red","","","","","","","","","","137","","","","","","[{""stimulus"":""img/green_wl/1.jpg"",""time"":51},{""stimulus"":""img/green_wl/2.jpg"",""time"":111},{""stimulus"":""img/green_wl/3.jpg"",""time"":161},{""stimulus"":""img/green_wl/4.jpg"",""time"":208},{""stimulus"":""img/green_wl/5.jpg"",""time"":255},{""stimulus"":""img/green_wl/6.jpg"",""time"":303},{""stimulus"":""img/green_wl/7.jpg"",""time"":349},{""stimulus"":""img/green_wl/8.jpg"",""time"":410},{""stimulus"":""img/green_wl/9.jpg"",""time"":462},{""stimulus"":""img/green_wl/10.jpg"",""time"":510},{""stimulus"":""img/green_wl/11.jpg"",""time"":557}]","[]",""
"image-keyboard-response","182","233963","0.0-5.0-1.89","63f7eb4fd0c75f760998818c","bdp_lott","Mon Mar 27 2023 14:53:02 GMT-0700 (Pacific Daylight Time)","455873","green","red","","571","","","","choice","","img/green_wl/choose11.jpg","2","136","red","0.5","0.1","0.1","w","","",""
"animation","183","234573","0.0-5.0-2.89","63f7eb4fd0c75f760998818c","bdp_lott","Mon Mar 27 2023 14:53:02 GMT-0700 (Pacific Daylight Time)","455873","green","red","","","","","","","","","","136","","","","","","[{""stimulus"":""img/red_ww/1.jpg"",""time"":53},{""stimulus"":""img/red_ww/2.jpg"",""time"":99},{""stimulus"":""img/red_ww/3.jpg"",""time"":153},{""stimulus"":""img/red_ww/4.jpg"",""time"":212},{""stimulus"":""img/red_ww/5.jpg"",""time"":259},{""stimulus"":""img/red_ww/6.jpg"",""time"":305},{""stimulus"":""img/red_ww/7.jpg"",""time"":351},{""stimulus"":""img/red_ww/8.jpg"",""time"":398},{""stimulus"":""img/red_ww/9.jpg"",""time"":452},{""stimulus"":""img/red_ww/10.jpg"",""time"":504},{""stimulus"":""img/red_ww/11.jpg"",""time"":563}]","[]",""
"image-keyboard-response","184","234786","0.0-5.0-1.90","63f7eb4fd0c75f760998818c","bdp_lott","Mon Mar 27 2023 14:53:02 GMT-0700 (Pacific Daylight Time)","455873","green","red","","212","","","","choice","","img/red_ww/choose11.jpg","2","135","red","0.5","0.1","0.1","l","","",""
"animation","185","235375","0.0-5.0-2.90","63f7eb4fd0c75f760998818c","bdp_lott","Mon Mar 27 2023 14:53:02 GMT-0700 (Pacific Daylight Time)","455873","green","red","","","","","","","","","","135","","","","","","[{""stimulus"":""img/red_wl/1.jpg"",""time"":61},{""stimulus"":""img/red_wl/2.jpg"",""time"":105},{""stimulus"":""img/red_wl/3.jpg"",""time"":145},{""stimulus"":""img/red_wl/4.jpg"",""time"":196},{""stimulus"":""img/red_wl/5.jpg"",""time"":239},{""stimulus"":""img/red_wl/6.jpg"",""time"":301},{""stimulus"":""img/red_wl/7.jpg"",""time"":364},{""stimulus"":""img/red_wl/8.jpg"",""time"":400},{""stimulus"":""img/red_wl/9.jpg"",""time"":446},{""stimulus"":""img/red_wl/10.jpg"",""time"":494},{""stimulus"":""img/red_wl/11.jpg"",""time"":542}]","[]",""
"image-keyboard-response","186","235467","0.0-5.0-1.91","63f7eb4fd0c75f760998818c","bdp_lott","Mon Mar 27 2023 14:53:02 GMT-0700 (Pacific Daylight Time)","455873","green","red","","91","","","","choice","","img/red_wl/choose11.jpg","1","134","green","0.5","0.1","0.5","l","","",""
"animation","187","236071","0.0-5.0-2.91","63f7eb4fd0c75f760998818c","bdp_lott","Mon Mar 27 2023 14:53:02 GMT-0700 (Pacific Daylight Time)","455873","green","red","","","","","","","","","","134","","","","","","[{""stimulus"":""img/green_ll/1.jpg"",""time"":82},{""stimulus"":""img/green_ll/2.jpg"",""time"":112},{""stimulus"":""img/green_ll/3.jpg"",""time"":179},{""stimulus"":""img/green_ll/4.jpg"",""time"":203},{""stimulus"":""img/green_ll/5.jpg"",""time"":244},{""stimulus"":""img/green_ll/6.jpg"",""time"":293},{""stimulus"":""img/green_ll/7.jpg"",""time"":339},{""stimulus"":""img/green_ll/8.jpg"",""time"":400},{""stimulus"":""img/green_ll/9.jpg"",""time"":463},{""stimulus"":""img/green_ll/10.jpg"",""time"":503},{""stimulus"":""img/green_ll/11.jpg"",""time"":547}]","[]",""
"image-keyboard-response","188","236268","0.0-5.0-1.92","63f7eb4fd0c75f760998818c","bdp_lott","Mon Mar 27 2023 14:53:02 GMT-0700 (Pacific Daylight Time)","455873","green","red","","197","","","","choice","","img/green_ll/choose11.jpg","2","133","red","0.5","0.1","0.1","l","","",""
"animation","189","236889","0.0-5.0-2.92","63f7eb4fd0c75f760998818c","bdp_lott","Mon Mar 27 2023 14:53:02 GMT-0700 (Pacific Daylight Time)","455873","green","red","","","","","","","","","","133","","","","","","[{""stimulus"":""img/red_ll/1.jpg"",""time"":57},{""stimulus"":""img/red_ll/2.jpg"",""time"":113},{""stimulus"":""img/red_ll/3.jpg"",""time"":162},{""stimulus"":""img/red_ll/4.jpg"",""time"":211},{""stimulus"":""img/red_ll/5.jpg"",""time"":262},{""stimulus"":""img/red_ll/6.jpg"",""time"":322},{""stimulus"":""img/red_ll/7.jpg"",""time"":367},{""stimulus"":""img/red_ll/8.jpg"",""time"":410},{""stimulus"":""img/red_ll/9.jpg"",""time"":456},{""stimulus"":""img/red_ll/10.jpg"",""time"":501},{""stimulus"":""img/red_ll/11.jpg"",""time"":561}]","[]",""
"image-keyboard-response","190","237038","0.0-5.0-1.93","63f7eb4fd0c75f760998818c","bdp_lott","Mon Mar 27 2023 14:53:02 GMT-0700 (Pacific Daylight Time)","455873","green","red","","148","","","","choice","","img/red_ll/choose11.jpg","1","132","green","0.5","0.1","0.5","w","","",""
