"trial_type","trial_index","time_elapsed","internal_node_id","subject_id","task","startTime","totalTime","fairMachine","unfairMachine","view_history","rt","event","trial","time","trialtype","success","stimulus","key_press","roundsLeft","chosen","pFairMachWin","pUnfairMachWin","pTrialWin","outcome","animation_sequence","responses"
"pavlovia","0","3","0.0-0.0","64077ddd11208afe2bec171a","bdp_lott","Sun Mar 26 2023 11:21:50 GMT-0400 (Eastern Daylight Time)","308764","green","red","","","","","","","","","","","","","","","","",""
"instructions","1","3052","0.0-1.0","64077ddd11208afe2bec171a","bdp_lott","Sun Mar 26 2023 11:21:50 GMT-0400 (Eastern Daylight Time)","308764","green","red","[{""page_index"":0,""viewing_time"":3048}]","3048","","","","","","","","","","","","","","",""
"","","","","64077ddd11208afe2bec171a","bdp_lott","Sun Mar 26 2023 11:21:50 GMT-0400 (Eastern Daylight Time)","308764","green","red","","","fullscreenenter","2","6069","fullscreenenter","","","","","","","","","","",""
"fullscreen","2","7061","0.0-2.0","64077ddd11208afe2bec171a","bdp_lott","Sun Mar 26 2023 11:21:50 GMT-0400 (Eastern Daylight Time)","308764","green","red","","","","","","","true","","","","","","","","","",""
"instructions","3","46348","0.0-4.0","64077ddd11208afe2bec171a","bdp_lott","Sun Mar 26 2023 11:21:50 GMT-0400 (Eastern Daylight Time)","308764","green","red","[{""page_index"":0,""viewing_time"":39287}]","39287","","","","","","","","","","","","","","",""
"image-keyboard-response","4","48203","0.0-5.0-1.0","64077ddd11208afe2bec171a","bdp_lott","Sun Mar 26 2023 11:21:50 GMT-0400 (Eastern Daylight Time)","308764","green","red","","1853","","","","choice","","img/red_ll/initchoose11.jpg","2","225","red","0.5","0.5","0.5","w","",""
"animation","5","48806","0.0-5.0-2.0","64077ddd11208afe2bec171a","bdp_lott","Sun Mar 26 2023 11:21:50 GMT-0400 (Eastern Daylight Time)","308764","green","red","","","","","","","","","","225","","","","","","[{""stimulus"":""img/red_lw/1.jpg"",""time"":51},{""stimulus"":""img/red_lw/2.jpg"",""time"":100},{""stimulus"":""img/red_lw/3.jpg"",""time"":151},{""stimulus"":""img/red_lw/4.jpg"",""time"":202},{""stimulus"":""img/red_lw/5.jpg"",""time"":251},{""stimulus"":""img/red_lw/6.jpg"",""time"":300},{""stimulus"":""img/red_lw/7.jpg"",""time"":350},{""stimulus"":""img/red_lw/8.jpg"",""time"":402},{""stimulus"":""img/red_lw/9.jpg"",""time"":452},{""stimulus"":""img/red_lw/10.jpg"",""time"":501},{""stimulus"":""img/red_lw/11.jpg"",""time"":552}]","[]"
"image-keyboard-response","6","50587","0.0-5.0-1.1","64077ddd11208afe2bec171a","bdp_lott","Sun Mar 26 2023 11:21:50 GMT-0400 (Eastern Daylight Time)","308764","green","red","","1780","","","","choice","","img/red_lw/choose11.jpg","2","224","red","0.5","0.5","0.5","w","",""
"animation","7","51188","0.0-5.0-2.1","64077ddd11208afe2bec171a","bdp_lott","Sun Mar 26 2023 11:21:50 GMT-0400 (Eastern Daylight Time)","308764","green","red","","","","","","","","","","224","","","","","","[{""stimulus"":""img/red_lw/1.jpg"",""time"":51},{""stimulus"":""img/red_lw/2.jpg"",""time"":102},{""stimulus"":""img/red_lw/3.jpg"",""time"":151},{""stimulus"":""img/red_lw/4.jpg"",""time"":201},{""stimulus"":""img/red_lw/5.jpg"",""time"":252},{""stimulus"":""img/red_lw/6.jpg"",""time"":301},{""stimulus"":""img/red_lw/7.jpg"",""time"":351},{""stimulus"":""img/red_lw/8.jpg"",""time"":401},{""stimulus"":""img/red_lw/9.jpg"",""time"":451},{""stimulus"":""img/red_lw/10.jpg"",""time"":502},{""stimulus"":""img/red_lw/11.jpg"",""time"":552}]","[]"
"image-keyboard-response","8","51915","0.0-5.0-1.2","64077ddd11208afe2bec171a","bdp_lott","Sun Mar 26 2023 11:21:50 GMT-0400 (Eastern Daylight Time)","308764","green","red","","725","","","","choice","","img/red_lw/choose11.jpg","2","223","red","0.5","0.5","0.5","w","",""
"animation","9","52516","0.0-5.0-2.2","64077ddd11208afe2bec171a","bdp_lott","Sun Mar 26 2023 11:21:50 GMT-0400 (Eastern Daylight Time)","308764","green","red","","","","","","","","","","223","","","","","","[{""stimulus"":""img/red_lw/1.jpg"",""time"":51},{""stimulus"":""img/red_lw/2.jpg"",""time"":101},{""stimulus"":""img/red_lw/3.jpg"",""time"":152},{""stimulus"":""img/red_lw/4.jpg"",""time"":202},{""stimulus"":""img/red_lw/5.jpg"",""time"":251},{""stimulus"":""img/red_lw/6.jpg"",""time"":302},{""stimulus"":""img/red_lw/7.jpg"",""time"":351},{""stimulus"":""img/red_lw/8.jpg"",""time"":401},{""stimulus"":""img/red_lw/9.jpg"",""time"":451},{""stimulus"":""img/red_lw/10.jpg"",""time"":501},{""stimulus"":""img/red_lw/11.jpg"",""time"":552}]","[]"
"image-keyboard-response","10","53131","0.0-5.0-1.3","64077ddd11208afe2bec171a","bdp_lott","Sun Mar 26 2023 11:21:50 GMT-0400 (Eastern Daylight Time)","308764","green","red","","613","","","","choice","","img/red_lw/choose11.jpg","2","222","red","0.5","0.5","0.5","w","",""
"animation","11","53732","0.0-5.0-2.3","64077ddd11208afe2bec171a","bdp_lott","Sun Mar 26 2023 11:21:50 GMT-0400 (Eastern Daylight Time)","308764","green","red","","","","","","","","","","222","","","","","","[{""stimulus"":""img/red_lw/1.jpg"",""time"":51},{""stimulus"":""img/red_lw/2.jpg"",""time"":100},{""stimulus"":""img/red_lw/3.jpg"",""time"":151},{""stimulus"":""img/red_lw/4.jpg"",""time"":201},{""stimulus"":""img/red_lw/5.jpg"",""time"":251},{""stimulus"":""img/red_lw/6.jpg"",""time"":301},{""stimulus"":""img/red_lw/7.jpg"",""time"":351},{""stimulus"":""img/red_lw/8.jpg"",""time"":401},{""stimulus"":""img/red_lw/9.jpg"",""time"":451},{""stimulus"":""img/red_lw/10.jpg"",""time"":501},{""stimulus"":""img/red_lw/11.jpg"",""time"":551}]","[]"
"image-keyboard-response","12","54171","0.0-5.0-1.4","64077ddd11208afe2bec171a","bdp_lott","Sun Mar 26 2023 11:21:50 GMT-0400 (Eastern Daylight Time)","308764","green","red","","438","","","","choice","","img/red_lw/choose11.jpg","2","221","red","0.5","0.5","0.5","l","",""
"animation","13","54772","0.0-5.0-2.4","64077ddd11208afe2bec171a","bdp_lott","Sun Mar 26 2023 11:21:50 GMT-0400 (Eastern Daylight Time)","308764","green","red","","","","","","","","","","221","","","","","","[{""stimulus"":""img/red_ll/1.jpg"",""time"":51},{""stimulus"":""img/red_ll/2.jpg"",""time"":101},{""stimulus"":""img/red_ll/3.jpg"",""time"":152},{""stimulus"":""img/red_ll/4.jpg"",""time"":201},{""stimulus"":""img/red_ll/5.jpg"",""time"":251},{""stimulus"":""img/red_ll/6.jpg"",""time"":300},{""stimulus"":""img/red_ll/7.jpg"",""time"":351},{""stimulus"":""img/red_ll/8.jpg"",""time"":401},{""stimulus"":""img/red_ll/9.jpg"",""time"":452},{""stimulus"":""img/red_ll/10.jpg"",""time"":500},{""stimulus"":""img/red_ll/11.jpg"",""time"":551}]","[]"
"image-keyboard-response","14","55275","0.0-5.0-1.5","64077ddd11208afe2bec171a","bdp_lott","Sun Mar 26 2023 11:21:50 GMT-0400 (Eastern Daylight Time)","308764","green","red","","502","","","","choice","","img/red_ll/choose11.jpg","1","220","green","0.5","0.5","0.5","w","",""
"animation","15","55876","0.0-5.0-2.5","64077ddd11208afe2bec171a","bdp_lott","Sun Mar 26 2023 11:21:50 GMT-0400 (Eastern Daylight Time)","308764","green","red","","","","","","","","","","220","","","","","","[{""stimulus"":""img/green_wl/1.jpg"",""time"":51},{""stimulus"":""img/green_wl/2.jpg"",""time"":101},{""stimulus"":""img/green_wl/3.jpg"",""time"":151},{""stimulus"":""img/green_wl/4.jpg"",""time"":202},{""stimulus"":""img/green_wl/5.jpg"",""time"":252},{""stimulus"":""img/green_wl/6.jpg"",""time"":301},{""stimulus"":""img/green_wl/7.jpg"",""time"":352},{""stimulus"":""img/green_wl/8.jpg"",""time"":402},{""stimulus"":""img/green_wl/9.jpg"",""time"":452},{""stimulus"":""img/green_wl/10.jpg"",""time"":501},{""stimulus"":""img/green_wl/11.jpg"",""time"":551}]","[]"
"image-keyboard-response","16","56412","0.0-5.0-1.6","64077ddd11208afe2bec171a","bdp_lott","Sun Mar 26 2023 11:21:50 GMT-0400 (Eastern Daylight Time)","308764","green","red","","536","","","","choice","","img/green_wl/choose11.jpg","1","219","green","0.5","0.5","0.5","l","",""
"animation","17","57013","0.0-5.0-2.6","64077ddd11208afe2bec171a","bdp_lott","Sun Mar 26 2023 11:21:50 GMT-0400 (Eastern Daylight Time)","308764","green","red","","","","","","","","","","219","","","","","","[{""stimulus"":""img/green_ll/1.jpg"",""time"":50},{""stimulus"":""img/green_ll/2.jpg"",""time"":100},{""stimulus"":""img/green_ll/3.jpg"",""time"":151},{""stimulus"":""img/green_ll/4.jpg"",""time"":201},{""stimulus"":""img/green_ll/5.jpg"",""time"":250},{""stimulus"":""img/green_ll/6.jpg"",""time"":300},{""stimulus"":""img/green_ll/7.jpg"",""time"":350},{""stimulus"":""img/green_ll/8.jpg"",""time"":400},{""stimulus"":""img/green_ll/9.jpg"",""time"":450},{""stimulus"":""img/green_ll/10.jpg"",""time"":500},{""stimulus"":""img/green_ll/11.jpg"",""time"":551}]","[]"
"image-keyboard-response","18","57595","0.0-5.0-1.7","64077ddd11208afe2bec171a","bdp_lott","Sun Mar 26 2023 11:21:50 GMT-0400 (Eastern Daylight Time)","308764","green","red","","580","","","","choice","","img/green_ll/choose11.jpg","2","218","red","0.5","0.5","0.5","l","",""
"animation","19","58196","0.0-5.0-2.7","64077ddd11208afe2bec171a","bdp_lott","Sun Mar 26 2023 11:21:50 GMT-0400 (Eastern Daylight Time)","308764","green","red","","","","","","","","","","218","","","","","","[{""stimulus"":""img/red_ll/1.jpg"",""time"":51},{""stimulus"":""img/red_ll/2.jpg"",""time"":102},{""stimulus"":""img/red_ll/3.jpg"",""time"":151},{""stimulus"":""img/red_ll/4.jpg"",""time"":202},{""stimulus"":""img/red_ll/5.jpg"",""time"":251},{""stimulus"":""img/red_ll/6.jpg"",""time"":301},{""stimulus"":""img/red_ll/7.jpg"",""time"":352},{""stimulus"":""img/red_ll/8.jpg"",""time"":401},{""stimulus"":""img/red_ll/9.jpg"",""time"":451},{""stimulus"":""img/red_ll/10.jpg"",""time"":501},{""stimulus"":""img/red_ll/11.jpg"",""time"":551}]","[]"
"image-keyboard-response","20","58859","0.0-5.0-1.8","64077ddd11208afe2bec171a","bdp_lott","Sun Mar 26 2023 11:21:50 GMT-0400 (Eastern Daylight Time)","308764","green","red","","662","","","","choice","","img/red_ll/choose11.jpg","1","217","green","0.5","0.5","0.5","l","",""
"animation","21","59461","0.0-5.0-2.8","64077ddd11208afe2bec171a","bdp_lott","Sun Mar 26 2023 11:21:50 GMT-0400 (Eastern Daylight Time)","308764","green","red","","","","","","","","","","217","","","","","","[{""stimulus"":""img/green_ll/1.jpg"",""time"":52},{""stimulus"":""img/green_ll/2.jpg"",""time"":101},{""stimulus"":""img/green_ll/3.jpg"",""time"":151},{""stimulus"":""img/green_ll/4.jpg"",""time"":201},{""stimulus"":""img/green_ll/5.jpg"",""time"":251},{""stimulus"":""img/green_ll/6.jpg"",""time"":301},{""stimulus"":""img/green_ll/7.jpg"",""time"":351},{""stimulus"":""img/green_ll/8.jpg"",""time"":401},{""stimulus"":""img/green_ll/9.jpg"",""time"":451},{""stimulus"":""img/green_ll/10.jpg"",""time"":501},{""stimulus"":""img/green_ll/11.jpg"",""time"":552}]","[]"
"image-keyboard-response","22","60043","0.0-5.0-1.9","64077ddd11208afe2bec171a","bdp_lott","Sun Mar 26 2023 11:21:50 GMT-0400 (Eastern Daylight Time)","308764","green","red","","582","","","","choice","","img/green_ll/choose11.jpg","2","216","red","0.5","0.5","0.5","w","",""
"animation","23","60644","0.0-5.0-2.9","64077ddd11208afe2bec171a","bdp_lott","Sun Mar 26 2023 11:21:50 GMT-0400 (Eastern Daylight Time)","308764","green","red","","","","","","","","","","216","","","","","","[{""stimulus"":""img/red_lw/1.jpg"",""time"":51},{""stimulus"":""img/red_lw/2.jpg"",""time"":101},{""stimulus"":""img/red_lw/3.jpg"",""time"":151},{""stimulus"":""img/red_lw/4.jpg"",""time"":202},{""stimulus"":""img/red_lw/5.jpg"",""time"":251},{""stimulus"":""img/red_lw/6.jpg"",""time"":301},{""stimulus"":""img/red_lw/7.jpg"",""time"":351},{""stimulus"":""img/red_lw/8.jpg"",""time"":402},{""stimulus"":""img/red_lw/9.jpg"",""time"":451},{""stimulus"":""img/red_lw/10.jpg"",""time"":501},{""stimulus"":""img/red_lw/11.jpg"",""time"":551}]","[]"
"image-keyboard-response","24","61131","0.0-5.0-1.10","64077ddd11208afe2bec171a","bdp_lott","Sun Mar 26 2023 11:21:50 GMT-0400 (Eastern Daylight Time)","308764","green","red","","486","","","","choice","","img/red_lw/choose11.jpg","2","215","red","0.5","0.5","0.5","l","",""
"animation","25","61732","0.0-5.0-2.10","64077ddd11208afe2bec171a","bdp_lott","Sun Mar 26 2023 11:21:50 GMT-0400 (Eastern Daylight Time)","308764","green","red","","","","","","","","","","215","","","","","","[{""stimulus"":""img/red_ll/1.jpg"",""time"":51},{""stimulus"":""img/red_ll/2.jpg"",""time"":102},{""stimulus"":""img/red_ll/3.jpg"",""time"":151},{""stimulus"":""img/red_ll/4.jpg"",""time"":201},{""stimulus"":""img/red_ll/5.jpg"",""time"":252},{""stimulus"":""img/red_ll/6.jpg"",""time"":301},{""stimulus"":""img/red_ll/7.jpg"",""time"":351},{""stimulus"":""img/red_ll/8.jpg"",""time"":402},{""stimulus"":""img/red_ll/9.jpg"",""time"":452},{""stimulus"":""img/red_ll/10.jpg"",""time"":501},{""stimulus"":""img/red_ll/11.jpg"",""time"":551}]","[]"
"image-keyboard-response","26","62251","0.0-5.0-1.11","64077ddd11208afe2bec171a","bdp_lott","Sun Mar 26 2023 11:21:50 GMT-0400 (Eastern Daylight Time)","308764","green","red","","518","","","","choice","","img/red_ll/choose11.jpg","1","214","green","0.5","0.5","0.5","l","",""
"animation","27","62852","0.0-5.0-2.11","64077ddd11208afe2bec171a","bdp_lott","Sun Mar 26 2023 11:21:50 GMT-0400 (Eastern Daylight Time)","308764","green","red","","","","","","","","","","214","","","","","","[{""stimulus"":""img/green_ll/1.jpg"",""time"":51},{""stimulus"":""img/green_ll/2.jpg"",""time"":101},{""stimulus"":""img/green_ll/3.jpg"",""time"":151},{""stimulus"":""img/green_ll/4.jpg"",""time"":202},{""stimulus"":""img/green_ll/5.jpg"",""time"":251},{""stimulus"":""img/green_ll/6.jpg"",""time"":302},{""stimulus"":""img/green_ll/7.jpg"",""time"":351},{""stimulus"":""img/green_ll/8.jpg"",""time"":402},{""stimulus"":""img/green_ll/9.jpg"",""time"":452},{""stimulus"":""img/green_ll/10.jpg"",""time"":502},{""stimulus"":""img/green_ll/11.jpg"",""time"":552}]","[]"
"image-keyboard-response","28","63466","0.0-5.0-1.12","64077ddd11208afe2bec171a","bdp_lott","Sun Mar 26 2023 11:21:50 GMT-0400 (Eastern Daylight Time)","308764","green","red","","614","","","","choice","","img/green_ll/choose11.jpg","1","213","green","0.5","0.5","0.5","l","",""
"animation","29","64068","0.0-5.0-2.12","64077ddd11208afe2bec171a","bdp_lott","Sun Mar 26 2023 11:21:50 GMT-0400 (Eastern Daylight Time)","308764","green","red","","","","","","","","","","213","","","","","","[{""stimulus"":""img/green_ll/1.jpg"",""time"":51},{""stimulus"":""img/green_ll/2.jpg"",""time"":101},{""stimulus"":""img/green_ll/3.jpg"",""time"":151},{""stimulus"":""img/green_ll/4.jpg"",""time"":201},{""stimulus"":""img/green_ll/5.jpg"",""time"":251},{""stimulus"":""img/green_ll/6.jpg"",""time"":301},{""stimulus"":""img/green_ll/7.jpg"",""time"":351},{""stimulus"":""img/green_ll/8.jpg"",""time"":401},{""stimulus"":""img/green_ll/9.jpg"",""time"":451},{""stimulus"":""img/green_ll/10.jpg"",""time"":501},{""stimulus"":""img/green_ll/11.jpg"",""time"":551}]","[]"
"image-keyboard-response","30","64539","0.0-5.0-1.13","64077ddd11208afe2bec171a","bdp_lott","Sun Mar 26 2023 11:21:50 GMT-0400 (Eastern Daylight Time)","308764","green","red","","470","","","","choice","","img/green_ll/choose11.jpg","2","212","red","0.5","0.5","0.5","w","",""
"animation","31","65140","0.0-5.0-2.13","64077ddd11208afe2bec171a","bdp_lott","Sun Mar 26 2023 11:21:50 GMT-0400 (Eastern Daylight Time)","308764","green","red","","","","","","","","","","212","","","","","","[{""stimulus"":""img/red_lw/1.jpg"",""time"":50},{""stimulus"":""img/red_lw/2.jpg"",""time"":102},{""stimulus"":""img/red_lw/3.jpg"",""time"":151},{""stimulus"":""img/red_lw/4.jpg"",""time"":201},{""stimulus"":""img/red_lw/5.jpg"",""time"":250},{""stimulus"":""img/red_lw/6.jpg"",""time"":301},{""stimulus"":""img/red_lw/7.jpg"",""time"":350},{""stimulus"":""img/red_lw/8.jpg"",""time"":401},{""stimulus"":""img/red_lw/9.jpg"",""time"":451},{""stimulus"":""img/red_lw/10.jpg"",""time"":512},{""stimulus"":""img/red_lw/11.jpg"",""time"":552}]","[]"
"image-keyboard-response","32","65626","0.0-5.0-1.14","64077ddd11208afe2bec171a","bdp_lott","Sun Mar 26 2023 11:21:50 GMT-0400 (Eastern Daylight Time)","308764","green","red","","486","","","","choice","","img/red_lw/choose11.jpg","2","211","red","0.5","0.5","0.5","w","",""
"animation","33","66228","0.0-5.0-2.14","64077ddd11208afe2bec171a","bdp_lott","Sun Mar 26 2023 11:21:50 GMT-0400 (Eastern Daylight Time)","308764","green","red","","","","","","","","","","211","","","","","","[{""stimulus"":""img/red_lw/1.jpg"",""time"":50},{""stimulus"":""img/red_lw/2.jpg"",""time"":101},{""stimulus"":""img/red_lw/3.jpg"",""time"":152},{""stimulus"":""img/red_lw/4.jpg"",""time"":200},{""stimulus"":""img/red_lw/5.jpg"",""time"":251},{""stimulus"":""img/red_lw/6.jpg"",""time"":300},{""stimulus"":""img/red_lw/7.jpg"",""time"":352},{""stimulus"":""img/red_lw/8.jpg"",""time"":401},{""stimulus"":""img/red_lw/9.jpg"",""time"":451},{""stimulus"":""img/red_lw/10.jpg"",""time"":501},{""stimulus"":""img/red_lw/11.jpg"",""time"":552}]","[]"
"image-keyboard-response","34","66716","0.0-5.0-1.15","64077ddd11208afe2bec171a","bdp_lott","Sun Mar 26 2023 11:21:50 GMT-0400 (Eastern Daylight Time)","308764","green","red","","488","","","","choice","","img/red_lw/choose11.jpg","2","210","red","0.5","0.5","0.5","l","",""
"animation","35","67317","0.0-5.0-2.15","64077ddd11208afe2bec171a","bdp_lott","Sun Mar 26 2023 11:21:50 GMT-0400 (Eastern Daylight Time)","308764","green","red","","","","","","","","","","210","","","","","","[{""stimulus"":""img/red_ll/1.jpg"",""time"":51},{""stimulus"":""img/red_ll/2.jpg"",""time"":102},{""stimulus"":""img/red_ll/3.jpg"",""time"":152},{""stimulus"":""img/red_ll/4.jpg"",""time"":201},{""stimulus"":""img/red_ll/5.jpg"",""time"":252},{""stimulus"":""img/red_ll/6.jpg"",""time"":302},{""stimulus"":""img/red_ll/7.jpg"",""time"":352},{""stimulus"":""img/red_ll/8.jpg"",""time"":402},{""stimulus"":""img/red_ll/9.jpg"",""time"":451},{""stimulus"":""img/red_ll/10.jpg"",""time"":502},{""stimulus"":""img/red_ll/11.jpg"",""time"":552}]","[]"
"image-keyboard-response","36","67739","0.0-5.0-1.16","64077ddd11208afe2bec171a","bdp_lott","Sun Mar 26 2023 11:21:50 GMT-0400 (Eastern Daylight Time)","308764","green","red","","421","","","","choice","","img/red_ll/choose11.jpg","1","209","green","0.5","0.5","0.5","w","",""
"animation","37","68341","0.0-5.0-2.16","64077ddd11208afe2bec171a","bdp_lott","Sun Mar 26 2023 11:21:50 GMT-0400 (Eastern Daylight Time)","308764","green","red","","","","","","","","","","209","","","","","","[{""stimulus"":""img/green_wl/1.jpg"",""time"":52},{""stimulus"":""img/green_wl/2.jpg"",""time"":102},{""stimulus"":""img/green_wl/3.jpg"",""time"":151},{""stimulus"":""img/green_wl/4.jpg"",""time"":201},{""stimulus"":""img/green_wl/5.jpg"",""time"":250},{""stimulus"":""img/green_wl/6.jpg"",""time"":301},{""stimulus"":""img/green_wl/7.jpg"",""time"":351},{""stimulus"":""img/green_wl/8.jpg"",""time"":400},{""stimulus"":""img/green_wl/9.jpg"",""time"":450},{""stimulus"":""img/green_wl/10.jpg"",""time"":500},{""stimulus"":""img/green_wl/11.jpg"",""time"":551}]","[]"
"image-keyboard-response","38","68875","0.0-5.0-1.17","64077ddd11208afe2bec171a","bdp_lott","Sun Mar 26 2023 11:21:50 GMT-0400 (Eastern Daylight Time)","308764","green","red","","534","","","","choice","","img/green_wl/choose11.jpg","1","208","green","0.5","0.5","0.5","l","",""
"animation","39","69476","0.0-5.0-2.17","64077ddd11208afe2bec171a","bdp_lott","Sun Mar 26 2023 11:21:50 GMT-0400 (Eastern Daylight Time)","308764","green","red","","","","","","","","","","208","","","","","","[{""stimulus"":""img/green_ll/1.jpg"",""time"":51},{""stimulus"":""img/green_ll/2.jpg"",""time"":101},{""stimulus"":""img/green_ll/3.jpg"",""time"":155},{""stimulus"":""img/green_ll/4.jpg"",""time"":202},{""stimulus"":""img/green_ll/5.jpg"",""time"":252},{""stimulus"":""img/green_ll/6.jpg"",""time"":301},{""stimulus"":""img/green_ll/7.jpg"",""time"":352},{""stimulus"":""img/green_ll/8.jpg"",""time"":401},{""stimulus"":""img/green_ll/9.jpg"",""time"":452},{""stimulus"":""img/green_ll/10.jpg"",""time"":501},{""stimulus"":""img/green_ll/11.jpg"",""time"":552}]","[]"
"image-keyboard-response","40","70027","0.0-5.0-1.18","64077ddd11208afe2bec171a","bdp_lott","Sun Mar 26 2023 11:21:50 GMT-0400 (Eastern Daylight Time)","308764","green","red","","550","","","","choice","","img/green_ll/choose11.jpg","2","207","red","0.5","0.5","0.5","l","",""
"animation","41","70628","0.0-5.0-2.18","64077ddd11208afe2bec171a","bdp_lott","Sun Mar 26 2023 11:21:50 GMT-0400 (Eastern Daylight Time)","308764","green","red","","","","","","","","","","207","","","","","","[{""stimulus"":""img/red_ll/1.jpg"",""time"":51},{""stimulus"":""img/red_ll/2.jpg"",""time"":101},{""stimulus"":""img/red_ll/3.jpg"",""time"":151},{""stimulus"":""img/red_ll/4.jpg"",""time"":201},{""stimulus"":""img/red_ll/5.jpg"",""time"":251},{""stimulus"":""img/red_ll/6.jpg"",""time"":301},{""stimulus"":""img/red_ll/7.jpg"",""time"":351},{""stimulus"":""img/red_ll/8.jpg"",""time"":401},{""stimulus"":""img/red_ll/9.jpg"",""time"":451},{""stimulus"":""img/red_ll/10.jpg"",""time"":502},{""stimulus"":""img/red_ll/11.jpg"",""time"":551}]","[]"
"image-keyboard-response","42","71098","0.0-5.0-1.19","64077ddd11208afe2bec171a","bdp_lott","Sun Mar 26 2023 11:21:50 GMT-0400 (Eastern Daylight Time)","308764","green","red","","470","","","","choice","","img/red_ll/choose11.jpg","2","206","red","0.5","0.5","0.5","w","",""
"animation","43","71700","0.0-5.0-2.19","64077ddd11208afe2bec171a","bdp_lott","Sun Mar 26 2023 11:21:50 GMT-0400 (Eastern Daylight Time)","308764","green","red","","","","","","","","","","206","","","","","","[{""stimulus"":""img/red_lw/1.jpg"",""time"":51},{""stimulus"":""img/red_lw/2.jpg"",""time"":100},{""stimulus"":""img/red_lw/3.jpg"",""time"":151},{""stimulus"":""img/red_lw/4.jpg"",""time"":201},{""stimulus"":""img/red_lw/5.jpg"",""time"":251},{""stimulus"":""img/red_lw/6.jpg"",""time"":300},{""stimulus"":""img/red_lw/7.jpg"",""time"":351},{""stimulus"":""img/red_lw/8.jpg"",""time"":401},{""stimulus"":""img/red_lw/9.jpg"",""time"":451},{""stimulus"":""img/red_lw/10.jpg"",""time"":501},{""stimulus"":""img/red_lw/11.jpg"",""time"":551}]","[]"
"image-keyboard-response","44","72107","0.0-5.0-1.20","64077ddd11208afe2bec171a","bdp_lott","Sun Mar 26 2023 11:21:50 GMT-0400 (Eastern Daylight Time)","308764","green","red","","406","","","","choice","","img/red_lw/choose11.jpg","2","205","red","0.5","0.5","0.5","w","",""
"animation","45","72708","0.0-5.0-2.20","64077ddd11208afe2bec171a","bdp_lott","Sun Mar 26 2023 11:21:50 GMT-0400 (Eastern Daylight Time)","308764","green","red","","","","","","","","","","205","","","","","","[{""stimulus"":""img/red_lw/1.jpg"",""time"":51},{""stimulus"":""img/red_lw/2.jpg"",""time"":101},{""stimulus"":""img/red_lw/3.jpg"",""time"":152},{""stimulus"":""img/red_lw/4.jpg"",""time"":201},{""stimulus"":""img/red_lw/5.jpg"",""time"":251},{""stimulus"":""img/red_lw/6.jpg"",""time"":301},{""stimulus"":""img/red_lw/7.jpg"",""time"":351},{""stimulus"":""img/red_lw/8.jpg"",""time"":401},{""stimulus"":""img/red_lw/9.jpg"",""time"":451},{""stimulus"":""img/red_lw/10.jpg"",""time"":500},{""stimulus"":""img/red_lw/11.jpg"",""time"":551}]","[]"
"image-keyboard-response","46","73179","0.0-5.0-1.21","64077ddd11208afe2bec171a","bdp_lott","Sun Mar 26 2023 11:21:50 GMT-0400 (Eastern Daylight Time)","308764","green","red","","471","","","","choice","","img/red_lw/choose11.jpg","2","204","red","0.5","0.5","0.5","l","",""
"animation","47","73781","0.0-5.0-2.21","64077ddd11208afe2bec171a","bdp_lott","Sun Mar 26 2023 11:21:50 GMT-0400 (Eastern Daylight Time)","308764","green","red","","","","","","","","","","204","","","","","","[{""stimulus"":""img/red_ll/1.jpg"",""time"":51},{""stimulus"":""img/red_ll/2.jpg"",""time"":101},{""stimulus"":""img/red_ll/3.jpg"",""time"":152},{""stimulus"":""img/red_ll/4.jpg"",""time"":201},{""stimulus"":""img/red_ll/5.jpg"",""time"":251},{""stimulus"":""img/red_ll/6.jpg"",""time"":303},{""stimulus"":""img/red_ll/7.jpg"",""time"":352},{""stimulus"":""img/red_ll/8.jpg"",""time"":401},{""stimulus"":""img/red_ll/9.jpg"",""time"":451},{""stimulus"":""img/red_ll/10.jpg"",""time"":501},{""stimulus"":""img/red_ll/11.jpg"",""time"":551}]","[]"
"image-keyboard-response","48","74235","0.0-5.0-1.22","64077ddd11208afe2bec171a","bdp_lott","Sun Mar 26 2023 11:21:50 GMT-0400 (Eastern Daylight Time)","308764","green","red","","453","","","","choice","","img/red_ll/choose11.jpg","1","203","green","0.5","0.5","0.5","w","",""
"animation","49","74835","0.0-5.0-2.22","64077ddd11208afe2bec171a","bdp_lott","Sun Mar 26 2023 11:21:50 GMT-0400 (Eastern Daylight Time)","308764","green","red","","","","","","","","","","203","","","","","","[{""stimulus"":""img/green_wl/1.jpg"",""time"":51},{""stimulus"":""img/green_wl/2.jpg"",""time"":102},{""stimulus"":""img/green_wl/3.jpg"",""time"":151},{""stimulus"":""img/green_wl/4.jpg"",""time"":201},{""stimulus"":""img/green_wl/5.jpg"",""time"":251},{""stimulus"":""img/green_wl/6.jpg"",""time"":302},{""stimulus"":""img/green_wl/7.jpg"",""time"":351},{""stimulus"":""img/green_wl/8.jpg"",""time"":402},{""stimulus"":""img/green_wl/9.jpg"",""time"":451},{""stimulus"":""img/green_wl/10.jpg"",""time"":502},{""stimulus"":""img/green_wl/11.jpg"",""time"":552}]","[]"
"image-keyboard-response","50","75258","0.0-5.0-1.23","64077ddd11208afe2bec171a","bdp_lott","Sun Mar 26 2023 11:21:50 GMT-0400 (Eastern Daylight Time)","308764","green","red","","422","","","","choice","","img/green_wl/choose11.jpg","1","202","green","0.5","0.5","0.5","l","",""
"animation","51","75859","0.0-5.0-2.23","64077ddd11208afe2bec171a","bdp_lott","Sun Mar 26 2023 11:21:50 GMT-0400 (Eastern Daylight Time)","308764","green","red","","","","","","","","","","202","","","","","","[{""stimulus"":""img/green_ll/1.jpg"",""time"":51},{""stimulus"":""img/green_ll/2.jpg"",""time"":101},{""stimulus"":""img/green_ll/3.jpg"",""time"":151},{""stimulus"":""img/green_ll/4.jpg"",""time"":202},{""stimulus"":""img/green_ll/5.jpg"",""time"":251},{""stimulus"":""img/green_ll/6.jpg"",""time"":301},{""stimulus"":""img/green_ll/7.jpg"",""time"":351},{""stimulus"":""img/green_ll/8.jpg"",""time"":401},{""stimulus"":""img/green_ll/9.jpg"",""time"":453},{""stimulus"":""img/green_ll/10.jpg"",""time"":501},{""stimulus"":""img/green_ll/11.jpg"",""time"":552}]","[]"
"image-keyboard-response","52","76378","0.0-5.0-1.24","64077ddd11208afe2bec171a","bdp_lott","Sun Mar 26 2023 11:21:50 GMT-0400 (Eastern Daylight Time)","308764","green","red","","518","","","","choice","","img/green_ll/choose11.jpg","2","201","red","0.5","0.5","0.5","l","",""
"animation","53","76980","0.0-5.0-2.24","64077ddd11208afe2bec171a","bdp_lott","Sun Mar 26 2023 11:21:50 GMT-0400 (Eastern Daylight Time)","308764","green","red","","","","","","","","","","201","","","","","","[{""stimulus"":""img/red_ll/1.jpg"",""time"":51},{""stimulus"":""img/red_ll/2.jpg"",""time"":101},{""stimulus"":""img/red_ll/3.jpg"",""time"":151},{""stimulus"":""img/red_ll/4.jpg"",""time"":201},{""stimulus"":""img/red_ll/5.jpg"",""time"":251},{""stimulus"":""img/red_ll/6.jpg"",""time"":302},{""stimulus"":""img/red_ll/7.jpg"",""time"":351},{""stimulus"":""img/red_ll/8.jpg"",""time"":401},{""stimulus"":""img/red_ll/9.jpg"",""time"":451},{""stimulus"":""img/red_ll/10.jpg"",""time"":501},{""stimulus"":""img/red_ll/11.jpg"",""time"":551}]","[]"
"image-keyboard-response","54","77628","0.0-5.0-1.25","64077ddd11208afe2bec171a","bdp_lott","Sun Mar 26 2023 11:21:50 GMT-0400 (Eastern Daylight Time)","308764","green","red","","647","","","","choice","","img/red_ll/choose11.jpg","2","200","red","0.5","0.5","0.5","w","",""
"animation","55","78229","0.0-5.0-2.25","64077ddd11208afe2bec171a","bdp_lott","Sun Mar 26 2023 11:21:50 GMT-0400 (Eastern Daylight Time)","308764","green","red","","","","","","","","","","200","","","","","","[{""stimulus"":""img/red_lw/1.jpg"",""time"":52},{""stimulus"":""img/red_lw/2.jpg"",""time"":102},{""stimulus"":""img/red_lw/3.jpg"",""time"":152},{""stimulus"":""img/red_lw/4.jpg"",""time"":201},{""stimulus"":""img/red_lw/5.jpg"",""time"":251},{""stimulus"":""img/red_lw/6.jpg"",""time"":301},{""stimulus"":""img/red_lw/7.jpg"",""time"":351},{""stimulus"":""img/red_lw/8.jpg"",""time"":401},{""stimulus"":""img/red_lw/9.jpg"",""time"":451},{""stimulus"":""img/red_lw/10.jpg"",""time"":500},{""stimulus"":""img/red_lw/11.jpg"",""time"":551}]","[]"
"image-keyboard-response","56","78683","0.0-5.0-1.26","64077ddd11208afe2bec171a","bdp_lott","Sun Mar 26 2023 11:21:50 GMT-0400 (Eastern Daylight Time)","308764","green","red","","453","","","","choice","","img/red_lw/choose11.jpg","2","199","red","0.5","0.5","0.5","l","",""
"animation","57","79284","0.0-5.0-2.26","64077ddd11208afe2bec171a","bdp_lott","Sun Mar 26 2023 11:21:50 GMT-0400 (Eastern Daylight Time)","308764","green","red","","","","","","","","","","199","","","","","","[{""stimulus"":""img/red_ll/1.jpg"",""time"":51},{""stimulus"":""img/red_ll/2.jpg"",""time"":100},{""stimulus"":""img/red_ll/3.jpg"",""time"":150},{""stimulus"":""img/red_ll/4.jpg"",""time"":200},{""stimulus"":""img/red_ll/5.jpg"",""time"":251},{""stimulus"":""img/red_ll/6.jpg"",""time"":301},{""stimulus"":""img/red_ll/7.jpg"",""time"":351},{""stimulus"":""img/red_ll/8.jpg"",""time"":401},{""stimulus"":""img/red_ll/9.jpg"",""time"":451},{""stimulus"":""img/red_ll/10.jpg"",""time"":502},{""stimulus"":""img/red_ll/11.jpg"",""time"":551}]","[]"
"image-keyboard-response","58","79755","0.0-5.0-1.27","64077ddd11208afe2bec171a","bdp_lott","Sun Mar 26 2023 11:21:50 GMT-0400 (Eastern Daylight Time)","308764","green","red","","470","","","","choice","","img/red_ll/choose11.jpg","1","198","green","0.5","0.5","0.5","l","",""
"animation","59","80356","0.0-5.0-2.27","64077ddd11208afe2bec171a","bdp_lott","Sun Mar 26 2023 11:21:50 GMT-0400 (Eastern Daylight Time)","308764","green","red","","","","","","","","","","198","","","","","","[{""stimulus"":""img/green_ll/1.jpg"",""time"":51},{""stimulus"":""img/green_ll/2.jpg"",""time"":101},{""stimulus"":""img/green_ll/3.jpg"",""time"":152},{""stimulus"":""img/green_ll/4.jpg"",""time"":201},{""stimulus"":""img/green_ll/5.jpg"",""time"":250},{""stimulus"":""img/green_ll/6.jpg"",""time"":300},{""stimulus"":""img/green_ll/7.jpg"",""time"":351},{""stimulus"":""img/green_ll/8.jpg"",""time"":400},{""stimulus"":""img/green_ll/9.jpg"",""time"":451},{""stimulus"":""img/green_ll/10.jpg"",""time"":501},{""stimulus"":""img/green_ll/11.jpg"",""time"":551}]","[]"
"image-keyboard-response","60","81019","0.0-5.0-1.28","64077ddd11208afe2bec171a","bdp_lott","Sun Mar 26 2023 11:21:50 GMT-0400 (Eastern Daylight Time)","308764","green","red","","662","","","","choice","","img/green_ll/choose11.jpg","1","197","green","0.5","0.5","0.5","l","",""
"animation","61","81621","0.0-5.0-2.28","64077ddd11208afe2bec171a","bdp_lott","Sun Mar 26 2023 11:21:50 GMT-0400 (Eastern Daylight Time)","308764","green","red","","","","","","","","","","197","","","","","","[{""stimulus"":""img/green_ll/1.jpg"",""time"":51},{""stimulus"":""img/green_ll/2.jpg"",""time"":101},{""stimulus"":""img/green_ll/3.jpg"",""time"":151},{""stimulus"":""img/green_ll/4.jpg"",""time"":202},{""stimulus"":""img/green_ll/5.jpg"",""time"":252},{""stimulus"":""img/green_ll/6.jpg"",""time"":301},{""stimulus"":""img/green_ll/7.jpg"",""time"":351},{""stimulus"":""img/green_ll/8.jpg"",""time"":401},{""stimulus"":""img/green_ll/9.jpg"",""time"":451},{""stimulus"":""img/green_ll/10.jpg"",""time"":500},{""stimulus"":""img/green_ll/11.jpg"",""time"":552}]","[]"
"image-keyboard-response","62","82091","0.0-5.0-1.29","64077ddd11208afe2bec171a","bdp_lott","Sun Mar 26 2023 11:21:50 GMT-0400 (Eastern Daylight Time)","308764","green","red","","470","","","","choice","","img/green_ll/choose11.jpg","1","196","green","0.5","0.5","0.5","l","",""
"animation","63","82691","0.0-5.0-2.29","64077ddd11208afe2bec171a","bdp_lott","Sun Mar 26 2023 11:21:50 GMT-0400 (Eastern Daylight Time)","308764","green","red","","","","","","","","","","196","","","","","","[{""stimulus"":""img/green_ll/1.jpg"",""time"":51},{""stimulus"":""img/green_ll/2.jpg"",""time"":101},{""stimulus"":""img/green_ll/3.jpg"",""time"":151},{""stimulus"":""img/green_ll/4.jpg"",""time"":201},{""stimulus"":""img/green_ll/5.jpg"",""time"":251},{""stimulus"":""img/green_ll/6.jpg"",""time"":301},{""stimulus"":""img/green_ll/7.jpg"",""time"":351},{""stimulus"":""img/green_ll/8.jpg"",""time"":402},{""stimulus"":""img/green_ll/9.jpg"",""time"":451},{""stimulus"":""img/green_ll/10.jpg"",""time"":501},{""stimulus"":""img/green_ll/11.jpg"",""time"":551}]","[]"
"image-keyboard-response","64","83290","0.0-5.0-1.30","64077ddd11208afe2bec171a","bdp_lott","Sun Mar 26 2023 11:21:50 GMT-0400 (Eastern Daylight Time)","308764","green","red","","598","","","","choice","","img/green_ll/choose11.jpg","2","195","red","0.5","0.5","0.5","w","",""
"animation","65","83892","0.0-5.0-2.30","64077ddd11208afe2bec171a","bdp_lott","Sun Mar 26 2023 11:21:50 GMT-0400 (Eastern Daylight Time)","308764","green","red","","","","","","","","","","195","","","","","","[{""stimulus"":""img/red_lw/1.jpg"",""time"":51},{""stimulus"":""img/red_lw/2.jpg"",""time"":101},{""stimulus"":""img/red_lw/3.jpg"",""time"":151},{""stimulus"":""img/red_lw/4.jpg"",""time"":201},{""stimulus"":""img/red_lw/5.jpg"",""time"":251},{""stimulus"":""img/red_lw/6.jpg"",""time"":301},{""stimulus"":""img/red_lw/7.jpg"",""time"":351},{""stimulus"":""img/red_lw/8.jpg"",""time"":401},{""stimulus"":""img/red_lw/9.jpg"",""time"":451},{""stimulus"":""img/red_lw/10.jpg"",""time"":501},{""stimulus"":""img/red_lw/11.jpg"",""time"":551}]","[]"
"image-keyboard-response","66","84314","0.0-5.0-1.31","64077ddd11208afe2bec171a","bdp_lott","Sun Mar 26 2023 11:21:50 GMT-0400 (Eastern Daylight Time)","308764","green","red","","422","","","","choice","","img/red_lw/choose11.jpg","2","194","red","0.5","0.5","0.5","w","",""
"animation","67","84916","0.0-5.0-2.31","64077ddd11208afe2bec171a","bdp_lott","Sun Mar 26 2023 11:21:50 GMT-0400 (Eastern Daylight Time)","308764","green","red","","","","","","","","","","194","","","","","","[{""stimulus"":""img/red_lw/1.jpg"",""time"":52},{""stimulus"":""img/red_lw/2.jpg"",""time"":101},{""stimulus"":""img/red_lw/3.jpg"",""time"":152},{""stimulus"":""img/red_lw/4.jpg"",""time"":202},{""stimulus"":""img/red_lw/5.jpg"",""time"":252},{""stimulus"":""img/red_lw/6.jpg"",""time"":301},{""stimulus"":""img/red_lw/7.jpg"",""time"":352},{""stimulus"":""img/red_lw/8.jpg"",""time"":402},{""stimulus"":""img/red_lw/9.jpg"",""time"":452},{""stimulus"":""img/red_lw/10.jpg"",""time"":501},{""stimulus"":""img/red_lw/11.jpg"",""time"":551}]","[]"
"image-keyboard-response","68","85306","0.0-5.0-1.32","64077ddd11208afe2bec171a","bdp_lott","Sun Mar 26 2023 11:21:50 GMT-0400 (Eastern Daylight Time)","308764","green","red","","390","","","","choice","","img/red_lw/choose11.jpg","2","193","red","0.5","0.5","0.5","w","",""
"animation","69","85907","0.0-5.0-2.32","64077ddd11208afe2bec171a","bdp_lott","Sun Mar 26 2023 11:21:50 GMT-0400 (Eastern Daylight Time)","308764","green","red","","","","","","","","","","193","","","","","","[{""stimulus"":""img/red_lw/1.jpg"",""time"":52},{""stimulus"":""img/red_lw/2.jpg"",""time"":101},{""stimulus"":""img/red_lw/3.jpg"",""time"":151},{""stimulus"":""img/red_lw/4.jpg"",""time"":201},{""stimulus"":""img/red_lw/5.jpg"",""time"":252},{""stimulus"":""img/red_lw/6.jpg"",""time"":301},{""stimulus"":""img/red_lw/7.jpg"",""time"":352},{""stimulus"":""img/red_lw/8.jpg"",""time"":402},{""stimulus"":""img/red_lw/9.jpg"",""time"":451},{""stimulus"":""img/red_lw/10.jpg"",""time"":501},{""stimulus"":""img/red_lw/11.jpg"",""time"":551}]","[]"
"image-keyboard-response","70","86282","0.0-5.0-1.33","64077ddd11208afe2bec171a","bdp_lott","Sun Mar 26 2023 11:21:50 GMT-0400 (Eastern Daylight Time)","308764","green","red","","374","","","","choice","","img/red_lw/choose11.jpg","2","192","red","0.5","0.5","0.5","w","",""
"animation","71","86883","0.0-5.0-2.33","64077ddd11208afe2bec171a","bdp_lott","Sun Mar 26 2023 11:21:50 GMT-0400 (Eastern Daylight Time)","308764","green","red","","","","","","","","","","192","","","","","","[{""stimulus"":""img/red_lw/1.jpg"",""time"":50},{""stimulus"":""img/red_lw/2.jpg"",""time"":100},{""stimulus"":""img/red_lw/3.jpg"",""time"":151},{""stimulus"":""img/red_lw/4.jpg"",""time"":201},{""stimulus"":""img/red_lw/5.jpg"",""time"":252},{""stimulus"":""img/red_lw/6.jpg"",""time"":301},{""stimulus"":""img/red_lw/7.jpg"",""time"":350},{""stimulus"":""img/red_lw/8.jpg"",""time"":401},{""stimulus"":""img/red_lw/9.jpg"",""time"":450},{""stimulus"":""img/red_lw/10.jpg"",""time"":500},{""stimulus"":""img/red_lw/11.jpg"",""time"":551}]","[]"
"image-keyboard-response","72","87258","0.0-5.0-1.34","64077ddd11208afe2bec171a","bdp_lott","Sun Mar 26 2023 11:21:50 GMT-0400 (Eastern Daylight Time)","308764","green","red","","374","","","","choice","","img/red_lw/choose11.jpg","2","191","red","0.5","0.5","0.5","l","",""
"animation","73","87861","0.0-5.0-2.34","64077ddd11208afe2bec171a","bdp_lott","Sun Mar 26 2023 11:21:50 GMT-0400 (Eastern Daylight Time)","308764","green","red","","","","","","","","","","191","","","","","","[{""stimulus"":""img/red_ll/1.jpg"",""time"":51},{""stimulus"":""img/red_ll/2.jpg"",""time"":101},{""stimulus"":""img/red_ll/3.jpg"",""time"":151},{""stimulus"":""img/red_ll/4.jpg"",""time"":201},{""stimulus"":""img/red_ll/5.jpg"",""time"":251},{""stimulus"":""img/red_ll/6.jpg"",""time"":300},{""stimulus"":""img/red_ll/7.jpg"",""time"":351},{""stimulus"":""img/red_ll/8.jpg"",""time"":401},{""stimulus"":""img/red_ll/9.jpg"",""time"":453},{""stimulus"":""img/red_ll/10.jpg"",""time"":502},{""stimulus"":""img/red_ll/11.jpg"",""time"":551}]","[]"
"image-keyboard-response","74","88668","0.0-5.0-1.35","64077ddd11208afe2bec171a","bdp_lott","Sun Mar 26 2023 11:21:50 GMT-0400 (Eastern Daylight Time)","308764","green","red","","806","","","","choice","","img/red_ll/choose11.jpg","1","190","green","0.5","0.5","0.5","w","",""
"animation","75","89269","0.0-5.0-2.35","64077ddd11208afe2bec171a","bdp_lott","Sun Mar 26 2023 11:21:50 GMT-0400 (Eastern Daylight Time)","308764","green","red","","","","","","","","","","190","","","","","","[{""stimulus"":""img/green_wl/1.jpg"",""time"":51},{""stimulus"":""img/green_wl/2.jpg"",""time"":102},{""stimulus"":""img/green_wl/3.jpg"",""time"":151},{""stimulus"":""img/green_wl/4.jpg"",""time"":201},{""stimulus"":""img/green_wl/5.jpg"",""time"":251},{""stimulus"":""img/green_wl/6.jpg"",""time"":300},{""stimulus"":""img/green_wl/7.jpg"",""time"":351},{""stimulus"":""img/green_wl/8.jpg"",""time"":401},{""stimulus"":""img/green_wl/9.jpg"",""time"":452},{""stimulus"":""img/green_wl/10.jpg"",""time"":502},{""stimulus"":""img/green_wl/11.jpg"",""time"":551}]","[]"
"image-keyboard-response","76","89818","0.0-5.0-1.36","64077ddd11208afe2bec171a","bdp_lott","Sun Mar 26 2023 11:21:50 GMT-0400 (Eastern Daylight Time)","308764","green","red","","549","","","","choice","","img/green_wl/choose11.jpg","1","189","green","0.5","0.5","0.5","w","",""
"animation","77","90420","0.0-5.0-2.36","64077ddd11208afe2bec171a","bdp_lott","Sun Mar 26 2023 11:21:50 GMT-0400 (Eastern Daylight Time)","308764","green","red","","","","","","","","","","189","","","","","","[{""stimulus"":""img/green_wl/1.jpg"",""time"":51},{""stimulus"":""img/green_wl/2.jpg"",""time"":102},{""stimulus"":""img/green_wl/3.jpg"",""time"":152},{""stimulus"":""img/green_wl/4.jpg"",""time"":202},{""stimulus"":""img/green_wl/5.jpg"",""time"":253},{""stimulus"":""img/green_wl/6.jpg"",""time"":303},{""stimulus"":""img/green_wl/7.jpg"",""time"":352},{""stimulus"":""img/green_wl/8.jpg"",""time"":402},{""stimulus"":""img/green_wl/9.jpg"",""time"":452},{""stimulus"":""img/green_wl/10.jpg"",""time"":502},{""stimulus"":""img/green_wl/11.jpg"",""time"":551}]","[]"
"image-keyboard-response","78","90890","0.0-5.0-1.37","64077ddd11208afe2bec171a","bdp_lott","Sun Mar 26 2023 11:21:50 GMT-0400 (Eastern Daylight Time)","308764","green","red","","470","","","","choice","","img/green_wl/choose11.jpg","1","188","green","0.5","0.5","0.5","l","",""
"animation","79","91492","0.0-5.0-2.37","64077ddd11208afe2bec171a","bdp_lott","Sun Mar 26 2023 11:21:50 GMT-0400 (Eastern Daylight Time)","308764","green","red","","","","","","","","","","188","","","","","","[{""stimulus"":""img/green_ll/1.jpg"",""time"":51},{""stimulus"":""img/green_ll/2.jpg"",""time"":101},{""stimulus"":""img/green_ll/3.jpg"",""time"":151},{""stimulus"":""img/green_ll/4.jpg"",""time"":200},{""stimulus"":""img/green_ll/5.jpg"",""time"":251},{""stimulus"":""img/green_ll/6.jpg"",""time"":301},{""stimulus"":""img/green_ll/7.jpg"",""time"":351},{""stimulus"":""img/green_ll/8.jpg"",""time"":401},{""stimulus"":""img/green_ll/9.jpg"",""time"":451},{""stimulus"":""img/green_ll/10.jpg"",""time"":500},{""stimulus"":""img/green_ll/11.jpg"",""time"":551}]","[]"
"image-keyboard-response","80","92058","0.0-5.0-1.38","64077ddd11208afe2bec171a","bdp_lott","Sun Mar 26 2023 11:21:50 GMT-0400 (Eastern Daylight Time)","308764","green","red","","565","","","","choice","","img/green_ll/choose11.jpg","2","187","red","0.5","0.5","0.5","w","",""
"animation","81","92660","0.0-5.0-2.38","64077ddd11208afe2bec171a","bdp_lott","Sun Mar 26 2023 11:21:50 GMT-0400 (Eastern Daylight Time)","308764","green","red","","","","","","","","","","187","","","","","","[{""stimulus"":""img/red_lw/1.jpg"",""time"":51},{""stimulus"":""img/red_lw/2.jpg"",""time"":101},{""stimulus"":""img/red_lw/3.jpg"",""time"":151},{""stimulus"":""img/red_lw/4.jpg"",""time"":201},{""stimulus"":""img/red_lw/5.jpg"",""time"":251},{""stimulus"":""img/red_lw/6.jpg"",""time"":301},{""stimulus"":""img/red_lw/7.jpg"",""time"":351},{""stimulus"":""img/red_lw/8.jpg"",""time"":402},{""stimulus"":""img/red_lw/9.jpg"",""time"":452},{""stimulus"":""img/red_lw/10.jpg"",""time"":502},{""stimulus"":""img/red_lw/11.jpg"",""time"":552}]","[]"
"image-keyboard-response","82","93290","0.0-5.0-1.39","64077ddd11208afe2bec171a","bdp_lott","Sun Mar 26 2023 11:21:50 GMT-0400 (Eastern Daylight Time)","308764","green","red","","630","","","","choice","","img/red_lw/choose11.jpg","2","186","red","0.5","0.5","0.5","l","",""
"animation","83","93892","0.0-5.0-2.39","64077ddd11208afe2bec171a","bdp_lott","Sun Mar 26 2023 11:21:50 GMT-0400 (Eastern Daylight Time)","308764","green","red","","","","","","","","","","186","","","","","","[{""stimulus"":""img/red_ll/1.jpg"",""time"":52},{""stimulus"":""img/red_ll/2.jpg"",""time"":101},{""stimulus"":""img/red_ll/3.jpg"",""time"":162},{""stimulus"":""img/red_ll/4.jpg"",""time"":200},{""stimulus"":""img/red_ll/5.jpg"",""time"":252},{""stimulus"":""img/red_ll/6.jpg"",""time"":302},{""stimulus"":""img/red_ll/7.jpg"",""time"":352},{""stimulus"":""img/red_ll/8.jpg"",""time"":402},{""stimulus"":""img/red_ll/9.jpg"",""time"":452},{""stimulus"":""img/red_ll/10.jpg"",""time"":503},{""stimulus"":""img/red_ll/11.jpg"",""time"":551}]","[]"
"image-keyboard-response","84","94250","0.0-5.0-1.40","64077ddd11208afe2bec171a","bdp_lott","Sun Mar 26 2023 11:21:50 GMT-0400 (Eastern Daylight Time)","308764","green","red","","358","","","","choice","","img/red_ll/choose11.jpg","1","185","green","0.5","0.5","0.5","l","",""
"animation","85","94851","0.0-5.0-2.40","64077ddd11208afe2bec171a","bdp_lott","Sun Mar 26 2023 11:21:50 GMT-0400 (Eastern Daylight Time)","308764","green","red","","","","","","","","","","185","","","","","","[{""stimulus"":""img/green_ll/1.jpg"",""time"":51},{""stimulus"":""img/green_ll/2.jpg"",""time"":101},{""stimulus"":""img/green_ll/3.jpg"",""time"":151},{""stimulus"":""img/green_ll/4.jpg"",""time"":201},{""stimulus"":""img/green_ll/5.jpg"",""time"":251},{""stimulus"":""img/green_ll/6.jpg"",""time"":302},{""stimulus"":""img/green_ll/7.jpg"",""time"":351},{""stimulus"":""img/green_ll/8.jpg"",""time"":402},{""stimulus"":""img/green_ll/9.jpg"",""time"":451},{""stimulus"":""img/green_ll/10.jpg"",""time"":501},{""stimulus"":""img/green_ll/11.jpg"",""time"":552}]","[]"
"image-keyboard-response","86","95738","0.0-5.0-1.41","64077ddd11208afe2bec171a","bdp_lott","Sun Mar 26 2023 11:21:50 GMT-0400 (Eastern Daylight Time)","308764","green","red","","886","","","","choice","","img/green_ll/choose11.jpg","2","184","red","0.5","0.5","0.5","l","",""
"animation","87","96339","0.0-5.0-2.41","64077ddd11208afe2bec171a","bdp_lott","Sun Mar 26 2023 11:21:50 GMT-0400 (Eastern Daylight Time)","308764","green","red","","","","","","","","","","184","","","","","","[{""stimulus"":""img/red_ll/1.jpg"",""time"":53},{""stimulus"":""img/red_ll/2.jpg"",""time"":102},{""stimulus"":""img/red_ll/3.jpg"",""time"":152},{""stimulus"":""img/red_ll/4.jpg"",""time"":202},{""stimulus"":""img/red_ll/5.jpg"",""time"":251},{""stimulus"":""img/red_ll/6.jpg"",""time"":301},{""stimulus"":""img/red_ll/7.jpg"",""time"":352},{""stimulus"":""img/red_ll/8.jpg"",""time"":402},{""stimulus"":""img/red_ll/9.jpg"",""time"":452},{""stimulus"":""img/red_ll/10.jpg"",""time"":502},{""stimulus"":""img/red_ll/11.jpg"",""time"":553}]","[]"
"image-keyboard-response","88","96762","0.0-5.0-1.42","64077ddd11208afe2bec171a","bdp_lott","Sun Mar 26 2023 11:21:50 GMT-0400 (Eastern Daylight Time)","308764","green","red","","423","","","","choice","","img/red_ll/choose11.jpg","2","183","red","0.5","0.5","0.5","l","",""
"animation","89","97363","0.0-5.0-2.42","64077ddd11208afe2bec171a","bdp_lott","Sun Mar 26 2023 11:21:50 GMT-0400 (Eastern Daylight Time)","308764","green","red","","","","","","","","","","183","","","","","","[{""stimulus"":""img/red_ll/1.jpg"",""time"":50},{""stimulus"":""img/red_ll/2.jpg"",""time"":101},{""stimulus"":""img/red_ll/3.jpg"",""time"":151},{""stimulus"":""img/red_ll/4.jpg"",""time"":201},{""stimulus"":""img/red_ll/5.jpg"",""time"":251},{""stimulus"":""img/red_ll/6.jpg"",""time"":301},{""stimulus"":""img/red_ll/7.jpg"",""time"":351},{""stimulus"":""img/red_ll/8.jpg"",""time"":402},{""stimulus"":""img/red_ll/9.jpg"",""time"":452},{""stimulus"":""img/red_ll/10.jpg"",""time"":501},{""stimulus"":""img/red_ll/11.jpg"",""time"":550}]","[]"
"image-keyboard-response","90","97978","0.0-5.0-1.43","64077ddd11208afe2bec171a","bdp_lott","Sun Mar 26 2023 11:21:50 GMT-0400 (Eastern Daylight Time)","308764","green","red","","615","","","","choice","","img/red_ll/choose11.jpg","2","182","red","0.5","0.5","0.5","w","",""
"animation","91","98579","0.0-5.0-2.43","64077ddd11208afe2bec171a","bdp_lott","Sun Mar 26 2023 11:21:50 GMT-0400 (Eastern Daylight Time)","308764","green","red","","","","","","","","","","182","","","","","","[{""stimulus"":""img/red_lw/1.jpg"",""time"":51},{""stimulus"":""img/red_lw/2.jpg"",""time"":101},{""stimulus"":""img/red_lw/3.jpg"",""time"":152},{""stimulus"":""img/red_lw/4.jpg"",""time"":201},{""stimulus"":""img/red_lw/5.jpg"",""time"":251},{""stimulus"":""img/red_lw/6.jpg"",""time"":300},{""stimulus"":""img/red_lw/7.jpg"",""time"":350},{""stimulus"":""img/red_lw/8.jpg"",""time"":401},{""stimulus"":""img/red_lw/9.jpg"",""time"":450},{""stimulus"":""img/red_lw/10.jpg"",""time"":501},{""stimulus"":""img/red_lw/11.jpg"",""time"":550}]","[]"
"image-keyboard-response","92","99100","0.0-5.0-1.44","64077ddd11208afe2bec171a","bdp_lott","Sun Mar 26 2023 11:21:50 GMT-0400 (Eastern Daylight Time)","308764","green","red","","520","","","","choice","","img/red_lw/choose11.jpg","2","181","red","0.5","0.5","0.5","w","",""
"animation","93","99702","0.0-5.0-2.44","64077ddd11208afe2bec171a","bdp_lott","Sun Mar 26 2023 11:21:50 GMT-0400 (Eastern Daylight Time)","308764","green","red","","","","","","","","","","181","","","","","","[{""stimulus"":""img/red_lw/1.jpg"",""time"":51},{""stimulus"":""img/red_lw/2.jpg"",""time"":102},{""stimulus"":""img/red_lw/3.jpg"",""time"":152},{""stimulus"":""img/red_lw/4.jpg"",""time"":201},{""stimulus"":""img/red_lw/5.jpg"",""time"":251},{""stimulus"":""img/red_lw/6.jpg"",""time"":302},{""stimulus"":""img/red_lw/7.jpg"",""time"":352},{""stimulus"":""img/red_lw/8.jpg"",""time"":402},{""stimulus"":""img/red_lw/9.jpg"",""time"":451},{""stimulus"":""img/red_lw/10.jpg"",""time"":501},{""stimulus"":""img/red_lw/11.jpg"",""time"":552}]","[]"
"image-keyboard-response","94","100106","0.0-5.0-1.45","64077ddd11208afe2bec171a","bdp_lott","Sun Mar 26 2023 11:21:50 GMT-0400 (Eastern Daylight Time)","308764","green","red","","404","","","","choice","","img/red_lw/choose11.jpg","2","180","red","0.5","0.5","0.5","w","",""
"animation","95","100708","0.0-5.0-2.45","64077ddd11208afe2bec171a","bdp_lott","Sun Mar 26 2023 11:21:50 GMT-0400 (Eastern Daylight Time)","308764","green","red","","","","","","","","","","180","","","","","","[{""stimulus"":""img/red_lw/1.jpg"",""time"":51},{""stimulus"":""img/red_lw/2.jpg"",""time"":100},{""stimulus"":""img/red_lw/3.jpg"",""time"":151},{""stimulus"":""img/red_lw/4.jpg"",""time"":200},{""stimulus"":""img/red_lw/5.jpg"",""time"":251},{""stimulus"":""img/red_lw/6.jpg"",""time"":301},{""stimulus"":""img/red_lw/7.jpg"",""time"":351},{""stimulus"":""img/red_lw/8.jpg"",""time"":401},{""stimulus"":""img/red_lw/9.jpg"",""time"":451},{""stimulus"":""img/red_lw/10.jpg"",""time"":501},{""stimulus"":""img/red_lw/11.jpg"",""time"":552}]","[]"
"image-keyboard-response","96","101130","0.0-5.0-1.46","64077ddd11208afe2bec171a","bdp_lott","Sun Mar 26 2023 11:21:50 GMT-0400 (Eastern Daylight Time)","308764","green","red","","421","","","","choice","","img/red_lw/choose11.jpg","2","179","red","0.5","0.5","0.5","l","",""
"animation","97","101732","0.0-5.0-2.46","64077ddd11208afe2bec171a","bdp_lott","Sun Mar 26 2023 11:21:50 GMT-0400 (Eastern Daylight Time)","308764","green","red","","","","","","","","","","179","","","","","","[{""stimulus"":""img/red_ll/1.jpg"",""time"":50},{""stimulus"":""img/red_ll/2.jpg"",""time"":101},{""stimulus"":""img/red_ll/3.jpg"",""time"":150},{""stimulus"":""img/red_ll/4.jpg"",""time"":201},{""stimulus"":""img/red_ll/5.jpg"",""time"":251},{""stimulus"":""img/red_ll/6.jpg"",""time"":301},{""stimulus"":""img/red_ll/7.jpg"",""time"":350},{""stimulus"":""img/red_ll/8.jpg"",""time"":401},{""stimulus"":""img/red_ll/9.jpg"",""time"":451},{""stimulus"":""img/red_ll/10.jpg"",""time"":501},{""stimulus"":""img/red_ll/11.jpg"",""time"":551}]","[]"
"image-keyboard-response","98","102202","0.0-5.0-1.47","64077ddd11208afe2bec171a","bdp_lott","Sun Mar 26 2023 11:21:50 GMT-0400 (Eastern Daylight Time)","308764","green","red","","470","","","","choice","","img/red_ll/choose11.jpg","1","178","green","0.5","0.5","0.5","l","",""
"animation","99","102803","0.0-5.0-2.47","64077ddd11208afe2bec171a","bdp_lott","Sun Mar 26 2023 11:21:50 GMT-0400 (Eastern Daylight Time)","308764","green","red","","","","","","","","","","178","","","","","","[{""stimulus"":""img/green_ll/1.jpg"",""time"":51},{""stimulus"":""img/green_ll/2.jpg"",""time"":101},{""stimulus"":""img/green_ll/3.jpg"",""time"":151},{""stimulus"":""img/green_ll/4.jpg"",""time"":202},{""stimulus"":""img/green_ll/5.jpg"",""time"":250},{""stimulus"":""img/green_ll/6.jpg"",""time"":300},{""stimulus"":""img/green_ll/7.jpg"",""time"":351},{""stimulus"":""img/green_ll/8.jpg"",""time"":401},{""stimulus"":""img/green_ll/9.jpg"",""time"":452},{""stimulus"":""img/green_ll/10.jpg"",""time"":501},{""stimulus"":""img/green_ll/11.jpg"",""time"":551}]","[]"
"image-keyboard-response","100","104106","0.0-5.0-1.48","64077ddd11208afe2bec171a","bdp_lott","Sun Mar 26 2023 11:21:50 GMT-0400 (Eastern Daylight Time)","308764","green","red","","1302","","","","choice","","img/green_ll/choose11.jpg","2","177","red","0.5","0.5","0.5","l","",""
"animation","101","104707","0.0-5.0-2.48","64077ddd11208afe2bec171a","bdp_lott","Sun Mar 26 2023 11:21:50 GMT-0400 (Eastern Daylight Time)","308764","green","red","","","","","","","","","","177","","","","","","[{""stimulus"":""img/red_ll/1.jpg"",""time"":51},{""stimulus"":""img/red_ll/2.jpg"",""time"":101},{""stimulus"":""img/red_ll/3.jpg"",""time"":152},{""stimulus"":""img/red_ll/4.jpg"",""time"":202},{""stimulus"":""img/red_ll/5.jpg"",""time"":252},{""stimulus"":""img/red_ll/6.jpg"",""time"":301},{""stimulus"":""img/red_ll/7.jpg"",""time"":351},{""stimulus"":""img/red_ll/8.jpg"",""time"":402},{""stimulus"":""img/red_ll/9.jpg"",""time"":452},{""stimulus"":""img/red_ll/10.jpg"",""time"":502},{""stimulus"":""img/red_ll/11.jpg"",""time"":552}]","[]"
"image-keyboard-response","102","105226","0.0-5.0-1.49","64077ddd11208afe2bec171a","bdp_lott","Sun Mar 26 2023 11:21:50 GMT-0400 (Eastern Daylight Time)","308764","green","red","","518","","","","choice","","img/red_ll/choose11.jpg","1","176","green","0.5","0.5","0.5","w","",""
"animation","103","105829","0.0-5.0-2.49","64077ddd11208afe2bec171a","bdp_lott","Sun Mar 26 2023 11:21:50 GMT-0400 (Eastern Daylight Time)","308764","green","red","","","","","","","","","","176","","","","","","[{""stimulus"":""img/green_wl/1.jpg"",""time"":51},{""stimulus"":""img/green_wl/2.jpg"",""time"":102},{""stimulus"":""img/green_wl/3.jpg"",""time"":151},{""stimulus"":""img/green_wl/4.jpg"",""time"":202},{""stimulus"":""img/green_wl/5.jpg"",""time"":252},{""stimulus"":""img/green_wl/6.jpg"",""time"":301},{""stimulus"":""img/green_wl/7.jpg"",""time"":351},{""stimulus"":""img/green_wl/8.jpg"",""time"":401},{""stimulus"":""img/green_wl/9.jpg"",""time"":451},{""stimulus"":""img/green_wl/10.jpg"",""time"":501},{""stimulus"":""img/green_wl/11.jpg"",""time"":551}]","[]"
"image-keyboard-response","104","106234","0.0-5.0-1.50","64077ddd11208afe2bec171a","bdp_lott","Sun Mar 26 2023 11:21:50 GMT-0400 (Eastern Daylight Time)","308764","green","red","","405","","","","choice","","img/green_wl/choose11.jpg","1","175","green","0.5","0.5","0.5","l","",""
"animation","105","106835","0.0-5.0-2.50","64077ddd11208afe2bec171a","bdp_lott","Sun Mar 26 2023 11:21:50 GMT-0400 (Eastern Daylight Time)","308764","green","red","","","","","","","","","","175","","","","","","[{""stimulus"":""img/green_ll/1.jpg"",""time"":51},{""stimulus"":""img/green_ll/2.jpg"",""time"":101},{""stimulus"":""img/green_ll/3.jpg"",""time"":151},{""stimulus"":""img/green_ll/4.jpg"",""time"":201},{""stimulus"":""img/green_ll/5.jpg"",""time"":251},{""stimulus"":""img/green_ll/6.jpg"",""time"":301},{""stimulus"":""img/green_ll/7.jpg"",""time"":351},{""stimulus"":""img/green_ll/8.jpg"",""time"":401},{""stimulus"":""img/green_ll/9.jpg"",""time"":451},{""stimulus"":""img/green_ll/10.jpg"",""time"":501},{""stimulus"":""img/green_ll/11.jpg"",""time"":551}]","[]"
"image-keyboard-response","106","107978","0.0-5.0-1.51","64077ddd11208afe2bec171a","bdp_lott","Sun Mar 26 2023 11:21:50 GMT-0400 (Eastern Daylight Time)","308764","green","red","","1142","","","","choice","","img/green_ll/choose11.jpg","2","174","red","0.5","0.5","0.5","w","",""
"animation","107","108580","0.0-5.0-2.51","64077ddd11208afe2bec171a","bdp_lott","Sun Mar 26 2023 11:21:50 GMT-0400 (Eastern Daylight Time)","308764","green","red","","","","","","","","","","174","","","","","","[{""stimulus"":""img/red_lw/1.jpg"",""time"":53},{""stimulus"":""img/red_lw/2.jpg"",""time"":102},{""stimulus"":""img/red_lw/3.jpg"",""time"":153},{""stimulus"":""img/red_lw/4.jpg"",""time"":203},{""stimulus"":""img/red_lw/5.jpg"",""time"":252},{""stimulus"":""img/red_lw/6.jpg"",""time"":301},{""stimulus"":""img/red_lw/7.jpg"",""time"":352},{""stimulus"":""img/red_lw/8.jpg"",""time"":402},{""stimulus"":""img/red_lw/9.jpg"",""time"":452},{""stimulus"":""img/red_lw/10.jpg"",""time"":501},{""stimulus"":""img/red_lw/11.jpg"",""time"":552}]","[]"
"image-keyboard-response","108","109098","0.0-5.0-1.52","64077ddd11208afe2bec171a","bdp_lott","Sun Mar 26 2023 11:21:50 GMT-0400 (Eastern Daylight Time)","308764","green","red","","518","","","","choice","","img/red_lw/choose11.jpg","2","173","red","0.5","0.5","0.5","w","",""
"animation","109","109700","0.0-5.0-2.52","64077ddd11208afe2bec171a","bdp_lott","Sun Mar 26 2023 11:21:50 GMT-0400 (Eastern Daylight Time)","308764","green","red","","","","","","","","","","173","","","","","","[{""stimulus"":""img/red_lw/1.jpg"",""time"":50},{""stimulus"":""img/red_lw/2.jpg"",""time"":100},{""stimulus"":""img/red_lw/3.jpg"",""time"":151},{""stimulus"":""img/red_lw/4.jpg"",""time"":201},{""stimulus"":""img/red_lw/5.jpg"",""time"":251},{""stimulus"":""img/red_lw/6.jpg"",""time"":301},{""stimulus"":""img/red_lw/7.jpg"",""time"":351},{""stimulus"":""img/red_lw/8.jpg"",""time"":402},{""stimulus"":""img/red_lw/9.jpg"",""time"":450},{""stimulus"":""img/red_lw/10.jpg"",""time"":500},{""stimulus"":""img/red_lw/11.jpg"",""time"":551}]","[]"
"image-keyboard-response","110","110108","0.0-5.0-1.53","64077ddd11208afe2bec171a","bdp_lott","Sun Mar 26 2023 11:21:50 GMT-0400 (Eastern Daylight Time)","308764","green","red","","407","","","","choice","","img/red_lw/choose11.jpg","2","172","red","0.5","0.5","0.5","w","",""
"animation","111","110709","0.0-5.0-2.53","64077ddd11208afe2bec171a","bdp_lott","Sun Mar 26 2023 11:21:50 GMT-0400 (Eastern Daylight Time)","308764","green","red","","","","","","","","","","172","","","","","","[{""stimulus"":""img/red_lw/1.jpg"",""time"":51},{""stimulus"":""img/red_lw/2.jpg"",""time"":101},{""stimulus"":""img/red_lw/3.jpg"",""time"":151},{""stimulus"":""img/red_lw/4.jpg"",""time"":201},{""stimulus"":""img/red_lw/5.jpg"",""time"":251},{""stimulus"":""img/red_lw/6.jpg"",""time"":301},{""stimulus"":""img/red_lw/7.jpg"",""time"":351},{""stimulus"":""img/red_lw/8.jpg"",""time"":403},{""stimulus"":""img/red_lw/9.jpg"",""time"":452},{""stimulus"":""img/red_lw/10.jpg"",""time"":501},{""stimulus"":""img/red_lw/11.jpg"",""time"":552}]","[]"
"image-keyboard-response","112","111114","0.0-5.0-1.54","64077ddd11208afe2bec171a","bdp_lott","Sun Mar 26 2023 11:21:50 GMT-0400 (Eastern Daylight Time)","308764","green","red","","404","","","","choice","","img/red_lw/choose11.jpg","2","171","red","0.5","0.5","0.5","w","",""
"animation","113","111716","0.0-5.0-2.54","64077ddd11208afe2bec171a","bdp_lott","Sun Mar 26 2023 11:21:50 GMT-0400 (Eastern Daylight Time)","308764","green","red","","","","","","","","","","171","","","","","","[{""stimulus"":""img/red_lw/1.jpg"",""time"":51},{""stimulus"":""img/red_lw/2.jpg"",""time"":101},{""stimulus"":""img/red_lw/3.jpg"",""time"":152},{""stimulus"":""img/red_lw/4.jpg"",""time"":202},{""stimulus"":""img/red_lw/5.jpg"",""time"":263},{""stimulus"":""img/red_lw/6.jpg"",""time"":302},{""stimulus"":""img/red_lw/7.jpg"",""time"":352},{""stimulus"":""img/red_lw/8.jpg"",""time"":402},{""stimulus"":""img/red_lw/9.jpg"",""time"":452},{""stimulus"":""img/red_lw/10.jpg"",""time"":501},{""stimulus"":""img/red_lw/11.jpg"",""time"":551}]","[]"
"image-keyboard-response","114","112138","0.0-5.0-1.55","64077ddd11208afe2bec171a","bdp_lott","Sun Mar 26 2023 11:21:50 GMT-0400 (Eastern Daylight Time)","308764","green","red","","422","","","","choice","","img/red_lw/choose11.jpg","2","170","red","0.5","0.5","0.5","l","",""
"animation","115","112739","0.0-5.0-2.55","64077ddd11208afe2bec171a","bdp_lott","Sun Mar 26 2023 11:21:50 GMT-0400 (Eastern Daylight Time)","308764","green","red","","","","","","","","","","170","","","","","","[{""stimulus"":""img/red_ll/1.jpg"",""time"":50},{""stimulus"":""img/red_ll/2.jpg"",""time"":101},{""stimulus"":""img/red_ll/3.jpg"",""time"":151},{""stimulus"":""img/red_ll/4.jpg"",""time"":201},{""stimulus"":""img/red_ll/5.jpg"",""time"":252},{""stimulus"":""img/red_ll/6.jpg"",""time"":300},{""stimulus"":""img/red_ll/7.jpg"",""time"":351},{""stimulus"":""img/red_ll/8.jpg"",""time"":401},{""stimulus"":""img/red_ll/9.jpg"",""time"":452},{""stimulus"":""img/red_ll/10.jpg"",""time"":500},{""stimulus"":""img/red_ll/11.jpg"",""time"":551}]","[]"
"image-keyboard-response","116","113130","0.0-5.0-1.56","64077ddd11208afe2bec171a","bdp_lott","Sun Mar 26 2023 11:21:50 GMT-0400 (Eastern Daylight Time)","308764","green","red","","390","","","","choice","","img/red_ll/choose11.jpg","1","169","green","0.5","0.5","0.5","l","",""
"animation","117","113731","0.0-5.0-2.56","64077ddd11208afe2bec171a","bdp_lott","Sun Mar 26 2023 11:21:50 GMT-0400 (Eastern Daylight Time)","308764","green","red","","","","","","","","","","169","","","","","","[{""stimulus"":""img/green_ll/1.jpg"",""time"":51},{""stimulus"":""img/green_ll/2.jpg"",""time"":101},{""stimulus"":""img/green_ll/3.jpg"",""time"":151},{""stimulus"":""img/green_ll/4.jpg"",""time"":201},{""stimulus"":""img/green_ll/5.jpg"",""time"":252},{""stimulus"":""img/green_ll/6.jpg"",""time"":302},{""stimulus"":""img/green_ll/7.jpg"",""time"":353},{""stimulus"":""img/green_ll/8.jpg"",""time"":402},{""stimulus"":""img/green_ll/9.jpg"",""time"":452},{""stimulus"":""img/green_ll/10.jpg"",""time"":502},{""stimulus"":""img/green_ll/11.jpg"",""time"":552}]","[]"
"image-keyboard-response","118","114234","0.0-5.0-1.57","64077ddd11208afe2bec171a","bdp_lott","Sun Mar 26 2023 11:21:50 GMT-0400 (Eastern Daylight Time)","308764","green","red","","502","","","","choice","","img/green_ll/choose11.jpg","1","168","green","0.5","0.5","0.5","w","",""
"animation","119","114835","0.0-5.0-2.57","64077ddd11208afe2bec171a","bdp_lott","Sun Mar 26 2023 11:21:50 GMT-0400 (Eastern Daylight Time)","308764","green","red","","","","","","","","","","168","","","","","","[{""stimulus"":""img/green_wl/1.jpg"",""time"":52},{""stimulus"":""img/green_wl/2.jpg"",""time"":101},{""stimulus"":""img/green_wl/3.jpg"",""time"":153},{""stimulus"":""img/green_wl/4.jpg"",""time"":201},{""stimulus"":""img/green_wl/5.jpg"",""time"":252},{""stimulus"":""img/green_wl/6.jpg"",""time"":303},{""stimulus"":""img/green_wl/7.jpg"",""time"":351},{""stimulus"":""img/green_wl/8.jpg"",""time"":401},{""stimulus"":""img/green_wl/9.jpg"",""time"":451},{""stimulus"":""img/green_wl/10.jpg"",""time"":501},{""stimulus"":""img/green_wl/11.jpg"",""time"":551}]","[]"
"image-keyboard-response","120","115226","0.0-5.0-1.58","64077ddd11208afe2bec171a","bdp_lott","Sun Mar 26 2023 11:21:50 GMT-0400 (Eastern Daylight Time)","308764","green","red","","390","","","","choice","","img/green_wl/choose11.jpg","1","167","green","0.5","0.5","0.5","w","",""
"animation","121","115827","0.0-5.0-2.58","64077ddd11208afe2bec171a","bdp_lott","Sun Mar 26 2023 11:21:50 GMT-0400 (Eastern Daylight Time)","308764","green","red","","","","","","","","","","167","","","","","","[{""stimulus"":""img/green_wl/1.jpg"",""time"":51},{""stimulus"":""img/green_wl/2.jpg"",""time"":102},{""stimulus"":""img/green_wl/3.jpg"",""time"":151},{""stimulus"":""img/green_wl/4.jpg"",""time"":212},{""stimulus"":""img/green_wl/5.jpg"",""time"":252},{""stimulus"":""img/green_wl/6.jpg"",""time"":302},{""stimulus"":""img/green_wl/7.jpg"",""time"":351},{""stimulus"":""img/green_wl/8.jpg"",""time"":402},{""stimulus"":""img/green_wl/9.jpg"",""time"":456},{""stimulus"":""img/green_wl/10.jpg"",""time"":502},{""stimulus"":""img/green_wl/11.jpg"",""time"":552}]","[]"
"image-keyboard-response","122","116186","0.0-5.0-1.59","64077ddd11208afe2bec171a","bdp_lott","Sun Mar 26 2023 11:21:50 GMT-0400 (Eastern Daylight Time)","308764","green","red","","358","","","","choice","","img/green_wl/choose11.jpg","1","166","green","0.5","0.5","0.5","l","",""
"animation","123","116787","0.0-5.0-2.59","64077ddd11208afe2bec171a","bdp_lott","Sun Mar 26 2023 11:21:50 GMT-0400 (Eastern Daylight Time)","308764","green","red","","","","","","","","","","166","","","","","","[{""stimulus"":""img/green_ll/1.jpg"",""time"":52},{""stimulus"":""img/green_ll/2.jpg"",""time"":101},{""stimulus"":""img/green_ll/3.jpg"",""time"":152},{""stimulus"":""img/green_ll/4.jpg"",""time"":202},{""stimulus"":""img/green_ll/5.jpg"",""time"":251},{""stimulus"":""img/green_ll/6.jpg"",""time"":301},{""stimulus"":""img/green_ll/7.jpg"",""time"":351},{""stimulus"":""img/green_ll/8.jpg"",""time"":401},{""stimulus"":""img/green_ll/9.jpg"",""time"":451},{""stimulus"":""img/green_ll/10.jpg"",""time"":502},{""stimulus"":""img/green_ll/11.jpg"",""time"":552}]","[]"
"image-keyboard-response","124","117274","0.0-5.0-1.60","64077ddd11208afe2bec171a","bdp_lott","Sun Mar 26 2023 11:21:50 GMT-0400 (Eastern Daylight Time)","308764","green","red","","486","","","","choice","","img/green_ll/choose11.jpg","2","165","red","0.5","0.5","0.5","l","",""
"animation","125","117875","0.0-5.0-2.60","64077ddd11208afe2bec171a","bdp_lott","Sun Mar 26 2023 11:21:50 GMT-0400 (Eastern Daylight Time)","308764","green","red","","","","","","","","","","165","","","","","","[{""stimulus"":""img/red_ll/1.jpg"",""time"":51},{""stimulus"":""img/red_ll/2.jpg"",""time"":104},{""stimulus"":""img/red_ll/3.jpg"",""time"":152},{""stimulus"":""img/red_ll/4.jpg"",""time"":202},{""stimulus"":""img/red_ll/5.jpg"",""time"":252},{""stimulus"":""img/red_ll/6.jpg"",""time"":301},{""stimulus"":""img/red_ll/7.jpg"",""time"":351},{""stimulus"":""img/red_ll/8.jpg"",""time"":402},{""stimulus"":""img/red_ll/9.jpg"",""time"":451},{""stimulus"":""img/red_ll/10.jpg"",""time"":501},{""stimulus"":""img/red_ll/11.jpg"",""time"":552}]","[]"
"image-keyboard-response","126","118554","0.0-5.0-1.61","64077ddd11208afe2bec171a","bdp_lott","Sun Mar 26 2023 11:21:50 GMT-0400 (Eastern Daylight Time)","308764","green","red","","678","","","","choice","","img/red_ll/choose11.jpg","1","164","green","0.5","0.5","0.5","l","",""
"animation","127","119155","0.0-5.0-2.61","64077ddd11208afe2bec171a","bdp_lott","Sun Mar 26 2023 11:21:50 GMT-0400 (Eastern Daylight Time)","308764","green","red","","","","","","","","","","164","","","","","","[{""stimulus"":""img/green_ll/1.jpg"",""time"":53},{""stimulus"":""img/green_ll/2.jpg"",""time"":101},{""stimulus"":""img/green_ll/3.jpg"",""time"":152},{""stimulus"":""img/green_ll/4.jpg"",""time"":201},{""stimulus"":""img/green_ll/5.jpg"",""time"":253},{""stimulus"":""img/green_ll/6.jpg"",""time"":301},{""stimulus"":""img/green_ll/7.jpg"",""time"":352},{""stimulus"":""img/green_ll/8.jpg"",""time"":402},{""stimulus"":""img/green_ll/9.jpg"",""time"":452},{""stimulus"":""img/green_ll/10.jpg"",""time"":502},{""stimulus"":""img/green_ll/11.jpg"",""time"":552}]","[]"
"image-keyboard-response","128","119978","0.0-5.0-1.62","64077ddd11208afe2bec171a","bdp_lott","Sun Mar 26 2023 11:21:50 GMT-0400 (Eastern Daylight Time)","308764","green","red","","822","","","","choice","","img/green_ll/choose11.jpg","2","163","red","0.5","0.5","0.5","l","",""
"animation","129","120580","0.0-5.0-2.62","64077ddd11208afe2bec171a","bdp_lott","Sun Mar 26 2023 11:21:50 GMT-0400 (Eastern Daylight Time)","308764","green","red","","","","","","","","","","163","","","","","","[{""stimulus"":""img/red_ll/1.jpg"",""time"":51},{""stimulus"":""img/red_ll/2.jpg"",""time"":101},{""stimulus"":""img/red_ll/3.jpg"",""time"":151},{""stimulus"":""img/red_ll/4.jpg"",""time"":200},{""stimulus"":""img/red_ll/5.jpg"",""time"":250},{""stimulus"":""img/red_ll/6.jpg"",""time"":301},{""stimulus"":""img/red_ll/7.jpg"",""time"":352},{""stimulus"":""img/red_ll/8.jpg"",""time"":401},{""stimulus"":""img/red_ll/9.jpg"",""time"":452},{""stimulus"":""img/red_ll/10.jpg"",""time"":502},{""stimulus"":""img/red_ll/11.jpg"",""time"":551}]","[]"
"image-keyboard-response","130","121195","0.0-5.0-1.63","64077ddd11208afe2bec171a","bdp_lott","Sun Mar 26 2023 11:21:50 GMT-0400 (Eastern Daylight Time)","308764","green","red","","615","","","","choice","","img/red_ll/choose11.jpg","2","162","red","0.5","0.5","0.5","l","",""
"animation","131","121797","0.0-5.0-2.63","64077ddd11208afe2bec171a","bdp_lott","Sun Mar 26 2023 11:21:50 GMT-0400 (Eastern Daylight Time)","308764","green","red","","","","","","","","","","162","","","","","","[{""stimulus"":""img/red_ll/1.jpg"",""time"":51},{""stimulus"":""img/red_ll/2.jpg"",""time"":102},{""stimulus"":""img/red_ll/3.jpg"",""time"":151},{""stimulus"":""img/red_ll/4.jpg"",""time"":211},{""stimulus"":""img/red_ll/5.jpg"",""time"":251},{""stimulus"":""img/red_ll/6.jpg"",""time"":301},{""stimulus"":""img/red_ll/7.jpg"",""time"":351},{""stimulus"":""img/red_ll/8.jpg"",""time"":401},{""stimulus"":""img/red_ll/9.jpg"",""time"":451},{""stimulus"":""img/red_ll/10.jpg"",""time"":500},{""stimulus"":""img/red_ll/11.jpg"",""time"":551}]","[]"
"image-keyboard-response","132","122266","0.0-5.0-1.64","64077ddd11208afe2bec171a","bdp_lott","Sun Mar 26 2023 11:21:50 GMT-0400 (Eastern Daylight Time)","308764","green","red","","468","","","","choice","","img/red_ll/choose11.jpg","1","161","green","0.5","0.5","0.5","l","",""
"animation","133","122867","0.0-5.0-2.64","64077ddd11208afe2bec171a","bdp_lott","Sun Mar 26 2023 11:21:50 GMT-0400 (Eastern Daylight Time)","308764","green","red","","","","","","","","","","161","","","","","","[{""stimulus"":""img/green_ll/1.jpg"",""time"":51},{""stimulus"":""img/green_ll/2.jpg"",""time"":101},{""stimulus"":""img/green_ll/3.jpg"",""time"":152},{""stimulus"":""img/green_ll/4.jpg"",""time"":202},{""stimulus"":""img/green_ll/5.jpg"",""time"":251},{""stimulus"":""img/green_ll/6.jpg"",""time"":301},{""stimulus"":""img/green_ll/7.jpg"",""time"":352},{""stimulus"":""img/green_ll/8.jpg"",""time"":401},{""stimulus"":""img/green_ll/9.jpg"",""time"":452},{""stimulus"":""img/green_ll/10.jpg"",""time"":501},{""stimulus"":""img/green_ll/11.jpg"",""time"":552}]","[]"
"image-keyboard-response","134","123562","0.0-5.0-1.65","64077ddd11208afe2bec171a","bdp_lott","Sun Mar 26 2023 11:21:50 GMT-0400 (Eastern Daylight Time)","308764","green","red","","694","","","","choice","","img/green_ll/choose11.jpg","2","160","red","0.5","0.5","0.5","w","",""
"animation","135","124162","0.0-5.0-2.65","64077ddd11208afe2bec171a","bdp_lott","Sun Mar 26 2023 11:21:50 GMT-0400 (Eastern Daylight Time)","308764","green","red","","","","","","","","","","160","","","","","","[{""stimulus"":""img/red_lw/1.jpg"",""time"":51},{""stimulus"":""img/red_lw/2.jpg"",""time"":101},{""stimulus"":""img/red_lw/3.jpg"",""time"":151},{""stimulus"":""img/red_lw/4.jpg"",""time"":202},{""stimulus"":""img/red_lw/5.jpg"",""time"":252},{""stimulus"":""img/red_lw/6.jpg"",""time"":302},{""stimulus"":""img/red_lw/7.jpg"",""time"":351},{""stimulus"":""img/red_lw/8.jpg"",""time"":401},{""stimulus"":""img/red_lw/9.jpg"",""time"":451},{""stimulus"":""img/red_lw/10.jpg"",""time"":501},{""stimulus"":""img/red_lw/11.jpg"",""time"":551}]","[]"
"image-keyboard-response","136","124538","0.0-5.0-1.66","64077ddd11208afe2bec171a","bdp_lott","Sun Mar 26 2023 11:21:50 GMT-0400 (Eastern Daylight Time)","308764","green","red","","375","","","","choice","","img/red_lw/choose11.jpg","2","159","red","0.5","0.5","0.5","l","",""
"animation","137","125140","0.0-5.0-2.66","64077ddd11208afe2bec171a","bdp_lott","Sun Mar 26 2023 11:21:50 GMT-0400 (Eastern Daylight Time)","308764","green","red","","","","","","","","","","159","","","","","","[{""stimulus"":""img/red_ll/1.jpg"",""time"":51},{""stimulus"":""img/red_ll/2.jpg"",""time"":102},{""stimulus"":""img/red_ll/3.jpg"",""time"":152},{""stimulus"":""img/red_ll/4.jpg"",""time"":202},{""stimulus"":""img/red_ll/5.jpg"",""time"":251},{""stimulus"":""img/red_ll/6.jpg"",""time"":301},{""stimulus"":""img/red_ll/7.jpg"",""time"":351},{""stimulus"":""img/red_ll/8.jpg"",""time"":401},{""stimulus"":""img/red_ll/9.jpg"",""time"":451},{""stimulus"":""img/red_ll/10.jpg"",""time"":501},{""stimulus"":""img/red_ll/11.jpg"",""time"":551}]","[]"
"image-keyboard-response","138","125642","0.0-5.0-1.67","64077ddd11208afe2bec171a","bdp_lott","Sun Mar 26 2023 11:21:50 GMT-0400 (Eastern Daylight Time)","308764","green","red","","502","","","","choice","","img/red_ll/choose11.jpg","1","158","green","0.5","0.5","0.5","l","",""
"animation","139","126243","0.0-5.0-2.67","64077ddd11208afe2bec171a","bdp_lott","Sun Mar 26 2023 11:21:50 GMT-0400 (Eastern Daylight Time)","308764","green","red","","","","","","","","","","158","","","","","","[{""stimulus"":""img/green_ll/1.jpg"",""time"":51},{""stimulus"":""img/green_ll/2.jpg"",""time"":101},{""stimulus"":""img/green_ll/3.jpg"",""time"":152},{""stimulus"":""img/green_ll/4.jpg"",""time"":202},{""stimulus"":""img/green_ll/5.jpg"",""time"":252},{""stimulus"":""img/green_ll/6.jpg"",""time"":302},{""stimulus"":""img/green_ll/7.jpg"",""time"":352},{""stimulus"":""img/green_ll/8.jpg"",""time"":401},{""stimulus"":""img/green_ll/9.jpg"",""time"":451},{""stimulus"":""img/green_ll/10.jpg"",""time"":502},{""stimulus"":""img/green_ll/11.jpg"",""time"":551}]","[]"
"image-keyboard-response","140","127466","0.0-5.0-1.68","64077ddd11208afe2bec171a","bdp_lott","Sun Mar 26 2023 11:21:50 GMT-0400 (Eastern Daylight Time)","308764","green","red","","1222","","","","choice","","img/green_ll/choose11.jpg","2","157","red","0.5","0.5","0.5","l","",""
"animation","141","128067","0.0-5.0-2.68","64077ddd11208afe2bec171a","bdp_lott","Sun Mar 26 2023 11:21:50 GMT-0400 (Eastern Daylight Time)","308764","green","red","","","","","","","","","","157","","","","","","[{""stimulus"":""img/red_ll/1.jpg"",""time"":51},{""stimulus"":""img/red_ll/2.jpg"",""time"":100},{""stimulus"":""img/red_ll/3.jpg"",""time"":152},{""stimulus"":""img/red_ll/4.jpg"",""time"":200},{""stimulus"":""img/red_ll/5.jpg"",""time"":251},{""stimulus"":""img/red_ll/6.jpg"",""time"":301},{""stimulus"":""img/red_ll/7.jpg"",""time"":352},{""stimulus"":""img/red_ll/8.jpg"",""time"":402},{""stimulus"":""img/red_ll/9.jpg"",""time"":451},{""stimulus"":""img/red_ll/10.jpg"",""time"":501},{""stimulus"":""img/red_ll/11.jpg"",""time"":552}]","[]"
"image-keyboard-response","142","128779","0.0-5.0-1.69","64077ddd11208afe2bec171a","bdp_lott","Sun Mar 26 2023 11:21:50 GMT-0400 (Eastern Daylight Time)","308764","green","red","","711","","","","choice","","img/red_ll/choose11.jpg","2","156","red","0.5","0.5","0.5","l","",""
"animation","143","129379","0.0-5.0-2.69","64077ddd11208afe2bec171a","bdp_lott","Sun Mar 26 2023 11:21:50 GMT-0400 (Eastern Daylight Time)","308764","green","red","","","","","","","","","","156","","","","","","[{""stimulus"":""img/red_ll/1.jpg"",""time"":52},{""stimulus"":""img/red_ll/2.jpg"",""time"":100},{""stimulus"":""img/red_ll/3.jpg"",""time"":151},{""stimulus"":""img/red_ll/4.jpg"",""time"":200},{""stimulus"":""img/red_ll/5.jpg"",""time"":251},{""stimulus"":""img/red_ll/6.jpg"",""time"":301},{""stimulus"":""img/red_ll/7.jpg"",""time"":351},{""stimulus"":""img/red_ll/8.jpg"",""time"":401},{""stimulus"":""img/red_ll/9.jpg"",""time"":451},{""stimulus"":""img/red_ll/10.jpg"",""time"":500},{""stimulus"":""img/red_ll/11.jpg"",""time"":550}]","[]"
"image-keyboard-response","144","129930","0.0-5.0-1.70","64077ddd11208afe2bec171a","bdp_lott","Sun Mar 26 2023 11:21:50 GMT-0400 (Eastern Daylight Time)","308764","green","red","","550","","","","choice","","img/red_ll/choose11.jpg","1","155","green","0.5","0.5","0.5","w","",""
"animation","145","130531","0.0-5.0-2.70","64077ddd11208afe2bec171a","bdp_lott","Sun Mar 26 2023 11:21:50 GMT-0400 (Eastern Daylight Time)","308764","green","red","","","","","","","","","","155","","","","","","[{""stimulus"":""img/green_wl/1.jpg"",""time"":51},{""stimulus"":""img/green_wl/2.jpg"",""time"":101},{""stimulus"":""img/green_wl/3.jpg"",""time"":151},{""stimulus"":""img/green_wl/4.jpg"",""time"":202},{""stimulus"":""img/green_wl/5.jpg"",""time"":251},{""stimulus"":""img/green_wl/6.jpg"",""time"":302},{""stimulus"":""img/green_wl/7.jpg"",""time"":351},{""stimulus"":""img/green_wl/8.jpg"",""time"":402},{""stimulus"":""img/green_wl/9.jpg"",""time"":452},{""stimulus"":""img/green_wl/10.jpg"",""time"":502},{""stimulus"":""img/green_wl/11.jpg"",""time"":551}]","[]"
"image-keyboard-response","146","130986","0.0-5.0-1.71","64077ddd11208afe2bec171a","bdp_lott","Sun Mar 26 2023 11:21:50 GMT-0400 (Eastern Daylight Time)","308764","green","red","","454","","","","choice","","img/green_wl/choose11.jpg","1","154","green","0.5","0.5","0.5","w","",""
"animation","147","131588","0.0-5.0-2.71","64077ddd11208afe2bec171a","bdp_lott","Sun Mar 26 2023 11:21:50 GMT-0400 (Eastern Daylight Time)","308764","green","red","","","","","","","","","","154","","","","","","[{""stimulus"":""img/green_wl/1.jpg"",""time"":51},{""stimulus"":""img/green_wl/2.jpg"",""time"":102},{""stimulus"":""img/green_wl/3.jpg"",""time"":152},{""stimulus"":""img/green_wl/4.jpg"",""time"":202},{""stimulus"":""img/green_wl/5.jpg"",""time"":252},{""stimulus"":""img/green_wl/6.jpg"",""time"":301},{""stimulus"":""img/green_wl/7.jpg"",""time"":351},{""stimulus"":""img/green_wl/8.jpg"",""time"":401},{""stimulus"":""img/green_wl/9.jpg"",""time"":452},{""stimulus"":""img/green_wl/10.jpg"",""time"":501},{""stimulus"":""img/green_wl/11.jpg"",""time"":552}]","[]"
"image-keyboard-response","148","131963","0.0-5.0-1.72","64077ddd11208afe2bec171a","bdp_lott","Sun Mar 26 2023 11:21:50 GMT-0400 (Eastern Daylight Time)","308764","green","red","","375","","","","choice","","img/green_wl/choose11.jpg","1","153","green","0.5","0.5","0.5","l","",""
"animation","149","132565","0.0-5.0-2.72","64077ddd11208afe2bec171a","bdp_lott","Sun Mar 26 2023 11:21:50 GMT-0400 (Eastern Daylight Time)","308764","green","red","","","","","","","","","","153","","","","","","[{""stimulus"":""img/green_ll/1.jpg"",""time"":52},{""stimulus"":""img/green_ll/2.jpg"",""time"":102},{""stimulus"":""img/green_ll/3.jpg"",""time"":153},{""stimulus"":""img/green_ll/4.jpg"",""time"":201},{""stimulus"":""img/green_ll/5.jpg"",""time"":251},{""stimulus"":""img/green_ll/6.jpg"",""time"":303},{""stimulus"":""img/green_ll/7.jpg"",""time"":351},{""stimulus"":""img/green_ll/8.jpg"",""time"":402},{""stimulus"":""img/green_ll/9.jpg"",""time"":452},{""stimulus"":""img/green_ll/10.jpg"",""time"":502},{""stimulus"":""img/green_ll/11.jpg"",""time"":552}]","[]"
"image-keyboard-response","150","133114","0.0-5.0-1.73","64077ddd11208afe2bec171a","bdp_lott","Sun Mar 26 2023 11:21:50 GMT-0400 (Eastern Daylight Time)","308764","green","red","","549","","","","choice","","img/green_ll/choose11.jpg","2","152","red","0.5","0.5","0.5","l","",""
"animation","151","133715","0.0-5.0-2.73","64077ddd11208afe2bec171a","bdp_lott","Sun Mar 26 2023 11:21:50 GMT-0400 (Eastern Daylight Time)","308764","green","red","","","","","","","","","","152","","","","","","[{""stimulus"":""img/red_ll/1.jpg"",""time"":51},{""stimulus"":""img/red_ll/2.jpg"",""time"":101},{""stimulus"":""img/red_ll/3.jpg"",""time"":151},{""stimulus"":""img/red_ll/4.jpg"",""time"":201},{""stimulus"":""img/red_ll/5.jpg"",""time"":251},{""stimulus"":""img/red_ll/6.jpg"",""time"":301},{""stimulus"":""img/red_ll/7.jpg"",""time"":352},{""stimulus"":""img/red_ll/8.jpg"",""time"":402},{""stimulus"":""img/red_ll/9.jpg"",""time"":452},{""stimulus"":""img/red_ll/10.jpg"",""time"":501},{""stimulus"":""img/red_ll/11.jpg"",""time"":551}]","[]"
"image-keyboard-response","152","134746","0.0-5.0-1.74","64077ddd11208afe2bec171a","bdp_lott","Sun Mar 26 2023 11:21:50 GMT-0400 (Eastern Daylight Time)","308764","green","red","","1030","","","","choice","","img/red_ll/choose11.jpg","1","151","green","0.5","0.5","0.5","w","",""
"animation","153","135348","0.0-5.0-2.74","64077ddd11208afe2bec171a","bdp_lott","Sun Mar 26 2023 11:21:50 GMT-0400 (Eastern Daylight Time)","308764","green","red","","","","","","","","","","151","","","","","","[{""stimulus"":""img/green_wl/1.jpg"",""time"":53},{""stimulus"":""img/green_wl/2.jpg"",""time"":101},{""stimulus"":""img/green_wl/3.jpg"",""time"":151},{""stimulus"":""img/green_wl/4.jpg"",""time"":202},{""stimulus"":""img/green_wl/5.jpg"",""time"":251},{""stimulus"":""img/green_wl/6.jpg"",""time"":301},{""stimulus"":""img/green_wl/7.jpg"",""time"":351},{""stimulus"":""img/green_wl/8.jpg"",""time"":402},{""stimulus"":""img/green_wl/9.jpg"",""time"":451},{""stimulus"":""img/green_wl/10.jpg"",""time"":501},{""stimulus"":""img/green_wl/11.jpg"",""time"":551}]","[]"
"image-keyboard-response","154","135898","0.0-5.0-1.75","64077ddd11208afe2bec171a","bdp_lott","Sun Mar 26 2023 11:21:50 GMT-0400 (Eastern Daylight Time)","308764","green","red","","550","","","","choice","","img/green_wl/choose11.jpg","1","150","green","0.5","0.5","0.5","l","",""
"animation","155","136498","0.0-5.0-2.75","64077ddd11208afe2bec171a","bdp_lott","Sun Mar 26 2023 11:21:50 GMT-0400 (Eastern Daylight Time)","308764","green","red","","","","","","","","","","150","","","","","","[{""stimulus"":""img/green_ll/1.jpg"",""time"":51},{""stimulus"":""img/green_ll/2.jpg"",""time"":101},{""stimulus"":""img/green_ll/3.jpg"",""time"":151},{""stimulus"":""img/green_ll/4.jpg"",""time"":201},{""stimulus"":""img/green_ll/5.jpg"",""time"":252},{""stimulus"":""img/green_ll/6.jpg"",""time"":301},{""stimulus"":""img/green_ll/7.jpg"",""time"":351},{""stimulus"":""img/green_ll/8.jpg"",""time"":401},{""stimulus"":""img/green_ll/9.jpg"",""time"":452},{""stimulus"":""img/green_ll/10.jpg"",""time"":501},{""stimulus"":""img/green_ll/11.jpg"",""time"":552}]","[]"
"image-keyboard-response","156","138187","0.0-5.0-1.76","64077ddd11208afe2bec171a","bdp_lott","Sun Mar 26 2023 11:21:50 GMT-0400 (Eastern Daylight Time)","308764","green","red","","1687","","","","choice","","img/green_ll/choose11.jpg","2","149","red","0.5","0.1","0.1","l","",""
"animation","157","138787","0.0-5.0-2.76","64077ddd11208afe2bec171a","bdp_lott","Sun Mar 26 2023 11:21:50 GMT-0400 (Eastern Daylight Time)","308764","green","red","","","","","","","","","","149","","","","","","[{""stimulus"":""img/red_ll/1.jpg"",""time"":51},{""stimulus"":""img/red_ll/2.jpg"",""time"":101},{""stimulus"":""img/red_ll/3.jpg"",""time"":152},{""stimulus"":""img/red_ll/4.jpg"",""time"":201},{""stimulus"":""img/red_ll/5.jpg"",""time"":251},{""stimulus"":""img/red_ll/6.jpg"",""time"":300},{""stimulus"":""img/red_ll/7.jpg"",""time"":351},{""stimulus"":""img/red_ll/8.jpg"",""time"":402},{""stimulus"":""img/red_ll/9.jpg"",""time"":451},{""stimulus"":""img/red_ll/10.jpg"",""time"":500},{""stimulus"":""img/red_ll/11.jpg"",""time"":551}]","[]"
"image-keyboard-response","158","139706","0.0-5.0-1.77","64077ddd11208afe2bec171a","bdp_lott","Sun Mar 26 2023 11:21:50 GMT-0400 (Eastern Daylight Time)","308764","green","red","","918","","","","choice","","img/red_ll/choose11.jpg","1","148","green","0.5","0.1","0.5","l","",""
"animation","159","140307","0.0-5.0-2.77","64077ddd11208afe2bec171a","bdp_lott","Sun Mar 26 2023 11:21:50 GMT-0400 (Eastern Daylight Time)","308764","green","red","","","","","","","","","","148","","","","","","[{""stimulus"":""img/green_ll/1.jpg"",""time"":51},{""stimulus"":""img/green_ll/2.jpg"",""time"":101},{""stimulus"":""img/green_ll/3.jpg"",""time"":151},{""stimulus"":""img/green_ll/4.jpg"",""time"":202},{""stimulus"":""img/green_ll/5.jpg"",""time"":252},{""stimulus"":""img/green_ll/6.jpg"",""time"":302},{""stimulus"":""img/green_ll/7.jpg"",""time"":352},{""stimulus"":""img/green_ll/8.jpg"",""time"":402},{""stimulus"":""img/green_ll/9.jpg"",""time"":451},{""stimulus"":""img/green_ll/10.jpg"",""time"":501},{""stimulus"":""img/green_ll/11.jpg"",""time"":552}]","[]"
"image-keyboard-response","160","145387","0.0-5.0-1.78","64077ddd11208afe2bec171a","bdp_lott","Sun Mar 26 2023 11:21:50 GMT-0400 (Eastern Daylight Time)","308764","green","red","","5080","","","","choice","","img/green_ll/choose11.jpg","1","147","green","0.5","0.1","0.5","l","",""
"animation","161","145989","0.0-5.0-2.78","64077ddd11208afe2bec171a","bdp_lott","Sun Mar 26 2023 11:21:50 GMT-0400 (Eastern Daylight Time)","308764","green","red","","","","","","","","","","147","","","","","","[{""stimulus"":""img/green_ll/1.jpg"",""time"":52},{""stimulus"":""img/green_ll/2.jpg"",""time"":105},{""stimulus"":""img/green_ll/3.jpg"",""time"":154},{""stimulus"":""img/green_ll/4.jpg"",""time"":202},{""stimulus"":""img/green_ll/5.jpg"",""time"":252},{""stimulus"":""img/green_ll/6.jpg"",""time"":302},{""stimulus"":""img/green_ll/7.jpg"",""time"":352},{""stimulus"":""img/green_ll/8.jpg"",""time"":401},{""stimulus"":""img/green_ll/9.jpg"",""time"":452},{""stimulus"":""img/green_ll/10.jpg"",""time"":501},{""stimulus"":""img/green_ll/11.jpg"",""time"":552}]","[]"
"image-keyboard-response","162","146842","0.0-5.0-1.79","64077ddd11208afe2bec171a","bdp_lott","Sun Mar 26 2023 11:21:50 GMT-0400 (Eastern Daylight Time)","308764","green","red","","853","","","","choice","","img/green_ll/choose11.jpg","2","146","red","0.5","0.1","0.1","l","",""
"animation","163","147443","0.0-5.0-2.79","64077ddd11208afe2bec171a","bdp_lott","Sun Mar 26 2023 11:21:50 GMT-0400 (Eastern Daylight Time)","308764","green","red","","","","","","","","","","146","","","","","","[{""stimulus"":""img/red_ll/1.jpg"",""time"":51},{""stimulus"":""img/red_ll/2.jpg"",""time"":101},{""stimulus"":""img/red_ll/3.jpg"",""time"":151},{""stimulus"":""img/red_ll/4.jpg"",""time"":201},{""stimulus"":""img/red_ll/5.jpg"",""time"":251},{""stimulus"":""img/red_ll/6.jpg"",""time"":309},{""stimulus"":""img/red_ll/7.jpg"",""time"":351},{""stimulus"":""img/red_ll/8.jpg"",""time"":401},{""stimulus"":""img/red_ll/9.jpg"",""time"":452},{""stimulus"":""img/red_ll/10.jpg"",""time"":501},{""stimulus"":""img/red_ll/11.jpg"",""time"":551}]","[]"
"image-keyboard-response","164","148090","0.0-5.0-1.80","64077ddd11208afe2bec171a","bdp_lott","Sun Mar 26 2023 11:21:50 GMT-0400 (Eastern Daylight Time)","308764","green","red","","646","","","","choice","","img/red_ll/choose11.jpg","1","145","green","0.5","0.1","0.5","w","",""
"animation","165","148692","0.0-5.0-2.80","64077ddd11208afe2bec171a","bdp_lott","Sun Mar 26 2023 11:21:50 GMT-0400 (Eastern Daylight Time)","308764","green","red","","","","","","","","","","145","","","","","","[{""stimulus"":""img/green_wl/1.jpg"",""time"":51},{""stimulus"":""img/green_wl/2.jpg"",""time"":102},{""stimulus"":""img/green_wl/3.jpg"",""time"":163},{""stimulus"":""img/green_wl/4.jpg"",""time"":202},{""stimulus"":""img/green_wl/5.jpg"",""time"":252},{""stimulus"":""img/green_wl/6.jpg"",""time"":301},{""stimulus"":""img/green_wl/7.jpg"",""time"":352},{""stimulus"":""img/green_wl/8.jpg"",""time"":402},{""stimulus"":""img/green_wl/9.jpg"",""time"":451},{""stimulus"":""img/green_wl/10.jpg"",""time"":513},{""stimulus"":""img/green_wl/11.jpg"",""time"":552}]","[]"
"image-keyboard-response","166","149338","0.0-5.0-1.81","64077ddd11208afe2bec171a","bdp_lott","Sun Mar 26 2023 11:21:50 GMT-0400 (Eastern Daylight Time)","308764","green","red","","646","","","","choice","","img/green_wl/choose11.jpg","1","144","green","0.5","0.1","0.5","l","",""
"animation","167","149939","0.0-5.0-2.81","64077ddd11208afe2bec171a","bdp_lott","Sun Mar 26 2023 11:21:50 GMT-0400 (Eastern Daylight Time)","308764","green","red","","","","","","","","","","144","","","","","","[{""stimulus"":""img/green_ll/1.jpg"",""time"":51},{""stimulus"":""img/green_ll/2.jpg"",""time"":101},{""stimulus"":""img/green_ll/3.jpg"",""time"":152},{""stimulus"":""img/green_ll/4.jpg"",""time"":201},{""stimulus"":""img/green_ll/5.jpg"",""time"":251},{""stimulus"":""img/green_ll/6.jpg"",""time"":301},{""stimulus"":""img/green_ll/7.jpg"",""time"":352},{""stimulus"":""img/green_ll/8.jpg"",""time"":401},{""stimulus"":""img/green_ll/9.jpg"",""time"":451},{""stimulus"":""img/green_ll/10.jpg"",""time"":501},{""stimulus"":""img/green_ll/11.jpg"",""time"":551}]","[]"
"image-keyboard-response","168","150970","0.0-5.0-1.82","64077ddd11208afe2bec171a","bdp_lott","Sun Mar 26 2023 11:21:50 GMT-0400 (Eastern Daylight Time)","308764","green","red","","1031","","","","choice","","img/green_ll/choose11.jpg","2","143","red","0.5","0.1","0.1","l","",""
"animation","169","151572","0.0-5.0-2.82","64077ddd11208afe2bec171a","bdp_lott","Sun Mar 26 2023 11:21:50 GMT-0400 (Eastern Daylight Time)","308764","green","red","","","","","","","","","","143","","","","","","[{""stimulus"":""img/red_ll/1.jpg"",""time"":53},{""stimulus"":""img/red_ll/2.jpg"",""time"":101},{""stimulus"":""img/red_ll/3.jpg"",""time"":152},{""stimulus"":""img/red_ll/4.jpg"",""time"":202},{""stimulus"":""img/red_ll/5.jpg"",""time"":252},{""stimulus"":""img/red_ll/6.jpg"",""time"":302},{""stimulus"":""img/red_ll/7.jpg"",""time"":352},{""stimulus"":""img/red_ll/8.jpg"",""time"":401},{""stimulus"":""img/red_ll/9.jpg"",""time"":452},{""stimulus"":""img/red_ll/10.jpg"",""time"":501},{""stimulus"":""img/red_ll/11.jpg"",""time"":552}]","[]"
"image-keyboard-response","170","152122","0.0-5.0-1.83","64077ddd11208afe2bec171a","bdp_lott","Sun Mar 26 2023 11:21:50 GMT-0400 (Eastern Daylight Time)","308764","green","red","","550","","","","choice","","img/red_ll/choose11.jpg","1","142","green","0.5","0.1","0.5","w","",""
"animation","171","152723","0.0-5.0-2.83","64077ddd11208afe2bec171a","bdp_lott","Sun Mar 26 2023 11:21:50 GMT-0400 (Eastern Daylight Time)","308764","green","red","","","","","","","","","","142","","","","","","[{""stimulus"":""img/green_wl/1.jpg"",""time"":52},{""stimulus"":""img/green_wl/2.jpg"",""time"":101},{""stimulus"":""img/green_wl/3.jpg"",""time"":152},{""stimulus"":""img/green_wl/4.jpg"",""time"":202},{""stimulus"":""img/green_wl/5.jpg"",""time"":252},{""stimulus"":""img/green_wl/6.jpg"",""time"":302},{""stimulus"":""img/green_wl/7.jpg"",""time"":352},{""stimulus"":""img/green_wl/8.jpg"",""time"":402},{""stimulus"":""img/green_wl/9.jpg"",""time"":452},{""stimulus"":""img/green_wl/10.jpg"",""time"":502},{""stimulus"":""img/green_wl/11.jpg"",""time"":552}]","[]"
"image-keyboard-response","172","153370","0.0-5.0-1.84","64077ddd11208afe2bec171a","bdp_lott","Sun Mar 26 2023 11:21:50 GMT-0400 (Eastern Daylight Time)","308764","green","red","","647","","","","choice","","img/green_wl/choose11.jpg","1","141","green","0.5","0.1","0.5","l","",""
"animation","173","153972","0.0-5.0-2.84","64077ddd11208afe2bec171a","bdp_lott","Sun Mar 26 2023 11:21:50 GMT-0400 (Eastern Daylight Time)","308764","green","red","","","","","","","","","","141","","","","","","[{""stimulus"":""img/green_ll/1.jpg"",""time"":51},{""stimulus"":""img/green_ll/2.jpg"",""time"":101},{""stimulus"":""img/green_ll/3.jpg"",""time"":152},{""stimulus"":""img/green_ll/4.jpg"",""time"":202},{""stimulus"":""img/green_ll/5.jpg"",""time"":251},{""stimulus"":""img/green_ll/6.jpg"",""time"":301},{""stimulus"":""img/green_ll/7.jpg"",""time"":352},{""stimulus"":""img/green_ll/8.jpg"",""time"":402},{""stimulus"":""img/green_ll/9.jpg"",""time"":451},{""stimulus"":""img/green_ll/10.jpg"",""time"":501},{""stimulus"":""img/green_ll/11.jpg"",""time"":551}]","[]"
"image-keyboard-response","174","154666","0.0-5.0-1.85","64077ddd11208afe2bec171a","bdp_lott","Sun Mar 26 2023 11:21:50 GMT-0400 (Eastern Daylight Time)","308764","green","red","","694","","","","choice","","img/green_ll/choose11.jpg","2","140","red","0.5","0.1","0.1","l","",""
"animation","175","155267","0.0-5.0-2.85","64077ddd11208afe2bec171a","bdp_lott","Sun Mar 26 2023 11:21:50 GMT-0400 (Eastern Daylight Time)","308764","green","red","","","","","","","","","","140","","","","","","[{""stimulus"":""img/red_ll/1.jpg"",""time"":51},{""stimulus"":""img/red_ll/2.jpg"",""time"":101},{""stimulus"":""img/red_ll/3.jpg"",""time"":150},{""stimulus"":""img/red_ll/4.jpg"",""time"":200},{""stimulus"":""img/red_ll/5.jpg"",""time"":251},{""stimulus"":""img/red_ll/6.jpg"",""time"":301},{""stimulus"":""img/red_ll/7.jpg"",""time"":351},{""stimulus"":""img/red_ll/8.jpg"",""time"":401},{""stimulus"":""img/red_ll/9.jpg"",""time"":451},{""stimulus"":""img/red_ll/10.jpg"",""time"":501},{""stimulus"":""img/red_ll/11.jpg"",""time"":552}]","[]"
"image-keyboard-response","176","156139","0.0-5.0-1.86","64077ddd11208afe2bec171a","bdp_lott","Sun Mar 26 2023 11:21:50 GMT-0400 (Eastern Daylight Time)","308764","green","red","","872","","","","choice","","img/red_ll/choose11.jpg","2","139","red","0.5","0.1","0.1","l","",""
"animation","177","156739","0.0-5.0-2.86","64077ddd11208afe2bec171a","bdp_lott","Sun Mar 26 2023 11:21:50 GMT-0400 (Eastern Daylight Time)","308764","green","red","","","","","","","","","","139","","","","","","[{""stimulus"":""img/red_ll/1.jpg"",""time"":52},{""stimulus"":""img/red_ll/2.jpg"",""time"":101},{""stimulus"":""img/red_ll/3.jpg"",""time"":152},{""stimulus"":""img/red_ll/4.jpg"",""time"":202},{""stimulus"":""img/red_ll/5.jpg"",""time"":253},{""stimulus"":""img/red_ll/6.jpg"",""time"":302},{""stimulus"":""img/red_ll/7.jpg"",""time"":351},{""stimulus"":""img/red_ll/8.jpg"",""time"":401},{""stimulus"":""img/red_ll/9.jpg"",""time"":452},{""stimulus"":""img/red_ll/10.jpg"",""time"":502},{""stimulus"":""img/red_ll/11.jpg"",""time"":551}]","[]"
"image-keyboard-response","178","157354","0.0-5.0-1.87","64077ddd11208afe2bec171a","bdp_lott","Sun Mar 26 2023 11:21:50 GMT-0400 (Eastern Daylight Time)","308764","green","red","","614","","","","choice","","img/red_ll/choose11.jpg","1","138","green","0.5","0.1","0.5","w","",""
"animation","179","157954","0.0-5.0-2.87","64077ddd11208afe2bec171a","bdp_lott","Sun Mar 26 2023 11:21:50 GMT-0400 (Eastern Daylight Time)","308764","green","red","","","","","","","","","","138","","","","","","[{""stimulus"":""img/green_wl/1.jpg"",""time"":52},{""stimulus"":""img/green_wl/2.jpg"",""time"":101},{""stimulus"":""img/green_wl/3.jpg"",""time"":152},{""stimulus"":""img/green_wl/4.jpg"",""time"":201},{""stimulus"":""img/green_wl/5.jpg"",""time"":251},{""stimulus"":""img/green_wl/6.jpg"",""time"":301},{""stimulus"":""img/green_wl/7.jpg"",""time"":352},{""stimulus"":""img/green_wl/8.jpg"",""time"":401},{""stimulus"":""img/green_wl/9.jpg"",""time"":451},{""stimulus"":""img/green_wl/10.jpg"",""time"":501},{""stimulus"":""img/green_wl/11.jpg"",""time"":551}]","[]"
"image-keyboard-response","180","158618","0.0-5.0-1.88","64077ddd11208afe2bec171a","bdp_lott","Sun Mar 26 2023 11:21:50 GMT-0400 (Eastern Daylight Time)","308764","green","red","","663","","","","choice","","img/green_wl/choose11.jpg","1","137","green","0.5","0.1","0.5","l","",""
"animation","181","159218","0.0-5.0-2.88","64077ddd11208afe2bec171a","bdp_lott","Sun Mar 26 2023 11:21:50 GMT-0400 (Eastern Daylight Time)","308764","green","red","","","","","","","","","","137","","","","","","[{""stimulus"":""img/green_ll/1.jpg"",""time"":51},{""stimulus"":""img/green_ll/2.jpg"",""time"":102},{""stimulus"":""img/green_ll/3.jpg"",""time"":151},{""stimulus"":""img/green_ll/4.jpg"",""time"":201},{""stimulus"":""img/green_ll/5.jpg"",""time"":251},{""stimulus"":""img/green_ll/6.jpg"",""time"":300},{""stimulus"":""img/green_ll/7.jpg"",""time"":350},{""stimulus"":""img/green_ll/8.jpg"",""time"":402},{""stimulus"":""img/green_ll/9.jpg"",""time"":451},{""stimulus"":""img/green_ll/10.jpg"",""time"":500},{""stimulus"":""img/green_ll/11.jpg"",""time"":552}]","[]"
"image-keyboard-response","182","159962","0.0-5.0-1.89","64077ddd11208afe2bec171a","bdp_lott","Sun Mar 26 2023 11:21:50 GMT-0400 (Eastern Daylight Time)","308764","green","red","","743","","","","choice","","img/green_ll/choose11.jpg","2","136","red","0.5","0.1","0.1","l","",""
"animation","183","160563","0.0-5.0-2.89","64077ddd11208afe2bec171a","bdp_lott","Sun Mar 26 2023 11:21:50 GMT-0400 (Eastern Daylight Time)","308764","green","red","","","","","","","","","","136","","","","","","[{""stimulus"":""img/red_ll/1.jpg"",""time"":51},{""stimulus"":""img/red_ll/2.jpg"",""time"":100},{""stimulus"":""img/red_ll/3.jpg"",""time"":150},{""stimulus"":""img/red_ll/4.jpg"",""time"":201},{""stimulus"":""img/red_ll/5.jpg"",""time"":250},{""stimulus"":""img/red_ll/6.jpg"",""time"":301},{""stimulus"":""img/red_ll/7.jpg"",""time"":351},{""stimulus"":""img/red_ll/8.jpg"",""time"":401},{""stimulus"":""img/red_ll/9.jpg"",""time"":452},{""stimulus"":""img/red_ll/10.jpg"",""time"":508},{""stimulus"":""img/red_ll/11.jpg"",""time"":551}]","[]"
"image-keyboard-response","184","162010","0.0-5.0-1.90","64077ddd11208afe2bec171a","bdp_lott","Sun Mar 26 2023 11:21:50 GMT-0400 (Eastern Daylight Time)","308764","green","red","","1446","","","","choice","","img/red_ll/choose11.jpg","1","135","green","0.5","0.1","0.5","w","",""
"animation","185","162611","0.0-5.0-2.90","64077ddd11208afe2bec171a","bdp_lott","Sun Mar 26 2023 11:21:50 GMT-0400 (Eastern Daylight Time)","308764","green","red","","","","","","","","","","135","","","","","","[{""stimulus"":""img/green_wl/1.jpg"",""time"":51},{""stimulus"":""img/green_wl/2.jpg"",""time"":101},{""stimulus"":""img/green_wl/3.jpg"",""time"":151},{""stimulus"":""img/green_wl/4.jpg"",""time"":202},{""stimulus"":""img/green_wl/5.jpg"",""time"":252},{""stimulus"":""img/green_wl/6.jpg"",""time"":301},{""stimulus"":""img/green_wl/7.jpg"",""time"":352},{""stimulus"":""img/green_wl/8.jpg"",""time"":401},{""stimulus"":""img/green_wl/9.jpg"",""time"":451},{""stimulus"":""img/green_wl/10.jpg"",""time"":500},{""stimulus"":""img/green_wl/11.jpg"",""time"":552}]","[]"
"image-keyboard-response","186","163226","0.0-5.0-1.91","64077ddd11208afe2bec171a","bdp_lott","Sun Mar 26 2023 11:21:50 GMT-0400 (Eastern Daylight Time)","308764","green","red","","615","","","","choice","","img/green_wl/choose11.jpg","1","134","green","0.5","0.1","0.5","l","",""
"animation","187","163827","0.0-5.0-2.91","64077ddd11208afe2bec171a","bdp_lott","Sun Mar 26 2023 11:21:50 GMT-0400 (Eastern Daylight Time)","308764","green","red","","","","","","","","","","134","","","","","","[{""stimulus"":""img/green_ll/1.jpg"",""time"":52},{""stimulus"":""img/green_ll/2.jpg"",""time"":101},{""stimulus"":""img/green_ll/3.jpg"",""time"":151},{""stimulus"":""img/green_ll/4.jpg"",""time"":202},{""stimulus"":""img/green_ll/5.jpg"",""time"":252},{""stimulus"":""img/green_ll/6.jpg"",""time"":301},{""stimulus"":""img/green_ll/7.jpg"",""time"":351},{""stimulus"":""img/green_ll/8.jpg"",""time"":401},{""stimulus"":""img/green_ll/9.jpg"",""time"":451},{""stimulus"":""img/green_ll/10.jpg"",""time"":502},{""stimulus"":""img/green_ll/11.jpg"",""time"":552}]","[]"
"image-keyboard-response","188","164314","0.0-5.0-1.92","64077ddd11208afe2bec171a","bdp_lott","Sun Mar 26 2023 11:21:50 GMT-0400 (Eastern Daylight Time)","308764","green","red","","486","","","","choice","","img/green_ll/choose11.jpg","2","133","red","0.5","0.1","0.1","l","",""
"animation","189","164915","0.0-5.0-2.92","64077ddd11208afe2bec171a","bdp_lott","Sun Mar 26 2023 11:21:50 GMT-0400 (Eastern Daylight Time)","308764","green","red","","","","","","","","","","133","","","","","","[{""stimulus"":""img/red_ll/1.jpg"",""time"":51},{""stimulus"":""img/red_ll/2.jpg"",""time"":101},{""stimulus"":""img/red_ll/3.jpg"",""time"":152},{""stimulus"":""img/red_ll/4.jpg"",""time"":201},{""stimulus"":""img/red_ll/5.jpg"",""time"":251},{""stimulus"":""img/red_ll/6.jpg"",""time"":301},{""stimulus"":""img/red_ll/7.jpg"",""time"":350},{""stimulus"":""img/red_ll/8.jpg"",""time"":400},{""stimulus"":""img/red_ll/9.jpg"",""time"":450},{""stimulus"":""img/red_ll/10.jpg"",""time"":500},{""stimulus"":""img/red_ll/11.jpg"",""time"":552}]","[]"
"image-keyboard-response","190","165642","0.0-5.0-1.93","64077ddd11208afe2bec171a","bdp_lott","Sun Mar 26 2023 11:21:50 GMT-0400 (Eastern Daylight Time)","308764","green","red","","725","","","","choice","","img/red_ll/choose11.jpg","1","132","green","0.5","0.1","0.5","l","",""
"animation","191","166242","0.0-5.0-2.93","64077ddd11208afe2bec171a","bdp_lott","Sun Mar 26 2023 11:21:50 GMT-0400 (Eastern Daylight Time)","308764","green","red","","","","","","","","","","132","","","","","","[{""stimulus"":""img/green_ll/1.jpg"",""time"":50},{""stimulus"":""img/green_ll/2.jpg"",""time"":100},{""stimulus"":""img/green_ll/3.jpg"",""time"":151},{""stimulus"":""img/green_ll/4.jpg"",""time"":201},{""stimulus"":""img/green_ll/5.jpg"",""time"":251},{""stimulus"":""img/green_ll/6.jpg"",""time"":301},{""stimulus"":""img/green_ll/7.jpg"",""time"":351},{""stimulus"":""img/green_ll/8.jpg"",""time"":402},{""stimulus"":""img/green_ll/9.jpg"",""time"":451},{""stimulus"":""img/green_ll/10.jpg"",""time"":502},{""stimulus"":""img/green_ll/11.jpg"",""time"":551}]","[]"
