"trial_type","trial_index","time_elapsed","internal_node_id","subject_id","task","startTime","totalTime","fairMachine","unfairMachine","event","trial","time","trialtype","numBlurs","view_history","rt","success","stimulus","key_press","roundsLeft","chosen","pFairMachWin","pUnfairMachWin","pTrialWin","outcome","animation_sequence","responses"
"pavlovia","0","4","0.0-0.0","63e576170eb086a90644efb4","bdp_lott","Sat Mar 25 2023 18:46:34 GMT-0400 (Eastern Daylight Time)","344580","green","red","","","","","","","","","","","","","","","","","",""
"","","","","63e576170eb086a90644efb4","bdp_lott","Sat Mar 25 2023 18:46:34 GMT-0400 (Eastern Daylight Time)","344580","green","red","blur","1","10298","blurevent","1","","","","","","","","","","","","",""
"","","","","63e576170eb086a90644efb4","bdp_lott","Sat Mar 25 2023 18:46:34 GMT-0400 (Eastern Daylight Time)","344580","green","red","focus","1","11674","focusevent","","","","","","","","","","","","","",""
"instructions","1","13587","0.0-1.0","63e576170eb086a90644efb4","bdp_lott","Sat Mar 25 2023 18:46:34 GMT-0400 (Eastern Daylight Time)","344580","green","red","","","","","","[{""page_index"":0,""viewing_time"":13583}]","13583","","","","","","","","","","",""
"","","","","63e576170eb086a90644efb4","bdp_lott","Sat Mar 25 2023 18:46:34 GMT-0400 (Eastern Daylight Time)","344580","green","red","blur","2","18573","blurevent","2","","","","","","","","","","","","",""
"","","","","63e576170eb086a90644efb4","bdp_lott","Sat Mar 25 2023 18:46:34 GMT-0400 (Eastern Daylight Time)","344580","green","red","focus","2","45506","focusevent","","","","","","","","","","","","","",""
"","","","","63e576170eb086a90644efb4","bdp_lott","Sat Mar 25 2023 18:46:34 GMT-0400 (Eastern Daylight Time)","344580","green","red","fullscreenenter","2","46547","fullscreenenter","","","","","","","","","","","","","",""
"fullscreen","2","47533","0.0-2.0","63e576170eb086a90644efb4","bdp_lott","Sat Mar 25 2023 18:46:34 GMT-0400 (Eastern Daylight Time)","344580","green","red","","","","","","","","true","","","","","","","","","",""
"instructions","3","69074","0.0-4.0","63e576170eb086a90644efb4","bdp_lott","Sat Mar 25 2023 18:46:34 GMT-0400 (Eastern Daylight Time)","344580","green","red","","","","","","[{""page_index"":0,""viewing_time"":21540}]","21541","","","","","","","","","","",""
"image-keyboard-response","4","84597","0.0-5.0-0.0-0.0","63e576170eb086a90644efb4","bdp_lott","Sat Mar 25 2023 18:46:34 GMT-0400 (Eastern Daylight Time)","344580","green","red","","","","blurwarn","2","","15520","","","49","","","","","","","",""
"image-keyboard-response","5","92362","0.0-5.0-1.0","63e576170eb086a90644efb4","bdp_lott","Sat Mar 25 2023 18:46:34 GMT-0400 (Eastern Daylight Time)","344580","green","red","","","","choice","","","7512","","img/red_ll/initchoose11.jpg","1","225","green","0.5","0.5","0.5","w","",""
"animation","6","92964","0.0-5.0-2.0","63e576170eb086a90644efb4","bdp_lott","Sat Mar 25 2023 18:46:34 GMT-0400 (Eastern Daylight Time)","344580","green","red","","","","","","","","","","","225","","","","","","[{""stimulus"":""img/green_wl/1.jpg"",""time"":52},{""stimulus"":""img/green_wl/2.jpg"",""time"":101},{""stimulus"":""img/green_wl/3.jpg"",""time"":152},{""stimulus"":""img/green_wl/4.jpg"",""time"":201},{""stimulus"":""img/green_wl/5.jpg"",""time"":252},{""stimulus"":""img/green_wl/6.jpg"",""time"":302},{""stimulus"":""img/green_wl/7.jpg"",""time"":351},{""stimulus"":""img/green_wl/8.jpg"",""time"":402},{""stimulus"":""img/green_wl/9.jpg"",""time"":451},{""stimulus"":""img/green_wl/10.jpg"",""time"":501},{""stimulus"":""img/green_wl/11.jpg"",""time"":552}]","[]"
"image-keyboard-response","7","97727","0.0-5.0-1.1","63e576170eb086a90644efb4","bdp_lott","Sat Mar 25 2023 18:46:34 GMT-0400 (Eastern Daylight Time)","344580","green","red","","","","choice","","","4762","","img/green_wl/choose11.jpg","1","224","green","0.5","0.5","0.5","l","",""
"animation","8","98329","0.0-5.0-2.1","63e576170eb086a90644efb4","bdp_lott","Sat Mar 25 2023 18:46:34 GMT-0400 (Eastern Daylight Time)","344580","green","red","","","","","","","","","","","224","","","","","","[{""stimulus"":""img/green_ll/1.jpg"",""time"":51},{""stimulus"":""img/green_ll/2.jpg"",""time"":101},{""stimulus"":""img/green_ll/3.jpg"",""time"":151},{""stimulus"":""img/green_ll/4.jpg"",""time"":202},{""stimulus"":""img/green_ll/5.jpg"",""time"":252},{""stimulus"":""img/green_ll/6.jpg"",""time"":302},{""stimulus"":""img/green_ll/7.jpg"",""time"":352},{""stimulus"":""img/green_ll/8.jpg"",""time"":401},{""stimulus"":""img/green_ll/9.jpg"",""time"":452},{""stimulus"":""img/green_ll/10.jpg"",""time"":501},{""stimulus"":""img/green_ll/11.jpg"",""time"":552}]","[]"
"image-keyboard-response","9","100907","0.0-5.0-1.2","63e576170eb086a90644efb4","bdp_lott","Sat Mar 25 2023 18:46:34 GMT-0400 (Eastern Daylight Time)","344580","green","red","","","","choice","","","2577","","img/green_ll/choose11.jpg","2","223","red","0.5","0.5","0.5","w","",""
"animation","10","101509","0.0-5.0-2.2","63e576170eb086a90644efb4","bdp_lott","Sat Mar 25 2023 18:46:34 GMT-0400 (Eastern Daylight Time)","344580","green","red","","","","","","","","","","","223","","","","","","[{""stimulus"":""img/red_lw/1.jpg"",""time"":53},{""stimulus"":""img/red_lw/2.jpg"",""time"":103},{""stimulus"":""img/red_lw/3.jpg"",""time"":153},{""stimulus"":""img/red_lw/4.jpg"",""time"":203},{""stimulus"":""img/red_lw/5.jpg"",""time"":253},{""stimulus"":""img/red_lw/6.jpg"",""time"":302},{""stimulus"":""img/red_lw/7.jpg"",""time"":353},{""stimulus"":""img/red_lw/8.jpg"",""time"":403},{""stimulus"":""img/red_lw/9.jpg"",""time"":452},{""stimulus"":""img/red_lw/10.jpg"",""time"":502},{""stimulus"":""img/red_lw/11.jpg"",""time"":552}]","[]"
"image-keyboard-response","11","103175","0.0-5.0-1.3","63e576170eb086a90644efb4","bdp_lott","Sat Mar 25 2023 18:46:34 GMT-0400 (Eastern Daylight Time)","344580","green","red","","","","choice","","","1665","","img/red_lw/choose11.jpg","2","222","red","0.5","0.5","0.5","w","",""
"animation","12","103775","0.0-5.0-2.3","63e576170eb086a90644efb4","bdp_lott","Sat Mar 25 2023 18:46:34 GMT-0400 (Eastern Daylight Time)","344580","green","red","","","","","","","","","","","222","","","","","","[{""stimulus"":""img/red_lw/1.jpg"",""time"":52},{""stimulus"":""img/red_lw/2.jpg"",""time"":102},{""stimulus"":""img/red_lw/3.jpg"",""time"":151},{""stimulus"":""img/red_lw/4.jpg"",""time"":201},{""stimulus"":""img/red_lw/5.jpg"",""time"":252},{""stimulus"":""img/red_lw/6.jpg"",""time"":302},{""stimulus"":""img/red_lw/7.jpg"",""time"":351},{""stimulus"":""img/red_lw/8.jpg"",""time"":401},{""stimulus"":""img/red_lw/9.jpg"",""time"":452},{""stimulus"":""img/red_lw/10.jpg"",""time"":502},{""stimulus"":""img/red_lw/11.jpg"",""time"":552}]","[]"
"image-keyboard-response","13","104430","0.0-5.0-1.4","63e576170eb086a90644efb4","bdp_lott","Sat Mar 25 2023 18:46:34 GMT-0400 (Eastern Daylight Time)","344580","green","red","","","","choice","","","653","","img/red_lw/choose11.jpg","2","221","red","0.5","0.5","0.5","l","",""
"animation","14","105030","0.0-5.0-2.4","63e576170eb086a90644efb4","bdp_lott","Sat Mar 25 2023 18:46:34 GMT-0400 (Eastern Daylight Time)","344580","green","red","","","","","","","","","","","221","","","","","","[{""stimulus"":""img/red_ll/1.jpg"",""time"":51},{""stimulus"":""img/red_ll/2.jpg"",""time"":101},{""stimulus"":""img/red_ll/3.jpg"",""time"":151},{""stimulus"":""img/red_ll/4.jpg"",""time"":202},{""stimulus"":""img/red_ll/5.jpg"",""time"":252},{""stimulus"":""img/red_ll/6.jpg"",""time"":301},{""stimulus"":""img/red_ll/7.jpg"",""time"":351},{""stimulus"":""img/red_ll/8.jpg"",""time"":402},{""stimulus"":""img/red_ll/9.jpg"",""time"":451},{""stimulus"":""img/red_ll/10.jpg"",""time"":501},{""stimulus"":""img/red_ll/11.jpg"",""time"":552}]","[]"
"image-keyboard-response","15","107223","0.0-5.0-1.5","63e576170eb086a90644efb4","bdp_lott","Sat Mar 25 2023 18:46:34 GMT-0400 (Eastern Daylight Time)","344580","green","red","","","","choice","","","2192","","img/red_ll/choose11.jpg","1","220","green","0.5","0.5","0.5","w","",""
"animation","16","107824","0.0-5.0-2.5","63e576170eb086a90644efb4","bdp_lott","Sat Mar 25 2023 18:46:34 GMT-0400 (Eastern Daylight Time)","344580","green","red","","","","","","","","","","","220","","","","","","[{""stimulus"":""img/green_wl/1.jpg"",""time"":51},{""stimulus"":""img/green_wl/2.jpg"",""time"":101},{""stimulus"":""img/green_wl/3.jpg"",""time"":151},{""stimulus"":""img/green_wl/4.jpg"",""time"":202},{""stimulus"":""img/green_wl/5.jpg"",""time"":252},{""stimulus"":""img/green_wl/6.jpg"",""time"":301},{""stimulus"":""img/green_wl/7.jpg"",""time"":351},{""stimulus"":""img/green_wl/8.jpg"",""time"":401},{""stimulus"":""img/green_wl/9.jpg"",""time"":452},{""stimulus"":""img/green_wl/10.jpg"",""time"":500},{""stimulus"":""img/green_wl/11.jpg"",""time"":552}]","[]"
"image-keyboard-response","17","108816","0.0-5.0-1.6","63e576170eb086a90644efb4","bdp_lott","Sat Mar 25 2023 18:46:34 GMT-0400 (Eastern Daylight Time)","344580","green","red","","","","choice","","","991","","img/green_wl/choose11.jpg","1","219","green","0.5","0.5","0.5","l","",""
"animation","18","109417","0.0-5.0-2.6","63e576170eb086a90644efb4","bdp_lott","Sat Mar 25 2023 18:46:34 GMT-0400 (Eastern Daylight Time)","344580","green","red","","","","","","","","","","","219","","","","","","[{""stimulus"":""img/green_ll/1.jpg"",""time"":51},{""stimulus"":""img/green_ll/2.jpg"",""time"":101},{""stimulus"":""img/green_ll/3.jpg"",""time"":152},{""stimulus"":""img/green_ll/4.jpg"",""time"":201},{""stimulus"":""img/green_ll/5.jpg"",""time"":251},{""stimulus"":""img/green_ll/6.jpg"",""time"":301},{""stimulus"":""img/green_ll/7.jpg"",""time"":351},{""stimulus"":""img/green_ll/8.jpg"",""time"":402},{""stimulus"":""img/green_ll/9.jpg"",""time"":450},{""stimulus"":""img/green_ll/10.jpg"",""time"":501},{""stimulus"":""img/green_ll/11.jpg"",""time"":551}]","[]"
"image-keyboard-response","19","110723","0.0-5.0-1.7","63e576170eb086a90644efb4","bdp_lott","Sat Mar 25 2023 18:46:34 GMT-0400 (Eastern Daylight Time)","344580","green","red","","","","choice","","","1306","","img/green_ll/choose11.jpg","2","218","red","0.5","0.5","0.5","l","",""
"animation","20","111325","0.0-5.0-2.7","63e576170eb086a90644efb4","bdp_lott","Sat Mar 25 2023 18:46:34 GMT-0400 (Eastern Daylight Time)","344580","green","red","","","","","","","","","","","218","","","","","","[{""stimulus"":""img/red_ll/1.jpg"",""time"":51},{""stimulus"":""img/red_ll/2.jpg"",""time"":102},{""stimulus"":""img/red_ll/3.jpg"",""time"":151},{""stimulus"":""img/red_ll/4.jpg"",""time"":201},{""stimulus"":""img/red_ll/5.jpg"",""time"":251},{""stimulus"":""img/red_ll/6.jpg"",""time"":300},{""stimulus"":""img/red_ll/7.jpg"",""time"":350},{""stimulus"":""img/red_ll/8.jpg"",""time"":401},{""stimulus"":""img/red_ll/9.jpg"",""time"":451},{""stimulus"":""img/red_ll/10.jpg"",""time"":502},{""stimulus"":""img/red_ll/11.jpg"",""time"":552}]","[]"
"image-keyboard-response","21","112290","0.0-5.0-1.8","63e576170eb086a90644efb4","bdp_lott","Sat Mar 25 2023 18:46:34 GMT-0400 (Eastern Daylight Time)","344580","green","red","","","","choice","","","963","","img/red_ll/choose11.jpg","1","217","green","0.5","0.5","0.5","l","",""
"animation","22","112892","0.0-5.0-2.8","63e576170eb086a90644efb4","bdp_lott","Sat Mar 25 2023 18:46:34 GMT-0400 (Eastern Daylight Time)","344580","green","red","","","","","","","","","","","217","","","","","","[{""stimulus"":""img/green_ll/1.jpg"",""time"":52},{""stimulus"":""img/green_ll/2.jpg"",""time"":101},{""stimulus"":""img/green_ll/3.jpg"",""time"":151},{""stimulus"":""img/green_ll/4.jpg"",""time"":201},{""stimulus"":""img/green_ll/5.jpg"",""time"":251},{""stimulus"":""img/green_ll/6.jpg"",""time"":302},{""stimulus"":""img/green_ll/7.jpg"",""time"":351},{""stimulus"":""img/green_ll/8.jpg"",""time"":402},{""stimulus"":""img/green_ll/9.jpg"",""time"":452},{""stimulus"":""img/green_ll/10.jpg"",""time"":501},{""stimulus"":""img/green_ll/11.jpg"",""time"":552}]","[]"
"image-keyboard-response","23","113857","0.0-5.0-1.9","63e576170eb086a90644efb4","bdp_lott","Sat Mar 25 2023 18:46:34 GMT-0400 (Eastern Daylight Time)","344580","green","red","","","","choice","","","964","","img/green_ll/choose11.jpg","2","216","red","0.5","0.5","0.5","l","",""
"animation","24","114459","0.0-5.0-2.9","63e576170eb086a90644efb4","bdp_lott","Sat Mar 25 2023 18:46:34 GMT-0400 (Eastern Daylight Time)","344580","green","red","","","","","","","","","","","216","","","","","","[{""stimulus"":""img/red_ll/1.jpg"",""time"":51},{""stimulus"":""img/red_ll/2.jpg"",""time"":101},{""stimulus"":""img/red_ll/3.jpg"",""time"":151},{""stimulus"":""img/red_ll/4.jpg"",""time"":201},{""stimulus"":""img/red_ll/5.jpg"",""time"":251},{""stimulus"":""img/red_ll/6.jpg"",""time"":302},{""stimulus"":""img/red_ll/7.jpg"",""time"":351},{""stimulus"":""img/red_ll/8.jpg"",""time"":401},{""stimulus"":""img/red_ll/9.jpg"",""time"":452},{""stimulus"":""img/red_ll/10.jpg"",""time"":500},{""stimulus"":""img/red_ll/11.jpg"",""time"":551}]","[]"
"image-keyboard-response","25","115270","0.0-5.0-1.10","63e576170eb086a90644efb4","bdp_lott","Sat Mar 25 2023 18:46:34 GMT-0400 (Eastern Daylight Time)","344580","green","red","","","","choice","","","809","","img/red_ll/choose11.jpg","1","215","green","0.5","0.5","0.5","w","",""
"animation","26","115871","0.0-5.0-2.10","63e576170eb086a90644efb4","bdp_lott","Sat Mar 25 2023 18:46:34 GMT-0400 (Eastern Daylight Time)","344580","green","red","","","","","","","","","","","215","","","","","","[{""stimulus"":""img/green_wl/1.jpg"",""time"":51},{""stimulus"":""img/green_wl/2.jpg"",""time"":101},{""stimulus"":""img/green_wl/3.jpg"",""time"":152},{""stimulus"":""img/green_wl/4.jpg"",""time"":202},{""stimulus"":""img/green_wl/5.jpg"",""time"":251},{""stimulus"":""img/green_wl/6.jpg"",""time"":302},{""stimulus"":""img/green_wl/7.jpg"",""time"":352},{""stimulus"":""img/green_wl/8.jpg"",""time"":401},{""stimulus"":""img/green_wl/9.jpg"",""time"":451},{""stimulus"":""img/green_wl/10.jpg"",""time"":501},{""stimulus"":""img/green_wl/11.jpg"",""time"":552}]","[]"
"image-keyboard-response","27","117301","0.0-5.0-1.11","63e576170eb086a90644efb4","bdp_lott","Sat Mar 25 2023 18:46:34 GMT-0400 (Eastern Daylight Time)","344580","green","red","","","","choice","","","1428","","img/green_wl/choose11.jpg","2","214","red","0.5","0.5","0.5","w","",""
"animation","28","117903","0.0-5.0-2.11","63e576170eb086a90644efb4","bdp_lott","Sat Mar 25 2023 18:46:34 GMT-0400 (Eastern Daylight Time)","344580","green","red","","","","","","","","","","","214","","","","","","[{""stimulus"":""img/red_ww/1.jpg"",""time"":51},{""stimulus"":""img/red_ww/2.jpg"",""time"":101},{""stimulus"":""img/red_ww/3.jpg"",""time"":150},{""stimulus"":""img/red_ww/4.jpg"",""time"":201},{""stimulus"":""img/red_ww/5.jpg"",""time"":251},{""stimulus"":""img/red_ww/6.jpg"",""time"":302},{""stimulus"":""img/red_ww/7.jpg"",""time"":351},{""stimulus"":""img/red_ww/8.jpg"",""time"":401},{""stimulus"":""img/red_ww/9.jpg"",""time"":451},{""stimulus"":""img/red_ww/10.jpg"",""time"":501},{""stimulus"":""img/red_ww/11.jpg"",""time"":551}]","[]"
"image-keyboard-response","29","118606","0.0-5.0-1.12","63e576170eb086a90644efb4","bdp_lott","Sat Mar 25 2023 18:46:34 GMT-0400 (Eastern Daylight Time)","344580","green","red","","","","choice","","","702","","img/red_ww/choose11.jpg","2","213","red","0.5","0.5","0.5","w","",""
"animation","30","119206","0.0-5.0-2.12","63e576170eb086a90644efb4","bdp_lott","Sat Mar 25 2023 18:46:34 GMT-0400 (Eastern Daylight Time)","344580","green","red","","","","","","","","","","","213","","","","","","[{""stimulus"":""img/red_ww/1.jpg"",""time"":51},{""stimulus"":""img/red_ww/2.jpg"",""time"":101},{""stimulus"":""img/red_ww/3.jpg"",""time"":151},{""stimulus"":""img/red_ww/4.jpg"",""time"":202},{""stimulus"":""img/red_ww/5.jpg"",""time"":250},{""stimulus"":""img/red_ww/6.jpg"",""time"":302},{""stimulus"":""img/red_ww/7.jpg"",""time"":350},{""stimulus"":""img/red_ww/8.jpg"",""time"":402},{""stimulus"":""img/red_ww/9.jpg"",""time"":452},{""stimulus"":""img/red_ww/10.jpg"",""time"":500},{""stimulus"":""img/red_ww/11.jpg"",""time"":550}]","[]"
"image-keyboard-response","31","119654","0.0-5.0-1.13","63e576170eb086a90644efb4","bdp_lott","Sat Mar 25 2023 18:46:34 GMT-0400 (Eastern Daylight Time)","344580","green","red","","","","choice","","","447","","img/red_ww/choose11.jpg","2","212","red","0.5","0.5","0.5","w","",""
"animation","32","120255","0.0-5.0-2.13","63e576170eb086a90644efb4","bdp_lott","Sat Mar 25 2023 18:46:34 GMT-0400 (Eastern Daylight Time)","344580","green","red","","","","","","","","","","","212","","","","","","[{""stimulus"":""img/red_ww/1.jpg"",""time"":52},{""stimulus"":""img/red_ww/2.jpg"",""time"":101},{""stimulus"":""img/red_ww/3.jpg"",""time"":151},{""stimulus"":""img/red_ww/4.jpg"",""time"":201},{""stimulus"":""img/red_ww/5.jpg"",""time"":252},{""stimulus"":""img/red_ww/6.jpg"",""time"":301},{""stimulus"":""img/red_ww/7.jpg"",""time"":352},{""stimulus"":""img/red_ww/8.jpg"",""time"":401},{""stimulus"":""img/red_ww/9.jpg"",""time"":451},{""stimulus"":""img/red_ww/10.jpg"",""time"":501},{""stimulus"":""img/red_ww/11.jpg"",""time"":551}]","[]"
"image-keyboard-response","33","120655","0.0-5.0-1.14","63e576170eb086a90644efb4","bdp_lott","Sat Mar 25 2023 18:46:34 GMT-0400 (Eastern Daylight Time)","344580","green","red","","","","choice","","","399","","img/red_ww/choose11.jpg","2","211","red","0.5","0.5","0.5","l","",""
"animation","34","121256","0.0-5.0-2.14","63e576170eb086a90644efb4","bdp_lott","Sat Mar 25 2023 18:46:34 GMT-0400 (Eastern Daylight Time)","344580","green","red","","","","","","","","","","","211","","","","","","[{""stimulus"":""img/red_wl/1.jpg"",""time"":51},{""stimulus"":""img/red_wl/2.jpg"",""time"":102},{""stimulus"":""img/red_wl/3.jpg"",""time"":151},{""stimulus"":""img/red_wl/4.jpg"",""time"":200},{""stimulus"":""img/red_wl/5.jpg"",""time"":250},{""stimulus"":""img/red_wl/6.jpg"",""time"":302},{""stimulus"":""img/red_wl/7.jpg"",""time"":351},{""stimulus"":""img/red_wl/8.jpg"",""time"":402},{""stimulus"":""img/red_wl/9.jpg"",""time"":451},{""stimulus"":""img/red_wl/10.jpg"",""time"":501},{""stimulus"":""img/red_wl/11.jpg"",""time"":552}]","[]"
"image-keyboard-response","35","122657","0.0-5.0-1.15","63e576170eb086a90644efb4","bdp_lott","Sat Mar 25 2023 18:46:34 GMT-0400 (Eastern Daylight Time)","344580","green","red","","","","choice","","","1400","","img/red_wl/choose11.jpg","2","210","red","0.5","0.5","0.5","l","",""
"animation","36","123259","0.0-5.0-2.15","63e576170eb086a90644efb4","bdp_lott","Sat Mar 25 2023 18:46:34 GMT-0400 (Eastern Daylight Time)","344580","green","red","","","","","","","","","","","210","","","","","","[{""stimulus"":""img/red_wl/1.jpg"",""time"":52},{""stimulus"":""img/red_wl/2.jpg"",""time"":101},{""stimulus"":""img/red_wl/3.jpg"",""time"":152},{""stimulus"":""img/red_wl/4.jpg"",""time"":202},{""stimulus"":""img/red_wl/5.jpg"",""time"":251},{""stimulus"":""img/red_wl/6.jpg"",""time"":302},{""stimulus"":""img/red_wl/7.jpg"",""time"":352},{""stimulus"":""img/red_wl/8.jpg"",""time"":402},{""stimulus"":""img/red_wl/9.jpg"",""time"":452},{""stimulus"":""img/red_wl/10.jpg"",""time"":502},{""stimulus"":""img/red_wl/11.jpg"",""time"":552}]","[]"
"image-keyboard-response","37","124093","0.0-5.0-1.16","63e576170eb086a90644efb4","bdp_lott","Sat Mar 25 2023 18:46:34 GMT-0400 (Eastern Daylight Time)","344580","green","red","","","","choice","","","832","","img/red_wl/choose11.jpg","2","209","red","0.5","0.5","0.5","w","",""
"animation","38","124694","0.0-5.0-2.16","63e576170eb086a90644efb4","bdp_lott","Sat Mar 25 2023 18:46:34 GMT-0400 (Eastern Daylight Time)","344580","green","red","","","","","","","","","","","209","","","","","","[{""stimulus"":""img/red_ww/1.jpg"",""time"":51},{""stimulus"":""img/red_ww/2.jpg"",""time"":101},{""stimulus"":""img/red_ww/3.jpg"",""time"":151},{""stimulus"":""img/red_ww/4.jpg"",""time"":201},{""stimulus"":""img/red_ww/5.jpg"",""time"":251},{""stimulus"":""img/red_ww/6.jpg"",""time"":301},{""stimulus"":""img/red_ww/7.jpg"",""time"":351},{""stimulus"":""img/red_ww/8.jpg"",""time"":401},{""stimulus"":""img/red_ww/9.jpg"",""time"":451},{""stimulus"":""img/red_ww/10.jpg"",""time"":501},{""stimulus"":""img/red_ww/11.jpg"",""time"":551}]","[]"
"image-keyboard-response","39","125098","0.0-5.0-1.17","63e576170eb086a90644efb4","bdp_lott","Sat Mar 25 2023 18:46:34 GMT-0400 (Eastern Daylight Time)","344580","green","red","","","","choice","","","403","","img/red_ww/choose11.jpg","2","208","red","0.5","0.5","0.5","l","",""
"animation","40","125700","0.0-5.0-2.17","63e576170eb086a90644efb4","bdp_lott","Sat Mar 25 2023 18:46:34 GMT-0400 (Eastern Daylight Time)","344580","green","red","","","","","","","","","","","208","","","","","","[{""stimulus"":""img/red_wl/1.jpg"",""time"":51},{""stimulus"":""img/red_wl/2.jpg"",""time"":101},{""stimulus"":""img/red_wl/3.jpg"",""time"":152},{""stimulus"":""img/red_wl/4.jpg"",""time"":202},{""stimulus"":""img/red_wl/5.jpg"",""time"":251},{""stimulus"":""img/red_wl/6.jpg"",""time"":301},{""stimulus"":""img/red_wl/7.jpg"",""time"":352},{""stimulus"":""img/red_wl/8.jpg"",""time"":401},{""stimulus"":""img/red_wl/9.jpg"",""time"":452},{""stimulus"":""img/red_wl/10.jpg"",""time"":502},{""stimulus"":""img/red_wl/11.jpg"",""time"":551}]","[]"
"image-keyboard-response","41","126127","0.0-5.0-1.18","63e576170eb086a90644efb4","bdp_lott","Sat Mar 25 2023 18:46:34 GMT-0400 (Eastern Daylight Time)","344580","green","red","","","","choice","","","426","","img/red_wl/choose11.jpg","2","207","red","0.5","0.5","0.5","l","",""
"animation","42","126729","0.0-5.0-2.18","63e576170eb086a90644efb4","bdp_lott","Sat Mar 25 2023 18:46:34 GMT-0400 (Eastern Daylight Time)","344580","green","red","","","","","","","","","","","207","","","","","","[{""stimulus"":""img/red_wl/1.jpg"",""time"":51},{""stimulus"":""img/red_wl/2.jpg"",""time"":101},{""stimulus"":""img/red_wl/3.jpg"",""time"":151},{""stimulus"":""img/red_wl/4.jpg"",""time"":202},{""stimulus"":""img/red_wl/5.jpg"",""time"":251},{""stimulus"":""img/red_wl/6.jpg"",""time"":302},{""stimulus"":""img/red_wl/7.jpg"",""time"":352},{""stimulus"":""img/red_wl/8.jpg"",""time"":402},{""stimulus"":""img/red_wl/9.jpg"",""time"":452},{""stimulus"":""img/red_wl/10.jpg"",""time"":501},{""stimulus"":""img/red_wl/11.jpg"",""time"":552}]","[]"
"image-keyboard-response","43","127332","0.0-5.0-1.19","63e576170eb086a90644efb4","bdp_lott","Sat Mar 25 2023 18:46:34 GMT-0400 (Eastern Daylight Time)","344580","green","red","","","","choice","","","601","","img/red_wl/choose11.jpg","1","206","green","0.5","0.5","0.5","w","",""
"animation","44","127933","0.0-5.0-2.19","63e576170eb086a90644efb4","bdp_lott","Sat Mar 25 2023 18:46:34 GMT-0400 (Eastern Daylight Time)","344580","green","red","","","","","","","","","","","206","","","","","","[{""stimulus"":""img/green_wl/1.jpg"",""time"":51},{""stimulus"":""img/green_wl/2.jpg"",""time"":102},{""stimulus"":""img/green_wl/3.jpg"",""time"":151},{""stimulus"":""img/green_wl/4.jpg"",""time"":201},{""stimulus"":""img/green_wl/5.jpg"",""time"":252},{""stimulus"":""img/green_wl/6.jpg"",""time"":302},{""stimulus"":""img/green_wl/7.jpg"",""time"":351},{""stimulus"":""img/green_wl/8.jpg"",""time"":401},{""stimulus"":""img/green_wl/9.jpg"",""time"":452},{""stimulus"":""img/green_wl/10.jpg"",""time"":501},{""stimulus"":""img/green_wl/11.jpg"",""time"":551}]","[]"
"image-keyboard-response","45","128457","0.0-5.0-1.20","63e576170eb086a90644efb4","bdp_lott","Sat Mar 25 2023 18:46:34 GMT-0400 (Eastern Daylight Time)","344580","green","red","","","","choice","","","522","","img/green_wl/choose11.jpg","1","205","green","0.5","0.5","0.5","l","",""
"animation","46","129058","0.0-5.0-2.20","63e576170eb086a90644efb4","bdp_lott","Sat Mar 25 2023 18:46:34 GMT-0400 (Eastern Daylight Time)","344580","green","red","","","","","","","","","","","205","","","","","","[{""stimulus"":""img/green_ll/1.jpg"",""time"":52},{""stimulus"":""img/green_ll/2.jpg"",""time"":102},{""stimulus"":""img/green_ll/3.jpg"",""time"":152},{""stimulus"":""img/green_ll/4.jpg"",""time"":201},{""stimulus"":""img/green_ll/5.jpg"",""time"":252},{""stimulus"":""img/green_ll/6.jpg"",""time"":301},{""stimulus"":""img/green_ll/7.jpg"",""time"":352},{""stimulus"":""img/green_ll/8.jpg"",""time"":401},{""stimulus"":""img/green_ll/9.jpg"",""time"":451},{""stimulus"":""img/green_ll/10.jpg"",""time"":500},{""stimulus"":""img/green_ll/11.jpg"",""time"":551}]","[]"
"image-keyboard-response","47","129651","0.0-5.0-1.21","63e576170eb086a90644efb4","bdp_lott","Sat Mar 25 2023 18:46:34 GMT-0400 (Eastern Daylight Time)","344580","green","red","","","","choice","","","592","","img/green_ll/choose11.jpg","1","204","green","0.5","0.5","0.5","w","",""
"animation","48","130252","0.0-5.0-2.21","63e576170eb086a90644efb4","bdp_lott","Sat Mar 25 2023 18:46:34 GMT-0400 (Eastern Daylight Time)","344580","green","red","","","","","","","","","","","204","","","","","","[{""stimulus"":""img/green_wl/1.jpg"",""time"":52},{""stimulus"":""img/green_wl/2.jpg"",""time"":100},{""stimulus"":""img/green_wl/3.jpg"",""time"":152},{""stimulus"":""img/green_wl/4.jpg"",""time"":201},{""stimulus"":""img/green_wl/5.jpg"",""time"":251},{""stimulus"":""img/green_wl/6.jpg"",""time"":301},{""stimulus"":""img/green_wl/7.jpg"",""time"":350},{""stimulus"":""img/green_wl/8.jpg"",""time"":400},{""stimulus"":""img/green_wl/9.jpg"",""time"":451},{""stimulus"":""img/green_wl/10.jpg"",""time"":501},{""stimulus"":""img/green_wl/11.jpg"",""time"":550}]","[]"
"image-keyboard-response","49","130839","0.0-5.0-1.22","63e576170eb086a90644efb4","bdp_lott","Sat Mar 25 2023 18:46:34 GMT-0400 (Eastern Daylight Time)","344580","green","red","","","","choice","","","586","","img/green_wl/choose11.jpg","1","203","green","0.5","0.5","0.5","l","",""
"animation","50","131441","0.0-5.0-2.22","63e576170eb086a90644efb4","bdp_lott","Sat Mar 25 2023 18:46:34 GMT-0400 (Eastern Daylight Time)","344580","green","red","","","","","","","","","","","203","","","","","","[{""stimulus"":""img/green_ll/1.jpg"",""time"":52},{""stimulus"":""img/green_ll/2.jpg"",""time"":101},{""stimulus"":""img/green_ll/3.jpg"",""time"":152},{""stimulus"":""img/green_ll/4.jpg"",""time"":202},{""stimulus"":""img/green_ll/5.jpg"",""time"":253},{""stimulus"":""img/green_ll/6.jpg"",""time"":302},{""stimulus"":""img/green_ll/7.jpg"",""time"":352},{""stimulus"":""img/green_ll/8.jpg"",""time"":401},{""stimulus"":""img/green_ll/9.jpg"",""time"":451},{""stimulus"":""img/green_ll/10.jpg"",""time"":502},{""stimulus"":""img/green_ll/11.jpg"",""time"":551}]","[]"
"image-keyboard-response","51","132145","0.0-5.0-1.23","63e576170eb086a90644efb4","bdp_lott","Sat Mar 25 2023 18:46:34 GMT-0400 (Eastern Daylight Time)","344580","green","red","","","","choice","","","702","","img/green_ll/choose11.jpg","2","202","red","0.5","0.5","0.5","w","",""
"animation","52","132746","0.0-5.0-2.23","63e576170eb086a90644efb4","bdp_lott","Sat Mar 25 2023 18:46:34 GMT-0400 (Eastern Daylight Time)","344580","green","red","","","","","","","","","","","202","","","","","","[{""stimulus"":""img/red_lw/1.jpg"",""time"":51},{""stimulus"":""img/red_lw/2.jpg"",""time"":101},{""stimulus"":""img/red_lw/3.jpg"",""time"":151},{""stimulus"":""img/red_lw/4.jpg"",""time"":202},{""stimulus"":""img/red_lw/5.jpg"",""time"":252},{""stimulus"":""img/red_lw/6.jpg"",""time"":300},{""stimulus"":""img/red_lw/7.jpg"",""time"":351},{""stimulus"":""img/red_lw/8.jpg"",""time"":400},{""stimulus"":""img/red_lw/9.jpg"",""time"":451},{""stimulus"":""img/red_lw/10.jpg"",""time"":501},{""stimulus"":""img/red_lw/11.jpg"",""time"":551}]","[]"
"image-keyboard-response","53","133148","0.0-5.0-1.24","63e576170eb086a90644efb4","bdp_lott","Sat Mar 25 2023 18:46:34 GMT-0400 (Eastern Daylight Time)","344580","green","red","","","","choice","","","401","","img/red_lw/choose11.jpg","2","201","red","0.5","0.5","0.5","w","",""
"animation","54","133749","0.0-5.0-2.24","63e576170eb086a90644efb4","bdp_lott","Sat Mar 25 2023 18:46:34 GMT-0400 (Eastern Daylight Time)","344580","green","red","","","","","","","","","","","201","","","","","","[{""stimulus"":""img/red_lw/1.jpg"",""time"":52},{""stimulus"":""img/red_lw/2.jpg"",""time"":102},{""stimulus"":""img/red_lw/3.jpg"",""time"":153},{""stimulus"":""img/red_lw/4.jpg"",""time"":203},{""stimulus"":""img/red_lw/5.jpg"",""time"":253},{""stimulus"":""img/red_lw/6.jpg"",""time"":302},{""stimulus"":""img/red_lw/7.jpg"",""time"":351},{""stimulus"":""img/red_lw/8.jpg"",""time"":402},{""stimulus"":""img/red_lw/9.jpg"",""time"":452},{""stimulus"":""img/red_lw/10.jpg"",""time"":502},{""stimulus"":""img/red_lw/11.jpg"",""time"":551}]","[]"
"image-keyboard-response","55","134134","0.0-5.0-1.25","63e576170eb086a90644efb4","bdp_lott","Sat Mar 25 2023 18:46:34 GMT-0400 (Eastern Daylight Time)","344580","green","red","","","","choice","","","385","","img/red_lw/choose11.jpg","2","200","red","0.5","0.5","0.5","w","",""
"animation","56","134735","0.0-5.0-2.25","63e576170eb086a90644efb4","bdp_lott","Sat Mar 25 2023 18:46:34 GMT-0400 (Eastern Daylight Time)","344580","green","red","","","","","","","","","","","200","","","","","","[{""stimulus"":""img/red_lw/1.jpg"",""time"":52},{""stimulus"":""img/red_lw/2.jpg"",""time"":102},{""stimulus"":""img/red_lw/3.jpg"",""time"":152},{""stimulus"":""img/red_lw/4.jpg"",""time"":202},{""stimulus"":""img/red_lw/5.jpg"",""time"":252},{""stimulus"":""img/red_lw/6.jpg"",""time"":302},{""stimulus"":""img/red_lw/7.jpg"",""time"":352},{""stimulus"":""img/red_lw/8.jpg"",""time"":401},{""stimulus"":""img/red_lw/9.jpg"",""time"":452},{""stimulus"":""img/red_lw/10.jpg"",""time"":502},{""stimulus"":""img/red_lw/11.jpg"",""time"":551}]","[]"
"image-keyboard-response","57","135124","0.0-5.0-1.26","63e576170eb086a90644efb4","bdp_lott","Sat Mar 25 2023 18:46:34 GMT-0400 (Eastern Daylight Time)","344580","green","red","","","","choice","","","389","","img/red_lw/choose11.jpg","2","199","red","0.5","0.5","0.5","w","",""
"animation","58","135726","0.0-5.0-2.26","63e576170eb086a90644efb4","bdp_lott","Sat Mar 25 2023 18:46:34 GMT-0400 (Eastern Daylight Time)","344580","green","red","","","","","","","","","","","199","","","","","","[{""stimulus"":""img/red_lw/1.jpg"",""time"":51},{""stimulus"":""img/red_lw/2.jpg"",""time"":101},{""stimulus"":""img/red_lw/3.jpg"",""time"":152},{""stimulus"":""img/red_lw/4.jpg"",""time"":201},{""stimulus"":""img/red_lw/5.jpg"",""time"":251},{""stimulus"":""img/red_lw/6.jpg"",""time"":302},{""stimulus"":""img/red_lw/7.jpg"",""time"":351},{""stimulus"":""img/red_lw/8.jpg"",""time"":400},{""stimulus"":""img/red_lw/9.jpg"",""time"":451},{""stimulus"":""img/red_lw/10.jpg"",""time"":500},{""stimulus"":""img/red_lw/11.jpg"",""time"":552}]","[]"
"image-keyboard-response","59","136092","0.0-5.0-1.27","63e576170eb086a90644efb4","bdp_lott","Sat Mar 25 2023 18:46:34 GMT-0400 (Eastern Daylight Time)","344580","green","red","","","","choice","","","366","","img/red_lw/choose11.jpg","2","198","red","0.5","0.5","0.5","l","",""
"animation","60","136693","0.0-5.0-2.27","63e576170eb086a90644efb4","bdp_lott","Sat Mar 25 2023 18:46:34 GMT-0400 (Eastern Daylight Time)","344580","green","red","","","","","","","","","","","198","","","","","","[{""stimulus"":""img/red_ll/1.jpg"",""time"":51},{""stimulus"":""img/red_ll/2.jpg"",""time"":100},{""stimulus"":""img/red_ll/3.jpg"",""time"":151},{""stimulus"":""img/red_ll/4.jpg"",""time"":202},{""stimulus"":""img/red_ll/5.jpg"",""time"":251},{""stimulus"":""img/red_ll/6.jpg"",""time"":301},{""stimulus"":""img/red_ll/7.jpg"",""time"":350},{""stimulus"":""img/red_ll/8.jpg"",""time"":400},{""stimulus"":""img/red_ll/9.jpg"",""time"":451},{""stimulus"":""img/red_ll/10.jpg"",""time"":501},{""stimulus"":""img/red_ll/11.jpg"",""time"":551}]","[]"
"image-keyboard-response","61","137113","0.0-5.0-1.28","63e576170eb086a90644efb4","bdp_lott","Sat Mar 25 2023 18:46:34 GMT-0400 (Eastern Daylight Time)","344580","green","red","","","","choice","","","419","","img/red_ll/choose11.jpg","1","197","green","0.5","0.5","0.5","l","",""
"animation","62","137713","0.0-5.0-2.28","63e576170eb086a90644efb4","bdp_lott","Sat Mar 25 2023 18:46:34 GMT-0400 (Eastern Daylight Time)","344580","green","red","","","","","","","","","","","197","","","","","","[{""stimulus"":""img/green_ll/1.jpg"",""time"":51},{""stimulus"":""img/green_ll/2.jpg"",""time"":100},{""stimulus"":""img/green_ll/3.jpg"",""time"":150},{""stimulus"":""img/green_ll/4.jpg"",""time"":201},{""stimulus"":""img/green_ll/5.jpg"",""time"":252},{""stimulus"":""img/green_ll/6.jpg"",""time"":301},{""stimulus"":""img/green_ll/7.jpg"",""time"":351},{""stimulus"":""img/green_ll/8.jpg"",""time"":401},{""stimulus"":""img/green_ll/9.jpg"",""time"":450},{""stimulus"":""img/green_ll/10.jpg"",""time"":500},{""stimulus"":""img/green_ll/11.jpg"",""time"":551}]","[]"
"image-keyboard-response","63","138446","0.0-5.0-1.29","63e576170eb086a90644efb4","bdp_lott","Sat Mar 25 2023 18:46:34 GMT-0400 (Eastern Daylight Time)","344580","green","red","","","","choice","","","732","","img/green_ll/choose11.jpg","2","196","red","0.5","0.5","0.5","l","",""
"animation","64","139046","0.0-5.0-2.29","63e576170eb086a90644efb4","bdp_lott","Sat Mar 25 2023 18:46:34 GMT-0400 (Eastern Daylight Time)","344580","green","red","","","","","","","","","","","196","","","","","","[{""stimulus"":""img/red_ll/1.jpg"",""time"":52},{""stimulus"":""img/red_ll/2.jpg"",""time"":102},{""stimulus"":""img/red_ll/3.jpg"",""time"":152},{""stimulus"":""img/red_ll/4.jpg"",""time"":202},{""stimulus"":""img/red_ll/5.jpg"",""time"":252},{""stimulus"":""img/red_ll/6.jpg"",""time"":302},{""stimulus"":""img/red_ll/7.jpg"",""time"":351},{""stimulus"":""img/red_ll/8.jpg"",""time"":402},{""stimulus"":""img/red_ll/9.jpg"",""time"":452},{""stimulus"":""img/red_ll/10.jpg"",""time"":502},{""stimulus"":""img/red_ll/11.jpg"",""time"":552}]","[]"
"image-keyboard-response","65","139676","0.0-5.0-1.30","63e576170eb086a90644efb4","bdp_lott","Sat Mar 25 2023 18:46:34 GMT-0400 (Eastern Daylight Time)","344580","green","red","","","","choice","","","629","","img/red_ll/choose11.jpg","1","195","green","0.5","0.5","0.5","w","",""
"animation","66","140278","0.0-5.0-2.30","63e576170eb086a90644efb4","bdp_lott","Sat Mar 25 2023 18:46:34 GMT-0400 (Eastern Daylight Time)","344580","green","red","","","","","","","","","","","195","","","","","","[{""stimulus"":""img/green_wl/1.jpg"",""time"":51},{""stimulus"":""img/green_wl/2.jpg"",""time"":101},{""stimulus"":""img/green_wl/3.jpg"",""time"":151},{""stimulus"":""img/green_wl/4.jpg"",""time"":200},{""stimulus"":""img/green_wl/5.jpg"",""time"":250},{""stimulus"":""img/green_wl/6.jpg"",""time"":301},{""stimulus"":""img/green_wl/7.jpg"",""time"":352},{""stimulus"":""img/green_wl/8.jpg"",""time"":402},{""stimulus"":""img/green_wl/9.jpg"",""time"":451},{""stimulus"":""img/green_wl/10.jpg"",""time"":501},{""stimulus"":""img/green_wl/11.jpg"",""time"":551}]","[]"
"image-keyboard-response","67","140796","0.0-5.0-1.31","63e576170eb086a90644efb4","bdp_lott","Sat Mar 25 2023 18:46:34 GMT-0400 (Eastern Daylight Time)","344580","green","red","","","","choice","","","517","","img/green_wl/choose11.jpg","1","194","green","0.5","0.5","0.5","w","",""
"animation","68","141396","0.0-5.0-2.31","63e576170eb086a90644efb4","bdp_lott","Sat Mar 25 2023 18:46:34 GMT-0400 (Eastern Daylight Time)","344580","green","red","","","","","","","","","","","194","","","","","","[{""stimulus"":""img/green_wl/1.jpg"",""time"":52},{""stimulus"":""img/green_wl/2.jpg"",""time"":101},{""stimulus"":""img/green_wl/3.jpg"",""time"":150},{""stimulus"":""img/green_wl/4.jpg"",""time"":201},{""stimulus"":""img/green_wl/5.jpg"",""time"":251},{""stimulus"":""img/green_wl/6.jpg"",""time"":301},{""stimulus"":""img/green_wl/7.jpg"",""time"":352},{""stimulus"":""img/green_wl/8.jpg"",""time"":400},{""stimulus"":""img/green_wl/9.jpg"",""time"":451},{""stimulus"":""img/green_wl/10.jpg"",""time"":500},{""stimulus"":""img/green_wl/11.jpg"",""time"":552}]","[]"
"image-keyboard-response","69","141775","0.0-5.0-1.32","63e576170eb086a90644efb4","bdp_lott","Sat Mar 25 2023 18:46:34 GMT-0400 (Eastern Daylight Time)","344580","green","red","","","","choice","","","378","","img/green_wl/choose11.jpg","1","193","green","0.5","0.5","0.5","w","",""
"animation","70","142376","0.0-5.0-2.32","63e576170eb086a90644efb4","bdp_lott","Sat Mar 25 2023 18:46:34 GMT-0400 (Eastern Daylight Time)","344580","green","red","","","","","","","","","","","193","","","","","","[{""stimulus"":""img/green_wl/1.jpg"",""time"":52},{""stimulus"":""img/green_wl/2.jpg"",""time"":101},{""stimulus"":""img/green_wl/3.jpg"",""time"":152},{""stimulus"":""img/green_wl/4.jpg"",""time"":201},{""stimulus"":""img/green_wl/5.jpg"",""time"":252},{""stimulus"":""img/green_wl/6.jpg"",""time"":301},{""stimulus"":""img/green_wl/7.jpg"",""time"":352},{""stimulus"":""img/green_wl/8.jpg"",""time"":401},{""stimulus"":""img/green_wl/9.jpg"",""time"":451},{""stimulus"":""img/green_wl/10.jpg"",""time"":502},{""stimulus"":""img/green_wl/11.jpg"",""time"":552}]","[]"
"image-keyboard-response","71","142777","0.0-5.0-1.33","63e576170eb086a90644efb4","bdp_lott","Sat Mar 25 2023 18:46:34 GMT-0400 (Eastern Daylight Time)","344580","green","red","","","","choice","","","400","","img/green_wl/choose11.jpg","1","192","green","0.5","0.5","0.5","w","",""
"animation","72","143379","0.0-5.0-2.33","63e576170eb086a90644efb4","bdp_lott","Sat Mar 25 2023 18:46:34 GMT-0400 (Eastern Daylight Time)","344580","green","red","","","","","","","","","","","192","","","","","","[{""stimulus"":""img/green_wl/1.jpg"",""time"":52},{""stimulus"":""img/green_wl/2.jpg"",""time"":102},{""stimulus"":""img/green_wl/3.jpg"",""time"":151},{""stimulus"":""img/green_wl/4.jpg"",""time"":201},{""stimulus"":""img/green_wl/5.jpg"",""time"":252},{""stimulus"":""img/green_wl/6.jpg"",""time"":302},{""stimulus"":""img/green_wl/7.jpg"",""time"":351},{""stimulus"":""img/green_wl/8.jpg"",""time"":402},{""stimulus"":""img/green_wl/9.jpg"",""time"":452},{""stimulus"":""img/green_wl/10.jpg"",""time"":502},{""stimulus"":""img/green_wl/11.jpg"",""time"":551}]","[]"
"image-keyboard-response","73","143702","0.0-5.0-1.34","63e576170eb086a90644efb4","bdp_lott","Sat Mar 25 2023 18:46:34 GMT-0400 (Eastern Daylight Time)","344580","green","red","","","","choice","","","322","","img/green_wl/choose11.jpg","1","191","green","0.5","0.5","0.5","w","",""
"animation","74","144304","0.0-5.0-2.34","63e576170eb086a90644efb4","bdp_lott","Sat Mar 25 2023 18:46:34 GMT-0400 (Eastern Daylight Time)","344580","green","red","","","","","","","","","","","191","","","","","","[{""stimulus"":""img/green_wl/1.jpg"",""time"":51},{""stimulus"":""img/green_wl/2.jpg"",""time"":101},{""stimulus"":""img/green_wl/3.jpg"",""time"":150},{""stimulus"":""img/green_wl/4.jpg"",""time"":201},{""stimulus"":""img/green_wl/5.jpg"",""time"":251},{""stimulus"":""img/green_wl/6.jpg"",""time"":301},{""stimulus"":""img/green_wl/7.jpg"",""time"":351},{""stimulus"":""img/green_wl/8.jpg"",""time"":401},{""stimulus"":""img/green_wl/9.jpg"",""time"":451},{""stimulus"":""img/green_wl/10.jpg"",""time"":501},{""stimulus"":""img/green_wl/11.jpg"",""time"":551}]","[]"
"image-keyboard-response","75","144619","0.0-5.0-1.35","63e576170eb086a90644efb4","bdp_lott","Sat Mar 25 2023 18:46:34 GMT-0400 (Eastern Daylight Time)","344580","green","red","","","","choice","","","315","","img/green_wl/choose11.jpg","1","190","green","0.5","0.5","0.5","l","",""
"animation","76","145220","0.0-5.0-2.35","63e576170eb086a90644efb4","bdp_lott","Sat Mar 25 2023 18:46:34 GMT-0400 (Eastern Daylight Time)","344580","green","red","","","","","","","","","","","190","","","","","","[{""stimulus"":""img/green_ll/1.jpg"",""time"":52},{""stimulus"":""img/green_ll/2.jpg"",""time"":101},{""stimulus"":""img/green_ll/3.jpg"",""time"":151},{""stimulus"":""img/green_ll/4.jpg"",""time"":200},{""stimulus"":""img/green_ll/5.jpg"",""time"":251},{""stimulus"":""img/green_ll/6.jpg"",""time"":300},{""stimulus"":""img/green_ll/7.jpg"",""time"":351},{""stimulus"":""img/green_ll/8.jpg"",""time"":401},{""stimulus"":""img/green_ll/9.jpg"",""time"":452},{""stimulus"":""img/green_ll/10.jpg"",""time"":502},{""stimulus"":""img/green_ll/11.jpg"",""time"":552}]","[]"
"image-keyboard-response","77","146987","0.0-5.0-1.36","63e576170eb086a90644efb4","bdp_lott","Sat Mar 25 2023 18:46:34 GMT-0400 (Eastern Daylight Time)","344580","green","red","","","","choice","","","1766","","img/green_ll/choose11.jpg","2","189","red","0.5","0.5","0.5","l","",""
"animation","78","147588","0.0-5.0-2.36","63e576170eb086a90644efb4","bdp_lott","Sat Mar 25 2023 18:46:34 GMT-0400 (Eastern Daylight Time)","344580","green","red","","","","","","","","","","","189","","","","","","[{""stimulus"":""img/red_ll/1.jpg"",""time"":53},{""stimulus"":""img/red_ll/2.jpg"",""time"":102},{""stimulus"":""img/red_ll/3.jpg"",""time"":152},{""stimulus"":""img/red_ll/4.jpg"",""time"":202},{""stimulus"":""img/red_ll/5.jpg"",""time"":252},{""stimulus"":""img/red_ll/6.jpg"",""time"":302},{""stimulus"":""img/red_ll/7.jpg"",""time"":352},{""stimulus"":""img/red_ll/8.jpg"",""time"":402},{""stimulus"":""img/red_ll/9.jpg"",""time"":452},{""stimulus"":""img/red_ll/10.jpg"",""time"":501},{""stimulus"":""img/red_ll/11.jpg"",""time"":551}]","[]"
"image-keyboard-response","79","148997","0.0-5.0-1.37","63e576170eb086a90644efb4","bdp_lott","Sat Mar 25 2023 18:46:34 GMT-0400 (Eastern Daylight Time)","344580","green","red","","","","choice","","","1409","","img/red_ll/choose11.jpg","1","188","green","0.5","0.5","0.5","l","",""
"animation","80","149599","0.0-5.0-2.37","63e576170eb086a90644efb4","bdp_lott","Sat Mar 25 2023 18:46:34 GMT-0400 (Eastern Daylight Time)","344580","green","red","","","","","","","","","","","188","","","","","","[{""stimulus"":""img/green_ll/1.jpg"",""time"":52},{""stimulus"":""img/green_ll/2.jpg"",""time"":101},{""stimulus"":""img/green_ll/3.jpg"",""time"":151},{""stimulus"":""img/green_ll/4.jpg"",""time"":201},{""stimulus"":""img/green_ll/5.jpg"",""time"":252},{""stimulus"":""img/green_ll/6.jpg"",""time"":302},{""stimulus"":""img/green_ll/7.jpg"",""time"":351},{""stimulus"":""img/green_ll/8.jpg"",""time"":402},{""stimulus"":""img/green_ll/9.jpg"",""time"":451},{""stimulus"":""img/green_ll/10.jpg"",""time"":501},{""stimulus"":""img/green_ll/11.jpg"",""time"":550}]","[]"
"image-keyboard-response","81","150044","0.0-5.0-1.38","63e576170eb086a90644efb4","bdp_lott","Sat Mar 25 2023 18:46:34 GMT-0400 (Eastern Daylight Time)","344580","green","red","","","","choice","","","444","","img/green_ll/choose11.jpg","2","187","red","0.5","0.5","0.5","w","",""
"animation","82","150645","0.0-5.0-2.38","63e576170eb086a90644efb4","bdp_lott","Sat Mar 25 2023 18:46:34 GMT-0400 (Eastern Daylight Time)","344580","green","red","","","","","","","","","","","187","","","","","","[{""stimulus"":""img/red_lw/1.jpg"",""time"":52},{""stimulus"":""img/red_lw/2.jpg"",""time"":101},{""stimulus"":""img/red_lw/3.jpg"",""time"":151},{""stimulus"":""img/red_lw/4.jpg"",""time"":201},{""stimulus"":""img/red_lw/5.jpg"",""time"":251},{""stimulus"":""img/red_lw/6.jpg"",""time"":301},{""stimulus"":""img/red_lw/7.jpg"",""time"":352},{""stimulus"":""img/red_lw/8.jpg"",""time"":401},{""stimulus"":""img/red_lw/9.jpg"",""time"":451},{""stimulus"":""img/red_lw/10.jpg"",""time"":502},{""stimulus"":""img/red_lw/11.jpg"",""time"":551}]","[]"
"image-keyboard-response","83","151126","0.0-5.0-1.39","63e576170eb086a90644efb4","bdp_lott","Sat Mar 25 2023 18:46:34 GMT-0400 (Eastern Daylight Time)","344580","green","red","","","","choice","","","480","","img/red_lw/choose11.jpg","2","186","red","0.5","0.5","0.5","l","",""
"animation","84","151728","0.0-5.0-2.39","63e576170eb086a90644efb4","bdp_lott","Sat Mar 25 2023 18:46:34 GMT-0400 (Eastern Daylight Time)","344580","green","red","","","","","","","","","","","186","","","","","","[{""stimulus"":""img/red_ll/1.jpg"",""time"":52},{""stimulus"":""img/red_ll/2.jpg"",""time"":101},{""stimulus"":""img/red_ll/3.jpg"",""time"":150},{""stimulus"":""img/red_ll/4.jpg"",""time"":201},{""stimulus"":""img/red_ll/5.jpg"",""time"":250},{""stimulus"":""img/red_ll/6.jpg"",""time"":301},{""stimulus"":""img/red_ll/7.jpg"",""time"":351},{""stimulus"":""img/red_ll/8.jpg"",""time"":402},{""stimulus"":""img/red_ll/9.jpg"",""time"":452},{""stimulus"":""img/red_ll/10.jpg"",""time"":501},{""stimulus"":""img/red_ll/11.jpg"",""time"":551}]","[]"
"image-keyboard-response","85","152425","0.0-5.0-1.40","63e576170eb086a90644efb4","bdp_lott","Sat Mar 25 2023 18:46:34 GMT-0400 (Eastern Daylight Time)","344580","green","red","","","","choice","","","696","","img/red_ll/choose11.jpg","2","185","red","0.5","0.5","0.5","w","",""
"animation","86","153026","0.0-5.0-2.40","63e576170eb086a90644efb4","bdp_lott","Sat Mar 25 2023 18:46:34 GMT-0400 (Eastern Daylight Time)","344580","green","red","","","","","","","","","","","185","","","","","","[{""stimulus"":""img/red_lw/1.jpg"",""time"":50},{""stimulus"":""img/red_lw/2.jpg"",""time"":101},{""stimulus"":""img/red_lw/3.jpg"",""time"":152},{""stimulus"":""img/red_lw/4.jpg"",""time"":202},{""stimulus"":""img/red_lw/5.jpg"",""time"":251},{""stimulus"":""img/red_lw/6.jpg"",""time"":300},{""stimulus"":""img/red_lw/7.jpg"",""time"":351},{""stimulus"":""img/red_lw/8.jpg"",""time"":401},{""stimulus"":""img/red_lw/9.jpg"",""time"":452},{""stimulus"":""img/red_lw/10.jpg"",""time"":501},{""stimulus"":""img/red_lw/11.jpg"",""time"":551}]","[]"
"image-keyboard-response","87","153367","0.0-5.0-1.41","63e576170eb086a90644efb4","bdp_lott","Sat Mar 25 2023 18:46:34 GMT-0400 (Eastern Daylight Time)","344580","green","red","","","","choice","","","340","","img/red_lw/choose11.jpg","2","184","red","0.5","0.5","0.5","l","",""
"animation","88","153969","0.0-5.0-2.41","63e576170eb086a90644efb4","bdp_lott","Sat Mar 25 2023 18:46:34 GMT-0400 (Eastern Daylight Time)","344580","green","red","","","","","","","","","","","184","","","","","","[{""stimulus"":""img/red_ll/1.jpg"",""time"":50},{""stimulus"":""img/red_ll/2.jpg"",""time"":101},{""stimulus"":""img/red_ll/3.jpg"",""time"":151},{""stimulus"":""img/red_ll/4.jpg"",""time"":201},{""stimulus"":""img/red_ll/5.jpg"",""time"":251},{""stimulus"":""img/red_ll/6.jpg"",""time"":300},{""stimulus"":""img/red_ll/7.jpg"",""time"":351},{""stimulus"":""img/red_ll/8.jpg"",""time"":400},{""stimulus"":""img/red_ll/9.jpg"",""time"":451},{""stimulus"":""img/red_ll/10.jpg"",""time"":501},{""stimulus"":""img/red_ll/11.jpg"",""time"":551}]","[]"
"image-keyboard-response","89","154442","0.0-5.0-1.42","63e576170eb086a90644efb4","bdp_lott","Sat Mar 25 2023 18:46:34 GMT-0400 (Eastern Daylight Time)","344580","green","red","","","","choice","","","472","","img/red_ll/choose11.jpg","1","183","green","0.5","0.5","0.5","w","",""
"animation","90","155043","0.0-5.0-2.42","63e576170eb086a90644efb4","bdp_lott","Sat Mar 25 2023 18:46:34 GMT-0400 (Eastern Daylight Time)","344580","green","red","","","","","","","","","","","183","","","","","","[{""stimulus"":""img/green_wl/1.jpg"",""time"":51},{""stimulus"":""img/green_wl/2.jpg"",""time"":100},{""stimulus"":""img/green_wl/3.jpg"",""time"":151},{""stimulus"":""img/green_wl/4.jpg"",""time"":200},{""stimulus"":""img/green_wl/5.jpg"",""time"":251},{""stimulus"":""img/green_wl/6.jpg"",""time"":301},{""stimulus"":""img/green_wl/7.jpg"",""time"":351},{""stimulus"":""img/green_wl/8.jpg"",""time"":401},{""stimulus"":""img/green_wl/9.jpg"",""time"":451},{""stimulus"":""img/green_wl/10.jpg"",""time"":501},{""stimulus"":""img/green_wl/11.jpg"",""time"":551}]","[]"
"image-keyboard-response","91","155409","0.0-5.0-1.43","63e576170eb086a90644efb4","bdp_lott","Sat Mar 25 2023 18:46:34 GMT-0400 (Eastern Daylight Time)","344580","green","red","","","","choice","","","365","","img/green_wl/choose11.jpg","1","182","green","0.5","0.5","0.5","w","",""
"animation","92","156011","0.0-5.0-2.43","63e576170eb086a90644efb4","bdp_lott","Sat Mar 25 2023 18:46:34 GMT-0400 (Eastern Daylight Time)","344580","green","red","","","","","","","","","","","182","","","","","","[{""stimulus"":""img/green_wl/1.jpg"",""time"":52},{""stimulus"":""img/green_wl/2.jpg"",""time"":100},{""stimulus"":""img/green_wl/3.jpg"",""time"":151},{""stimulus"":""img/green_wl/4.jpg"",""time"":201},{""stimulus"":""img/green_wl/5.jpg"",""time"":251},{""stimulus"":""img/green_wl/6.jpg"",""time"":301},{""stimulus"":""img/green_wl/7.jpg"",""time"":351},{""stimulus"":""img/green_wl/8.jpg"",""time"":401},{""stimulus"":""img/green_wl/9.jpg"",""time"":451},{""stimulus"":""img/green_wl/10.jpg"",""time"":501},{""stimulus"":""img/green_wl/11.jpg"",""time"":552}]","[]"
"image-keyboard-response","93","156326","0.0-5.0-1.44","63e576170eb086a90644efb4","bdp_lott","Sat Mar 25 2023 18:46:34 GMT-0400 (Eastern Daylight Time)","344580","green","red","","","","choice","","","314","","img/green_wl/choose11.jpg","1","181","green","0.5","0.5","0.5","w","",""
"animation","94","156928","0.0-5.0-2.44","63e576170eb086a90644efb4","bdp_lott","Sat Mar 25 2023 18:46:34 GMT-0400 (Eastern Daylight Time)","344580","green","red","","","","","","","","","","","181","","","","","","[{""stimulus"":""img/green_wl/1.jpg"",""time"":52},{""stimulus"":""img/green_wl/2.jpg"",""time"":102},{""stimulus"":""img/green_wl/3.jpg"",""time"":152},{""stimulus"":""img/green_wl/4.jpg"",""time"":202},{""stimulus"":""img/green_wl/5.jpg"",""time"":252},{""stimulus"":""img/green_wl/6.jpg"",""time"":302},{""stimulus"":""img/green_wl/7.jpg"",""time"":352},{""stimulus"":""img/green_wl/8.jpg"",""time"":403},{""stimulus"":""img/green_wl/9.jpg"",""time"":453},{""stimulus"":""img/green_wl/10.jpg"",""time"":502},{""stimulus"":""img/green_wl/11.jpg"",""time"":553}]","[]"
"image-keyboard-response","95","157260","0.0-5.0-1.45","63e576170eb086a90644efb4","bdp_lott","Sat Mar 25 2023 18:46:34 GMT-0400 (Eastern Daylight Time)","344580","green","red","","","","choice","","","331","","img/green_wl/choose11.jpg","1","180","green","0.5","0.5","0.5","l","",""
"animation","96","157861","0.0-5.0-2.45","63e576170eb086a90644efb4","bdp_lott","Sat Mar 25 2023 18:46:34 GMT-0400 (Eastern Daylight Time)","344580","green","red","","","","","","","","","","","180","","","","","","[{""stimulus"":""img/green_ll/1.jpg"",""time"":51},{""stimulus"":""img/green_ll/2.jpg"",""time"":100},{""stimulus"":""img/green_ll/3.jpg"",""time"":151},{""stimulus"":""img/green_ll/4.jpg"",""time"":201},{""stimulus"":""img/green_ll/5.jpg"",""time"":251},{""stimulus"":""img/green_ll/6.jpg"",""time"":301},{""stimulus"":""img/green_ll/7.jpg"",""time"":351},{""stimulus"":""img/green_ll/8.jpg"",""time"":401},{""stimulus"":""img/green_ll/9.jpg"",""time"":451},{""stimulus"":""img/green_ll/10.jpg"",""time"":500},{""stimulus"":""img/green_ll/11.jpg"",""time"":550}]","[]"
"image-keyboard-response","97","159600","0.0-5.0-1.46","63e576170eb086a90644efb4","bdp_lott","Sat Mar 25 2023 18:46:34 GMT-0400 (Eastern Daylight Time)","344580","green","red","","","","choice","","","1738","","img/green_ll/choose11.jpg","1","179","green","0.5","0.5","0.5","l","",""
"animation","98","160201","0.0-5.0-2.46","63e576170eb086a90644efb4","bdp_lott","Sat Mar 25 2023 18:46:34 GMT-0400 (Eastern Daylight Time)","344580","green","red","","","","","","","","","","","179","","","","","","[{""stimulus"":""img/green_ll/1.jpg"",""time"":52},{""stimulus"":""img/green_ll/2.jpg"",""time"":102},{""stimulus"":""img/green_ll/3.jpg"",""time"":151},{""stimulus"":""img/green_ll/4.jpg"",""time"":201},{""stimulus"":""img/green_ll/5.jpg"",""time"":252},{""stimulus"":""img/green_ll/6.jpg"",""time"":302},{""stimulus"":""img/green_ll/7.jpg"",""time"":352},{""stimulus"":""img/green_ll/8.jpg"",""time"":403},{""stimulus"":""img/green_ll/9.jpg"",""time"":452},{""stimulus"":""img/green_ll/10.jpg"",""time"":502},{""stimulus"":""img/green_ll/11.jpg"",""time"":552}]","[]"
"image-keyboard-response","99","160696","0.0-5.0-1.47","63e576170eb086a90644efb4","bdp_lott","Sat Mar 25 2023 18:46:34 GMT-0400 (Eastern Daylight Time)","344580","green","red","","","","choice","","","495","","img/green_ll/choose11.jpg","2","178","red","0.5","0.5","0.5","l","",""
"animation","100","161298","0.0-5.0-2.47","63e576170eb086a90644efb4","bdp_lott","Sat Mar 25 2023 18:46:34 GMT-0400 (Eastern Daylight Time)","344580","green","red","","","","","","","","","","","178","","","","","","[{""stimulus"":""img/red_ll/1.jpg"",""time"":52},{""stimulus"":""img/red_ll/2.jpg"",""time"":101},{""stimulus"":""img/red_ll/3.jpg"",""time"":151},{""stimulus"":""img/red_ll/4.jpg"",""time"":202},{""stimulus"":""img/red_ll/5.jpg"",""time"":251},{""stimulus"":""img/red_ll/6.jpg"",""time"":302},{""stimulus"":""img/red_ll/7.jpg"",""time"":351},{""stimulus"":""img/red_ll/8.jpg"",""time"":400},{""stimulus"":""img/red_ll/9.jpg"",""time"":451},{""stimulus"":""img/red_ll/10.jpg"",""time"":501},{""stimulus"":""img/red_ll/11.jpg"",""time"":551}]","[]"
"image-keyboard-response","101","162256","0.0-5.0-1.48","63e576170eb086a90644efb4","bdp_lott","Sat Mar 25 2023 18:46:34 GMT-0400 (Eastern Daylight Time)","344580","green","red","","","","choice","","","957","","img/red_ll/choose11.jpg","2","177","red","0.5","0.5","0.5","w","",""
"animation","102","162858","0.0-5.0-2.48","63e576170eb086a90644efb4","bdp_lott","Sat Mar 25 2023 18:46:34 GMT-0400 (Eastern Daylight Time)","344580","green","red","","","","","","","","","","","177","","","","","","[{""stimulus"":""img/red_lw/1.jpg"",""time"":51},{""stimulus"":""img/red_lw/2.jpg"",""time"":101},{""stimulus"":""img/red_lw/3.jpg"",""time"":151},{""stimulus"":""img/red_lw/4.jpg"",""time"":201},{""stimulus"":""img/red_lw/5.jpg"",""time"":251},{""stimulus"":""img/red_lw/6.jpg"",""time"":302},{""stimulus"":""img/red_lw/7.jpg"",""time"":351},{""stimulus"":""img/red_lw/8.jpg"",""time"":401},{""stimulus"":""img/red_lw/9.jpg"",""time"":452},{""stimulus"":""img/red_lw/10.jpg"",""time"":502},{""stimulus"":""img/red_lw/11.jpg"",""time"":550}]","[]"
"image-keyboard-response","103","163253","0.0-5.0-1.49","63e576170eb086a90644efb4","bdp_lott","Sat Mar 25 2023 18:46:34 GMT-0400 (Eastern Daylight Time)","344580","green","red","","","","choice","","","394","","img/red_lw/choose11.jpg","2","176","red","0.5","0.5","0.5","l","",""
"animation","104","163854","0.0-5.0-2.49","63e576170eb086a90644efb4","bdp_lott","Sat Mar 25 2023 18:46:34 GMT-0400 (Eastern Daylight Time)","344580","green","red","","","","","","","","","","","176","","","","","","[{""stimulus"":""img/red_ll/1.jpg"",""time"":52},{""stimulus"":""img/red_ll/2.jpg"",""time"":100},{""stimulus"":""img/red_ll/3.jpg"",""time"":151},{""stimulus"":""img/red_ll/4.jpg"",""time"":201},{""stimulus"":""img/red_ll/5.jpg"",""time"":251},{""stimulus"":""img/red_ll/6.jpg"",""time"":302},{""stimulus"":""img/red_ll/7.jpg"",""time"":351},{""stimulus"":""img/red_ll/8.jpg"",""time"":402},{""stimulus"":""img/red_ll/9.jpg"",""time"":452},{""stimulus"":""img/red_ll/10.jpg"",""time"":502},{""stimulus"":""img/red_ll/11.jpg"",""time"":551}]","[]"
"image-keyboard-response","105","164297","0.0-5.0-1.50","63e576170eb086a90644efb4","bdp_lott","Sat Mar 25 2023 18:46:34 GMT-0400 (Eastern Daylight Time)","344580","green","red","","","","choice","","","442","","img/red_ll/choose11.jpg","1","175","green","0.5","0.5","0.5","l","",""
"animation","106","164899","0.0-5.0-2.50","63e576170eb086a90644efb4","bdp_lott","Sat Mar 25 2023 18:46:34 GMT-0400 (Eastern Daylight Time)","344580","green","red","","","","","","","","","","","175","","","","","","[{""stimulus"":""img/green_ll/1.jpg"",""time"":51},{""stimulus"":""img/green_ll/2.jpg"",""time"":101},{""stimulus"":""img/green_ll/3.jpg"",""time"":151},{""stimulus"":""img/green_ll/4.jpg"",""time"":201},{""stimulus"":""img/green_ll/5.jpg"",""time"":251},{""stimulus"":""img/green_ll/6.jpg"",""time"":301},{""stimulus"":""img/green_ll/7.jpg"",""time"":352},{""stimulus"":""img/green_ll/8.jpg"",""time"":402},{""stimulus"":""img/green_ll/9.jpg"",""time"":450},{""stimulus"":""img/green_ll/10.jpg"",""time"":501},{""stimulus"":""img/green_ll/11.jpg"",""time"":551}]","[]"
"image-keyboard-response","107","165604","0.0-5.0-1.51","63e576170eb086a90644efb4","bdp_lott","Sat Mar 25 2023 18:46:34 GMT-0400 (Eastern Daylight Time)","344580","green","red","","","","choice","","","704","","img/green_ll/choose11.jpg","2","174","red","0.5","0.5","0.5","l","",""
"animation","108","166206","0.0-5.0-2.51","63e576170eb086a90644efb4","bdp_lott","Sat Mar 25 2023 18:46:34 GMT-0400 (Eastern Daylight Time)","344580","green","red","","","","","","","","","","","174","","","","","","[{""stimulus"":""img/red_ll/1.jpg"",""time"":51},{""stimulus"":""img/red_ll/2.jpg"",""time"":101},{""stimulus"":""img/red_ll/3.jpg"",""time"":151},{""stimulus"":""img/red_ll/4.jpg"",""time"":201},{""stimulus"":""img/red_ll/5.jpg"",""time"":250},{""stimulus"":""img/red_ll/6.jpg"",""time"":302},{""stimulus"":""img/red_ll/7.jpg"",""time"":350},{""stimulus"":""img/red_ll/8.jpg"",""time"":401},{""stimulus"":""img/red_ll/9.jpg"",""time"":450},{""stimulus"":""img/red_ll/10.jpg"",""time"":500},{""stimulus"":""img/red_ll/11.jpg"",""time"":551}]","[]"
"image-keyboard-response","109","166756","0.0-5.0-1.52","63e576170eb086a90644efb4","bdp_lott","Sat Mar 25 2023 18:46:34 GMT-0400 (Eastern Daylight Time)","344580","green","red","","","","choice","","","549","","img/red_ll/choose11.jpg","1","173","green","0.5","0.5","0.5","l","",""
"animation","110","167356","0.0-5.0-2.52","63e576170eb086a90644efb4","bdp_lott","Sat Mar 25 2023 18:46:34 GMT-0400 (Eastern Daylight Time)","344580","green","red","","","","","","","","","","","173","","","","","","[{""stimulus"":""img/green_ll/1.jpg"",""time"":53},{""stimulus"":""img/green_ll/2.jpg"",""time"":102},{""stimulus"":""img/green_ll/3.jpg"",""time"":151},{""stimulus"":""img/green_ll/4.jpg"",""time"":201},{""stimulus"":""img/green_ll/5.jpg"",""time"":251},{""stimulus"":""img/green_ll/6.jpg"",""time"":301},{""stimulus"":""img/green_ll/7.jpg"",""time"":352},{""stimulus"":""img/green_ll/8.jpg"",""time"":403},{""stimulus"":""img/green_ll/9.jpg"",""time"":452},{""stimulus"":""img/green_ll/10.jpg"",""time"":503},{""stimulus"":""img/green_ll/11.jpg"",""time"":552}]","[]"
"image-keyboard-response","111","168012","0.0-5.0-1.53","63e576170eb086a90644efb4","bdp_lott","Sat Mar 25 2023 18:46:34 GMT-0400 (Eastern Daylight Time)","344580","green","red","","","","choice","","","654","","img/green_ll/choose11.jpg","2","172","red","0.5","0.5","0.5","w","",""
"animation","112","168613","0.0-5.0-2.53","63e576170eb086a90644efb4","bdp_lott","Sat Mar 25 2023 18:46:34 GMT-0400 (Eastern Daylight Time)","344580","green","red","","","","","","","","","","","172","","","","","","[{""stimulus"":""img/red_lw/1.jpg"",""time"":51},{""stimulus"":""img/red_lw/2.jpg"",""time"":101},{""stimulus"":""img/red_lw/3.jpg"",""time"":150},{""stimulus"":""img/red_lw/4.jpg"",""time"":201},{""stimulus"":""img/red_lw/5.jpg"",""time"":251},{""stimulus"":""img/red_lw/6.jpg"",""time"":301},{""stimulus"":""img/red_lw/7.jpg"",""time"":351},{""stimulus"":""img/red_lw/8.jpg"",""time"":401},{""stimulus"":""img/red_lw/9.jpg"",""time"":451},{""stimulus"":""img/red_lw/10.jpg"",""time"":502},{""stimulus"":""img/red_lw/11.jpg"",""time"":551}]","[]"
"image-keyboard-response","113","169217","0.0-5.0-1.54","63e576170eb086a90644efb4","bdp_lott","Sat Mar 25 2023 18:46:34 GMT-0400 (Eastern Daylight Time)","344580","green","red","","","","choice","","","603","","img/red_lw/choose11.jpg","2","171","red","0.5","0.5","0.5","l","",""
"animation","114","169818","0.0-5.0-2.54","63e576170eb086a90644efb4","bdp_lott","Sat Mar 25 2023 18:46:34 GMT-0400 (Eastern Daylight Time)","344580","green","red","","","","","","","","","","","171","","","","","","[{""stimulus"":""img/red_ll/1.jpg"",""time"":52},{""stimulus"":""img/red_ll/2.jpg"",""time"":101},{""stimulus"":""img/red_ll/3.jpg"",""time"":151},{""stimulus"":""img/red_ll/4.jpg"",""time"":202},{""stimulus"":""img/red_ll/5.jpg"",""time"":251},{""stimulus"":""img/red_ll/6.jpg"",""time"":302},{""stimulus"":""img/red_ll/7.jpg"",""time"":351},{""stimulus"":""img/red_ll/8.jpg"",""time"":402},{""stimulus"":""img/red_ll/9.jpg"",""time"":451},{""stimulus"":""img/red_ll/10.jpg"",""time"":501},{""stimulus"":""img/red_ll/11.jpg"",""time"":552}]","[]"
"image-keyboard-response","115","170439","0.0-5.0-1.55","63e576170eb086a90644efb4","bdp_lott","Sat Mar 25 2023 18:46:34 GMT-0400 (Eastern Daylight Time)","344580","green","red","","","","choice","","","621","","img/red_ll/choose11.jpg","1","170","green","0.5","0.5","0.5","w","",""
"animation","116","171041","0.0-5.0-2.55","63e576170eb086a90644efb4","bdp_lott","Sat Mar 25 2023 18:46:34 GMT-0400 (Eastern Daylight Time)","344580","green","red","","","","","","","","","","","170","","","","","","[{""stimulus"":""img/green_wl/1.jpg"",""time"":51},{""stimulus"":""img/green_wl/2.jpg"",""time"":102},{""stimulus"":""img/green_wl/3.jpg"",""time"":152},{""stimulus"":""img/green_wl/4.jpg"",""time"":201},{""stimulus"":""img/green_wl/5.jpg"",""time"":251},{""stimulus"":""img/green_wl/6.jpg"",""time"":301},{""stimulus"":""img/green_wl/7.jpg"",""time"":351},{""stimulus"":""img/green_wl/8.jpg"",""time"":402},{""stimulus"":""img/green_wl/9.jpg"",""time"":450},{""stimulus"":""img/green_wl/10.jpg"",""time"":500},{""stimulus"":""img/green_wl/11.jpg"",""time"":551}]","[]"
"image-keyboard-response","117","171433","0.0-5.0-1.56","63e576170eb086a90644efb4","bdp_lott","Sat Mar 25 2023 18:46:34 GMT-0400 (Eastern Daylight Time)","344580","green","red","","","","choice","","","391","","img/green_wl/choose11.jpg","1","169","green","0.5","0.5","0.5","l","",""
"animation","118","172035","0.0-5.0-2.56","63e576170eb086a90644efb4","bdp_lott","Sat Mar 25 2023 18:46:34 GMT-0400 (Eastern Daylight Time)","344580","green","red","","","","","","","","","","","169","","","","","","[{""stimulus"":""img/green_ll/1.jpg"",""time"":51},{""stimulus"":""img/green_ll/2.jpg"",""time"":101},{""stimulus"":""img/green_ll/3.jpg"",""time"":152},{""stimulus"":""img/green_ll/4.jpg"",""time"":201},{""stimulus"":""img/green_ll/5.jpg"",""time"":252},{""stimulus"":""img/green_ll/6.jpg"",""time"":301},{""stimulus"":""img/green_ll/7.jpg"",""time"":352},{""stimulus"":""img/green_ll/8.jpg"",""time"":401},{""stimulus"":""img/green_ll/9.jpg"",""time"":452},{""stimulus"":""img/green_ll/10.jpg"",""time"":502},{""stimulus"":""img/green_ll/11.jpg"",""time"":552}]","[]"
"image-keyboard-response","119","173184","0.0-5.0-1.57","63e576170eb086a90644efb4","bdp_lott","Sat Mar 25 2023 18:46:34 GMT-0400 (Eastern Daylight Time)","344580","green","red","","","","choice","","","1148","","img/green_ll/choose11.jpg","1","168","green","0.5","0.5","0.5","l","",""
"animation","120","173785","0.0-5.0-2.57","63e576170eb086a90644efb4","bdp_lott","Sat Mar 25 2023 18:46:34 GMT-0400 (Eastern Daylight Time)","344580","green","red","","","","","","","","","","","168","","","","","","[{""stimulus"":""img/green_ll/1.jpg"",""time"":53},{""stimulus"":""img/green_ll/2.jpg"",""time"":102},{""stimulus"":""img/green_ll/3.jpg"",""time"":152},{""stimulus"":""img/green_ll/4.jpg"",""time"":202},{""stimulus"":""img/green_ll/5.jpg"",""time"":251},{""stimulus"":""img/green_ll/6.jpg"",""time"":302},{""stimulus"":""img/green_ll/7.jpg"",""time"":352},{""stimulus"":""img/green_ll/8.jpg"",""time"":401},{""stimulus"":""img/green_ll/9.jpg"",""time"":451},{""stimulus"":""img/green_ll/10.jpg"",""time"":501},{""stimulus"":""img/green_ll/11.jpg"",""time"":552}]","[]"
"image-keyboard-response","121","174354","0.0-5.0-1.58","63e576170eb086a90644efb4","bdp_lott","Sat Mar 25 2023 18:46:34 GMT-0400 (Eastern Daylight Time)","344580","green","red","","","","choice","","","568","","img/green_ll/choose11.jpg","2","167","red","0.5","0.5","0.5","l","",""
"animation","122","174956","0.0-5.0-2.58","63e576170eb086a90644efb4","bdp_lott","Sat Mar 25 2023 18:46:34 GMT-0400 (Eastern Daylight Time)","344580","green","red","","","","","","","","","","","167","","","","","","[{""stimulus"":""img/red_ll/1.jpg"",""time"":52},{""stimulus"":""img/red_ll/2.jpg"",""time"":101},{""stimulus"":""img/red_ll/3.jpg"",""time"":151},{""stimulus"":""img/red_ll/4.jpg"",""time"":201},{""stimulus"":""img/red_ll/5.jpg"",""time"":252},{""stimulus"":""img/red_ll/6.jpg"",""time"":301},{""stimulus"":""img/red_ll/7.jpg"",""time"":352},{""stimulus"":""img/red_ll/8.jpg"",""time"":401},{""stimulus"":""img/red_ll/9.jpg"",""time"":451},{""stimulus"":""img/red_ll/10.jpg"",""time"":502},{""stimulus"":""img/red_ll/11.jpg"",""time"":551}]","[]"
"image-keyboard-response","123","175381","0.0-5.0-1.59","63e576170eb086a90644efb4","bdp_lott","Sat Mar 25 2023 18:46:34 GMT-0400 (Eastern Daylight Time)","344580","green","red","","","","choice","","","425","","img/red_ll/choose11.jpg","1","166","green","0.5","0.5","0.5","w","",""
"animation","124","175982","0.0-5.0-2.59","63e576170eb086a90644efb4","bdp_lott","Sat Mar 25 2023 18:46:34 GMT-0400 (Eastern Daylight Time)","344580","green","red","","","","","","","","","","","166","","","","","","[{""stimulus"":""img/green_wl/1.jpg"",""time"":53},{""stimulus"":""img/green_wl/2.jpg"",""time"":101},{""stimulus"":""img/green_wl/3.jpg"",""time"":151},{""stimulus"":""img/green_wl/4.jpg"",""time"":202},{""stimulus"":""img/green_wl/5.jpg"",""time"":251},{""stimulus"":""img/green_wl/6.jpg"",""time"":301},{""stimulus"":""img/green_wl/7.jpg"",""time"":351},{""stimulus"":""img/green_wl/8.jpg"",""time"":401},{""stimulus"":""img/green_wl/9.jpg"",""time"":451},{""stimulus"":""img/green_wl/10.jpg"",""time"":503},{""stimulus"":""img/green_wl/11.jpg"",""time"":551}]","[]"
"image-keyboard-response","125","176428","0.0-5.0-1.60","63e576170eb086a90644efb4","bdp_lott","Sat Mar 25 2023 18:46:34 GMT-0400 (Eastern Daylight Time)","344580","green","red","","","","choice","","","445","","img/green_wl/choose11.jpg","1","165","green","0.5","0.5","0.5","l","",""
"animation","126","177030","0.0-5.0-2.60","63e576170eb086a90644efb4","bdp_lott","Sat Mar 25 2023 18:46:34 GMT-0400 (Eastern Daylight Time)","344580","green","red","","","","","","","","","","","165","","","","","","[{""stimulus"":""img/green_ll/1.jpg"",""time"":51},{""stimulus"":""img/green_ll/2.jpg"",""time"":102},{""stimulus"":""img/green_ll/3.jpg"",""time"":152},{""stimulus"":""img/green_ll/4.jpg"",""time"":202},{""stimulus"":""img/green_ll/5.jpg"",""time"":252},{""stimulus"":""img/green_ll/6.jpg"",""time"":302},{""stimulus"":""img/green_ll/7.jpg"",""time"":352},{""stimulus"":""img/green_ll/8.jpg"",""time"":402},{""stimulus"":""img/green_ll/9.jpg"",""time"":452},{""stimulus"":""img/green_ll/10.jpg"",""time"":501},{""stimulus"":""img/green_ll/11.jpg"",""time"":552}]","[]"
"image-keyboard-response","127","177484","0.0-5.0-1.61","63e576170eb086a90644efb4","bdp_lott","Sat Mar 25 2023 18:46:34 GMT-0400 (Eastern Daylight Time)","344580","green","red","","","","choice","","","454","","img/green_ll/choose11.jpg","1","164","green","0.5","0.5","0.5","l","",""
"animation","128","178085","0.0-5.0-2.61","63e576170eb086a90644efb4","bdp_lott","Sat Mar 25 2023 18:46:34 GMT-0400 (Eastern Daylight Time)","344580","green","red","","","","","","","","","","","164","","","","","","[{""stimulus"":""img/green_ll/1.jpg"",""time"":51},{""stimulus"":""img/green_ll/2.jpg"",""time"":101},{""stimulus"":""img/green_ll/3.jpg"",""time"":151},{""stimulus"":""img/green_ll/4.jpg"",""time"":201},{""stimulus"":""img/green_ll/5.jpg"",""time"":251},{""stimulus"":""img/green_ll/6.jpg"",""time"":301},{""stimulus"":""img/green_ll/7.jpg"",""time"":350},{""stimulus"":""img/green_ll/8.jpg"",""time"":400},{""stimulus"":""img/green_ll/9.jpg"",""time"":451},{""stimulus"":""img/green_ll/10.jpg"",""time"":501},{""stimulus"":""img/green_ll/11.jpg"",""time"":551}]","[]"
"image-keyboard-response","129","178524","0.0-5.0-1.62","63e576170eb086a90644efb4","bdp_lott","Sat Mar 25 2023 18:46:34 GMT-0400 (Eastern Daylight Time)","344580","green","red","","","","choice","","","437","","img/green_ll/choose11.jpg","1","163","green","0.5","0.5","0.5","l","",""
"animation","130","179126","0.0-5.0-2.62","63e576170eb086a90644efb4","bdp_lott","Sat Mar 25 2023 18:46:34 GMT-0400 (Eastern Daylight Time)","344580","green","red","","","","","","","","","","","163","","","","","","[{""stimulus"":""img/green_ll/1.jpg"",""time"":52},{""stimulus"":""img/green_ll/2.jpg"",""time"":101},{""stimulus"":""img/green_ll/3.jpg"",""time"":151},{""stimulus"":""img/green_ll/4.jpg"",""time"":202},{""stimulus"":""img/green_ll/5.jpg"",""time"":251},{""stimulus"":""img/green_ll/6.jpg"",""time"":301},{""stimulus"":""img/green_ll/7.jpg"",""time"":351},{""stimulus"":""img/green_ll/8.jpg"",""time"":402},{""stimulus"":""img/green_ll/9.jpg"",""time"":451},{""stimulus"":""img/green_ll/10.jpg"",""time"":501},{""stimulus"":""img/green_ll/11.jpg"",""time"":551}]","[]"
"image-keyboard-response","131","179986","0.0-5.0-1.63","63e576170eb086a90644efb4","bdp_lott","Sat Mar 25 2023 18:46:34 GMT-0400 (Eastern Daylight Time)","344580","green","red","","","","choice","","","859","","img/green_ll/choose11.jpg","1","162","green","0.5","0.5","0.5","l","",""
"animation","132","180588","0.0-5.0-2.63","63e576170eb086a90644efb4","bdp_lott","Sat Mar 25 2023 18:46:34 GMT-0400 (Eastern Daylight Time)","344580","green","red","","","","","","","","","","","162","","","","","","[{""stimulus"":""img/green_ll/1.jpg"",""time"":51},{""stimulus"":""img/green_ll/2.jpg"",""time"":102},{""stimulus"":""img/green_ll/3.jpg"",""time"":152},{""stimulus"":""img/green_ll/4.jpg"",""time"":201},{""stimulus"":""img/green_ll/5.jpg"",""time"":252},{""stimulus"":""img/green_ll/6.jpg"",""time"":302},{""stimulus"":""img/green_ll/7.jpg"",""time"":351},{""stimulus"":""img/green_ll/8.jpg"",""time"":402},{""stimulus"":""img/green_ll/9.jpg"",""time"":452},{""stimulus"":""img/green_ll/10.jpg"",""time"":502},{""stimulus"":""img/green_ll/11.jpg"",""time"":552}]","[]"
"image-keyboard-response","133","180999","0.0-5.0-1.64","63e576170eb086a90644efb4","bdp_lott","Sat Mar 25 2023 18:46:34 GMT-0400 (Eastern Daylight Time)","344580","green","red","","","","choice","","","411","","img/green_ll/choose11.jpg","2","161","red","0.5","0.5","0.5","l","",""
"animation","134","181601","0.0-5.0-2.64","63e576170eb086a90644efb4","bdp_lott","Sat Mar 25 2023 18:46:34 GMT-0400 (Eastern Daylight Time)","344580","green","red","","","","","","","","","","","161","","","","","","[{""stimulus"":""img/red_ll/1.jpg"",""time"":51},{""stimulus"":""img/red_ll/2.jpg"",""time"":100},{""stimulus"":""img/red_ll/3.jpg"",""time"":150},{""stimulus"":""img/red_ll/4.jpg"",""time"":201},{""stimulus"":""img/red_ll/5.jpg"",""time"":251},{""stimulus"":""img/red_ll/6.jpg"",""time"":301},{""stimulus"":""img/red_ll/7.jpg"",""time"":351},{""stimulus"":""img/red_ll/8.jpg"",""time"":402},{""stimulus"":""img/red_ll/9.jpg"",""time"":451},{""stimulus"":""img/red_ll/10.jpg"",""time"":501},{""stimulus"":""img/red_ll/11.jpg"",""time"":551}]","[]"
"image-keyboard-response","135","181898","0.0-5.0-1.65","63e576170eb086a90644efb4","bdp_lott","Sat Mar 25 2023 18:46:34 GMT-0400 (Eastern Daylight Time)","344580","green","red","","","","choice","","","296","","img/red_ll/choose11.jpg","2","160","red","0.5","0.5","0.5","l","",""
"animation","136","182499","0.0-5.0-2.65","63e576170eb086a90644efb4","bdp_lott","Sat Mar 25 2023 18:46:34 GMT-0400 (Eastern Daylight Time)","344580","green","red","","","","","","","","","","","160","","","","","","[{""stimulus"":""img/red_ll/1.jpg"",""time"":52},{""stimulus"":""img/red_ll/2.jpg"",""time"":101},{""stimulus"":""img/red_ll/3.jpg"",""time"":150},{""stimulus"":""img/red_ll/4.jpg"",""time"":200},{""stimulus"":""img/red_ll/5.jpg"",""time"":251},{""stimulus"":""img/red_ll/6.jpg"",""time"":301},{""stimulus"":""img/red_ll/7.jpg"",""time"":350},{""stimulus"":""img/red_ll/8.jpg"",""time"":401},{""stimulus"":""img/red_ll/9.jpg"",""time"":451},{""stimulus"":""img/red_ll/10.jpg"",""time"":501},{""stimulus"":""img/red_ll/11.jpg"",""time"":551}]","[]"
"image-keyboard-response","137","183023","0.0-5.0-1.66","63e576170eb086a90644efb4","bdp_lott","Sat Mar 25 2023 18:46:34 GMT-0400 (Eastern Daylight Time)","344580","green","red","","","","choice","","","524","","img/red_ll/choose11.jpg","1","159","green","0.5","0.5","0.5","w","",""
"animation","138","183625","0.0-5.0-2.66","63e576170eb086a90644efb4","bdp_lott","Sat Mar 25 2023 18:46:34 GMT-0400 (Eastern Daylight Time)","344580","green","red","","","","","","","","","","","159","","","","","","[{""stimulus"":""img/green_wl/1.jpg"",""time"":52},{""stimulus"":""img/green_wl/2.jpg"",""time"":101},{""stimulus"":""img/green_wl/3.jpg"",""time"":152},{""stimulus"":""img/green_wl/4.jpg"",""time"":202},{""stimulus"":""img/green_wl/5.jpg"",""time"":251},{""stimulus"":""img/green_wl/6.jpg"",""time"":301},{""stimulus"":""img/green_wl/7.jpg"",""time"":351},{""stimulus"":""img/green_wl/8.jpg"",""time"":401},{""stimulus"":""img/green_wl/9.jpg"",""time"":450},{""stimulus"":""img/green_wl/10.jpg"",""time"":500},{""stimulus"":""img/green_wl/11.jpg"",""time"":551}]","[]"
"image-keyboard-response","139","184096","0.0-5.0-1.67","63e576170eb086a90644efb4","bdp_lott","Sat Mar 25 2023 18:46:34 GMT-0400 (Eastern Daylight Time)","344580","green","red","","","","choice","","","470","","img/green_wl/choose11.jpg","1","158","green","0.5","0.5","0.5","l","",""
"animation","140","184698","0.0-5.0-2.67","63e576170eb086a90644efb4","bdp_lott","Sat Mar 25 2023 18:46:34 GMT-0400 (Eastern Daylight Time)","344580","green","red","","","","","","","","","","","158","","","","","","[{""stimulus"":""img/green_ll/1.jpg"",""time"":52},{""stimulus"":""img/green_ll/2.jpg"",""time"":100},{""stimulus"":""img/green_ll/3.jpg"",""time"":151},{""stimulus"":""img/green_ll/4.jpg"",""time"":200},{""stimulus"":""img/green_ll/5.jpg"",""time"":252},{""stimulus"":""img/green_ll/6.jpg"",""time"":301},{""stimulus"":""img/green_ll/7.jpg"",""time"":352},{""stimulus"":""img/green_ll/8.jpg"",""time"":402},{""stimulus"":""img/green_ll/9.jpg"",""time"":451},{""stimulus"":""img/green_ll/10.jpg"",""time"":501},{""stimulus"":""img/green_ll/11.jpg"",""time"":550}]","[]"
"image-keyboard-response","141","185195","0.0-5.0-1.68","63e576170eb086a90644efb4","bdp_lott","Sat Mar 25 2023 18:46:34 GMT-0400 (Eastern Daylight Time)","344580","green","red","","","","choice","","","496","","img/green_ll/choose11.jpg","2","157","red","0.5","0.5","0.5","w","",""
"animation","142","185796","0.0-5.0-2.68","63e576170eb086a90644efb4","bdp_lott","Sat Mar 25 2023 18:46:34 GMT-0400 (Eastern Daylight Time)","344580","green","red","","","","","","","","","","","157","","","","","","[{""stimulus"":""img/red_lw/1.jpg"",""time"":51},{""stimulus"":""img/red_lw/2.jpg"",""time"":100},{""stimulus"":""img/red_lw/3.jpg"",""time"":151},{""stimulus"":""img/red_lw/4.jpg"",""time"":200},{""stimulus"":""img/red_lw/5.jpg"",""time"":251},{""stimulus"":""img/red_lw/6.jpg"",""time"":301},{""stimulus"":""img/red_lw/7.jpg"",""time"":351},{""stimulus"":""img/red_lw/8.jpg"",""time"":401},{""stimulus"":""img/red_lw/9.jpg"",""time"":451},{""stimulus"":""img/red_lw/10.jpg"",""time"":500},{""stimulus"":""img/red_lw/11.jpg"",""time"":550}]","[]"
"image-keyboard-response","143","186142","0.0-5.0-1.69","63e576170eb086a90644efb4","bdp_lott","Sat Mar 25 2023 18:46:34 GMT-0400 (Eastern Daylight Time)","344580","green","red","","","","choice","","","345","","img/red_lw/choose11.jpg","2","156","red","0.5","0.5","0.5","w","",""
"animation","144","186744","0.0-5.0-2.69","63e576170eb086a90644efb4","bdp_lott","Sat Mar 25 2023 18:46:34 GMT-0400 (Eastern Daylight Time)","344580","green","red","","","","","","","","","","","156","","","","","","[{""stimulus"":""img/red_lw/1.jpg"",""time"":51},{""stimulus"":""img/red_lw/2.jpg"",""time"":101},{""stimulus"":""img/red_lw/3.jpg"",""time"":151},{""stimulus"":""img/red_lw/4.jpg"",""time"":201},{""stimulus"":""img/red_lw/5.jpg"",""time"":251},{""stimulus"":""img/red_lw/6.jpg"",""time"":300},{""stimulus"":""img/red_lw/7.jpg"",""time"":351},{""stimulus"":""img/red_lw/8.jpg"",""time"":401},{""stimulus"":""img/red_lw/9.jpg"",""time"":450},{""stimulus"":""img/red_lw/10.jpg"",""time"":501},{""stimulus"":""img/red_lw/11.jpg"",""time"":551}]","[]"
"image-keyboard-response","145","187055","0.0-5.0-1.70","63e576170eb086a90644efb4","bdp_lott","Sat Mar 25 2023 18:46:34 GMT-0400 (Eastern Daylight Time)","344580","green","red","","","","choice","","","310","","img/red_lw/choose11.jpg","2","155","red","0.5","0.5","0.5","w","",""
"animation","146","187657","0.0-5.0-2.70","63e576170eb086a90644efb4","bdp_lott","Sat Mar 25 2023 18:46:34 GMT-0400 (Eastern Daylight Time)","344580","green","red","","","","","","","","","","","155","","","","","","[{""stimulus"":""img/red_lw/1.jpg"",""time"":52},{""stimulus"":""img/red_lw/2.jpg"",""time"":102},{""stimulus"":""img/red_lw/3.jpg"",""time"":152},{""stimulus"":""img/red_lw/4.jpg"",""time"":200},{""stimulus"":""img/red_lw/5.jpg"",""time"":250},{""stimulus"":""img/red_lw/6.jpg"",""time"":301},{""stimulus"":""img/red_lw/7.jpg"",""time"":351},{""stimulus"":""img/red_lw/8.jpg"",""time"":400},{""stimulus"":""img/red_lw/9.jpg"",""time"":451},{""stimulus"":""img/red_lw/10.jpg"",""time"":501},{""stimulus"":""img/red_lw/11.jpg"",""time"":551}]","[]"
"image-keyboard-response","147","187946","0.0-5.0-1.71","63e576170eb086a90644efb4","bdp_lott","Sat Mar 25 2023 18:46:34 GMT-0400 (Eastern Daylight Time)","344580","green","red","","","","choice","","","288","","img/red_lw/choose11.jpg","2","154","red","0.5","0.5","0.5","w","",""
"animation","148","188548","0.0-5.0-2.71","63e576170eb086a90644efb4","bdp_lott","Sat Mar 25 2023 18:46:34 GMT-0400 (Eastern Daylight Time)","344580","green","red","","","","","","","","","","","154","","","","","","[{""stimulus"":""img/red_lw/1.jpg"",""time"":52},{""stimulus"":""img/red_lw/2.jpg"",""time"":102},{""stimulus"":""img/red_lw/3.jpg"",""time"":151},{""stimulus"":""img/red_lw/4.jpg"",""time"":201},{""stimulus"":""img/red_lw/5.jpg"",""time"":251},{""stimulus"":""img/red_lw/6.jpg"",""time"":302},{""stimulus"":""img/red_lw/7.jpg"",""time"":351},{""stimulus"":""img/red_lw/8.jpg"",""time"":401},{""stimulus"":""img/red_lw/9.jpg"",""time"":450},{""stimulus"":""img/red_lw/10.jpg"",""time"":501},{""stimulus"":""img/red_lw/11.jpg"",""time"":550}]","[]"
"image-keyboard-response","149","188801","0.0-5.0-1.72","63e576170eb086a90644efb4","bdp_lott","Sat Mar 25 2023 18:46:34 GMT-0400 (Eastern Daylight Time)","344580","green","red","","","","choice","","","252","","img/red_lw/choose11.jpg","2","153","red","0.5","0.5","0.5","w","",""
"animation","150","189402","0.0-5.0-2.72","63e576170eb086a90644efb4","bdp_lott","Sat Mar 25 2023 18:46:34 GMT-0400 (Eastern Daylight Time)","344580","green","red","","","","","","","","","","","153","","","","","","[{""stimulus"":""img/red_lw/1.jpg"",""time"":51},{""stimulus"":""img/red_lw/2.jpg"",""time"":102},{""stimulus"":""img/red_lw/3.jpg"",""time"":151},{""stimulus"":""img/red_lw/4.jpg"",""time"":202},{""stimulus"":""img/red_lw/5.jpg"",""time"":252},{""stimulus"":""img/red_lw/6.jpg"",""time"":302},{""stimulus"":""img/red_lw/7.jpg"",""time"":351},{""stimulus"":""img/red_lw/8.jpg"",""time"":401},{""stimulus"":""img/red_lw/9.jpg"",""time"":451},{""stimulus"":""img/red_lw/10.jpg"",""time"":502},{""stimulus"":""img/red_lw/11.jpg"",""time"":552}]","[]"
"image-keyboard-response","151","189692","0.0-5.0-1.73","63e576170eb086a90644efb4","bdp_lott","Sat Mar 25 2023 18:46:34 GMT-0400 (Eastern Daylight Time)","344580","green","red","","","","choice","","","289","","img/red_lw/choose11.jpg","2","152","red","0.5","0.5","0.5","l","",""
"animation","152","190293","0.0-5.0-2.73","63e576170eb086a90644efb4","bdp_lott","Sat Mar 25 2023 18:46:34 GMT-0400 (Eastern Daylight Time)","344580","green","red","","","","","","","","","","","152","","","","","","[{""stimulus"":""img/red_ll/1.jpg"",""time"":53},{""stimulus"":""img/red_ll/2.jpg"",""time"":101},{""stimulus"":""img/red_ll/3.jpg"",""time"":151},{""stimulus"":""img/red_ll/4.jpg"",""time"":202},{""stimulus"":""img/red_ll/5.jpg"",""time"":252},{""stimulus"":""img/red_ll/6.jpg"",""time"":302},{""stimulus"":""img/red_ll/7.jpg"",""time"":351},{""stimulus"":""img/red_ll/8.jpg"",""time"":401},{""stimulus"":""img/red_ll/9.jpg"",""time"":451},{""stimulus"":""img/red_ll/10.jpg"",""time"":501},{""stimulus"":""img/red_ll/11.jpg"",""time"":551}]","[]"
"image-keyboard-response","153","190774","0.0-5.0-1.74","63e576170eb086a90644efb4","bdp_lott","Sat Mar 25 2023 18:46:34 GMT-0400 (Eastern Daylight Time)","344580","green","red","","","","choice","","","480","","img/red_ll/choose11.jpg","1","151","green","0.5","0.5","0.5","w","",""
"animation","154","191376","0.0-5.0-2.74","63e576170eb086a90644efb4","bdp_lott","Sat Mar 25 2023 18:46:34 GMT-0400 (Eastern Daylight Time)","344580","green","red","","","","","","","","","","","151","","","","","","[{""stimulus"":""img/green_wl/1.jpg"",""time"":51},{""stimulus"":""img/green_wl/2.jpg"",""time"":102},{""stimulus"":""img/green_wl/3.jpg"",""time"":151},{""stimulus"":""img/green_wl/4.jpg"",""time"":202},{""stimulus"":""img/green_wl/5.jpg"",""time"":252},{""stimulus"":""img/green_wl/6.jpg"",""time"":301},{""stimulus"":""img/green_wl/7.jpg"",""time"":351},{""stimulus"":""img/green_wl/8.jpg"",""time"":402},{""stimulus"":""img/green_wl/9.jpg"",""time"":451},{""stimulus"":""img/green_wl/10.jpg"",""time"":502},{""stimulus"":""img/green_wl/11.jpg"",""time"":551}]","[]"
"image-keyboard-response","155","191664","0.0-5.0-1.75","63e576170eb086a90644efb4","bdp_lott","Sat Mar 25 2023 18:46:34 GMT-0400 (Eastern Daylight Time)","344580","green","red","","","","choice","","","288","","img/green_wl/choose11.jpg","1","150","green","0.5","0.5","0.5","l","",""
"animation","156","192266","0.0-5.0-2.75","63e576170eb086a90644efb4","bdp_lott","Sat Mar 25 2023 18:46:34 GMT-0400 (Eastern Daylight Time)","344580","green","red","","","","","","","","","","","150","","","","","","[{""stimulus"":""img/green_ll/1.jpg"",""time"":53},{""stimulus"":""img/green_ll/2.jpg"",""time"":101},{""stimulus"":""img/green_ll/3.jpg"",""time"":151},{""stimulus"":""img/green_ll/4.jpg"",""time"":202},{""stimulus"":""img/green_ll/5.jpg"",""time"":252},{""stimulus"":""img/green_ll/6.jpg"",""time"":302},{""stimulus"":""img/green_ll/7.jpg"",""time"":351},{""stimulus"":""img/green_ll/8.jpg"",""time"":402},{""stimulus"":""img/green_ll/9.jpg"",""time"":452},{""stimulus"":""img/green_ll/10.jpg"",""time"":501},{""stimulus"":""img/green_ll/11.jpg"",""time"":552}]","[]"
"image-keyboard-response","157","192816","0.0-5.0-1.76","63e576170eb086a90644efb4","bdp_lott","Sat Mar 25 2023 18:46:34 GMT-0400 (Eastern Daylight Time)","344580","green","red","","","","choice","","","549","","img/green_ll/choose11.jpg","2","149","red","0.5","0.1","0.1","w","",""
"animation","158","193418","0.0-5.0-2.76","63e576170eb086a90644efb4","bdp_lott","Sat Mar 25 2023 18:46:34 GMT-0400 (Eastern Daylight Time)","344580","green","red","","","","","","","","","","","149","","","","","","[{""stimulus"":""img/red_lw/1.jpg"",""time"":52},{""stimulus"":""img/red_lw/2.jpg"",""time"":101},{""stimulus"":""img/red_lw/3.jpg"",""time"":152},{""stimulus"":""img/red_lw/4.jpg"",""time"":201},{""stimulus"":""img/red_lw/5.jpg"",""time"":252},{""stimulus"":""img/red_lw/6.jpg"",""time"":301},{""stimulus"":""img/red_lw/7.jpg"",""time"":352},{""stimulus"":""img/red_lw/8.jpg"",""time"":402},{""stimulus"":""img/red_lw/9.jpg"",""time"":452},{""stimulus"":""img/red_lw/10.jpg"",""time"":502},{""stimulus"":""img/red_lw/11.jpg"",""time"":552}]","[]"
"image-keyboard-response","159","193716","0.0-5.0-1.77","63e576170eb086a90644efb4","bdp_lott","Sat Mar 25 2023 18:46:34 GMT-0400 (Eastern Daylight Time)","344580","green","red","","","","choice","","","298","","img/red_lw/choose11.jpg","2","148","red","0.5","0.1","0.1","l","",""
"animation","160","194317","0.0-5.0-2.77","63e576170eb086a90644efb4","bdp_lott","Sat Mar 25 2023 18:46:34 GMT-0400 (Eastern Daylight Time)","344580","green","red","","","","","","","","","","","148","","","","","","[{""stimulus"":""img/red_ll/1.jpg"",""time"":52},{""stimulus"":""img/red_ll/2.jpg"",""time"":101},{""stimulus"":""img/red_ll/3.jpg"",""time"":152},{""stimulus"":""img/red_ll/4.jpg"",""time"":201},{""stimulus"":""img/red_ll/5.jpg"",""time"":251},{""stimulus"":""img/red_ll/6.jpg"",""time"":302},{""stimulus"":""img/red_ll/7.jpg"",""time"":352},{""stimulus"":""img/red_ll/8.jpg"",""time"":402},{""stimulus"":""img/red_ll/9.jpg"",""time"":451},{""stimulus"":""img/red_ll/10.jpg"",""time"":502},{""stimulus"":""img/red_ll/11.jpg"",""time"":551}]","[]"
"image-keyboard-response","161","194719","0.0-5.0-1.78","63e576170eb086a90644efb4","bdp_lott","Sat Mar 25 2023 18:46:34 GMT-0400 (Eastern Daylight Time)","344580","green","red","","","","choice","","","401","","img/red_ll/choose11.jpg","1","147","green","0.5","0.1","0.5","l","",""
"animation","162","195321","0.0-5.0-2.78","63e576170eb086a90644efb4","bdp_lott","Sat Mar 25 2023 18:46:34 GMT-0400 (Eastern Daylight Time)","344580","green","red","","","","","","","","","","","147","","","","","","[{""stimulus"":""img/green_ll/1.jpg"",""time"":52},{""stimulus"":""img/green_ll/2.jpg"",""time"":101},{""stimulus"":""img/green_ll/3.jpg"",""time"":152},{""stimulus"":""img/green_ll/4.jpg"",""time"":201},{""stimulus"":""img/green_ll/5.jpg"",""time"":251},{""stimulus"":""img/green_ll/6.jpg"",""time"":301},{""stimulus"":""img/green_ll/7.jpg"",""time"":351},{""stimulus"":""img/green_ll/8.jpg"",""time"":401},{""stimulus"":""img/green_ll/9.jpg"",""time"":452},{""stimulus"":""img/green_ll/10.jpg"",""time"":501},{""stimulus"":""img/green_ll/11.jpg"",""time"":551}]","[]"
"image-keyboard-response","163","195802","0.0-5.0-1.79","63e576170eb086a90644efb4","bdp_lott","Sat Mar 25 2023 18:46:34 GMT-0400 (Eastern Daylight Time)","344580","green","red","","","","choice","","","480","","img/green_ll/choose11.jpg","2","146","red","0.5","0.1","0.1","l","",""
"animation","164","196403","0.0-5.0-2.79","63e576170eb086a90644efb4","bdp_lott","Sat Mar 25 2023 18:46:34 GMT-0400 (Eastern Daylight Time)","344580","green","red","","","","","","","","","","","146","","","","","","[{""stimulus"":""img/red_ll/1.jpg"",""time"":52},{""stimulus"":""img/red_ll/2.jpg"",""time"":101},{""stimulus"":""img/red_ll/3.jpg"",""time"":151},{""stimulus"":""img/red_ll/4.jpg"",""time"":201},{""stimulus"":""img/red_ll/5.jpg"",""time"":251},{""stimulus"":""img/red_ll/6.jpg"",""time"":302},{""stimulus"":""img/red_ll/7.jpg"",""time"":351},{""stimulus"":""img/red_ll/8.jpg"",""time"":400},{""stimulus"":""img/red_ll/9.jpg"",""time"":450},{""stimulus"":""img/red_ll/10.jpg"",""time"":501},{""stimulus"":""img/red_ll/11.jpg"",""time"":550}]","[]"
"image-keyboard-response","165","196857","0.0-5.0-1.80","63e576170eb086a90644efb4","bdp_lott","Sat Mar 25 2023 18:46:34 GMT-0400 (Eastern Daylight Time)","344580","green","red","","","","choice","","","453","","img/red_ll/choose11.jpg","1","145","green","0.5","0.1","0.5","w","",""
"animation","166","197459","0.0-5.0-2.80","63e576170eb086a90644efb4","bdp_lott","Sat Mar 25 2023 18:46:34 GMT-0400 (Eastern Daylight Time)","344580","green","red","","","","","","","","","","","145","","","","","","[{""stimulus"":""img/green_wl/1.jpg"",""time"":52},{""stimulus"":""img/green_wl/2.jpg"",""time"":102},{""stimulus"":""img/green_wl/3.jpg"",""time"":150},{""stimulus"":""img/green_wl/4.jpg"",""time"":201},{""stimulus"":""img/green_wl/5.jpg"",""time"":250},{""stimulus"":""img/green_wl/6.jpg"",""time"":301},{""stimulus"":""img/green_wl/7.jpg"",""time"":351},{""stimulus"":""img/green_wl/8.jpg"",""time"":402},{""stimulus"":""img/green_wl/9.jpg"",""time"":451},{""stimulus"":""img/green_wl/10.jpg"",""time"":501},{""stimulus"":""img/green_wl/11.jpg"",""time"":551}]","[]"
"image-keyboard-response","167","197816","0.0-5.0-1.81","63e576170eb086a90644efb4","bdp_lott","Sat Mar 25 2023 18:46:34 GMT-0400 (Eastern Daylight Time)","344580","green","red","","","","choice","","","357","","img/green_wl/choose11.jpg","1","144","green","0.5","0.1","0.5","w","",""
"animation","168","198418","0.0-5.0-2.81","63e576170eb086a90644efb4","bdp_lott","Sat Mar 25 2023 18:46:34 GMT-0400 (Eastern Daylight Time)","344580","green","red","","","","","","","","","","","144","","","","","","[{""stimulus"":""img/green_wl/1.jpg"",""time"":51},{""stimulus"":""img/green_wl/2.jpg"",""time"":102},{""stimulus"":""img/green_wl/3.jpg"",""time"":152},{""stimulus"":""img/green_wl/4.jpg"",""time"":202},{""stimulus"":""img/green_wl/5.jpg"",""time"":252},{""stimulus"":""img/green_wl/6.jpg"",""time"":302},{""stimulus"":""img/green_wl/7.jpg"",""time"":352},{""stimulus"":""img/green_wl/8.jpg"",""time"":402},{""stimulus"":""img/green_wl/9.jpg"",""time"":452},{""stimulus"":""img/green_wl/10.jpg"",""time"":502},{""stimulus"":""img/green_wl/11.jpg"",""time"":552}]","[]"
"image-keyboard-response","169","198707","0.0-5.0-1.82","63e576170eb086a90644efb4","bdp_lott","Sat Mar 25 2023 18:46:34 GMT-0400 (Eastern Daylight Time)","344580","green","red","","","","choice","","","288","","img/green_wl/choose11.jpg","1","143","green","0.5","0.1","0.5","l","",""
"animation","170","199308","0.0-5.0-2.82","63e576170eb086a90644efb4","bdp_lott","Sat Mar 25 2023 18:46:34 GMT-0400 (Eastern Daylight Time)","344580","green","red","","","","","","","","","","","143","","","","","","[{""stimulus"":""img/green_ll/1.jpg"",""time"":53},{""stimulus"":""img/green_ll/2.jpg"",""time"":101},{""stimulus"":""img/green_ll/3.jpg"",""time"":152},{""stimulus"":""img/green_ll/4.jpg"",""time"":202},{""stimulus"":""img/green_ll/5.jpg"",""time"":252},{""stimulus"":""img/green_ll/6.jpg"",""time"":302},{""stimulus"":""img/green_ll/7.jpg"",""time"":352},{""stimulus"":""img/green_ll/8.jpg"",""time"":402},{""stimulus"":""img/green_ll/9.jpg"",""time"":452},{""stimulus"":""img/green_ll/10.jpg"",""time"":502},{""stimulus"":""img/green_ll/11.jpg"",""time"":553}]","[]"
"image-keyboard-response","171","199911","0.0-5.0-1.83","63e576170eb086a90644efb4","bdp_lott","Sat Mar 25 2023 18:46:34 GMT-0400 (Eastern Daylight Time)","344580","green","red","","","","choice","","","602","","img/green_ll/choose11.jpg","2","142","red","0.5","0.1","0.1","l","",""
"animation","172","200513","0.0-5.0-2.83","63e576170eb086a90644efb4","bdp_lott","Sat Mar 25 2023 18:46:34 GMT-0400 (Eastern Daylight Time)","344580","green","red","","","","","","","","","","","142","","","","","","[{""stimulus"":""img/red_ll/1.jpg"",""time"":52},{""stimulus"":""img/red_ll/2.jpg"",""time"":102},{""stimulus"":""img/red_ll/3.jpg"",""time"":152},{""stimulus"":""img/red_ll/4.jpg"",""time"":201},{""stimulus"":""img/red_ll/5.jpg"",""time"":252},{""stimulus"":""img/red_ll/6.jpg"",""time"":301},{""stimulus"":""img/red_ll/7.jpg"",""time"":351},{""stimulus"":""img/red_ll/8.jpg"",""time"":402},{""stimulus"":""img/red_ll/9.jpg"",""time"":451},{""stimulus"":""img/red_ll/10.jpg"",""time"":502},{""stimulus"":""img/red_ll/11.jpg"",""time"":551}]","[]"
"image-keyboard-response","173","201044","0.0-5.0-1.84","63e576170eb086a90644efb4","bdp_lott","Sat Mar 25 2023 18:46:34 GMT-0400 (Eastern Daylight Time)","344580","green","red","","","","choice","","","530","","img/red_ll/choose11.jpg","2","141","red","0.5","0.1","0.1","l","",""
"animation","174","201645","0.0-5.0-2.84","63e576170eb086a90644efb4","bdp_lott","Sat Mar 25 2023 18:46:34 GMT-0400 (Eastern Daylight Time)","344580","green","red","","","","","","","","","","","141","","","","","","[{""stimulus"":""img/red_ll/1.jpg"",""time"":51},{""stimulus"":""img/red_ll/2.jpg"",""time"":101},{""stimulus"":""img/red_ll/3.jpg"",""time"":151},{""stimulus"":""img/red_ll/4.jpg"",""time"":201},{""stimulus"":""img/red_ll/5.jpg"",""time"":251},{""stimulus"":""img/red_ll/6.jpg"",""time"":302},{""stimulus"":""img/red_ll/7.jpg"",""time"":351},{""stimulus"":""img/red_ll/8.jpg"",""time"":401},{""stimulus"":""img/red_ll/9.jpg"",""time"":451},{""stimulus"":""img/red_ll/10.jpg"",""time"":501},{""stimulus"":""img/red_ll/11.jpg"",""time"":551}]","[]"
"image-keyboard-response","175","202187","0.0-5.0-1.85","63e576170eb086a90644efb4","bdp_lott","Sat Mar 25 2023 18:46:34 GMT-0400 (Eastern Daylight Time)","344580","green","red","","","","choice","","","541","","img/red_ll/choose11.jpg","1","140","green","0.5","0.1","0.5","w","",""
"animation","176","202790","0.0-5.0-2.85","63e576170eb086a90644efb4","bdp_lott","Sat Mar 25 2023 18:46:34 GMT-0400 (Eastern Daylight Time)","344580","green","red","","","","","","","","","","","140","","","","","","[{""stimulus"":""img/green_wl/1.jpg"",""time"":50},{""stimulus"":""img/green_wl/2.jpg"",""time"":101},{""stimulus"":""img/green_wl/3.jpg"",""time"":152},{""stimulus"":""img/green_wl/4.jpg"",""time"":201},{""stimulus"":""img/green_wl/5.jpg"",""time"":251},{""stimulus"":""img/green_wl/6.jpg"",""time"":300},{""stimulus"":""img/green_wl/7.jpg"",""time"":351},{""stimulus"":""img/green_wl/8.jpg"",""time"":401},{""stimulus"":""img/green_wl/9.jpg"",""time"":450},{""stimulus"":""img/green_wl/10.jpg"",""time"":501},{""stimulus"":""img/green_wl/11.jpg"",""time"":551}]","[]"
"image-keyboard-response","177","203156","0.0-5.0-1.86","63e576170eb086a90644efb4","bdp_lott","Sat Mar 25 2023 18:46:34 GMT-0400 (Eastern Daylight Time)","344580","green","red","","","","choice","","","366","","img/green_wl/choose11.jpg","1","139","green","0.5","0.1","0.5","w","",""
"animation","178","203757","0.0-5.0-2.86","63e576170eb086a90644efb4","bdp_lott","Sat Mar 25 2023 18:46:34 GMT-0400 (Eastern Daylight Time)","344580","green","red","","","","","","","","","","","139","","","","","","[{""stimulus"":""img/green_wl/1.jpg"",""time"":51},{""stimulus"":""img/green_wl/2.jpg"",""time"":101},{""stimulus"":""img/green_wl/3.jpg"",""time"":152},{""stimulus"":""img/green_wl/4.jpg"",""time"":201},{""stimulus"":""img/green_wl/5.jpg"",""time"":251},{""stimulus"":""img/green_wl/6.jpg"",""time"":302},{""stimulus"":""img/green_wl/7.jpg"",""time"":352},{""stimulus"":""img/green_wl/8.jpg"",""time"":402},{""stimulus"":""img/green_wl/9.jpg"",""time"":452},{""stimulus"":""img/green_wl/10.jpg"",""time"":501},{""stimulus"":""img/green_wl/11.jpg"",""time"":551}]","[]"
"image-keyboard-response","179","204071","0.0-5.0-1.87","63e576170eb086a90644efb4","bdp_lott","Sat Mar 25 2023 18:46:34 GMT-0400 (Eastern Daylight Time)","344580","green","red","","","","choice","","","313","","img/green_wl/choose11.jpg","1","138","green","0.5","0.1","0.5","l","",""
"animation","180","204673","0.0-5.0-2.87","63e576170eb086a90644efb4","bdp_lott","Sat Mar 25 2023 18:46:34 GMT-0400 (Eastern Daylight Time)","344580","green","red","","","","","","","","","","","138","","","","","","[{""stimulus"":""img/green_ll/1.jpg"",""time"":51},{""stimulus"":""img/green_ll/2.jpg"",""time"":100},{""stimulus"":""img/green_ll/3.jpg"",""time"":151},{""stimulus"":""img/green_ll/4.jpg"",""time"":200},{""stimulus"":""img/green_ll/5.jpg"",""time"":251},{""stimulus"":""img/green_ll/6.jpg"",""time"":301},{""stimulus"":""img/green_ll/7.jpg"",""time"":351},{""stimulus"":""img/green_ll/8.jpg"",""time"":402},{""stimulus"":""img/green_ll/9.jpg"",""time"":451},{""stimulus"":""img/green_ll/10.jpg"",""time"":501},{""stimulus"":""img/green_ll/11.jpg"",""time"":551}]","[]"
"image-keyboard-response","181","205691","0.0-5.0-1.88","63e576170eb086a90644efb4","bdp_lott","Sat Mar 25 2023 18:46:34 GMT-0400 (Eastern Daylight Time)","344580","green","red","","","","choice","","","1017","","img/green_ll/choose11.jpg","2","137","red","0.5","0.1","0.1","l","",""
"animation","182","206292","0.0-5.0-2.88","63e576170eb086a90644efb4","bdp_lott","Sat Mar 25 2023 18:46:34 GMT-0400 (Eastern Daylight Time)","344580","green","red","","","","","","","","","","","137","","","","","","[{""stimulus"":""img/red_ll/1.jpg"",""time"":52},{""stimulus"":""img/red_ll/2.jpg"",""time"":102},{""stimulus"":""img/red_ll/3.jpg"",""time"":151},{""stimulus"":""img/red_ll/4.jpg"",""time"":201},{""stimulus"":""img/red_ll/5.jpg"",""time"":252},{""stimulus"":""img/red_ll/6.jpg"",""time"":301},{""stimulus"":""img/red_ll/7.jpg"",""time"":352},{""stimulus"":""img/red_ll/8.jpg"",""time"":402},{""stimulus"":""img/red_ll/9.jpg"",""time"":452},{""stimulus"":""img/red_ll/10.jpg"",""time"":502},{""stimulus"":""img/red_ll/11.jpg"",""time"":551}]","[]"
"image-keyboard-response","183","206687","0.0-5.0-1.89","63e576170eb086a90644efb4","bdp_lott","Sat Mar 25 2023 18:46:34 GMT-0400 (Eastern Daylight Time)","344580","green","red","","","","choice","","","394","","img/red_ll/choose11.jpg","1","136","green","0.5","0.1","0.5","l","",""
"animation","184","207288","0.0-5.0-2.89","63e576170eb086a90644efb4","bdp_lott","Sat Mar 25 2023 18:46:34 GMT-0400 (Eastern Daylight Time)","344580","green","red","","","","","","","","","","","136","","","","","","[{""stimulus"":""img/green_ll/1.jpg"",""time"":51},{""stimulus"":""img/green_ll/2.jpg"",""time"":102},{""stimulus"":""img/green_ll/3.jpg"",""time"":150},{""stimulus"":""img/green_ll/4.jpg"",""time"":202},{""stimulus"":""img/green_ll/5.jpg"",""time"":251},{""stimulus"":""img/green_ll/6.jpg"",""time"":301},{""stimulus"":""img/green_ll/7.jpg"",""time"":352},{""stimulus"":""img/green_ll/8.jpg"",""time"":402},{""stimulus"":""img/green_ll/9.jpg"",""time"":452},{""stimulus"":""img/green_ll/10.jpg"",""time"":501},{""stimulus"":""img/green_ll/11.jpg"",""time"":552}]","[]"
"image-keyboard-response","185","207942","0.0-5.0-1.90","63e576170eb086a90644efb4","bdp_lott","Sat Mar 25 2023 18:46:34 GMT-0400 (Eastern Daylight Time)","344580","green","red","","","","choice","","","653","","img/green_ll/choose11.jpg","1","135","green","0.5","0.1","0.5","w","",""
"animation","186","208543","0.0-5.0-2.90","63e576170eb086a90644efb4","bdp_lott","Sat Mar 25 2023 18:46:34 GMT-0400 (Eastern Daylight Time)","344580","green","red","","","","","","","","","","","135","","","","","","[{""stimulus"":""img/green_wl/1.jpg"",""time"":52},{""stimulus"":""img/green_wl/2.jpg"",""time"":101},{""stimulus"":""img/green_wl/3.jpg"",""time"":151},{""stimulus"":""img/green_wl/4.jpg"",""time"":201},{""stimulus"":""img/green_wl/5.jpg"",""time"":251},{""stimulus"":""img/green_wl/6.jpg"",""time"":301},{""stimulus"":""img/green_wl/7.jpg"",""time"":352},{""stimulus"":""img/green_wl/8.jpg"",""time"":403},{""stimulus"":""img/green_wl/9.jpg"",""time"":453},{""stimulus"":""img/green_wl/10.jpg"",""time"":501},{""stimulus"":""img/green_wl/11.jpg"",""time"":552}]","[]"
"image-keyboard-response","187","208997","0.0-5.0-1.91","63e576170eb086a90644efb4","bdp_lott","Sat Mar 25 2023 18:46:34 GMT-0400 (Eastern Daylight Time)","344580","green","red","","","","choice","","","453","","img/green_wl/choose11.jpg","1","134","green","0.5","0.1","0.5","l","",""
"animation","188","209599","0.0-5.0-2.91","63e576170eb086a90644efb4","bdp_lott","Sat Mar 25 2023 18:46:34 GMT-0400 (Eastern Daylight Time)","344580","green","red","","","","","","","","","","","134","","","","","","[{""stimulus"":""img/green_ll/1.jpg"",""time"":52},{""stimulus"":""img/green_ll/2.jpg"",""time"":101},{""stimulus"":""img/green_ll/3.jpg"",""time"":152},{""stimulus"":""img/green_ll/4.jpg"",""time"":202},{""stimulus"":""img/green_ll/5.jpg"",""time"":252},{""stimulus"":""img/green_ll/6.jpg"",""time"":301},{""stimulus"":""img/green_ll/7.jpg"",""time"":352},{""stimulus"":""img/green_ll/8.jpg"",""time"":401},{""stimulus"":""img/green_ll/9.jpg"",""time"":453},{""stimulus"":""img/green_ll/10.jpg"",""time"":502},{""stimulus"":""img/green_ll/11.jpg"",""time"":553}]","[]"
"image-keyboard-response","189","210054","0.0-5.0-1.92","63e576170eb086a90644efb4","bdp_lott","Sat Mar 25 2023 18:46:34 GMT-0400 (Eastern Daylight Time)","344580","green","red","","","","choice","","","454","","img/green_ll/choose11.jpg","2","133","red","0.5","0.1","0.1","l","",""
