"trial_type","trial_index","time_elapsed","internal_node_id","subject_id","task","startTime","totalTime","fairMachine","unfairMachine","view_history","rt","event","trial","time","trialtype","success","stimulus","key_press","roundsLeft","chosen","pFairMachWin","pUnfairMachWin","pTrialWin","outcome","animation_sequence","responses"
"pavlovia","0","5","0.0-0.0","5fb7c9fa2be0a83d8f8913b8","bdp_lott","Sat Mar 25 2023 15:50:25 GMT-0700 (PDT)","308123","green","red","","","","","","","","","","","","","","","","",""
"instructions","1","3222","0.0-1.0","5fb7c9fa2be0a83d8f8913b8","bdp_lott","Sat Mar 25 2023 15:50:25 GMT-0700 (PDT)","308123","green","red","[{""page_index"":0,""viewing_time"":3216}]","3216","","","","","","","","","","","","","","",""
"","","","","5fb7c9fa2be0a83d8f8913b8","bdp_lott","Sat Mar 25 2023 15:50:25 GMT-0700 (PDT)","308123","green","red","","","fullscreenenter","2","8300","fullscreenenter","","","","","","","","","","",""
"fullscreen","2","9240","0.0-2.0","5fb7c9fa2be0a83d8f8913b8","bdp_lott","Sat Mar 25 2023 15:50:25 GMT-0700 (PDT)","308123","green","red","","","","","","","true","","","","","","","","","",""
"instructions","3","55561","0.0-4.0","5fb7c9fa2be0a83d8f8913b8","bdp_lott","Sat Mar 25 2023 15:50:25 GMT-0700 (PDT)","308123","green","red","[{""page_index"":0,""viewing_time"":46319}]","46320","","","","","","","","","","","","","","",""
"image-keyboard-response","4","57955","0.0-5.0-1.0","5fb7c9fa2be0a83d8f8913b8","bdp_lott","Sat Mar 25 2023 15:50:25 GMT-0700 (PDT)","308123","green","red","","2389","","","","choice","","img/red_ll/initchoose11.jpg","1","225","green","0.5","0.5","0.5","l","",""
"animation","5","58567","0.0-5.0-2.0","5fb7c9fa2be0a83d8f8913b8","bdp_lott","Sat Mar 25 2023 15:50:25 GMT-0700 (PDT)","308123","green","red","","","","","","","","","","225","","","","","","[{""stimulus"":""img/green_ll/1.jpg"",""time"":52},{""stimulus"":""img/green_ll/2.jpg"",""time"":103},{""stimulus"":""img/green_ll/3.jpg"",""time"":154},{""stimulus"":""img/green_ll/4.jpg"",""time"":204},{""stimulus"":""img/green_ll/5.jpg"",""time"":255},{""stimulus"":""img/green_ll/6.jpg"",""time"":306},{""stimulus"":""img/green_ll/7.jpg"",""time"":357},{""stimulus"":""img/green_ll/8.jpg"",""time"":408},{""stimulus"":""img/green_ll/9.jpg"",""time"":458},{""stimulus"":""img/green_ll/10.jpg"",""time"":509},{""stimulus"":""img/green_ll/11.jpg"",""time"":560}]","[]"
"image-keyboard-response","6","60077","0.0-5.0-1.1","5fb7c9fa2be0a83d8f8913b8","bdp_lott","Sat Mar 25 2023 15:50:25 GMT-0700 (PDT)","308123","green","red","","1509","","","","choice","","img/green_ll/choose11.jpg","2","224","red","0.5","0.5","0.5","w","",""
"animation","7","60685","0.0-5.0-2.1","5fb7c9fa2be0a83d8f8913b8","bdp_lott","Sat Mar 25 2023 15:50:25 GMT-0700 (PDT)","308123","green","red","","","","","","","","","","224","","","","","","[{""stimulus"":""img/red_lw/1.jpg"",""time"":51},{""stimulus"":""img/red_lw/2.jpg"",""time"":101},{""stimulus"":""img/red_lw/3.jpg"",""time"":153},{""stimulus"":""img/red_lw/4.jpg"",""time"":203},{""stimulus"":""img/red_lw/5.jpg"",""time"":253},{""stimulus"":""img/red_lw/6.jpg"",""time"":304},{""stimulus"":""img/red_lw/7.jpg"",""time"":354},{""stimulus"":""img/red_lw/8.jpg"",""time"":405},{""stimulus"":""img/red_lw/9.jpg"",""time"":455},{""stimulus"":""img/red_lw/10.jpg"",""time"":505},{""stimulus"":""img/red_lw/11.jpg"",""time"":557}]","[]"
"image-keyboard-response","8","61783","0.0-5.0-1.2","5fb7c9fa2be0a83d8f8913b8","bdp_lott","Sat Mar 25 2023 15:50:25 GMT-0700 (PDT)","308123","green","red","","1097","","","","choice","","img/red_lw/choose11.jpg","1","223","green","0.5","0.5","0.5","l","",""
"animation","9","62394","0.0-5.0-2.2","5fb7c9fa2be0a83d8f8913b8","bdp_lott","Sat Mar 25 2023 15:50:25 GMT-0700 (PDT)","308123","green","red","","","","","","","","","","223","","","","","","[{""stimulus"":""img/green_lw/1.jpg"",""time"":51},{""stimulus"":""img/green_lw/2.jpg"",""time"":102},{""stimulus"":""img/green_lw/3.jpg"",""time"":152},{""stimulus"":""img/green_lw/4.jpg"",""time"":202},{""stimulus"":""img/green_lw/5.jpg"",""time"":253},{""stimulus"":""img/green_lw/6.jpg"",""time"":305},{""stimulus"":""img/green_lw/7.jpg"",""time"":356},{""stimulus"":""img/green_lw/8.jpg"",""time"":406},{""stimulus"":""img/green_lw/9.jpg"",""time"":457},{""stimulus"":""img/green_lw/10.jpg"",""time"":509},{""stimulus"":""img/green_lw/11.jpg"",""time"":560}]","[]"
"image-keyboard-response","10","63516","0.0-5.0-1.3","5fb7c9fa2be0a83d8f8913b8","bdp_lott","Sat Mar 25 2023 15:50:25 GMT-0700 (PDT)","308123","green","red","","1122","","","","choice","","img/green_lw/choose11.jpg","2","222","red","0.5","0.5","0.5","l","",""
"animation","11","64125","0.0-5.0-2.3","5fb7c9fa2be0a83d8f8913b8","bdp_lott","Sat Mar 25 2023 15:50:25 GMT-0700 (PDT)","308123","green","red","","","","","","","","","","222","","","","","","[{""stimulus"":""img/red_ll/1.jpg"",""time"":51},{""stimulus"":""img/red_ll/2.jpg"",""time"":102},{""stimulus"":""img/red_ll/3.jpg"",""time"":153},{""stimulus"":""img/red_ll/4.jpg"",""time"":204},{""stimulus"":""img/red_ll/5.jpg"",""time"":255},{""stimulus"":""img/red_ll/6.jpg"",""time"":306},{""stimulus"":""img/red_ll/7.jpg"",""time"":357},{""stimulus"":""img/red_ll/8.jpg"",""time"":407},{""stimulus"":""img/red_ll/9.jpg"",""time"":457},{""stimulus"":""img/red_ll/10.jpg"",""time"":508},{""stimulus"":""img/red_ll/11.jpg"",""time"":558}]","[]"
"image-keyboard-response","12","65051","0.0-5.0-1.4","5fb7c9fa2be0a83d8f8913b8","bdp_lott","Sat Mar 25 2023 15:50:25 GMT-0700 (PDT)","308123","green","red","","925","","","","choice","","img/red_ll/choose11.jpg","1","221","green","0.5","0.5","0.5","l","",""
"animation","13","65662","0.0-5.0-2.4","5fb7c9fa2be0a83d8f8913b8","bdp_lott","Sat Mar 25 2023 15:50:25 GMT-0700 (PDT)","308123","green","red","","","","","","","","","","221","","","","","","[{""stimulus"":""img/green_ll/1.jpg"",""time"":52},{""stimulus"":""img/green_ll/2.jpg"",""time"":103},{""stimulus"":""img/green_ll/3.jpg"",""time"":153},{""stimulus"":""img/green_ll/4.jpg"",""time"":204},{""stimulus"":""img/green_ll/5.jpg"",""time"":255},{""stimulus"":""img/green_ll/6.jpg"",""time"":305},{""stimulus"":""img/green_ll/7.jpg"",""time"":356},{""stimulus"":""img/green_ll/8.jpg"",""time"":407},{""stimulus"":""img/green_ll/9.jpg"",""time"":458},{""stimulus"":""img/green_ll/10.jpg"",""time"":509},{""stimulus"":""img/green_ll/11.jpg"",""time"":559}]","[]"
"image-keyboard-response","14","67472","0.0-5.0-1.5","5fb7c9fa2be0a83d8f8913b8","bdp_lott","Sat Mar 25 2023 15:50:25 GMT-0700 (PDT)","308123","green","red","","1810","","","","choice","","img/green_ll/choose11.jpg","1","220","green","0.5","0.5","0.5","l","",""
"animation","15","68085","0.0-5.0-2.5","5fb7c9fa2be0a83d8f8913b8","bdp_lott","Sat Mar 25 2023 15:50:25 GMT-0700 (PDT)","308123","green","red","","","","","","","","","","220","","","","","","[{""stimulus"":""img/green_ll/1.jpg"",""time"":52},{""stimulus"":""img/green_ll/2.jpg"",""time"":103},{""stimulus"":""img/green_ll/3.jpg"",""time"":154},{""stimulus"":""img/green_ll/4.jpg"",""time"":205},{""stimulus"":""img/green_ll/5.jpg"",""time"":256},{""stimulus"":""img/green_ll/6.jpg"",""time"":307},{""stimulus"":""img/green_ll/7.jpg"",""time"":358},{""stimulus"":""img/green_ll/8.jpg"",""time"":409},{""stimulus"":""img/green_ll/9.jpg"",""time"":460},{""stimulus"":""img/green_ll/10.jpg"",""time"":511},{""stimulus"":""img/green_ll/11.jpg"",""time"":562}]","[]"
"image-keyboard-response","16","68627","0.0-5.0-1.6","5fb7c9fa2be0a83d8f8913b8","bdp_lott","Sat Mar 25 2023 15:50:25 GMT-0700 (PDT)","308123","green","red","","541","","","","choice","","img/green_ll/choose11.jpg","2","219","red","0.5","0.5","0.5","l","",""
"animation","17","69235","0.0-5.0-2.6","5fb7c9fa2be0a83d8f8913b8","bdp_lott","Sat Mar 25 2023 15:50:25 GMT-0700 (PDT)","308123","green","red","","","","","","","","","","219","","","","","","[{""stimulus"":""img/red_ll/1.jpg"",""time"":50},{""stimulus"":""img/red_ll/2.jpg"",""time"":102},{""stimulus"":""img/red_ll/3.jpg"",""time"":152},{""stimulus"":""img/red_ll/4.jpg"",""time"":202},{""stimulus"":""img/red_ll/5.jpg"",""time"":253},{""stimulus"":""img/red_ll/6.jpg"",""time"":304},{""stimulus"":""img/red_ll/7.jpg"",""time"":354},{""stimulus"":""img/red_ll/8.jpg"",""time"":404},{""stimulus"":""img/red_ll/9.jpg"",""time"":456},{""stimulus"":""img/red_ll/10.jpg"",""time"":506},{""stimulus"":""img/red_ll/11.jpg"",""time"":556}]","[]"
"image-keyboard-response","18","70173","0.0-5.0-1.7","5fb7c9fa2be0a83d8f8913b8","bdp_lott","Sat Mar 25 2023 15:50:25 GMT-0700 (PDT)","308123","green","red","","938","","","","choice","","img/red_ll/choose11.jpg","2","218","red","0.5","0.5","0.5","w","",""
"animation","19","70784","0.0-5.0-2.7","5fb7c9fa2be0a83d8f8913b8","bdp_lott","Sat Mar 25 2023 15:50:25 GMT-0700 (PDT)","308123","green","red","","","","","","","","","","218","","","","","","[{""stimulus"":""img/red_lw/1.jpg"",""time"":51},{""stimulus"":""img/red_lw/2.jpg"",""time"":101},{""stimulus"":""img/red_lw/3.jpg"",""time"":153},{""stimulus"":""img/red_lw/4.jpg"",""time"":203},{""stimulus"":""img/red_lw/5.jpg"",""time"":253},{""stimulus"":""img/red_lw/6.jpg"",""time"":305},{""stimulus"":""img/red_lw/7.jpg"",""time"":355},{""stimulus"":""img/red_lw/8.jpg"",""time"":406},{""stimulus"":""img/red_lw/9.jpg"",""time"":458},{""stimulus"":""img/red_lw/10.jpg"",""time"":509},{""stimulus"":""img/red_lw/11.jpg"",""time"":559}]","[]"
"image-keyboard-response","20","74816","0.0-5.0-1.8","5fb7c9fa2be0a83d8f8913b8","bdp_lott","Sat Mar 25 2023 15:50:25 GMT-0700 (PDT)","308123","green","red","","4031","","","","choice","","img/red_lw/choose11.jpg","2","217","red","0.5","0.5","0.5","l","",""
"animation","21","75429","0.0-5.0-2.8","5fb7c9fa2be0a83d8f8913b8","bdp_lott","Sat Mar 25 2023 15:50:25 GMT-0700 (PDT)","308123","green","red","","","","","","","","","","217","","","","","","[{""stimulus"":""img/red_ll/1.jpg"",""time"":52},{""stimulus"":""img/red_ll/2.jpg"",""time"":103},{""stimulus"":""img/red_ll/3.jpg"",""time"":153},{""stimulus"":""img/red_ll/4.jpg"",""time"":204},{""stimulus"":""img/red_ll/5.jpg"",""time"":256},{""stimulus"":""img/red_ll/6.jpg"",""time"":307},{""stimulus"":""img/red_ll/7.jpg"",""time"":357},{""stimulus"":""img/red_ll/8.jpg"",""time"":409},{""stimulus"":""img/red_ll/9.jpg"",""time"":459},{""stimulus"":""img/red_ll/10.jpg"",""time"":510},{""stimulus"":""img/red_ll/11.jpg"",""time"":562}]","[]"
"image-keyboard-response","22","76655","0.0-5.0-1.9","5fb7c9fa2be0a83d8f8913b8","bdp_lott","Sat Mar 25 2023 15:50:25 GMT-0700 (PDT)","308123","green","red","","1226","","","","choice","","img/red_ll/choose11.jpg","2","216","red","0.5","0.5","0.5","w","",""
"animation","23","77267","0.0-5.0-2.9","5fb7c9fa2be0a83d8f8913b8","bdp_lott","Sat Mar 25 2023 15:50:25 GMT-0700 (PDT)","308123","green","red","","","","","","","","","","216","","","","","","[{""stimulus"":""img/red_lw/1.jpg"",""time"":51},{""stimulus"":""img/red_lw/2.jpg"",""time"":102},{""stimulus"":""img/red_lw/3.jpg"",""time"":153},{""stimulus"":""img/red_lw/4.jpg"",""time"":204},{""stimulus"":""img/red_lw/5.jpg"",""time"":255},{""stimulus"":""img/red_lw/6.jpg"",""time"":307},{""stimulus"":""img/red_lw/7.jpg"",""time"":357},{""stimulus"":""img/red_lw/8.jpg"",""time"":407},{""stimulus"":""img/red_lw/9.jpg"",""time"":458},{""stimulus"":""img/red_lw/10.jpg"",""time"":509},{""stimulus"":""img/red_lw/11.jpg"",""time"":560}]","[]"
"image-keyboard-response","24","78415","0.0-5.0-1.10","5fb7c9fa2be0a83d8f8913b8","bdp_lott","Sat Mar 25 2023 15:50:25 GMT-0700 (PDT)","308123","green","red","","1147","","","","choice","","img/red_lw/choose11.jpg","2","215","red","0.5","0.5","0.5","w","",""
"animation","25","79025","0.0-5.0-2.10","5fb7c9fa2be0a83d8f8913b8","bdp_lott","Sat Mar 25 2023 15:50:25 GMT-0700 (PDT)","308123","green","red","","","","","","","","","","215","","","","","","[{""stimulus"":""img/red_lw/1.jpg"",""time"":52},{""stimulus"":""img/red_lw/2.jpg"",""time"":102},{""stimulus"":""img/red_lw/3.jpg"",""time"":153},{""stimulus"":""img/red_lw/4.jpg"",""time"":204},{""stimulus"":""img/red_lw/5.jpg"",""time"":255},{""stimulus"":""img/red_lw/6.jpg"",""time"":305},{""stimulus"":""img/red_lw/7.jpg"",""time"":356},{""stimulus"":""img/red_lw/8.jpg"",""time"":407},{""stimulus"":""img/red_lw/9.jpg"",""time"":458},{""stimulus"":""img/red_lw/10.jpg"",""time"":509},{""stimulus"":""img/red_lw/11.jpg"",""time"":560}]","[]"
"image-keyboard-response","26","79862","0.0-5.0-1.11","5fb7c9fa2be0a83d8f8913b8","bdp_lott","Sat Mar 25 2023 15:50:25 GMT-0700 (PDT)","308123","green","red","","836","","","","choice","","img/red_lw/choose11.jpg","2","214","red","0.5","0.5","0.5","w","",""
"animation","27","80473","0.0-5.0-2.11","5fb7c9fa2be0a83d8f8913b8","bdp_lott","Sat Mar 25 2023 15:50:25 GMT-0700 (PDT)","308123","green","red","","","","","","","","","","214","","","","","","[{""stimulus"":""img/red_lw/1.jpg"",""time"":51},{""stimulus"":""img/red_lw/2.jpg"",""time"":101},{""stimulus"":""img/red_lw/3.jpg"",""time"":151},{""stimulus"":""img/red_lw/4.jpg"",""time"":202},{""stimulus"":""img/red_lw/5.jpg"",""time"":254},{""stimulus"":""img/red_lw/6.jpg"",""time"":305},{""stimulus"":""img/red_lw/7.jpg"",""time"":355},{""stimulus"":""img/red_lw/8.jpg"",""time"":406},{""stimulus"":""img/red_lw/9.jpg"",""time"":458},{""stimulus"":""img/red_lw/10.jpg"",""time"":509},{""stimulus"":""img/red_lw/11.jpg"",""time"":560}]","[]"
"image-keyboard-response","28","81389","0.0-5.0-1.12","5fb7c9fa2be0a83d8f8913b8","bdp_lott","Sat Mar 25 2023 15:50:25 GMT-0700 (PDT)","308123","green","red","","915","","","","choice","","img/red_lw/choose11.jpg","2","213","red","0.5","0.5","0.5","l","",""
"animation","29","82000","0.0-5.0-2.12","5fb7c9fa2be0a83d8f8913b8","bdp_lott","Sat Mar 25 2023 15:50:25 GMT-0700 (PDT)","308123","green","red","","","","","","","","","","213","","","","","","[{""stimulus"":""img/red_ll/1.jpg"",""time"":51},{""stimulus"":""img/red_ll/2.jpg"",""time"":102},{""stimulus"":""img/red_ll/3.jpg"",""time"":153},{""stimulus"":""img/red_ll/4.jpg"",""time"":204},{""stimulus"":""img/red_ll/5.jpg"",""time"":255},{""stimulus"":""img/red_ll/6.jpg"",""time"":307},{""stimulus"":""img/red_ll/7.jpg"",""time"":358},{""stimulus"":""img/red_ll/8.jpg"",""time"":408},{""stimulus"":""img/red_ll/9.jpg"",""time"":458},{""stimulus"":""img/red_ll/10.jpg"",""time"":509},{""stimulus"":""img/red_ll/11.jpg"",""time"":559}]","[]"
"image-keyboard-response","30","82756","0.0-5.0-1.13","5fb7c9fa2be0a83d8f8913b8","bdp_lott","Sat Mar 25 2023 15:50:25 GMT-0700 (PDT)","308123","green","red","","756","","","","choice","","img/red_ll/choose11.jpg","2","212","red","0.5","0.5","0.5","w","",""
"animation","31","83368","0.0-5.0-2.13","5fb7c9fa2be0a83d8f8913b8","bdp_lott","Sat Mar 25 2023 15:50:25 GMT-0700 (PDT)","308123","green","red","","","","","","","","","","212","","","","","","[{""stimulus"":""img/red_lw/1.jpg"",""time"":51},{""stimulus"":""img/red_lw/2.jpg"",""time"":102},{""stimulus"":""img/red_lw/3.jpg"",""time"":153},{""stimulus"":""img/red_lw/4.jpg"",""time"":204},{""stimulus"":""img/red_lw/5.jpg"",""time"":255},{""stimulus"":""img/red_lw/6.jpg"",""time"":307},{""stimulus"":""img/red_lw/7.jpg"",""time"":358},{""stimulus"":""img/red_lw/8.jpg"",""time"":408},{""stimulus"":""img/red_lw/9.jpg"",""time"":459},{""stimulus"":""img/red_lw/10.jpg"",""time"":510},{""stimulus"":""img/red_lw/11.jpg"",""time"":561}]","[]"
"image-keyboard-response","32","84158","0.0-5.0-1.14","5fb7c9fa2be0a83d8f8913b8","bdp_lott","Sat Mar 25 2023 15:50:25 GMT-0700 (PDT)","308123","green","red","","789","","","","choice","","img/red_lw/choose11.jpg","2","211","red","0.5","0.5","0.5","w","",""
"animation","33","84770","0.0-5.0-2.14","5fb7c9fa2be0a83d8f8913b8","bdp_lott","Sat Mar 25 2023 15:50:25 GMT-0700 (PDT)","308123","green","red","","","","","","","","","","211","","","","","","[{""stimulus"":""img/red_lw/1.jpg"",""time"":51},{""stimulus"":""img/red_lw/2.jpg"",""time"":102},{""stimulus"":""img/red_lw/3.jpg"",""time"":153},{""stimulus"":""img/red_lw/4.jpg"",""time"":203},{""stimulus"":""img/red_lw/5.jpg"",""time"":254},{""stimulus"":""img/red_lw/6.jpg"",""time"":305},{""stimulus"":""img/red_lw/7.jpg"",""time"":357},{""stimulus"":""img/red_lw/8.jpg"",""time"":408},{""stimulus"":""img/red_lw/9.jpg"",""time"":459},{""stimulus"":""img/red_lw/10.jpg"",""time"":509},{""stimulus"":""img/red_lw/11.jpg"",""time"":561}]","[]"
"image-keyboard-response","34","85494","0.0-5.0-1.15","5fb7c9fa2be0a83d8f8913b8","bdp_lott","Sat Mar 25 2023 15:50:25 GMT-0700 (PDT)","308123","green","red","","722","","","","choice","","img/red_lw/choose11.jpg","2","210","red","0.5","0.5","0.5","w","",""
"animation","35","86106","0.0-5.0-2.15","5fb7c9fa2be0a83d8f8913b8","bdp_lott","Sat Mar 25 2023 15:50:25 GMT-0700 (PDT)","308123","green","red","","","","","","","","","","210","","","","","","[{""stimulus"":""img/red_lw/1.jpg"",""time"":52},{""stimulus"":""img/red_lw/2.jpg"",""time"":103},{""stimulus"":""img/red_lw/3.jpg"",""time"":154},{""stimulus"":""img/red_lw/4.jpg"",""time"":204},{""stimulus"":""img/red_lw/5.jpg"",""time"":255},{""stimulus"":""img/red_lw/6.jpg"",""time"":307},{""stimulus"":""img/red_lw/7.jpg"",""time"":357},{""stimulus"":""img/red_lw/8.jpg"",""time"":408},{""stimulus"":""img/red_lw/9.jpg"",""time"":459},{""stimulus"":""img/red_lw/10.jpg"",""time"":510},{""stimulus"":""img/red_lw/11.jpg"",""time"":561}]","[]"
"image-keyboard-response","36","86780","0.0-5.0-1.16","5fb7c9fa2be0a83d8f8913b8","bdp_lott","Sat Mar 25 2023 15:50:25 GMT-0700 (PDT)","308123","green","red","","673","","","","choice","","img/red_lw/choose11.jpg","2","209","red","0.5","0.5","0.5","w","",""
"animation","37","87392","0.0-5.0-2.16","5fb7c9fa2be0a83d8f8913b8","bdp_lott","Sat Mar 25 2023 15:50:25 GMT-0700 (PDT)","308123","green","red","","","","","","","","","","209","","","","","","[{""stimulus"":""img/red_lw/1.jpg"",""time"":51},{""stimulus"":""img/red_lw/2.jpg"",""time"":101},{""stimulus"":""img/red_lw/3.jpg"",""time"":152},{""stimulus"":""img/red_lw/4.jpg"",""time"":203},{""stimulus"":""img/red_lw/5.jpg"",""time"":253},{""stimulus"":""img/red_lw/6.jpg"",""time"":305},{""stimulus"":""img/red_lw/7.jpg"",""time"":356},{""stimulus"":""img/red_lw/8.jpg"",""time"":407},{""stimulus"":""img/red_lw/9.jpg"",""time"":458},{""stimulus"":""img/red_lw/10.jpg"",""time"":509},{""stimulus"":""img/red_lw/11.jpg"",""time"":560}]","[]"
"image-keyboard-response","38","87923","0.0-5.0-1.17","5fb7c9fa2be0a83d8f8913b8","bdp_lott","Sat Mar 25 2023 15:50:25 GMT-0700 (PDT)","308123","green","red","","530","","","","choice","","img/red_lw/choose11.jpg","2","208","red","0.5","0.5","0.5","w","",""
"animation","39","88533","0.0-5.0-2.17","5fb7c9fa2be0a83d8f8913b8","bdp_lott","Sat Mar 25 2023 15:50:25 GMT-0700 (PDT)","308123","green","red","","","","","","","","","","208","","","","","","[{""stimulus"":""img/red_lw/1.jpg"",""time"":52},{""stimulus"":""img/red_lw/2.jpg"",""time"":103},{""stimulus"":""img/red_lw/3.jpg"",""time"":154},{""stimulus"":""img/red_lw/4.jpg"",""time"":204},{""stimulus"":""img/red_lw/5.jpg"",""time"":255},{""stimulus"":""img/red_lw/6.jpg"",""time"":305},{""stimulus"":""img/red_lw/7.jpg"",""time"":356},{""stimulus"":""img/red_lw/8.jpg"",""time"":407},{""stimulus"":""img/red_lw/9.jpg"",""time"":457},{""stimulus"":""img/red_lw/10.jpg"",""time"":508},{""stimulus"":""img/red_lw/11.jpg"",""time"":558}]","[]"
"image-keyboard-response","40","89279","0.0-5.0-1.18","5fb7c9fa2be0a83d8f8913b8","bdp_lott","Sat Mar 25 2023 15:50:25 GMT-0700 (PDT)","308123","green","red","","746","","","","choice","","img/red_lw/choose11.jpg","2","207","red","0.5","0.5","0.5","w","",""
"animation","41","89888","0.0-5.0-2.18","5fb7c9fa2be0a83d8f8913b8","bdp_lott","Sat Mar 25 2023 15:50:25 GMT-0700 (PDT)","308123","green","red","","","","","","","","","","207","","","","","","[{""stimulus"":""img/red_lw/1.jpg"",""time"":51},{""stimulus"":""img/red_lw/2.jpg"",""time"":101},{""stimulus"":""img/red_lw/3.jpg"",""time"":151},{""stimulus"":""img/red_lw/4.jpg"",""time"":202},{""stimulus"":""img/red_lw/5.jpg"",""time"":253},{""stimulus"":""img/red_lw/6.jpg"",""time"":304},{""stimulus"":""img/red_lw/7.jpg"",""time"":354},{""stimulus"":""img/red_lw/8.jpg"",""time"":405},{""stimulus"":""img/red_lw/9.jpg"",""time"":455},{""stimulus"":""img/red_lw/10.jpg"",""time"":506},{""stimulus"":""img/red_lw/11.jpg"",""time"":557}]","[]"
"image-keyboard-response","42","90347","0.0-5.0-1.19","5fb7c9fa2be0a83d8f8913b8","bdp_lott","Sat Mar 25 2023 15:50:25 GMT-0700 (PDT)","308123","green","red","","458","","","","choice","","img/red_lw/choose11.jpg","2","206","red","0.5","0.5","0.5","w","",""
"animation","43","90958","0.0-5.0-2.19","5fb7c9fa2be0a83d8f8913b8","bdp_lott","Sat Mar 25 2023 15:50:25 GMT-0700 (PDT)","308123","green","red","","","","","","","","","","206","","","","","","[{""stimulus"":""img/red_lw/1.jpg"",""time"":50},{""stimulus"":""img/red_lw/2.jpg"",""time"":102},{""stimulus"":""img/red_lw/3.jpg"",""time"":153},{""stimulus"":""img/red_lw/4.jpg"",""time"":203},{""stimulus"":""img/red_lw/5.jpg"",""time"":255},{""stimulus"":""img/red_lw/6.jpg"",""time"":306},{""stimulus"":""img/red_lw/7.jpg"",""time"":356},{""stimulus"":""img/red_lw/8.jpg"",""time"":407},{""stimulus"":""img/red_lw/9.jpg"",""time"":458},{""stimulus"":""img/red_lw/10.jpg"",""time"":509},{""stimulus"":""img/red_lw/11.jpg"",""time"":559}]","[]"
"image-keyboard-response","44","91469","0.0-5.0-1.20","5fb7c9fa2be0a83d8f8913b8","bdp_lott","Sat Mar 25 2023 15:50:25 GMT-0700 (PDT)","308123","green","red","","511","","","","choice","","img/red_lw/choose11.jpg","2","205","red","0.5","0.5","0.5","l","",""
"animation","45","92078","0.0-5.0-2.20","5fb7c9fa2be0a83d8f8913b8","bdp_lott","Sat Mar 25 2023 15:50:25 GMT-0700 (PDT)","308123","green","red","","","","","","","","","","205","","","","","","[{""stimulus"":""img/red_ll/1.jpg"",""time"":50},{""stimulus"":""img/red_ll/2.jpg"",""time"":101},{""stimulus"":""img/red_ll/3.jpg"",""time"":152},{""stimulus"":""img/red_ll/4.jpg"",""time"":203},{""stimulus"":""img/red_ll/5.jpg"",""time"":253},{""stimulus"":""img/red_ll/6.jpg"",""time"":303},{""stimulus"":""img/red_ll/7.jpg"",""time"":354},{""stimulus"":""img/red_ll/8.jpg"",""time"":405},{""stimulus"":""img/red_ll/9.jpg"",""time"":456},{""stimulus"":""img/red_ll/10.jpg"",""time"":507},{""stimulus"":""img/red_ll/11.jpg"",""time"":557}]","[]"
"image-keyboard-response","46","92812","0.0-5.0-1.21","5fb7c9fa2be0a83d8f8913b8","bdp_lott","Sat Mar 25 2023 15:50:25 GMT-0700 (PDT)","308123","green","red","","733","","","","choice","","img/red_ll/choose11.jpg","2","204","red","0.5","0.5","0.5","w","",""
"animation","47","93420","0.0-5.0-2.21","5fb7c9fa2be0a83d8f8913b8","bdp_lott","Sat Mar 25 2023 15:50:25 GMT-0700 (PDT)","308123","green","red","","","","","","","","","","204","","","","","","[{""stimulus"":""img/red_lw/1.jpg"",""time"":52},{""stimulus"":""img/red_lw/2.jpg"",""time"":102},{""stimulus"":""img/red_lw/3.jpg"",""time"":153},{""stimulus"":""img/red_lw/4.jpg"",""time"":203},{""stimulus"":""img/red_lw/5.jpg"",""time"":253},{""stimulus"":""img/red_lw/6.jpg"",""time"":303},{""stimulus"":""img/red_lw/7.jpg"",""time"":354},{""stimulus"":""img/red_lw/8.jpg"",""time"":406},{""stimulus"":""img/red_lw/9.jpg"",""time"":456},{""stimulus"":""img/red_lw/10.jpg"",""time"":507},{""stimulus"":""img/red_lw/11.jpg"",""time"":557}]","[]"
"image-keyboard-response","48","94012","0.0-5.0-1.22","5fb7c9fa2be0a83d8f8913b8","bdp_lott","Sat Mar 25 2023 15:50:25 GMT-0700 (PDT)","308123","green","red","","591","","","","choice","","img/red_lw/choose11.jpg","2","203","red","0.5","0.5","0.5","w","",""
"animation","49","94622","0.0-5.0-2.22","5fb7c9fa2be0a83d8f8913b8","bdp_lott","Sat Mar 25 2023 15:50:25 GMT-0700 (PDT)","308123","green","red","","","","","","","","","","203","","","","","","[{""stimulus"":""img/red_lw/1.jpg"",""time"":52},{""stimulus"":""img/red_lw/2.jpg"",""time"":102},{""stimulus"":""img/red_lw/3.jpg"",""time"":153},{""stimulus"":""img/red_lw/4.jpg"",""time"":204},{""stimulus"":""img/red_lw/5.jpg"",""time"":255},{""stimulus"":""img/red_lw/6.jpg"",""time"":305},{""stimulus"":""img/red_lw/7.jpg"",""time"":356},{""stimulus"":""img/red_lw/8.jpg"",""time"":407},{""stimulus"":""img/red_lw/9.jpg"",""time"":458},{""stimulus"":""img/red_lw/10.jpg"",""time"":509},{""stimulus"":""img/red_lw/11.jpg"",""time"":559}]","[]"
"image-keyboard-response","50","95219","0.0-5.0-1.23","5fb7c9fa2be0a83d8f8913b8","bdp_lott","Sat Mar 25 2023 15:50:25 GMT-0700 (PDT)","308123","green","red","","596","","","","choice","","img/red_lw/choose11.jpg","2","202","red","0.5","0.5","0.5","w","",""
"animation","51","95833","0.0-5.0-2.23","5fb7c9fa2be0a83d8f8913b8","bdp_lott","Sat Mar 25 2023 15:50:25 GMT-0700 (PDT)","308123","green","red","","","","","","","","","","202","","","","","","[{""stimulus"":""img/red_lw/1.jpg"",""time"":52},{""stimulus"":""img/red_lw/2.jpg"",""time"":103},{""stimulus"":""img/red_lw/3.jpg"",""time"":154},{""stimulus"":""img/red_lw/4.jpg"",""time"":204},{""stimulus"":""img/red_lw/5.jpg"",""time"":256},{""stimulus"":""img/red_lw/6.jpg"",""time"":307},{""stimulus"":""img/red_lw/7.jpg"",""time"":358},{""stimulus"":""img/red_lw/8.jpg"",""time"":409},{""stimulus"":""img/red_lw/9.jpg"",""time"":460},{""stimulus"":""img/red_lw/10.jpg"",""time"":512},{""stimulus"":""img/red_lw/11.jpg"",""time"":563}]","[]"
"image-keyboard-response","52","96566","0.0-5.0-1.24","5fb7c9fa2be0a83d8f8913b8","bdp_lott","Sat Mar 25 2023 15:50:25 GMT-0700 (PDT)","308123","green","red","","732","","","","choice","","img/red_lw/choose11.jpg","2","201","red","0.5","0.5","0.5","l","",""
"animation","53","97178","0.0-5.0-2.24","5fb7c9fa2be0a83d8f8913b8","bdp_lott","Sat Mar 25 2023 15:50:25 GMT-0700 (PDT)","308123","green","red","","","","","","","","","","201","","","","","","[{""stimulus"":""img/red_ll/1.jpg"",""time"":51},{""stimulus"":""img/red_ll/2.jpg"",""time"":101},{""stimulus"":""img/red_ll/3.jpg"",""time"":152},{""stimulus"":""img/red_ll/4.jpg"",""time"":203},{""stimulus"":""img/red_ll/5.jpg"",""time"":255},{""stimulus"":""img/red_ll/6.jpg"",""time"":305},{""stimulus"":""img/red_ll/7.jpg"",""time"":356},{""stimulus"":""img/red_ll/8.jpg"",""time"":407},{""stimulus"":""img/red_ll/9.jpg"",""time"":457},{""stimulus"":""img/red_ll/10.jpg"",""time"":509},{""stimulus"":""img/red_ll/11.jpg"",""time"":560}]","[]"
"image-keyboard-response","54","97713","0.0-5.0-1.25","5fb7c9fa2be0a83d8f8913b8","bdp_lott","Sat Mar 25 2023 15:50:25 GMT-0700 (PDT)","308123","green","red","","535","","","","choice","","img/red_ll/choose11.jpg","2","200","red","0.5","0.5","0.5","w","",""
"animation","55","98322","0.0-5.0-2.25","5fb7c9fa2be0a83d8f8913b8","bdp_lott","Sat Mar 25 2023 15:50:25 GMT-0700 (PDT)","308123","green","red","","","","","","","","","","200","","","","","","[{""stimulus"":""img/red_lw/1.jpg"",""time"":51},{""stimulus"":""img/red_lw/2.jpg"",""time"":101},{""stimulus"":""img/red_lw/3.jpg"",""time"":152},{""stimulus"":""img/red_lw/4.jpg"",""time"":203},{""stimulus"":""img/red_lw/5.jpg"",""time"":253},{""stimulus"":""img/red_lw/6.jpg"",""time"":304},{""stimulus"":""img/red_lw/7.jpg"",""time"":354},{""stimulus"":""img/red_lw/8.jpg"",""time"":405},{""stimulus"":""img/red_lw/9.jpg"",""time"":456},{""stimulus"":""img/red_lw/10.jpg"",""time"":507},{""stimulus"":""img/red_lw/11.jpg"",""time"":558}]","[]"
"image-keyboard-response","56","99070","0.0-5.0-1.26","5fb7c9fa2be0a83d8f8913b8","bdp_lott","Sat Mar 25 2023 15:50:25 GMT-0700 (PDT)","308123","green","red","","747","","","","choice","","img/red_lw/choose11.jpg","2","199","red","0.5","0.5","0.5","l","",""
"animation","57","99682","0.0-5.0-2.26","5fb7c9fa2be0a83d8f8913b8","bdp_lott","Sat Mar 25 2023 15:50:25 GMT-0700 (PDT)","308123","green","red","","","","","","","","","","199","","","","","","[{""stimulus"":""img/red_ll/1.jpg"",""time"":52},{""stimulus"":""img/red_ll/2.jpg"",""time"":103},{""stimulus"":""img/red_ll/3.jpg"",""time"":153},{""stimulus"":""img/red_ll/4.jpg"",""time"":204},{""stimulus"":""img/red_ll/5.jpg"",""time"":255},{""stimulus"":""img/red_ll/6.jpg"",""time"":306},{""stimulus"":""img/red_ll/7.jpg"",""time"":357},{""stimulus"":""img/red_ll/8.jpg"",""time"":408},{""stimulus"":""img/red_ll/9.jpg"",""time"":458},{""stimulus"":""img/red_ll/10.jpg"",""time"":509},{""stimulus"":""img/red_ll/11.jpg"",""time"":561}]","[]"
"image-keyboard-response","58","100205","0.0-5.0-1.27","5fb7c9fa2be0a83d8f8913b8","bdp_lott","Sat Mar 25 2023 15:50:25 GMT-0700 (PDT)","308123","green","red","","522","","","","choice","","img/red_ll/choose11.jpg","2","198","red","0.5","0.5","0.5","w","",""
"animation","59","100819","0.0-5.0-2.27","5fb7c9fa2be0a83d8f8913b8","bdp_lott","Sat Mar 25 2023 15:50:25 GMT-0700 (PDT)","308123","green","red","","","","","","","","","","198","","","","","","[{""stimulus"":""img/red_lw/1.jpg"",""time"":51},{""stimulus"":""img/red_lw/2.jpg"",""time"":101},{""stimulus"":""img/red_lw/3.jpg"",""time"":152},{""stimulus"":""img/red_lw/4.jpg"",""time"":204},{""stimulus"":""img/red_lw/5.jpg"",""time"":255},{""stimulus"":""img/red_lw/6.jpg"",""time"":306},{""stimulus"":""img/red_lw/7.jpg"",""time"":357},{""stimulus"":""img/red_lw/8.jpg"",""time"":408},{""stimulus"":""img/red_lw/9.jpg"",""time"":459},{""stimulus"":""img/red_lw/10.jpg"",""time"":510},{""stimulus"":""img/red_lw/11.jpg"",""time"":561}]","[]"
"image-keyboard-response","60","101461","0.0-5.0-1.28","5fb7c9fa2be0a83d8f8913b8","bdp_lott","Sat Mar 25 2023 15:50:25 GMT-0700 (PDT)","308123","green","red","","642","","","","choice","","img/red_lw/choose11.jpg","2","197","red","0.5","0.5","0.5","l","",""
"animation","61","102073","0.0-5.0-2.28","5fb7c9fa2be0a83d8f8913b8","bdp_lott","Sat Mar 25 2023 15:50:25 GMT-0700 (PDT)","308123","green","red","","","","","","","","","","197","","","","","","[{""stimulus"":""img/red_ll/1.jpg"",""time"":52},{""stimulus"":""img/red_ll/2.jpg"",""time"":103},{""stimulus"":""img/red_ll/3.jpg"",""time"":153},{""stimulus"":""img/red_ll/4.jpg"",""time"":204},{""stimulus"":""img/red_ll/5.jpg"",""time"":256},{""stimulus"":""img/red_ll/6.jpg"",""time"":306},{""stimulus"":""img/red_ll/7.jpg"",""time"":357},{""stimulus"":""img/red_ll/8.jpg"",""time"":408},{""stimulus"":""img/red_ll/9.jpg"",""time"":460},{""stimulus"":""img/red_ll/10.jpg"",""time"":510},{""stimulus"":""img/red_ll/11.jpg"",""time"":561}]","[]"
"image-keyboard-response","62","102634","0.0-5.0-1.29","5fb7c9fa2be0a83d8f8913b8","bdp_lott","Sat Mar 25 2023 15:50:25 GMT-0700 (PDT)","308123","green","red","","561","","","","choice","","img/red_ll/choose11.jpg","2","196","red","0.5","0.5","0.5","l","",""
"animation","63","103246","0.0-5.0-2.29","5fb7c9fa2be0a83d8f8913b8","bdp_lott","Sat Mar 25 2023 15:50:25 GMT-0700 (PDT)","308123","green","red","","","","","","","","","","196","","","","","","[{""stimulus"":""img/red_ll/1.jpg"",""time"":52},{""stimulus"":""img/red_ll/2.jpg"",""time"":103},{""stimulus"":""img/red_ll/3.jpg"",""time"":154},{""stimulus"":""img/red_ll/4.jpg"",""time"":205},{""stimulus"":""img/red_ll/5.jpg"",""time"":255},{""stimulus"":""img/red_ll/6.jpg"",""time"":306},{""stimulus"":""img/red_ll/7.jpg"",""time"":356},{""stimulus"":""img/red_ll/8.jpg"",""time"":407},{""stimulus"":""img/red_ll/9.jpg"",""time"":459},{""stimulus"":""img/red_ll/10.jpg"",""time"":510},{""stimulus"":""img/red_ll/11.jpg"",""time"":561}]","[]"
"image-keyboard-response","64","103865","0.0-5.0-1.30","5fb7c9fa2be0a83d8f8913b8","bdp_lott","Sat Mar 25 2023 15:50:25 GMT-0700 (PDT)","308123","green","red","","619","","","","choice","","img/red_ll/choose11.jpg","2","195","red","0.5","0.5","0.5","l","",""
"animation","65","104475","0.0-5.0-2.30","5fb7c9fa2be0a83d8f8913b8","bdp_lott","Sat Mar 25 2023 15:50:25 GMT-0700 (PDT)","308123","green","red","","","","","","","","","","195","","","","","","[{""stimulus"":""img/red_ll/1.jpg"",""time"":52},{""stimulus"":""img/red_ll/2.jpg"",""time"":102},{""stimulus"":""img/red_ll/3.jpg"",""time"":153},{""stimulus"":""img/red_ll/4.jpg"",""time"":203},{""stimulus"":""img/red_ll/5.jpg"",""time"":253},{""stimulus"":""img/red_ll/6.jpg"",""time"":304},{""stimulus"":""img/red_ll/7.jpg"",""time"":355},{""stimulus"":""img/red_ll/8.jpg"",""time"":406},{""stimulus"":""img/red_ll/9.jpg"",""time"":457},{""stimulus"":""img/red_ll/10.jpg"",""time"":508},{""stimulus"":""img/red_ll/11.jpg"",""time"":559}]","[]"
"image-keyboard-response","66","105054","0.0-5.0-1.31","5fb7c9fa2be0a83d8f8913b8","bdp_lott","Sat Mar 25 2023 15:50:25 GMT-0700 (PDT)","308123","green","red","","578","","","","choice","","img/red_ll/choose11.jpg","2","194","red","0.5","0.5","0.5","l","",""
"animation","67","105665","0.0-5.0-2.31","5fb7c9fa2be0a83d8f8913b8","bdp_lott","Sat Mar 25 2023 15:50:25 GMT-0700 (PDT)","308123","green","red","","","","","","","","","","194","","","","","","[{""stimulus"":""img/red_ll/1.jpg"",""time"":51},{""stimulus"":""img/red_ll/2.jpg"",""time"":102},{""stimulus"":""img/red_ll/3.jpg"",""time"":153},{""stimulus"":""img/red_ll/4.jpg"",""time"":204},{""stimulus"":""img/red_ll/5.jpg"",""time"":255},{""stimulus"":""img/red_ll/6.jpg"",""time"":306},{""stimulus"":""img/red_ll/7.jpg"",""time"":357},{""stimulus"":""img/red_ll/8.jpg"",""time"":409},{""stimulus"":""img/red_ll/9.jpg"",""time"":460},{""stimulus"":""img/red_ll/10.jpg"",""time"":511},{""stimulus"":""img/red_ll/11.jpg"",""time"":561}]","[]"
"image-keyboard-response","68","106409","0.0-5.0-1.32","5fb7c9fa2be0a83d8f8913b8","bdp_lott","Sat Mar 25 2023 15:50:25 GMT-0700 (PDT)","308123","green","red","","743","","","","choice","","img/red_ll/choose11.jpg","2","193","red","0.5","0.5","0.5","w","",""
"animation","69","107020","0.0-5.0-2.32","5fb7c9fa2be0a83d8f8913b8","bdp_lott","Sat Mar 25 2023 15:50:25 GMT-0700 (PDT)","308123","green","red","","","","","","","","","","193","","","","","","[{""stimulus"":""img/red_lw/1.jpg"",""time"":51},{""stimulus"":""img/red_lw/2.jpg"",""time"":102},{""stimulus"":""img/red_lw/3.jpg"",""time"":153},{""stimulus"":""img/red_lw/4.jpg"",""time"":204},{""stimulus"":""img/red_lw/5.jpg"",""time"":255},{""stimulus"":""img/red_lw/6.jpg"",""time"":306},{""stimulus"":""img/red_lw/7.jpg"",""time"":357},{""stimulus"":""img/red_lw/8.jpg"",""time"":407},{""stimulus"":""img/red_lw/9.jpg"",""time"":458},{""stimulus"":""img/red_lw/10.jpg"",""time"":509},{""stimulus"":""img/red_lw/11.jpg"",""time"":559}]","[]"
"image-keyboard-response","70","107667","0.0-5.0-1.33","5fb7c9fa2be0a83d8f8913b8","bdp_lott","Sat Mar 25 2023 15:50:25 GMT-0700 (PDT)","308123","green","red","","645","","","","choice","","img/red_lw/choose11.jpg","2","192","red","0.5","0.5","0.5","l","",""
"animation","71","108277","0.0-5.0-2.33","5fb7c9fa2be0a83d8f8913b8","bdp_lott","Sat Mar 25 2023 15:50:25 GMT-0700 (PDT)","308123","green","red","","","","","","","","","","192","","","","","","[{""stimulus"":""img/red_ll/1.jpg"",""time"":51},{""stimulus"":""img/red_ll/2.jpg"",""time"":102},{""stimulus"":""img/red_ll/3.jpg"",""time"":153},{""stimulus"":""img/red_ll/4.jpg"",""time"":204},{""stimulus"":""img/red_ll/5.jpg"",""time"":255},{""stimulus"":""img/red_ll/6.jpg"",""time"":306},{""stimulus"":""img/red_ll/7.jpg"",""time"":357},{""stimulus"":""img/red_ll/8.jpg"",""time"":407},{""stimulus"":""img/red_ll/9.jpg"",""time"":457},{""stimulus"":""img/red_ll/10.jpg"",""time"":508},{""stimulus"":""img/red_ll/11.jpg"",""time"":559}]","[]"
"image-keyboard-response","72","108659","0.0-5.0-1.34","5fb7c9fa2be0a83d8f8913b8","bdp_lott","Sat Mar 25 2023 15:50:25 GMT-0700 (PDT)","308123","green","red","","381","","","","choice","","img/red_ll/choose11.jpg","2","191","red","0.5","0.5","0.5","l","",""
"animation","73","109271","0.0-5.0-2.34","5fb7c9fa2be0a83d8f8913b8","bdp_lott","Sat Mar 25 2023 15:50:25 GMT-0700 (PDT)","308123","green","red","","","","","","","","","","191","","","","","","[{""stimulus"":""img/red_ll/1.jpg"",""time"":52},{""stimulus"":""img/red_ll/2.jpg"",""time"":103},{""stimulus"":""img/red_ll/3.jpg"",""time"":154},{""stimulus"":""img/red_ll/4.jpg"",""time"":205},{""stimulus"":""img/red_ll/5.jpg"",""time"":256},{""stimulus"":""img/red_ll/6.jpg"",""time"":307},{""stimulus"":""img/red_ll/7.jpg"",""time"":358},{""stimulus"":""img/red_ll/8.jpg"",""time"":409},{""stimulus"":""img/red_ll/9.jpg"",""time"":459},{""stimulus"":""img/red_ll/10.jpg"",""time"":510},{""stimulus"":""img/red_ll/11.jpg"",""time"":562}]","[]"
"image-keyboard-response","74","109747","0.0-5.0-1.35","5fb7c9fa2be0a83d8f8913b8","bdp_lott","Sat Mar 25 2023 15:50:25 GMT-0700 (PDT)","308123","green","red","","476","","","","choice","","img/red_ll/choose11.jpg","2","190","red","0.5","0.5","0.5","w","",""
"animation","75","110356","0.0-5.0-2.35","5fb7c9fa2be0a83d8f8913b8","bdp_lott","Sat Mar 25 2023 15:50:25 GMT-0700 (PDT)","308123","green","red","","","","","","","","","","190","","","","","","[{""stimulus"":""img/red_lw/1.jpg"",""time"":52},{""stimulus"":""img/red_lw/2.jpg"",""time"":102},{""stimulus"":""img/red_lw/3.jpg"",""time"":153},{""stimulus"":""img/red_lw/4.jpg"",""time"":203},{""stimulus"":""img/red_lw/5.jpg"",""time"":253},{""stimulus"":""img/red_lw/6.jpg"",""time"":305},{""stimulus"":""img/red_lw/7.jpg"",""time"":356},{""stimulus"":""img/red_lw/8.jpg"",""time"":406},{""stimulus"":""img/red_lw/9.jpg"",""time"":456},{""stimulus"":""img/red_lw/10.jpg"",""time"":507},{""stimulus"":""img/red_lw/11.jpg"",""time"":559}]","[]"
"image-keyboard-response","76","111029","0.0-5.0-1.36","5fb7c9fa2be0a83d8f8913b8","bdp_lott","Sat Mar 25 2023 15:50:25 GMT-0700 (PDT)","308123","green","red","","673","","","","choice","","img/red_lw/choose11.jpg","2","189","red","0.5","0.5","0.5","l","",""
"animation","77","111640","0.0-5.0-2.36","5fb7c9fa2be0a83d8f8913b8","bdp_lott","Sat Mar 25 2023 15:50:25 GMT-0700 (PDT)","308123","green","red","","","","","","","","","","189","","","","","","[{""stimulus"":""img/red_ll/1.jpg"",""time"":52},{""stimulus"":""img/red_ll/2.jpg"",""time"":102},{""stimulus"":""img/red_ll/3.jpg"",""time"":152},{""stimulus"":""img/red_ll/4.jpg"",""time"":203},{""stimulus"":""img/red_ll/5.jpg"",""time"":254},{""stimulus"":""img/red_ll/6.jpg"",""time"":305},{""stimulus"":""img/red_ll/7.jpg"",""time"":357},{""stimulus"":""img/red_ll/8.jpg"",""time"":408},{""stimulus"":""img/red_ll/9.jpg"",""time"":459},{""stimulus"":""img/red_ll/10.jpg"",""time"":510},{""stimulus"":""img/red_ll/11.jpg"",""time"":560}]","[]"
"image-keyboard-response","78","112084","0.0-5.0-1.37","5fb7c9fa2be0a83d8f8913b8","bdp_lott","Sat Mar 25 2023 15:50:25 GMT-0700 (PDT)","308123","green","red","","442","","","","choice","","img/red_ll/choose11.jpg","2","188","red","0.5","0.5","0.5","l","",""
"animation","79","112694","0.0-5.0-2.37","5fb7c9fa2be0a83d8f8913b8","bdp_lott","Sat Mar 25 2023 15:50:25 GMT-0700 (PDT)","308123","green","red","","","","","","","","","","188","","","","","","[{""stimulus"":""img/red_ll/1.jpg"",""time"":51},{""stimulus"":""img/red_ll/2.jpg"",""time"":102},{""stimulus"":""img/red_ll/3.jpg"",""time"":152},{""stimulus"":""img/red_ll/4.jpg"",""time"":202},{""stimulus"":""img/red_ll/5.jpg"",""time"":254},{""stimulus"":""img/red_ll/6.jpg"",""time"":305},{""stimulus"":""img/red_ll/7.jpg"",""time"":356},{""stimulus"":""img/red_ll/8.jpg"",""time"":406},{""stimulus"":""img/red_ll/9.jpg"",""time"":457},{""stimulus"":""img/red_ll/10.jpg"",""time"":508},{""stimulus"":""img/red_ll/11.jpg"",""time"":559}]","[]"
"image-keyboard-response","80","113326","0.0-5.0-1.38","5fb7c9fa2be0a83d8f8913b8","bdp_lott","Sat Mar 25 2023 15:50:25 GMT-0700 (PDT)","308123","green","red","","631","","","","choice","","img/red_ll/choose11.jpg","1","187","green","0.5","0.5","0.5","l","",""
"animation","81","113939","0.0-5.0-2.38","5fb7c9fa2be0a83d8f8913b8","bdp_lott","Sat Mar 25 2023 15:50:25 GMT-0700 (PDT)","308123","green","red","","","","","","","","","","187","","","","","","[{""stimulus"":""img/green_ll/1.jpg"",""time"":51},{""stimulus"":""img/green_ll/2.jpg"",""time"":103},{""stimulus"":""img/green_ll/3.jpg"",""time"":154},{""stimulus"":""img/green_ll/4.jpg"",""time"":205},{""stimulus"":""img/green_ll/5.jpg"",""time"":256},{""stimulus"":""img/green_ll/6.jpg"",""time"":307},{""stimulus"":""img/green_ll/7.jpg"",""time"":358},{""stimulus"":""img/green_ll/8.jpg"",""time"":408},{""stimulus"":""img/green_ll/9.jpg"",""time"":459},{""stimulus"":""img/green_ll/10.jpg"",""time"":510},{""stimulus"":""img/green_ll/11.jpg"",""time"":561}]","[]"
"image-keyboard-response","82","114596","0.0-5.0-1.39","5fb7c9fa2be0a83d8f8913b8","bdp_lott","Sat Mar 25 2023 15:50:25 GMT-0700 (PDT)","308123","green","red","","656","","","","choice","","img/green_ll/choose11.jpg","1","186","green","0.5","0.5","0.5","l","",""
"animation","83","115208","0.0-5.0-2.39","5fb7c9fa2be0a83d8f8913b8","bdp_lott","Sat Mar 25 2023 15:50:25 GMT-0700 (PDT)","308123","green","red","","","","","","","","","","186","","","","","","[{""stimulus"":""img/green_ll/1.jpg"",""time"":51},{""stimulus"":""img/green_ll/2.jpg"",""time"":102},{""stimulus"":""img/green_ll/3.jpg"",""time"":153},{""stimulus"":""img/green_ll/4.jpg"",""time"":203},{""stimulus"":""img/green_ll/5.jpg"",""time"":254},{""stimulus"":""img/green_ll/6.jpg"",""time"":305},{""stimulus"":""img/green_ll/7.jpg"",""time"":357},{""stimulus"":""img/green_ll/8.jpg"",""time"":407},{""stimulus"":""img/green_ll/9.jpg"",""time"":458},{""stimulus"":""img/green_ll/10.jpg"",""time"":509},{""stimulus"":""img/green_ll/11.jpg"",""time"":560}]","[]"
"image-keyboard-response","84","115744","0.0-5.0-1.40","5fb7c9fa2be0a83d8f8913b8","bdp_lott","Sat Mar 25 2023 15:50:25 GMT-0700 (PDT)","308123","green","red","","535","","","","choice","","img/green_ll/choose11.jpg","2","185","red","0.5","0.5","0.5","w","",""
"animation","85","116357","0.0-5.0-2.40","5fb7c9fa2be0a83d8f8913b8","bdp_lott","Sat Mar 25 2023 15:50:25 GMT-0700 (PDT)","308123","green","red","","","","","","","","","","185","","","","","","[{""stimulus"":""img/red_lw/1.jpg"",""time"":52},{""stimulus"":""img/red_lw/2.jpg"",""time"":103},{""stimulus"":""img/red_lw/3.jpg"",""time"":154},{""stimulus"":""img/red_lw/4.jpg"",""time"":206},{""stimulus"":""img/red_lw/5.jpg"",""time"":257},{""stimulus"":""img/red_lw/6.jpg"",""time"":308},{""stimulus"":""img/red_lw/7.jpg"",""time"":359},{""stimulus"":""img/red_lw/8.jpg"",""time"":411},{""stimulus"":""img/red_lw/9.jpg"",""time"":462},{""stimulus"":""img/red_lw/10.jpg"",""time"":513},{""stimulus"":""img/red_lw/11.jpg"",""time"":563}]","[]"
"image-keyboard-response","86","116862","0.0-5.0-1.41","5fb7c9fa2be0a83d8f8913b8","bdp_lott","Sat Mar 25 2023 15:50:25 GMT-0700 (PDT)","308123","green","red","","504","","","","choice","","img/red_lw/choose11.jpg","2","184","red","0.5","0.5","0.5","w","",""
"animation","87","117471","0.0-5.0-2.41","5fb7c9fa2be0a83d8f8913b8","bdp_lott","Sat Mar 25 2023 15:50:25 GMT-0700 (PDT)","308123","green","red","","","","","","","","","","184","","","","","","[{""stimulus"":""img/red_lw/1.jpg"",""time"":51},{""stimulus"":""img/red_lw/2.jpg"",""time"":101},{""stimulus"":""img/red_lw/3.jpg"",""time"":152},{""stimulus"":""img/red_lw/4.jpg"",""time"":202},{""stimulus"":""img/red_lw/5.jpg"",""time"":252},{""stimulus"":""img/red_lw/6.jpg"",""time"":304},{""stimulus"":""img/red_lw/7.jpg"",""time"":355},{""stimulus"":""img/red_lw/8.jpg"",""time"":405},{""stimulus"":""img/red_lw/9.jpg"",""time"":456},{""stimulus"":""img/red_lw/10.jpg"",""time"":507},{""stimulus"":""img/red_lw/11.jpg"",""time"":558}]","[]"
"image-keyboard-response","88","117985","0.0-5.0-1.42","5fb7c9fa2be0a83d8f8913b8","bdp_lott","Sat Mar 25 2023 15:50:25 GMT-0700 (PDT)","308123","green","red","","513","","","","choice","","img/red_lw/choose11.jpg","2","183","red","0.5","0.5","0.5","w","",""
"animation","89","118597","0.0-5.0-2.42","5fb7c9fa2be0a83d8f8913b8","bdp_lott","Sat Mar 25 2023 15:50:25 GMT-0700 (PDT)","308123","green","red","","","","","","","","","","183","","","","","","[{""stimulus"":""img/red_lw/1.jpg"",""time"":51},{""stimulus"":""img/red_lw/2.jpg"",""time"":102},{""stimulus"":""img/red_lw/3.jpg"",""time"":153},{""stimulus"":""img/red_lw/4.jpg"",""time"":204},{""stimulus"":""img/red_lw/5.jpg"",""time"":254},{""stimulus"":""img/red_lw/6.jpg"",""time"":304},{""stimulus"":""img/red_lw/7.jpg"",""time"":356},{""stimulus"":""img/red_lw/8.jpg"",""time"":407},{""stimulus"":""img/red_lw/9.jpg"",""time"":458},{""stimulus"":""img/red_lw/10.jpg"",""time"":509},{""stimulus"":""img/red_lw/11.jpg"",""time"":561}]","[]"
"image-keyboard-response","90","119073","0.0-5.0-1.43","5fb7c9fa2be0a83d8f8913b8","bdp_lott","Sat Mar 25 2023 15:50:25 GMT-0700 (PDT)","308123","green","red","","474","","","","choice","","img/red_lw/choose11.jpg","2","182","red","0.5","0.5","0.5","l","",""
"animation","91","119685","0.0-5.0-2.43","5fb7c9fa2be0a83d8f8913b8","bdp_lott","Sat Mar 25 2023 15:50:25 GMT-0700 (PDT)","308123","green","red","","","","","","","","","","182","","","","","","[{""stimulus"":""img/red_ll/1.jpg"",""time"":52},{""stimulus"":""img/red_ll/2.jpg"",""time"":103},{""stimulus"":""img/red_ll/3.jpg"",""time"":154},{""stimulus"":""img/red_ll/4.jpg"",""time"":204},{""stimulus"":""img/red_ll/5.jpg"",""time"":254},{""stimulus"":""img/red_ll/6.jpg"",""time"":305},{""stimulus"":""img/red_ll/7.jpg"",""time"":356},{""stimulus"":""img/red_ll/8.jpg"",""time"":407},{""stimulus"":""img/red_ll/9.jpg"",""time"":458},{""stimulus"":""img/red_ll/10.jpg"",""time"":509},{""stimulus"":""img/red_ll/11.jpg"",""time"":561}]","[]"
"image-keyboard-response","92","120234","0.0-5.0-1.44","5fb7c9fa2be0a83d8f8913b8","bdp_lott","Sat Mar 25 2023 15:50:25 GMT-0700 (PDT)","308123","green","red","","549","","","","choice","","img/red_ll/choose11.jpg","2","181","red","0.5","0.5","0.5","l","",""
"animation","93","120845","0.0-5.0-2.44","5fb7c9fa2be0a83d8f8913b8","bdp_lott","Sat Mar 25 2023 15:50:25 GMT-0700 (PDT)","308123","green","red","","","","","","","","","","181","","","","","","[{""stimulus"":""img/red_ll/1.jpg"",""time"":51},{""stimulus"":""img/red_ll/2.jpg"",""time"":101},{""stimulus"":""img/red_ll/3.jpg"",""time"":152},{""stimulus"":""img/red_ll/4.jpg"",""time"":204},{""stimulus"":""img/red_ll/5.jpg"",""time"":255},{""stimulus"":""img/red_ll/6.jpg"",""time"":306},{""stimulus"":""img/red_ll/7.jpg"",""time"":356},{""stimulus"":""img/red_ll/8.jpg"",""time"":407},{""stimulus"":""img/red_ll/9.jpg"",""time"":458},{""stimulus"":""img/red_ll/10.jpg"",""time"":509},{""stimulus"":""img/red_ll/11.jpg"",""time"":560}]","[]"
"image-keyboard-response","94","121282","0.0-5.0-1.45","5fb7c9fa2be0a83d8f8913b8","bdp_lott","Sat Mar 25 2023 15:50:25 GMT-0700 (PDT)","308123","green","red","","436","","","","choice","","img/red_ll/choose11.jpg","2","180","red","0.5","0.5","0.5","w","",""
"animation","95","121894","0.0-5.0-2.45","5fb7c9fa2be0a83d8f8913b8","bdp_lott","Sat Mar 25 2023 15:50:25 GMT-0700 (PDT)","308123","green","red","","","","","","","","","","180","","","","","","[{""stimulus"":""img/red_lw/1.jpg"",""time"":50},{""stimulus"":""img/red_lw/2.jpg"",""time"":101},{""stimulus"":""img/red_lw/3.jpg"",""time"":153},{""stimulus"":""img/red_lw/4.jpg"",""time"":203},{""stimulus"":""img/red_lw/5.jpg"",""time"":253},{""stimulus"":""img/red_lw/6.jpg"",""time"":304},{""stimulus"":""img/red_lw/7.jpg"",""time"":355},{""stimulus"":""img/red_lw/8.jpg"",""time"":406},{""stimulus"":""img/red_lw/9.jpg"",""time"":457},{""stimulus"":""img/red_lw/10.jpg"",""time"":509},{""stimulus"":""img/red_lw/11.jpg"",""time"":560}]","[]"
"image-keyboard-response","96","122398","0.0-5.0-1.46","5fb7c9fa2be0a83d8f8913b8","bdp_lott","Sat Mar 25 2023 15:50:25 GMT-0700 (PDT)","308123","green","red","","504","","","","choice","","img/red_lw/choose11.jpg","2","179","red","0.5","0.5","0.5","w","",""
"animation","97","123009","0.0-5.0-2.46","5fb7c9fa2be0a83d8f8913b8","bdp_lott","Sat Mar 25 2023 15:50:25 GMT-0700 (PDT)","308123","green","red","","","","","","","","","","179","","","","","","[{""stimulus"":""img/red_lw/1.jpg"",""time"":51},{""stimulus"":""img/red_lw/2.jpg"",""time"":102},{""stimulus"":""img/red_lw/3.jpg"",""time"":153},{""stimulus"":""img/red_lw/4.jpg"",""time"":203},{""stimulus"":""img/red_lw/5.jpg"",""time"":253},{""stimulus"":""img/red_lw/6.jpg"",""time"":304},{""stimulus"":""img/red_lw/7.jpg"",""time"":355},{""stimulus"":""img/red_lw/8.jpg"",""time"":406},{""stimulus"":""img/red_lw/9.jpg"",""time"":457},{""stimulus"":""img/red_lw/10.jpg"",""time"":508},{""stimulus"":""img/red_lw/11.jpg"",""time"":559}]","[]"
"image-keyboard-response","98","123486","0.0-5.0-1.47","5fb7c9fa2be0a83d8f8913b8","bdp_lott","Sat Mar 25 2023 15:50:25 GMT-0700 (PDT)","308123","green","red","","476","","","","choice","","img/red_lw/choose11.jpg","2","178","red","0.5","0.5","0.5","w","",""
"animation","99","124099","0.0-5.0-2.47","5fb7c9fa2be0a83d8f8913b8","bdp_lott","Sat Mar 25 2023 15:50:25 GMT-0700 (PDT)","308123","green","red","","","","","","","","","","178","","","","","","[{""stimulus"":""img/red_lw/1.jpg"",""time"":51},{""stimulus"":""img/red_lw/2.jpg"",""time"":102},{""stimulus"":""img/red_lw/3.jpg"",""time"":152},{""stimulus"":""img/red_lw/4.jpg"",""time"":203},{""stimulus"":""img/red_lw/5.jpg"",""time"":254},{""stimulus"":""img/red_lw/6.jpg"",""time"":305},{""stimulus"":""img/red_lw/7.jpg"",""time"":356},{""stimulus"":""img/red_lw/8.jpg"",""time"":407},{""stimulus"":""img/red_lw/9.jpg"",""time"":458},{""stimulus"":""img/red_lw/10.jpg"",""time"":509},{""stimulus"":""img/red_lw/11.jpg"",""time"":560}]","[]"
"image-keyboard-response","100","124558","0.0-5.0-1.48","5fb7c9fa2be0a83d8f8913b8","bdp_lott","Sat Mar 25 2023 15:50:25 GMT-0700 (PDT)","308123","green","red","","459","","","","choice","","img/red_lw/choose11.jpg","2","177","red","0.5","0.5","0.5","l","",""
"animation","101","125170","0.0-5.0-2.48","5fb7c9fa2be0a83d8f8913b8","bdp_lott","Sat Mar 25 2023 15:50:25 GMT-0700 (PDT)","308123","green","red","","","","","","","","","","177","","","","","","[{""stimulus"":""img/red_ll/1.jpg"",""time"":50},{""stimulus"":""img/red_ll/2.jpg"",""time"":101},{""stimulus"":""img/red_ll/3.jpg"",""time"":152},{""stimulus"":""img/red_ll/4.jpg"",""time"":204},{""stimulus"":""img/red_ll/5.jpg"",""time"":255},{""stimulus"":""img/red_ll/6.jpg"",""time"":306},{""stimulus"":""img/red_ll/7.jpg"",""time"":357},{""stimulus"":""img/red_ll/8.jpg"",""time"":408},{""stimulus"":""img/red_ll/9.jpg"",""time"":459},{""stimulus"":""img/red_ll/10.jpg"",""time"":510},{""stimulus"":""img/red_ll/11.jpg"",""time"":560}]","[]"
"image-keyboard-response","102","125647","0.0-5.0-1.49","5fb7c9fa2be0a83d8f8913b8","bdp_lott","Sat Mar 25 2023 15:50:25 GMT-0700 (PDT)","308123","green","red","","476","","","","choice","","img/red_ll/choose11.jpg","2","176","red","0.5","0.5","0.5","l","",""
"animation","103","126260","0.0-5.0-2.49","5fb7c9fa2be0a83d8f8913b8","bdp_lott","Sat Mar 25 2023 15:50:25 GMT-0700 (PDT)","308123","green","red","","","","","","","","","","176","","","","","","[{""stimulus"":""img/red_ll/1.jpg"",""time"":52},{""stimulus"":""img/red_ll/2.jpg"",""time"":103},{""stimulus"":""img/red_ll/3.jpg"",""time"":154},{""stimulus"":""img/red_ll/4.jpg"",""time"":204},{""stimulus"":""img/red_ll/5.jpg"",""time"":255},{""stimulus"":""img/red_ll/6.jpg"",""time"":306},{""stimulus"":""img/red_ll/7.jpg"",""time"":357},{""stimulus"":""img/red_ll/8.jpg"",""time"":408},{""stimulus"":""img/red_ll/9.jpg"",""time"":460},{""stimulus"":""img/red_ll/10.jpg"",""time"":510},{""stimulus"":""img/red_ll/11.jpg"",""time"":562}]","[]"
"image-keyboard-response","104","126656","0.0-5.0-1.50","5fb7c9fa2be0a83d8f8913b8","bdp_lott","Sat Mar 25 2023 15:50:25 GMT-0700 (PDT)","308123","green","red","","396","","","","choice","","img/red_ll/choose11.jpg","2","175","red","0.5","0.5","0.5","w","",""
"animation","105","127266","0.0-5.0-2.50","5fb7c9fa2be0a83d8f8913b8","bdp_lott","Sat Mar 25 2023 15:50:25 GMT-0700 (PDT)","308123","green","red","","","","","","","","","","175","","","","","","[{""stimulus"":""img/red_lw/1.jpg"",""time"":52},{""stimulus"":""img/red_lw/2.jpg"",""time"":102},{""stimulus"":""img/red_lw/3.jpg"",""time"":153},{""stimulus"":""img/red_lw/4.jpg"",""time"":204},{""stimulus"":""img/red_lw/5.jpg"",""time"":255},{""stimulus"":""img/red_lw/6.jpg"",""time"":305},{""stimulus"":""img/red_lw/7.jpg"",""time"":356},{""stimulus"":""img/red_lw/8.jpg"",""time"":407},{""stimulus"":""img/red_lw/9.jpg"",""time"":458},{""stimulus"":""img/red_lw/10.jpg"",""time"":509},{""stimulus"":""img/red_lw/11.jpg"",""time"":560}]","[]"
"image-keyboard-response","106","127856","0.0-5.0-1.51","5fb7c9fa2be0a83d8f8913b8","bdp_lott","Sat Mar 25 2023 15:50:25 GMT-0700 (PDT)","308123","green","red","","589","","","","choice","","img/red_lw/choose11.jpg","2","174","red","0.5","0.5","0.5","l","",""
"animation","107","128465","0.0-5.0-2.51","5fb7c9fa2be0a83d8f8913b8","bdp_lott","Sat Mar 25 2023 15:50:25 GMT-0700 (PDT)","308123","green","red","","","","","","","","","","174","","","","","","[{""stimulus"":""img/red_ll/1.jpg"",""time"":51},{""stimulus"":""img/red_ll/2.jpg"",""time"":101},{""stimulus"":""img/red_ll/3.jpg"",""time"":152},{""stimulus"":""img/red_ll/4.jpg"",""time"":202},{""stimulus"":""img/red_ll/5.jpg"",""time"":252},{""stimulus"":""img/red_ll/6.jpg"",""time"":303},{""stimulus"":""img/red_ll/7.jpg"",""time"":354},{""stimulus"":""img/red_ll/8.jpg"",""time"":406},{""stimulus"":""img/red_ll/9.jpg"",""time"":457},{""stimulus"":""img/red_ll/10.jpg"",""time"":508},{""stimulus"":""img/red_ll/11.jpg"",""time"":559}]","[]"
"image-keyboard-response","108","128819","0.0-5.0-1.52","5fb7c9fa2be0a83d8f8913b8","bdp_lott","Sat Mar 25 2023 15:50:25 GMT-0700 (PDT)","308123","green","red","","353","","","","choice","","img/red_ll/choose11.jpg","2","173","red","0.5","0.5","0.5","w","",""
"animation","109","129431","0.0-5.0-2.52","5fb7c9fa2be0a83d8f8913b8","bdp_lott","Sat Mar 25 2023 15:50:25 GMT-0700 (PDT)","308123","green","red","","","","","","","","","","173","","","","","","[{""stimulus"":""img/red_lw/1.jpg"",""time"":50},{""stimulus"":""img/red_lw/2.jpg"",""time"":102},{""stimulus"":""img/red_lw/3.jpg"",""time"":153},{""stimulus"":""img/red_lw/4.jpg"",""time"":203},{""stimulus"":""img/red_lw/5.jpg"",""time"":254},{""stimulus"":""img/red_lw/6.jpg"",""time"":304},{""stimulus"":""img/red_lw/7.jpg"",""time"":356},{""stimulus"":""img/red_lw/8.jpg"",""time"":407},{""stimulus"":""img/red_lw/9.jpg"",""time"":458},{""stimulus"":""img/red_lw/10.jpg"",""time"":509},{""stimulus"":""img/red_lw/11.jpg"",""time"":560}]","[]"
"image-keyboard-response","110","129918","0.0-5.0-1.53","5fb7c9fa2be0a83d8f8913b8","bdp_lott","Sat Mar 25 2023 15:50:25 GMT-0700 (PDT)","308123","green","red","","485","","","","choice","","img/red_lw/choose11.jpg","2","172","red","0.5","0.5","0.5","l","",""
"animation","111","130529","0.0-5.0-2.53","5fb7c9fa2be0a83d8f8913b8","bdp_lott","Sat Mar 25 2023 15:50:25 GMT-0700 (PDT)","308123","green","red","","","","","","","","","","172","","","","","","[{""stimulus"":""img/red_ll/1.jpg"",""time"":52},{""stimulus"":""img/red_ll/2.jpg"",""time"":102},{""stimulus"":""img/red_ll/3.jpg"",""time"":152},{""stimulus"":""img/red_ll/4.jpg"",""time"":203},{""stimulus"":""img/red_ll/5.jpg"",""time"":254},{""stimulus"":""img/red_ll/6.jpg"",""time"":305},{""stimulus"":""img/red_ll/7.jpg"",""time"":356},{""stimulus"":""img/red_ll/8.jpg"",""time"":407},{""stimulus"":""img/red_ll/9.jpg"",""time"":459},{""stimulus"":""img/red_ll/10.jpg"",""time"":510},{""stimulus"":""img/red_ll/11.jpg"",""time"":561}]","[]"
"image-keyboard-response","112","130940","0.0-5.0-1.54","5fb7c9fa2be0a83d8f8913b8","bdp_lott","Sat Mar 25 2023 15:50:25 GMT-0700 (PDT)","308123","green","red","","411","","","","choice","","img/red_ll/choose11.jpg","2","171","red","0.5","0.5","0.5","w","",""
"animation","113","131553","0.0-5.0-2.54","5fb7c9fa2be0a83d8f8913b8","bdp_lott","Sat Mar 25 2023 15:50:25 GMT-0700 (PDT)","308123","green","red","","","","","","","","","","171","","","","","","[{""stimulus"":""img/red_lw/1.jpg"",""time"":51},{""stimulus"":""img/red_lw/2.jpg"",""time"":102},{""stimulus"":""img/red_lw/3.jpg"",""time"":154},{""stimulus"":""img/red_lw/4.jpg"",""time"":204},{""stimulus"":""img/red_lw/5.jpg"",""time"":255},{""stimulus"":""img/red_lw/6.jpg"",""time"":305},{""stimulus"":""img/red_lw/7.jpg"",""time"":357},{""stimulus"":""img/red_lw/8.jpg"",""time"":408},{""stimulus"":""img/red_lw/9.jpg"",""time"":459},{""stimulus"":""img/red_lw/10.jpg"",""time"":510},{""stimulus"":""img/red_lw/11.jpg"",""time"":560}]","[]"
"image-keyboard-response","114","133182","0.0-5.0-1.55","5fb7c9fa2be0a83d8f8913b8","bdp_lott","Sat Mar 25 2023 15:50:25 GMT-0700 (PDT)","308123","green","red","","1629","","","","choice","","img/red_lw/choose11.jpg","2","170","red","0.5","0.5","0.5","w","",""
"animation","115","133792","0.0-5.0-2.55","5fb7c9fa2be0a83d8f8913b8","bdp_lott","Sat Mar 25 2023 15:50:25 GMT-0700 (PDT)","308123","green","red","","","","","","","","","","170","","","","","","[{""stimulus"":""img/red_lw/1.jpg"",""time"":50},{""stimulus"":""img/red_lw/2.jpg"",""time"":102},{""stimulus"":""img/red_lw/3.jpg"",""time"":153},{""stimulus"":""img/red_lw/4.jpg"",""time"":203},{""stimulus"":""img/red_lw/5.jpg"",""time"":253},{""stimulus"":""img/red_lw/6.jpg"",""time"":303},{""stimulus"":""img/red_lw/7.jpg"",""time"":354},{""stimulus"":""img/red_lw/8.jpg"",""time"":405},{""stimulus"":""img/red_lw/9.jpg"",""time"":456},{""stimulus"":""img/red_lw/10.jpg"",""time"":507},{""stimulus"":""img/red_lw/11.jpg"",""time"":558}]","[]"
"image-keyboard-response","116","134457","0.0-5.0-1.56","5fb7c9fa2be0a83d8f8913b8","bdp_lott","Sat Mar 25 2023 15:50:25 GMT-0700 (PDT)","308123","green","red","","664","","","","choice","","img/red_lw/choose11.jpg","2","169","red","0.5","0.5","0.5","w","",""
"animation","117","135069","0.0-5.0-2.56","5fb7c9fa2be0a83d8f8913b8","bdp_lott","Sat Mar 25 2023 15:50:25 GMT-0700 (PDT)","308123","green","red","","","","","","","","","","169","","","","","","[{""stimulus"":""img/red_lw/1.jpg"",""time"":51},{""stimulus"":""img/red_lw/2.jpg"",""time"":102},{""stimulus"":""img/red_lw/3.jpg"",""time"":153},{""stimulus"":""img/red_lw/4.jpg"",""time"":204},{""stimulus"":""img/red_lw/5.jpg"",""time"":255},{""stimulus"":""img/red_lw/6.jpg"",""time"":307},{""stimulus"":""img/red_lw/7.jpg"",""time"":358},{""stimulus"":""img/red_lw/8.jpg"",""time"":408},{""stimulus"":""img/red_lw/9.jpg"",""time"":459},{""stimulus"":""img/red_lw/10.jpg"",""time"":510},{""stimulus"":""img/red_lw/11.jpg"",""time"":561}]","[]"
"image-keyboard-response","118","135553","0.0-5.0-1.57","5fb7c9fa2be0a83d8f8913b8","bdp_lott","Sat Mar 25 2023 15:50:25 GMT-0700 (PDT)","308123","green","red","","483","","","","choice","","img/red_lw/choose11.jpg","2","168","red","0.5","0.5","0.5","l","",""
"animation","119","136166","0.0-5.0-2.57","5fb7c9fa2be0a83d8f8913b8","bdp_lott","Sat Mar 25 2023 15:50:25 GMT-0700 (PDT)","308123","green","red","","","","","","","","","","168","","","","","","[{""stimulus"":""img/red_ll/1.jpg"",""time"":51},{""stimulus"":""img/red_ll/2.jpg"",""time"":102},{""stimulus"":""img/red_ll/3.jpg"",""time"":154},{""stimulus"":""img/red_ll/4.jpg"",""time"":204},{""stimulus"":""img/red_ll/5.jpg"",""time"":255},{""stimulus"":""img/red_ll/6.jpg"",""time"":306},{""stimulus"":""img/red_ll/7.jpg"",""time"":357},{""stimulus"":""img/red_ll/8.jpg"",""time"":409},{""stimulus"":""img/red_ll/9.jpg"",""time"":459},{""stimulus"":""img/red_ll/10.jpg"",""time"":511},{""stimulus"":""img/red_ll/11.jpg"",""time"":562}]","[]"
"image-keyboard-response","120","136753","0.0-5.0-1.58","5fb7c9fa2be0a83d8f8913b8","bdp_lott","Sat Mar 25 2023 15:50:25 GMT-0700 (PDT)","308123","green","red","","587","","","","choice","","img/red_ll/choose11.jpg","2","167","red","0.5","0.5","0.5","l","",""
"animation","121","137366","0.0-5.0-2.58","5fb7c9fa2be0a83d8f8913b8","bdp_lott","Sat Mar 25 2023 15:50:25 GMT-0700 (PDT)","308123","green","red","","","","","","","","","","167","","","","","","[{""stimulus"":""img/red_ll/1.jpg"",""time"":51},{""stimulus"":""img/red_ll/2.jpg"",""time"":102},{""stimulus"":""img/red_ll/3.jpg"",""time"":154},{""stimulus"":""img/red_ll/4.jpg"",""time"":205},{""stimulus"":""img/red_ll/5.jpg"",""time"":256},{""stimulus"":""img/red_ll/6.jpg"",""time"":307},{""stimulus"":""img/red_ll/7.jpg"",""time"":357},{""stimulus"":""img/red_ll/8.jpg"",""time"":408},{""stimulus"":""img/red_ll/9.jpg"",""time"":459},{""stimulus"":""img/red_ll/10.jpg"",""time"":511},{""stimulus"":""img/red_ll/11.jpg"",""time"":562}]","[]"
"image-keyboard-response","122","137817","0.0-5.0-1.59","5fb7c9fa2be0a83d8f8913b8","bdp_lott","Sat Mar 25 2023 15:50:25 GMT-0700 (PDT)","308123","green","red","","451","","","","choice","","img/red_ll/choose11.jpg","2","166","red","0.5","0.5","0.5","l","",""
"animation","123","138428","0.0-5.0-2.59","5fb7c9fa2be0a83d8f8913b8","bdp_lott","Sat Mar 25 2023 15:50:25 GMT-0700 (PDT)","308123","green","red","","","","","","","","","","166","","","","","","[{""stimulus"":""img/red_ll/1.jpg"",""time"":52},{""stimulus"":""img/red_ll/2.jpg"",""time"":103},{""stimulus"":""img/red_ll/3.jpg"",""time"":153},{""stimulus"":""img/red_ll/4.jpg"",""time"":204},{""stimulus"":""img/red_ll/5.jpg"",""time"":255},{""stimulus"":""img/red_ll/6.jpg"",""time"":306},{""stimulus"":""img/red_ll/7.jpg"",""time"":356},{""stimulus"":""img/red_ll/8.jpg"",""time"":407},{""stimulus"":""img/red_ll/9.jpg"",""time"":457},{""stimulus"":""img/red_ll/10.jpg"",""time"":509},{""stimulus"":""img/red_ll/11.jpg"",""time"":560}]","[]"
"image-keyboard-response","124","138899","0.0-5.0-1.60","5fb7c9fa2be0a83d8f8913b8","bdp_lott","Sat Mar 25 2023 15:50:25 GMT-0700 (PDT)","308123","green","red","","471","","","","choice","","img/red_ll/choose11.jpg","2","165","red","0.5","0.5","0.5","w","",""
"animation","125","139510","0.0-5.0-2.60","5fb7c9fa2be0a83d8f8913b8","bdp_lott","Sat Mar 25 2023 15:50:25 GMT-0700 (PDT)","308123","green","red","","","","","","","","","","165","","","","","","[{""stimulus"":""img/red_lw/1.jpg"",""time"":51},{""stimulus"":""img/red_lw/2.jpg"",""time"":101},{""stimulus"":""img/red_lw/3.jpg"",""time"":152},{""stimulus"":""img/red_lw/4.jpg"",""time"":203},{""stimulus"":""img/red_lw/5.jpg"",""time"":253},{""stimulus"":""img/red_lw/6.jpg"",""time"":305},{""stimulus"":""img/red_lw/7.jpg"",""time"":356},{""stimulus"":""img/red_lw/8.jpg"",""time"":406},{""stimulus"":""img/red_lw/9.jpg"",""time"":457},{""stimulus"":""img/red_lw/10.jpg"",""time"":508},{""stimulus"":""img/red_lw/11.jpg"",""time"":560}]","[]"
"image-keyboard-response","126","140112","0.0-5.0-1.61","5fb7c9fa2be0a83d8f8913b8","bdp_lott","Sat Mar 25 2023 15:50:25 GMT-0700 (PDT)","308123","green","red","","602","","","","choice","","img/red_lw/choose11.jpg","2","164","red","0.5","0.5","0.5","w","",""
"animation","127","140724","0.0-5.0-2.61","5fb7c9fa2be0a83d8f8913b8","bdp_lott","Sat Mar 25 2023 15:50:25 GMT-0700 (PDT)","308123","green","red","","","","","","","","","","164","","","","","","[{""stimulus"":""img/red_lw/1.jpg"",""time"":51},{""stimulus"":""img/red_lw/2.jpg"",""time"":102},{""stimulus"":""img/red_lw/3.jpg"",""time"":153},{""stimulus"":""img/red_lw/4.jpg"",""time"":204},{""stimulus"":""img/red_lw/5.jpg"",""time"":255},{""stimulus"":""img/red_lw/6.jpg"",""time"":305},{""stimulus"":""img/red_lw/7.jpg"",""time"":356},{""stimulus"":""img/red_lw/8.jpg"",""time"":407},{""stimulus"":""img/red_lw/9.jpg"",""time"":458},{""stimulus"":""img/red_lw/10.jpg"",""time"":509},{""stimulus"":""img/red_lw/11.jpg"",""time"":560}]","[]"
"image-keyboard-response","128","141201","0.0-5.0-1.62","5fb7c9fa2be0a83d8f8913b8","bdp_lott","Sat Mar 25 2023 15:50:25 GMT-0700 (PDT)","308123","green","red","","476","","","","choice","","img/red_lw/choose11.jpg","2","163","red","0.5","0.5","0.5","w","",""
"animation","129","141813","0.0-5.0-2.62","5fb7c9fa2be0a83d8f8913b8","bdp_lott","Sat Mar 25 2023 15:50:25 GMT-0700 (PDT)","308123","green","red","","","","","","","","","","163","","","","","","[{""stimulus"":""img/red_lw/1.jpg"",""time"":50},{""stimulus"":""img/red_lw/2.jpg"",""time"":101},{""stimulus"":""img/red_lw/3.jpg"",""time"":152},{""stimulus"":""img/red_lw/4.jpg"",""time"":202},{""stimulus"":""img/red_lw/5.jpg"",""time"":253},{""stimulus"":""img/red_lw/6.jpg"",""time"":305},{""stimulus"":""img/red_lw/7.jpg"",""time"":356},{""stimulus"":""img/red_lw/8.jpg"",""time"":406},{""stimulus"":""img/red_lw/9.jpg"",""time"":457},{""stimulus"":""img/red_lw/10.jpg"",""time"":508},{""stimulus"":""img/red_lw/11.jpg"",""time"":559}]","[]"
"image-keyboard-response","130","142303","0.0-5.0-1.63","5fb7c9fa2be0a83d8f8913b8","bdp_lott","Sat Mar 25 2023 15:50:25 GMT-0700 (PDT)","308123","green","red","","490","","","","choice","","img/red_lw/choose11.jpg","2","162","red","0.5","0.5","0.5","w","",""
"animation","131","142915","0.0-5.0-2.63","5fb7c9fa2be0a83d8f8913b8","bdp_lott","Sat Mar 25 2023 15:50:25 GMT-0700 (PDT)","308123","green","red","","","","","","","","","","162","","","","","","[{""stimulus"":""img/red_lw/1.jpg"",""time"":52},{""stimulus"":""img/red_lw/2.jpg"",""time"":102},{""stimulus"":""img/red_lw/3.jpg"",""time"":153},{""stimulus"":""img/red_lw/4.jpg"",""time"":204},{""stimulus"":""img/red_lw/5.jpg"",""time"":255},{""stimulus"":""img/red_lw/6.jpg"",""time"":305},{""stimulus"":""img/red_lw/7.jpg"",""time"":356},{""stimulus"":""img/red_lw/8.jpg"",""time"":407},{""stimulus"":""img/red_lw/9.jpg"",""time"":458},{""stimulus"":""img/red_lw/10.jpg"",""time"":510},{""stimulus"":""img/red_lw/11.jpg"",""time"":561}]","[]"
"image-keyboard-response","132","143387","0.0-5.0-1.64","5fb7c9fa2be0a83d8f8913b8","bdp_lott","Sat Mar 25 2023 15:50:25 GMT-0700 (PDT)","308123","green","red","","471","","","","choice","","img/red_lw/choose11.jpg","2","161","red","0.5","0.5","0.5","w","",""
"animation","133","143999","0.0-5.0-2.64","5fb7c9fa2be0a83d8f8913b8","bdp_lott","Sat Mar 25 2023 15:50:25 GMT-0700 (PDT)","308123","green","red","","","","","","","","","","161","","","","","","[{""stimulus"":""img/red_lw/1.jpg"",""time"":52},{""stimulus"":""img/red_lw/2.jpg"",""time"":103},{""stimulus"":""img/red_lw/3.jpg"",""time"":154},{""stimulus"":""img/red_lw/4.jpg"",""time"":204},{""stimulus"":""img/red_lw/5.jpg"",""time"":255},{""stimulus"":""img/red_lw/6.jpg"",""time"":306},{""stimulus"":""img/red_lw/7.jpg"",""time"":357},{""stimulus"":""img/red_lw/8.jpg"",""time"":408},{""stimulus"":""img/red_lw/9.jpg"",""time"":460},{""stimulus"":""img/red_lw/10.jpg"",""time"":511},{""stimulus"":""img/red_lw/11.jpg"",""time"":562}]","[]"
"image-keyboard-response","134","144512","0.0-5.0-1.65","5fb7c9fa2be0a83d8f8913b8","bdp_lott","Sat Mar 25 2023 15:50:25 GMT-0700 (PDT)","308123","green","red","","512","","","","choice","","img/red_lw/choose11.jpg","2","160","red","0.5","0.5","0.5","l","",""
"animation","135","145124","0.0-5.0-2.65","5fb7c9fa2be0a83d8f8913b8","bdp_lott","Sat Mar 25 2023 15:50:25 GMT-0700 (PDT)","308123","green","red","","","","","","","","","","160","","","","","","[{""stimulus"":""img/red_ll/1.jpg"",""time"":52},{""stimulus"":""img/red_ll/2.jpg"",""time"":103},{""stimulus"":""img/red_ll/3.jpg"",""time"":154},{""stimulus"":""img/red_ll/4.jpg"",""time"":204},{""stimulus"":""img/red_ll/5.jpg"",""time"":255},{""stimulus"":""img/red_ll/6.jpg"",""time"":306},{""stimulus"":""img/red_ll/7.jpg"",""time"":357},{""stimulus"":""img/red_ll/8.jpg"",""time"":408},{""stimulus"":""img/red_ll/9.jpg"",""time"":459},{""stimulus"":""img/red_ll/10.jpg"",""time"":511},{""stimulus"":""img/red_ll/11.jpg"",""time"":562}]","[]"
"image-keyboard-response","136","145582","0.0-5.0-1.66","5fb7c9fa2be0a83d8f8913b8","bdp_lott","Sat Mar 25 2023 15:50:25 GMT-0700 (PDT)","308123","green","red","","456","","","","choice","","img/red_ll/choose11.jpg","2","159","red","0.5","0.5","0.5","l","",""
"animation","137","146192","0.0-5.0-2.66","5fb7c9fa2be0a83d8f8913b8","bdp_lott","Sat Mar 25 2023 15:50:25 GMT-0700 (PDT)","308123","green","red","","","","","","","","","","159","","","","","","[{""stimulus"":""img/red_ll/1.jpg"",""time"":51},{""stimulus"":""img/red_ll/2.jpg"",""time"":102},{""stimulus"":""img/red_ll/3.jpg"",""time"":152},{""stimulus"":""img/red_ll/4.jpg"",""time"":204},{""stimulus"":""img/red_ll/5.jpg"",""time"":254},{""stimulus"":""img/red_ll/6.jpg"",""time"":305},{""stimulus"":""img/red_ll/7.jpg"",""time"":356},{""stimulus"":""img/red_ll/8.jpg"",""time"":407},{""stimulus"":""img/red_ll/9.jpg"",""time"":458},{""stimulus"":""img/red_ll/10.jpg"",""time"":509},{""stimulus"":""img/red_ll/11.jpg"",""time"":559}]","[]"
"image-keyboard-response","138","146579","0.0-5.0-1.67","5fb7c9fa2be0a83d8f8913b8","bdp_lott","Sat Mar 25 2023 15:50:25 GMT-0700 (PDT)","308123","green","red","","387","","","","choice","","img/red_ll/choose11.jpg","2","158","red","0.5","0.5","0.5","w","",""
"animation","139","147189","0.0-5.0-2.67","5fb7c9fa2be0a83d8f8913b8","bdp_lott","Sat Mar 25 2023 15:50:25 GMT-0700 (PDT)","308123","green","red","","","","","","","","","","158","","","","","","[{""stimulus"":""img/red_lw/1.jpg"",""time"":50},{""stimulus"":""img/red_lw/2.jpg"",""time"":101},{""stimulus"":""img/red_lw/3.jpg"",""time"":151},{""stimulus"":""img/red_lw/4.jpg"",""time"":202},{""stimulus"":""img/red_lw/5.jpg"",""time"":253},{""stimulus"":""img/red_lw/6.jpg"",""time"":303},{""stimulus"":""img/red_lw/7.jpg"",""time"":354},{""stimulus"":""img/red_lw/8.jpg"",""time"":406},{""stimulus"":""img/red_lw/9.jpg"",""time"":456},{""stimulus"":""img/red_lw/10.jpg"",""time"":507},{""stimulus"":""img/red_lw/11.jpg"",""time"":558}]","[]"
"image-keyboard-response","140","147638","0.0-5.0-1.68","5fb7c9fa2be0a83d8f8913b8","bdp_lott","Sat Mar 25 2023 15:50:25 GMT-0700 (PDT)","308123","green","red","","449","","","","choice","","img/red_lw/choose11.jpg","2","157","red","0.5","0.5","0.5","l","",""
"animation","141","148251","0.0-5.0-2.68","5fb7c9fa2be0a83d8f8913b8","bdp_lott","Sat Mar 25 2023 15:50:25 GMT-0700 (PDT)","308123","green","red","","","","","","","","","","157","","","","","","[{""stimulus"":""img/red_ll/1.jpg"",""time"":51},{""stimulus"":""img/red_ll/2.jpg"",""time"":102},{""stimulus"":""img/red_ll/3.jpg"",""time"":153},{""stimulus"":""img/red_ll/4.jpg"",""time"":205},{""stimulus"":""img/red_ll/5.jpg"",""time"":255},{""stimulus"":""img/red_ll/6.jpg"",""time"":305},{""stimulus"":""img/red_ll/7.jpg"",""time"":356},{""stimulus"":""img/red_ll/8.jpg"",""time"":408},{""stimulus"":""img/red_ll/9.jpg"",""time"":459},{""stimulus"":""img/red_ll/10.jpg"",""time"":510},{""stimulus"":""img/red_ll/11.jpg"",""time"":561}]","[]"
"image-keyboard-response","142","148637","0.0-5.0-1.69","5fb7c9fa2be0a83d8f8913b8","bdp_lott","Sat Mar 25 2023 15:50:25 GMT-0700 (PDT)","308123","green","red","","386","","","","choice","","img/red_ll/choose11.jpg","2","156","red","0.5","0.5","0.5","l","",""
"animation","143","149249","0.0-5.0-2.69","5fb7c9fa2be0a83d8f8913b8","bdp_lott","Sat Mar 25 2023 15:50:25 GMT-0700 (PDT)","308123","green","red","","","","","","","","","","156","","","","","","[{""stimulus"":""img/red_ll/1.jpg"",""time"":52},{""stimulus"":""img/red_ll/2.jpg"",""time"":103},{""stimulus"":""img/red_ll/3.jpg"",""time"":154},{""stimulus"":""img/red_ll/4.jpg"",""time"":204},{""stimulus"":""img/red_ll/5.jpg"",""time"":255},{""stimulus"":""img/red_ll/6.jpg"",""time"":307},{""stimulus"":""img/red_ll/7.jpg"",""time"":358},{""stimulus"":""img/red_ll/8.jpg"",""time"":408},{""stimulus"":""img/red_ll/9.jpg"",""time"":460},{""stimulus"":""img/red_ll/10.jpg"",""time"":511},{""stimulus"":""img/red_ll/11.jpg"",""time"":562}]","[]"
"image-keyboard-response","144","149614","0.0-5.0-1.70","5fb7c9fa2be0a83d8f8913b8","bdp_lott","Sat Mar 25 2023 15:50:25 GMT-0700 (PDT)","308123","green","red","","364","","","","choice","","img/red_ll/choose11.jpg","2","155","red","0.5","0.5","0.5","l","",""
"animation","145","150224","0.0-5.0-2.70","5fb7c9fa2be0a83d8f8913b8","bdp_lott","Sat Mar 25 2023 15:50:25 GMT-0700 (PDT)","308123","green","red","","","","","","","","","","155","","","","","","[{""stimulus"":""img/red_ll/1.jpg"",""time"":52},{""stimulus"":""img/red_ll/2.jpg"",""time"":103},{""stimulus"":""img/red_ll/3.jpg"",""time"":154},{""stimulus"":""img/red_ll/4.jpg"",""time"":204},{""stimulus"":""img/red_ll/5.jpg"",""time"":255},{""stimulus"":""img/red_ll/6.jpg"",""time"":306},{""stimulus"":""img/red_ll/7.jpg"",""time"":357},{""stimulus"":""img/red_ll/8.jpg"",""time"":407},{""stimulus"":""img/red_ll/9.jpg"",""time"":458},{""stimulus"":""img/red_ll/10.jpg"",""time"":509},{""stimulus"":""img/red_ll/11.jpg"",""time"":560}]","[]"
"image-keyboard-response","146","150685","0.0-5.0-1.71","5fb7c9fa2be0a83d8f8913b8","bdp_lott","Sat Mar 25 2023 15:50:25 GMT-0700 (PDT)","308123","green","red","","460","","","","choice","","img/red_ll/choose11.jpg","2","154","red","0.5","0.5","0.5","l","",""
"animation","147","151296","0.0-5.0-2.71","5fb7c9fa2be0a83d8f8913b8","bdp_lott","Sat Mar 25 2023 15:50:25 GMT-0700 (PDT)","308123","green","red","","","","","","","","","","154","","","","","","[{""stimulus"":""img/red_ll/1.jpg"",""time"":51},{""stimulus"":""img/red_ll/2.jpg"",""time"":101},{""stimulus"":""img/red_ll/3.jpg"",""time"":152},{""stimulus"":""img/red_ll/4.jpg"",""time"":203},{""stimulus"":""img/red_ll/5.jpg"",""time"":254},{""stimulus"":""img/red_ll/6.jpg"",""time"":305},{""stimulus"":""img/red_ll/7.jpg"",""time"":355},{""stimulus"":""img/red_ll/8.jpg"",""time"":406},{""stimulus"":""img/red_ll/9.jpg"",""time"":458},{""stimulus"":""img/red_ll/10.jpg"",""time"":509},{""stimulus"":""img/red_ll/11.jpg"",""time"":560}]","[]"
"image-keyboard-response","148","151710","0.0-5.0-1.72","5fb7c9fa2be0a83d8f8913b8","bdp_lott","Sat Mar 25 2023 15:50:25 GMT-0700 (PDT)","308123","green","red","","413","","","","choice","","img/red_ll/choose11.jpg","2","153","red","0.5","0.5","0.5","w","",""
"animation","149","152321","0.0-5.0-2.72","5fb7c9fa2be0a83d8f8913b8","bdp_lott","Sat Mar 25 2023 15:50:25 GMT-0700 (PDT)","308123","green","red","","","","","","","","","","153","","","","","","[{""stimulus"":""img/red_lw/1.jpg"",""time"":52},{""stimulus"":""img/red_lw/2.jpg"",""time"":103},{""stimulus"":""img/red_lw/3.jpg"",""time"":154},{""stimulus"":""img/red_lw/4.jpg"",""time"":205},{""stimulus"":""img/red_lw/5.jpg"",""time"":256},{""stimulus"":""img/red_lw/6.jpg"",""time"":307},{""stimulus"":""img/red_lw/7.jpg"",""time"":358},{""stimulus"":""img/red_lw/8.jpg"",""time"":408},{""stimulus"":""img/red_lw/9.jpg"",""time"":458},{""stimulus"":""img/red_lw/10.jpg"",""time"":510},{""stimulus"":""img/red_lw/11.jpg"",""time"":560}]","[]"
"image-keyboard-response","150","152843","0.0-5.0-1.73","5fb7c9fa2be0a83d8f8913b8","bdp_lott","Sat Mar 25 2023 15:50:25 GMT-0700 (PDT)","308123","green","red","","522","","","","choice","","img/red_lw/choose11.jpg","2","152","red","0.5","0.5","0.5","l","",""
"animation","151","153456","0.0-5.0-2.73","5fb7c9fa2be0a83d8f8913b8","bdp_lott","Sat Mar 25 2023 15:50:25 GMT-0700 (PDT)","308123","green","red","","","","","","","","","","152","","","","","","[{""stimulus"":""img/red_ll/1.jpg"",""time"":52},{""stimulus"":""img/red_ll/2.jpg"",""time"":103},{""stimulus"":""img/red_ll/3.jpg"",""time"":154},{""stimulus"":""img/red_ll/4.jpg"",""time"":205},{""stimulus"":""img/red_ll/5.jpg"",""time"":256},{""stimulus"":""img/red_ll/6.jpg"",""time"":307},{""stimulus"":""img/red_ll/7.jpg"",""time"":358},{""stimulus"":""img/red_ll/8.jpg"",""time"":409},{""stimulus"":""img/red_ll/9.jpg"",""time"":460},{""stimulus"":""img/red_ll/10.jpg"",""time"":511},{""stimulus"":""img/red_ll/11.jpg"",""time"":562}]","[]"
"image-keyboard-response","152","153777","0.0-5.0-1.74","5fb7c9fa2be0a83d8f8913b8","bdp_lott","Sat Mar 25 2023 15:50:25 GMT-0700 (PDT)","308123","green","red","","320","","","","choice","","img/red_ll/choose11.jpg","2","151","red","0.5","0.5","0.5","l","",""
"animation","153","154387","0.0-5.0-2.74","5fb7c9fa2be0a83d8f8913b8","bdp_lott","Sat Mar 25 2023 15:50:25 GMT-0700 (PDT)","308123","green","red","","","","","","","","","","151","","","","","","[{""stimulus"":""img/red_ll/1.jpg"",""time"":51},{""stimulus"":""img/red_ll/2.jpg"",""time"":102},{""stimulus"":""img/red_ll/3.jpg"",""time"":153},{""stimulus"":""img/red_ll/4.jpg"",""time"":204},{""stimulus"":""img/red_ll/5.jpg"",""time"":255},{""stimulus"":""img/red_ll/6.jpg"",""time"":305},{""stimulus"":""img/red_ll/7.jpg"",""time"":355},{""stimulus"":""img/red_ll/8.jpg"",""time"":406},{""stimulus"":""img/red_ll/9.jpg"",""time"":456},{""stimulus"":""img/red_ll/10.jpg"",""time"":507},{""stimulus"":""img/red_ll/11.jpg"",""time"":558}]","[]"
"image-keyboard-response","154","154793","0.0-5.0-1.75","5fb7c9fa2be0a83d8f8913b8","bdp_lott","Sat Mar 25 2023 15:50:25 GMT-0700 (PDT)","308123","green","red","","405","","","","choice","","img/red_ll/choose11.jpg","2","150","red","0.5","0.5","0.5","l","",""
"animation","155","155408","0.0-5.0-2.75","5fb7c9fa2be0a83d8f8913b8","bdp_lott","Sat Mar 25 2023 15:50:25 GMT-0700 (PDT)","308123","green","red","","","","","","","","","","150","","","","","","[{""stimulus"":""img/red_ll/1.jpg"",""time"":52},{""stimulus"":""img/red_ll/2.jpg"",""time"":103},{""stimulus"":""img/red_ll/3.jpg"",""time"":154},{""stimulus"":""img/red_ll/4.jpg"",""time"":205},{""stimulus"":""img/red_ll/5.jpg"",""time"":257},{""stimulus"":""img/red_ll/6.jpg"",""time"":308},{""stimulus"":""img/red_ll/7.jpg"",""time"":359},{""stimulus"":""img/red_ll/8.jpg"",""time"":410},{""stimulus"":""img/red_ll/9.jpg"",""time"":461},{""stimulus"":""img/red_ll/10.jpg"",""time"":512},{""stimulus"":""img/red_ll/11.jpg"",""time"":564}]","[]"
"image-keyboard-response","156","155742","0.0-5.0-1.76","5fb7c9fa2be0a83d8f8913b8","bdp_lott","Sat Mar 25 2023 15:50:25 GMT-0700 (PDT)","308123","green","red","","334","","","","choice","","img/red_ll/choose11.jpg","2","149","red","0.5","0.1","0.1","l","",""
"animation","157","156354","0.0-5.0-2.76","5fb7c9fa2be0a83d8f8913b8","bdp_lott","Sat Mar 25 2023 15:50:25 GMT-0700 (PDT)","308123","green","red","","","","","","","","","","149","","","","","","[{""stimulus"":""img/red_ll/1.jpg"",""time"":51},{""stimulus"":""img/red_ll/2.jpg"",""time"":101},{""stimulus"":""img/red_ll/3.jpg"",""time"":152},{""stimulus"":""img/red_ll/4.jpg"",""time"":204},{""stimulus"":""img/red_ll/5.jpg"",""time"":255},{""stimulus"":""img/red_ll/6.jpg"",""time"":306},{""stimulus"":""img/red_ll/7.jpg"",""time"":357},{""stimulus"":""img/red_ll/8.jpg"",""time"":407},{""stimulus"":""img/red_ll/9.jpg"",""time"":459},{""stimulus"":""img/red_ll/10.jpg"",""time"":509},{""stimulus"":""img/red_ll/11.jpg"",""time"":560}]","[]"
"image-keyboard-response","158","156771","0.0-5.0-1.77","5fb7c9fa2be0a83d8f8913b8","bdp_lott","Sat Mar 25 2023 15:50:25 GMT-0700 (PDT)","308123","green","red","","416","","","","choice","","img/red_ll/choose11.jpg","2","148","red","0.5","0.1","0.1","l","",""
"animation","159","157384","0.0-5.0-2.77","5fb7c9fa2be0a83d8f8913b8","bdp_lott","Sat Mar 25 2023 15:50:25 GMT-0700 (PDT)","308123","green","red","","","","","","","","","","148","","","","","","[{""stimulus"":""img/red_ll/1.jpg"",""time"":51},{""stimulus"":""img/red_ll/2.jpg"",""time"":102},{""stimulus"":""img/red_ll/3.jpg"",""time"":153},{""stimulus"":""img/red_ll/4.jpg"",""time"":203},{""stimulus"":""img/red_ll/5.jpg"",""time"":254},{""stimulus"":""img/red_ll/6.jpg"",""time"":304},{""stimulus"":""img/red_ll/7.jpg"",""time"":356},{""stimulus"":""img/red_ll/8.jpg"",""time"":407},{""stimulus"":""img/red_ll/9.jpg"",""time"":458},{""stimulus"":""img/red_ll/10.jpg"",""time"":509},{""stimulus"":""img/red_ll/11.jpg"",""time"":560}]","[]"
"image-keyboard-response","160","157839","0.0-5.0-1.78","5fb7c9fa2be0a83d8f8913b8","bdp_lott","Sat Mar 25 2023 15:50:25 GMT-0700 (PDT)","308123","green","red","","455","","","","choice","","img/red_ll/choose11.jpg","2","147","red","0.5","0.1","0.1","l","",""
"animation","161","158451","0.0-5.0-2.78","5fb7c9fa2be0a83d8f8913b8","bdp_lott","Sat Mar 25 2023 15:50:25 GMT-0700 (PDT)","308123","green","red","","","","","","","","","","147","","","","","","[{""stimulus"":""img/red_ll/1.jpg"",""time"":52},{""stimulus"":""img/red_ll/2.jpg"",""time"":102},{""stimulus"":""img/red_ll/3.jpg"",""time"":152},{""stimulus"":""img/red_ll/4.jpg"",""time"":204},{""stimulus"":""img/red_ll/5.jpg"",""time"":255},{""stimulus"":""img/red_ll/6.jpg"",""time"":306},{""stimulus"":""img/red_ll/7.jpg"",""time"":357},{""stimulus"":""img/red_ll/8.jpg"",""time"":408},{""stimulus"":""img/red_ll/9.jpg"",""time"":459},{""stimulus"":""img/red_ll/10.jpg"",""time"":510},{""stimulus"":""img/red_ll/11.jpg"",""time"":561}]","[]"
"image-keyboard-response","162","158802","0.0-5.0-1.79","5fb7c9fa2be0a83d8f8913b8","bdp_lott","Sat Mar 25 2023 15:50:25 GMT-0700 (PDT)","308123","green","red","","350","","","","choice","","img/red_ll/choose11.jpg","2","146","red","0.5","0.1","0.1","l","",""
"animation","163","159413","0.0-5.0-2.79","5fb7c9fa2be0a83d8f8913b8","bdp_lott","Sat Mar 25 2023 15:50:25 GMT-0700 (PDT)","308123","green","red","","","","","","","","","","146","","","","","","[{""stimulus"":""img/red_ll/1.jpg"",""time"":51},{""stimulus"":""img/red_ll/2.jpg"",""time"":101},{""stimulus"":""img/red_ll/3.jpg"",""time"":152},{""stimulus"":""img/red_ll/4.jpg"",""time"":202},{""stimulus"":""img/red_ll/5.jpg"",""time"":253},{""stimulus"":""img/red_ll/6.jpg"",""time"":304},{""stimulus"":""img/red_ll/7.jpg"",""time"":355},{""stimulus"":""img/red_ll/8.jpg"",""time"":406},{""stimulus"":""img/red_ll/9.jpg"",""time"":458},{""stimulus"":""img/red_ll/10.jpg"",""time"":509},{""stimulus"":""img/red_ll/11.jpg"",""time"":559}]","[]"
"image-keyboard-response","164","159812","0.0-5.0-1.80","5fb7c9fa2be0a83d8f8913b8","bdp_lott","Sat Mar 25 2023 15:50:25 GMT-0700 (PDT)","308123","green","red","","398","","","","choice","","img/red_ll/choose11.jpg","2","145","red","0.5","0.1","0.1","l","",""
"animation","165","160424","0.0-5.0-2.80","5fb7c9fa2be0a83d8f8913b8","bdp_lott","Sat Mar 25 2023 15:50:25 GMT-0700 (PDT)","308123","green","red","","","","","","","","","","145","","","","","","[{""stimulus"":""img/red_ll/1.jpg"",""time"":52},{""stimulus"":""img/red_ll/2.jpg"",""time"":102},{""stimulus"":""img/red_ll/3.jpg"",""time"":154},{""stimulus"":""img/red_ll/4.jpg"",""time"":204},{""stimulus"":""img/red_ll/5.jpg"",""time"":255},{""stimulus"":""img/red_ll/6.jpg"",""time"":306},{""stimulus"":""img/red_ll/7.jpg"",""time"":358},{""stimulus"":""img/red_ll/8.jpg"",""time"":408},{""stimulus"":""img/red_ll/9.jpg"",""time"":460},{""stimulus"":""img/red_ll/10.jpg"",""time"":511},{""stimulus"":""img/red_ll/11.jpg"",""time"":561}]","[]"
"image-keyboard-response","166","160846","0.0-5.0-1.81","5fb7c9fa2be0a83d8f8913b8","bdp_lott","Sat Mar 25 2023 15:50:25 GMT-0700 (PDT)","308123","green","red","","421","","","","choice","","img/red_ll/choose11.jpg","2","144","red","0.5","0.1","0.1","l","",""
"animation","167","161458","0.0-5.0-2.81","5fb7c9fa2be0a83d8f8913b8","bdp_lott","Sat Mar 25 2023 15:50:25 GMT-0700 (PDT)","308123","green","red","","","","","","","","","","144","","","","","","[{""stimulus"":""img/red_ll/1.jpg"",""time"":51},{""stimulus"":""img/red_ll/2.jpg"",""time"":102},{""stimulus"":""img/red_ll/3.jpg"",""time"":152},{""stimulus"":""img/red_ll/4.jpg"",""time"":203},{""stimulus"":""img/red_ll/5.jpg"",""time"":253},{""stimulus"":""img/red_ll/6.jpg"",""time"":305},{""stimulus"":""img/red_ll/7.jpg"",""time"":356},{""stimulus"":""img/red_ll/8.jpg"",""time"":406},{""stimulus"":""img/red_ll/9.jpg"",""time"":457},{""stimulus"":""img/red_ll/10.jpg"",""time"":509},{""stimulus"":""img/red_ll/11.jpg"",""time"":560}]","[]"
"image-keyboard-response","168","162122","0.0-5.0-1.82","5fb7c9fa2be0a83d8f8913b8","bdp_lott","Sat Mar 25 2023 15:50:25 GMT-0700 (PDT)","308123","green","red","","664","","","","choice","","img/red_ll/choose11.jpg","1","143","green","0.5","0.1","0.5","w","",""
"animation","169","162735","0.0-5.0-2.82","5fb7c9fa2be0a83d8f8913b8","bdp_lott","Sat Mar 25 2023 15:50:25 GMT-0700 (PDT)","308123","green","red","","","","","","","","","","143","","","","","","[{""stimulus"":""img/green_wl/1.jpg"",""time"":52},{""stimulus"":""img/green_wl/2.jpg"",""time"":103},{""stimulus"":""img/green_wl/3.jpg"",""time"":154},{""stimulus"":""img/green_wl/4.jpg"",""time"":205},{""stimulus"":""img/green_wl/5.jpg"",""time"":257},{""stimulus"":""img/green_wl/6.jpg"",""time"":308},{""stimulus"":""img/green_wl/7.jpg"",""time"":359},{""stimulus"":""img/green_wl/8.jpg"",""time"":410},{""stimulus"":""img/green_wl/9.jpg"",""time"":461},{""stimulus"":""img/green_wl/10.jpg"",""time"":511},{""stimulus"":""img/green_wl/11.jpg"",""time"":562}]","[]"
"image-keyboard-response","170","163034","0.0-5.0-1.83","5fb7c9fa2be0a83d8f8913b8","bdp_lott","Sat Mar 25 2023 15:50:25 GMT-0700 (PDT)","308123","green","red","","299","","","","choice","","img/green_wl/choose11.jpg","1","142","green","0.5","0.1","0.5","l","",""
"animation","171","163644","0.0-5.0-2.83","5fb7c9fa2be0a83d8f8913b8","bdp_lott","Sat Mar 25 2023 15:50:25 GMT-0700 (PDT)","308123","green","red","","","","","","","","","","142","","","","","","[{""stimulus"":""img/green_ll/1.jpg"",""time"":51},{""stimulus"":""img/green_ll/2.jpg"",""time"":102},{""stimulus"":""img/green_ll/3.jpg"",""time"":153},{""stimulus"":""img/green_ll/4.jpg"",""time"":204},{""stimulus"":""img/green_ll/5.jpg"",""time"":254},{""stimulus"":""img/green_ll/6.jpg"",""time"":305},{""stimulus"":""img/green_ll/7.jpg"",""time"":356},{""stimulus"":""img/green_ll/8.jpg"",""time"":407},{""stimulus"":""img/green_ll/9.jpg"",""time"":457},{""stimulus"":""img/green_ll/10.jpg"",""time"":508},{""stimulus"":""img/green_ll/11.jpg"",""time"":559}]","[]"
"image-keyboard-response","172","164079","0.0-5.0-1.84","5fb7c9fa2be0a83d8f8913b8","bdp_lott","Sat Mar 25 2023 15:50:25 GMT-0700 (PDT)","308123","green","red","","434","","","","choice","","img/green_ll/choose11.jpg","1","141","green","0.5","0.1","0.5","l","",""
"animation","173","164687","0.0-5.0-2.84","5fb7c9fa2be0a83d8f8913b8","bdp_lott","Sat Mar 25 2023 15:50:25 GMT-0700 (PDT)","308123","green","red","","","","","","","","","","141","","","","","","[{""stimulus"":""img/green_ll/1.jpg"",""time"":50},{""stimulus"":""img/green_ll/2.jpg"",""time"":101},{""stimulus"":""img/green_ll/3.jpg"",""time"":152},{""stimulus"":""img/green_ll/4.jpg"",""time"":203},{""stimulus"":""img/green_ll/5.jpg"",""time"":254},{""stimulus"":""img/green_ll/6.jpg"",""time"":305},{""stimulus"":""img/green_ll/7.jpg"",""time"":356},{""stimulus"":""img/green_ll/8.jpg"",""time"":406},{""stimulus"":""img/green_ll/9.jpg"",""time"":456},{""stimulus"":""img/green_ll/10.jpg"",""time"":506},{""stimulus"":""img/green_ll/11.jpg"",""time"":557}]","[]"
"image-keyboard-response","174","165110","0.0-5.0-1.85","5fb7c9fa2be0a83d8f8913b8","bdp_lott","Sat Mar 25 2023 15:50:25 GMT-0700 (PDT)","308123","green","red","","422","","","","choice","","img/green_ll/choose11.jpg","1","140","green","0.5","0.1","0.5","w","",""
"animation","175","165724","0.0-5.0-2.85","5fb7c9fa2be0a83d8f8913b8","bdp_lott","Sat Mar 25 2023 15:50:25 GMT-0700 (PDT)","308123","green","red","","","","","","","","","","140","","","","","","[{""stimulus"":""img/green_wl/1.jpg"",""time"":52},{""stimulus"":""img/green_wl/2.jpg"",""time"":103},{""stimulus"":""img/green_wl/3.jpg"",""time"":154},{""stimulus"":""img/green_wl/4.jpg"",""time"":205},{""stimulus"":""img/green_wl/5.jpg"",""time"":257},{""stimulus"":""img/green_wl/6.jpg"",""time"":307},{""stimulus"":""img/green_wl/7.jpg"",""time"":358},{""stimulus"":""img/green_wl/8.jpg"",""time"":409},{""stimulus"":""img/green_wl/9.jpg"",""time"":461},{""stimulus"":""img/green_wl/10.jpg"",""time"":511},{""stimulus"":""img/green_wl/11.jpg"",""time"":563}]","[]"
"image-keyboard-response","176","166034","0.0-5.0-1.86","5fb7c9fa2be0a83d8f8913b8","bdp_lott","Sat Mar 25 2023 15:50:25 GMT-0700 (PDT)","308123","green","red","","310","","","","choice","","img/green_wl/choose11.jpg","1","139","green","0.5","0.1","0.5","l","",""
"animation","177","166644","0.0-5.0-2.86","5fb7c9fa2be0a83d8f8913b8","bdp_lott","Sat Mar 25 2023 15:50:25 GMT-0700 (PDT)","308123","green","red","","","","","","","","","","139","","","","","","[{""stimulus"":""img/green_ll/1.jpg"",""time"":50},{""stimulus"":""img/green_ll/2.jpg"",""time"":101},{""stimulus"":""img/green_ll/3.jpg"",""time"":152},{""stimulus"":""img/green_ll/4.jpg"",""time"":203},{""stimulus"":""img/green_ll/5.jpg"",""time"":254},{""stimulus"":""img/green_ll/6.jpg"",""time"":305},{""stimulus"":""img/green_ll/7.jpg"",""time"":356},{""stimulus"":""img/green_ll/8.jpg"",""time"":407},{""stimulus"":""img/green_ll/9.jpg"",""time"":457},{""stimulus"":""img/green_ll/10.jpg"",""time"":507},{""stimulus"":""img/green_ll/11.jpg"",""time"":558}]","[]"
"image-keyboard-response","178","167031","0.0-5.0-1.87","5fb7c9fa2be0a83d8f8913b8","bdp_lott","Sat Mar 25 2023 15:50:25 GMT-0700 (PDT)","308123","green","red","","386","","","","choice","","img/green_ll/choose11.jpg","1","138","green","0.5","0.1","0.5","l","",""
"animation","179","167644","0.0-5.0-2.87","5fb7c9fa2be0a83d8f8913b8","bdp_lott","Sat Mar 25 2023 15:50:25 GMT-0700 (PDT)","308123","green","red","","","","","","","","","","138","","","","","","[{""stimulus"":""img/green_ll/1.jpg"",""time"":52},{""stimulus"":""img/green_ll/2.jpg"",""time"":103},{""stimulus"":""img/green_ll/3.jpg"",""time"":154},{""stimulus"":""img/green_ll/4.jpg"",""time"":205},{""stimulus"":""img/green_ll/5.jpg"",""time"":256},{""stimulus"":""img/green_ll/6.jpg"",""time"":307},{""stimulus"":""img/green_ll/7.jpg"",""time"":358},{""stimulus"":""img/green_ll/8.jpg"",""time"":410},{""stimulus"":""img/green_ll/9.jpg"",""time"":461},{""stimulus"":""img/green_ll/10.jpg"",""time"":512},{""stimulus"":""img/green_ll/11.jpg"",""time"":563}]","[]"
"image-keyboard-response","180","168049","0.0-5.0-1.88","5fb7c9fa2be0a83d8f8913b8","bdp_lott","Sat Mar 25 2023 15:50:25 GMT-0700 (PDT)","308123","green","red","","404","","","","choice","","img/green_ll/choose11.jpg","1","137","green","0.5","0.1","0.5","l","",""
"animation","181","168658","0.0-5.0-2.88","5fb7c9fa2be0a83d8f8913b8","bdp_lott","Sat Mar 25 2023 15:50:25 GMT-0700 (PDT)","308123","green","red","","","","","","","","","","137","","","","","","[{""stimulus"":""img/green_ll/1.jpg"",""time"":51},{""stimulus"":""img/green_ll/2.jpg"",""time"":101},{""stimulus"":""img/green_ll/3.jpg"",""time"":151},{""stimulus"":""img/green_ll/4.jpg"",""time"":202},{""stimulus"":""img/green_ll/5.jpg"",""time"":254},{""stimulus"":""img/green_ll/6.jpg"",""time"":304},{""stimulus"":""img/green_ll/7.jpg"",""time"":354},{""stimulus"":""img/green_ll/8.jpg"",""time"":404},{""stimulus"":""img/green_ll/9.jpg"",""time"":455},{""stimulus"":""img/green_ll/10.jpg"",""time"":507},{""stimulus"":""img/green_ll/11.jpg"",""time"":558}]","[]"
"image-keyboard-response","182","169063","0.0-5.0-1.89","5fb7c9fa2be0a83d8f8913b8","bdp_lott","Sat Mar 25 2023 15:50:25 GMT-0700 (PDT)","308123","green","red","","404","","","","choice","","img/green_ll/choose11.jpg","1","136","green","0.5","0.1","0.5","l","",""
"animation","183","169674","0.0-5.0-2.89","5fb7c9fa2be0a83d8f8913b8","bdp_lott","Sat Mar 25 2023 15:50:25 GMT-0700 (PDT)","308123","green","red","","","","","","","","","","136","","","","","","[{""stimulus"":""img/green_ll/1.jpg"",""time"":52},{""stimulus"":""img/green_ll/2.jpg"",""time"":102},{""stimulus"":""img/green_ll/3.jpg"",""time"":152},{""stimulus"":""img/green_ll/4.jpg"",""time"":203},{""stimulus"":""img/green_ll/5.jpg"",""time"":253},{""stimulus"":""img/green_ll/6.jpg"",""time"":304},{""stimulus"":""img/green_ll/7.jpg"",""time"":355},{""stimulus"":""img/green_ll/8.jpg"",""time"":407},{""stimulus"":""img/green_ll/9.jpg"",""time"":458},{""stimulus"":""img/green_ll/10.jpg"",""time"":509},{""stimulus"":""img/green_ll/11.jpg"",""time"":559}]","[]"
"image-keyboard-response","184","170149","0.0-5.0-1.90","5fb7c9fa2be0a83d8f8913b8","bdp_lott","Sat Mar 25 2023 15:50:25 GMT-0700 (PDT)","308123","green","red","","474","","","","choice","","img/green_ll/choose11.jpg","1","135","green","0.5","0.1","0.5","l","",""
"animation","185","170759","0.0-5.0-2.90","5fb7c9fa2be0a83d8f8913b8","bdp_lott","Sat Mar 25 2023 15:50:25 GMT-0700 (PDT)","308123","green","red","","","","","","","","","","135","","","","","","[{""stimulus"":""img/green_ll/1.jpg"",""time"":51},{""stimulus"":""img/green_ll/2.jpg"",""time"":101},{""stimulus"":""img/green_ll/3.jpg"",""time"":153},{""stimulus"":""img/green_ll/4.jpg"",""time"":203},{""stimulus"":""img/green_ll/5.jpg"",""time"":254},{""stimulus"":""img/green_ll/6.jpg"",""time"":304},{""stimulus"":""img/green_ll/7.jpg"",""time"":355},{""stimulus"":""img/green_ll/8.jpg"",""time"":406},{""stimulus"":""img/green_ll/9.jpg"",""time"":457},{""stimulus"":""img/green_ll/10.jpg"",""time"":508},{""stimulus"":""img/green_ll/11.jpg"",""time"":559}]","[]"
"image-keyboard-response","186","171176","0.0-5.0-1.91","5fb7c9fa2be0a83d8f8913b8","bdp_lott","Sat Mar 25 2023 15:50:25 GMT-0700 (PDT)","308123","green","red","","417","","","","choice","","img/green_ll/choose11.jpg","2","134","red","0.5","0.1","0.1","l","",""
"animation","187","171785","0.0-5.0-2.91","5fb7c9fa2be0a83d8f8913b8","bdp_lott","Sat Mar 25 2023 15:50:25 GMT-0700 (PDT)","308123","green","red","","","","","","","","","","134","","","","","","[{""stimulus"":""img/red_ll/1.jpg"",""time"":51},{""stimulus"":""img/red_ll/2.jpg"",""time"":101},{""stimulus"":""img/red_ll/3.jpg"",""time"":152},{""stimulus"":""img/red_ll/4.jpg"",""time"":203},{""stimulus"":""img/red_ll/5.jpg"",""time"":254},{""stimulus"":""img/red_ll/6.jpg"",""time"":305},{""stimulus"":""img/red_ll/7.jpg"",""time"":356},{""stimulus"":""img/red_ll/8.jpg"",""time"":406},{""stimulus"":""img/red_ll/9.jpg"",""time"":457},{""stimulus"":""img/red_ll/10.jpg"",""time"":507},{""stimulus"":""img/red_ll/11.jpg"",""time"":557}]","[]"
"image-keyboard-response","188","172164","0.0-5.0-1.92","5fb7c9fa2be0a83d8f8913b8","bdp_lott","Sat Mar 25 2023 15:50:25 GMT-0700 (PDT)","308123","green","red","","378","","","","choice","","img/red_ll/choose11.jpg","2","133","red","0.5","0.1","0.1","l","",""
"animation","189","172777","0.0-5.0-2.92","5fb7c9fa2be0a83d8f8913b8","bdp_lott","Sat Mar 25 2023 15:50:25 GMT-0700 (PDT)","308123","green","red","","","","","","","","","","133","","","","","","[{""stimulus"":""img/red_ll/1.jpg"",""time"":51},{""stimulus"":""img/red_ll/2.jpg"",""time"":101},{""stimulus"":""img/red_ll/3.jpg"",""time"":152},{""stimulus"":""img/red_ll/4.jpg"",""time"":203},{""stimulus"":""img/red_ll/5.jpg"",""time"":255},{""stimulus"":""img/red_ll/6.jpg"",""time"":306},{""stimulus"":""img/red_ll/7.jpg"",""time"":357},{""stimulus"":""img/red_ll/8.jpg"",""time"":408},{""stimulus"":""img/red_ll/9.jpg"",""time"":459},{""stimulus"":""img/red_ll/10.jpg"",""time"":510},{""stimulus"":""img/red_ll/11.jpg"",""time"":561}]","[]"
"image-keyboard-response","190","173307","0.0-5.0-1.93","5fb7c9fa2be0a83d8f8913b8","bdp_lott","Sat Mar 25 2023 15:50:25 GMT-0700 (PDT)","308123","green","red","","529","","","","choice","","img/red_ll/choose11.jpg","2","132","red","0.5","0.1","0.1","w","",""
"animation","191","173921","0.0-5.0-2.93","5fb7c9fa2be0a83d8f8913b8","bdp_lott","Sat Mar 25 2023 15:50:25 GMT-0700 (PDT)","308123","green","red","","","","","","","","","","132","","","","","","[{""stimulus"":""img/red_lw/1.jpg"",""time"":51},{""stimulus"":""img/red_lw/2.jpg"",""time"":102},{""stimulus"":""img/red_lw/3.jpg"",""time"":154},{""stimulus"":""img/red_lw/4.jpg"",""time"":205},{""stimulus"":""img/red_lw/5.jpg"",""time"":256},{""stimulus"":""img/red_lw/6.jpg"",""time"":307},{""stimulus"":""img/red_lw/7.jpg"",""time"":358},{""stimulus"":""img/red_lw/8.jpg"",""time"":409},{""stimulus"":""img/red_lw/9.jpg"",""time"":460},{""stimulus"":""img/red_lw/10.jpg"",""time"":511},{""stimulus"":""img/red_lw/11.jpg"",""time"":562}]","[]"
"image-keyboard-response","192","174473","0.0-5.0-1.94","5fb7c9fa2be0a83d8f8913b8","bdp_lott","Sat Mar 25 2023 15:50:25 GMT-0700 (PDT)","308123","green","red","","551","","","","choice","","img/red_lw/choose11.jpg","2","131","red","0.5","0.1","0.1","l","",""
"animation","193","175085","0.0-5.0-2.94","5fb7c9fa2be0a83d8f8913b8","bdp_lott","Sat Mar 25 2023 15:50:25 GMT-0700 (PDT)","308123","green","red","","","","","","","","","","131","","","","","","[{""stimulus"":""img/red_ll/1.jpg"",""time"":51},{""stimulus"":""img/red_ll/2.jpg"",""time"":102},{""stimulus"":""img/red_ll/3.jpg"",""time"":153},{""stimulus"":""img/red_ll/4.jpg"",""time"":204},{""stimulus"":""img/red_ll/5.jpg"",""time"":256},{""stimulus"":""img/red_ll/6.jpg"",""time"":307},{""stimulus"":""img/red_ll/7.jpg"",""time"":358},{""stimulus"":""img/red_ll/8.jpg"",""time"":409},{""stimulus"":""img/red_ll/9.jpg"",""time"":460},{""stimulus"":""img/red_ll/10.jpg"",""time"":511},{""stimulus"":""img/red_ll/11.jpg"",""time"":562}]","[]"
"image-keyboard-response","194","175418","0.0-5.0-1.95","5fb7c9fa2be0a83d8f8913b8","bdp_lott","Sat Mar 25 2023 15:50:25 GMT-0700 (PDT)","308123","green","red","","332","","","","choice","","img/red_ll/choose11.jpg","2","130","red","0.5","0.1","0.1","l","",""
"animation","195","176027","0.0-5.0-2.95","5fb7c9fa2be0a83d8f8913b8","bdp_lott","Sat Mar 25 2023 15:50:25 GMT-0700 (PDT)","308123","green","red","","","","","","","","","","130","","","","","","[{""stimulus"":""img/red_ll/1.jpg"",""time"":51},{""stimulus"":""img/red_ll/2.jpg"",""time"":102},{""stimulus"":""img/red_ll/3.jpg"",""time"":153},{""stimulus"":""img/red_ll/4.jpg"",""time"":203},{""stimulus"":""img/red_ll/5.jpg"",""time"":255},{""stimulus"":""img/red_ll/6.jpg"",""time"":306},{""stimulus"":""img/red_ll/7.jpg"",""time"":357},{""stimulus"":""img/red_ll/8.jpg"",""time"":407},{""stimulus"":""img/red_ll/9.jpg"",""time"":458},{""stimulus"":""img/red_ll/10.jpg"",""time"":509},{""stimulus"":""img/red_ll/11.jpg"",""time"":559}]","[]"
"image-keyboard-response","196","176455","0.0-5.0-1.96","5fb7c9fa2be0a83d8f8913b8","bdp_lott","Sat Mar 25 2023 15:50:25 GMT-0700 (PDT)","308123","green","red","","427","","","","choice","","img/red_ll/choose11.jpg","2","129","red","0.5","0.1","0.1","l","",""
"animation","197","177065","0.0-5.0-2.96","5fb7c9fa2be0a83d8f8913b8","bdp_lott","Sat Mar 25 2023 15:50:25 GMT-0700 (PDT)","308123","green","red","","","","","","","","","","129","","","","","","[{""stimulus"":""img/red_ll/1.jpg"",""time"":51},{""stimulus"":""img/red_ll/2.jpg"",""time"":102},{""stimulus"":""img/red_ll/3.jpg"",""time"":153},{""stimulus"":""img/red_ll/4.jpg"",""time"":203},{""stimulus"":""img/red_ll/5.jpg"",""time"":253},{""stimulus"":""img/red_ll/6.jpg"",""time"":303},{""stimulus"":""img/red_ll/7.jpg"",""time"":354},{""stimulus"":""img/red_ll/8.jpg"",""time"":405},{""stimulus"":""img/red_ll/9.jpg"",""time"":456},{""stimulus"":""img/red_ll/10.jpg"",""time"":507},{""stimulus"":""img/red_ll/11.jpg"",""time"":558}]","[]"
"image-keyboard-response","198","177623","0.0-5.0-1.97","5fb7c9fa2be0a83d8f8913b8","bdp_lott","Sat Mar 25 2023 15:50:25 GMT-0700 (PDT)","308123","green","red","","558","","","","choice","","img/red_ll/choose11.jpg","1","128","green","0.5","0.1","0.5","w","",""
"animation","199","178236","0.0-5.0-2.97","5fb7c9fa2be0a83d8f8913b8","bdp_lott","Sat Mar 25 2023 15:50:25 GMT-0700 (PDT)","308123","green","red","","","","","","","","","","128","","","","","","[{""stimulus"":""img/green_wl/1.jpg"",""time"":52},{""stimulus"":""img/green_wl/2.jpg"",""time"":102},{""stimulus"":""img/green_wl/3.jpg"",""time"":154},{""stimulus"":""img/green_wl/4.jpg"",""time"":204},{""stimulus"":""img/green_wl/5.jpg"",""time"":256},{""stimulus"":""img/green_wl/6.jpg"",""time"":307},{""stimulus"":""img/green_wl/7.jpg"",""time"":358},{""stimulus"":""img/green_wl/8.jpg"",""time"":409},{""stimulus"":""img/green_wl/9.jpg"",""time"":461},{""stimulus"":""img/green_wl/10.jpg"",""time"":512},{""stimulus"":""img/green_wl/11.jpg"",""time"":562}]","[]"
"image-keyboard-response","200","178949","0.0-5.0-1.98","5fb7c9fa2be0a83d8f8913b8","bdp_lott","Sat Mar 25 2023 15:50:25 GMT-0700 (PDT)","308123","green","red","","712","","","","choice","","img/green_wl/choose11.jpg","1","127","green","0.5","0.1","0.5","l","",""
