"trial_type","trial_index","time_elapsed","internal_node_id","subject_id","task","startTime","totalTime","fairMachine","unfairMachine","view_history","rt","event","trial","time","trialtype","success","stimulus","key_press","roundsLeft","chosen","pFairMachWin","pUnfairMachWin","pTrialWin","outcome","animation_sequence","responses"
"pavlovia","0","2","0.0-0.0","63d7a9346e833b93500723d4","bdp_lott","Sun Mar 26 2023 08:47:16 GMT-0400 (Eastern Daylight Time)","332278","green","red","","","","","","","","","","","","","","","","",""
"instructions","1","4743","0.0-1.0","63d7a9346e833b93500723d4","bdp_lott","Sun Mar 26 2023 08:47:16 GMT-0400 (Eastern Daylight Time)","332278","green","red","[{""page_index"":0,""viewing_time"":4740}]","4741","","","","","","","","","","","","","","",""
"","","","","63d7a9346e833b93500723d4","bdp_lott","Sun Mar 26 2023 08:47:16 GMT-0400 (Eastern Daylight Time)","332278","green","red","","","fullscreenenter","2","8247","fullscreenenter","","","","","","","","","","",""
"fullscreen","2","9243","0.0-2.0","63d7a9346e833b93500723d4","bdp_lott","Sun Mar 26 2023 08:47:16 GMT-0400 (Eastern Daylight Time)","332278","green","red","","","","","","","true","","","","","","","","","",""
"instructions","3","55214","0.0-4.0","63d7a9346e833b93500723d4","bdp_lott","Sun Mar 26 2023 08:47:16 GMT-0400 (Eastern Daylight Time)","332278","green","red","[{""page_index"":0,""viewing_time"":45969}]","45969","","","","","","","","","","","","","","",""
"image-keyboard-response","4","59707","0.0-5.0-1.0","63d7a9346e833b93500723d4","bdp_lott","Sun Mar 26 2023 08:47:16 GMT-0400 (Eastern Daylight Time)","332278","green","red","","4492","","","","choice","","img/red_ll/initchoose11.jpg","2","225","red","0.5","0.5","0.5","l","",""
"animation","5","60311","0.0-5.0-2.0","63d7a9346e833b93500723d4","bdp_lott","Sun Mar 26 2023 08:47:16 GMT-0400 (Eastern Daylight Time)","332278","green","red","","","","","","","","","","225","","","","","","[{""stimulus"":""img/red_ll/1.jpg"",""time"":53},{""stimulus"":""img/red_ll/2.jpg"",""time"":112},{""stimulus"":""img/red_ll/3.jpg"",""time"":151},{""stimulus"":""img/red_ll/4.jpg"",""time"":201},{""stimulus"":""img/red_ll/5.jpg"",""time"":251},{""stimulus"":""img/red_ll/6.jpg"",""time"":315},{""stimulus"":""img/red_ll/7.jpg"",""time"":352},{""stimulus"":""img/red_ll/8.jpg"",""time"":402},{""stimulus"":""img/red_ll/9.jpg"",""time"":452},{""stimulus"":""img/red_ll/10.jpg"",""time"":501},{""stimulus"":""img/red_ll/11.jpg"",""time"":551}]","[]"
"image-keyboard-response","6","61707","0.0-5.0-1.1","63d7a9346e833b93500723d4","bdp_lott","Sun Mar 26 2023 08:47:16 GMT-0400 (Eastern Daylight Time)","332278","green","red","","1394","","","","choice","","img/red_ll/choose11.jpg","1","224","green","0.5","0.5","0.5","l","",""
"animation","7","62310","0.0-5.0-2.1","63d7a9346e833b93500723d4","bdp_lott","Sun Mar 26 2023 08:47:16 GMT-0400 (Eastern Daylight Time)","332278","green","red","","","","","","","","","","224","","","","","","[{""stimulus"":""img/green_ll/1.jpg"",""time"":64},{""stimulus"":""img/green_ll/2.jpg"",""time"":103},{""stimulus"":""img/green_ll/3.jpg"",""time"":153},{""stimulus"":""img/green_ll/4.jpg"",""time"":201},{""stimulus"":""img/green_ll/5.jpg"",""time"":265},{""stimulus"":""img/green_ll/6.jpg"",""time"":311},{""stimulus"":""img/green_ll/7.jpg"",""time"":350},{""stimulus"":""img/green_ll/8.jpg"",""time"":400},{""stimulus"":""img/green_ll/9.jpg"",""time"":451},{""stimulus"":""img/green_ll/10.jpg"",""time"":512},{""stimulus"":""img/green_ll/11.jpg"",""time"":553}]","[]"
"image-keyboard-response","8","65388","0.0-5.0-1.2","63d7a9346e833b93500723d4","bdp_lott","Sun Mar 26 2023 08:47:16 GMT-0400 (Eastern Daylight Time)","332278","green","red","","3077","","","","choice","","img/green_ll/choose11.jpg","2","223","red","0.5","0.5","0.5","l","",""
"animation","9","65998","0.0-5.0-2.2","63d7a9346e833b93500723d4","bdp_lott","Sun Mar 26 2023 08:47:16 GMT-0400 (Eastern Daylight Time)","332278","green","red","","","","","","","","","","223","","","","","","[{""stimulus"":""img/red_ll/1.jpg"",""time"":50},{""stimulus"":""img/red_ll/2.jpg"",""time"":113},{""stimulus"":""img/red_ll/3.jpg"",""time"":159},{""stimulus"":""img/red_ll/4.jpg"",""time"":206},{""stimulus"":""img/red_ll/5.jpg"",""time"":253},{""stimulus"":""img/red_ll/6.jpg"",""time"":315},{""stimulus"":""img/red_ll/7.jpg"",""time"":351},{""stimulus"":""img/red_ll/8.jpg"",""time"":407},{""stimulus"":""img/red_ll/9.jpg"",""time"":453},{""stimulus"":""img/red_ll/10.jpg"",""time"":516},{""stimulus"":""img/red_ll/11.jpg"",""time"":551}]","[]"
"image-keyboard-response","10","67387","0.0-5.0-1.3","63d7a9346e833b93500723d4","bdp_lott","Sun Mar 26 2023 08:47:16 GMT-0400 (Eastern Daylight Time)","332278","green","red","","1388","","","","choice","","img/red_ll/choose11.jpg","2","222","red","0.5","0.5","0.5","w","",""
"animation","11","67988","0.0-5.0-2.3","63d7a9346e833b93500723d4","bdp_lott","Sun Mar 26 2023 08:47:16 GMT-0400 (Eastern Daylight Time)","332278","green","red","","","","","","","","","","222","","","","","","[{""stimulus"":""img/red_lw/1.jpg"",""time"":50},{""stimulus"":""img/red_lw/2.jpg"",""time"":102},{""stimulus"":""img/red_lw/3.jpg"",""time"":150},{""stimulus"":""img/red_lw/4.jpg"",""time"":210},{""stimulus"":""img/red_lw/5.jpg"",""time"":258},{""stimulus"":""img/red_lw/6.jpg"",""time"":306},{""stimulus"":""img/red_lw/7.jpg"",""time"":350},{""stimulus"":""img/red_lw/8.jpg"",""time"":414},{""stimulus"":""img/red_lw/9.jpg"",""time"":450},{""stimulus"":""img/red_lw/10.jpg"",""time"":508},{""stimulus"":""img/red_lw/11.jpg"",""time"":550}]","[]"
"image-keyboard-response","12","70298","0.0-5.0-1.4","63d7a9346e833b93500723d4","bdp_lott","Sun Mar 26 2023 08:47:16 GMT-0400 (Eastern Daylight Time)","332278","green","red","","2309","","","","choice","","img/red_lw/choose11.jpg","2","221","red","0.5","0.5","0.5","w","",""
"animation","13","70898","0.0-5.0-2.4","63d7a9346e833b93500723d4","bdp_lott","Sun Mar 26 2023 08:47:16 GMT-0400 (Eastern Daylight Time)","332278","green","red","","","","","","","","","","221","","","","","","[{""stimulus"":""img/red_lw/1.jpg"",""time"":51},{""stimulus"":""img/red_lw/2.jpg"",""time"":112},{""stimulus"":""img/red_lw/3.jpg"",""time"":159},{""stimulus"":""img/red_lw/4.jpg"",""time"":201},{""stimulus"":""img/red_lw/5.jpg"",""time"":252},{""stimulus"":""img/red_lw/6.jpg"",""time"":314},{""stimulus"":""img/red_lw/7.jpg"",""time"":351},{""stimulus"":""img/red_lw/8.jpg"",""time"":401},{""stimulus"":""img/red_lw/9.jpg"",""time"":451},{""stimulus"":""img/red_lw/10.jpg"",""time"":501},{""stimulus"":""img/red_lw/11.jpg"",""time"":564}]","[]"
"image-keyboard-response","14","72538","0.0-5.0-1.5","63d7a9346e833b93500723d4","bdp_lott","Sun Mar 26 2023 08:47:16 GMT-0400 (Eastern Daylight Time)","332278","green","red","","1638","","","","choice","","img/red_lw/choose11.jpg","2","220","red","0.5","0.5","0.5","w","",""
"animation","15","73138","0.0-5.0-2.5","63d7a9346e833b93500723d4","bdp_lott","Sun Mar 26 2023 08:47:16 GMT-0400 (Eastern Daylight Time)","332278","green","red","","","","","","","","","","220","","","","","","[{""stimulus"":""img/red_lw/1.jpg"",""time"":51},{""stimulus"":""img/red_lw/2.jpg"",""time"":113},{""stimulus"":""img/red_lw/3.jpg"",""time"":159},{""stimulus"":""img/red_lw/4.jpg"",""time"":206},{""stimulus"":""img/red_lw/5.jpg"",""time"":253},{""stimulus"":""img/red_lw/6.jpg"",""time"":300},{""stimulus"":""img/red_lw/7.jpg"",""time"":363},{""stimulus"":""img/red_lw/8.jpg"",""time"":409},{""stimulus"":""img/red_lw/9.jpg"",""time"":455},{""stimulus"":""img/red_lw/10.jpg"",""time"":501},{""stimulus"":""img/red_lw/11.jpg"",""time"":564}]","[]"
"image-keyboard-response","16","75201","0.0-5.0-1.6","63d7a9346e833b93500723d4","bdp_lott","Sun Mar 26 2023 08:47:16 GMT-0400 (Eastern Daylight Time)","332278","green","red","","2062","","","","choice","","img/red_lw/choose11.jpg","2","219","red","0.5","0.5","0.5","w","",""
"animation","17","75802","0.0-5.0-2.6","63d7a9346e833b93500723d4","bdp_lott","Sun Mar 26 2023 08:47:16 GMT-0400 (Eastern Daylight Time)","332278","green","red","","","","","","","","","","219","","","","","","[{""stimulus"":""img/red_lw/1.jpg"",""time"":50},{""stimulus"":""img/red_lw/2.jpg"",""time"":104},{""stimulus"":""img/red_lw/3.jpg"",""time"":150},{""stimulus"":""img/red_lw/4.jpg"",""time"":201},{""stimulus"":""img/red_lw/5.jpg"",""time"":258},{""stimulus"":""img/red_lw/6.jpg"",""time"":301},{""stimulus"":""img/red_lw/7.jpg"",""time"":351},{""stimulus"":""img/red_lw/8.jpg"",""time"":401},{""stimulus"":""img/red_lw/9.jpg"",""time"":451},{""stimulus"":""img/red_lw/10.jpg"",""time"":501},{""stimulus"":""img/red_lw/11.jpg"",""time"":554}]","[]"
"image-keyboard-response","18","77379","0.0-5.0-1.7","63d7a9346e833b93500723d4","bdp_lott","Sun Mar 26 2023 08:47:16 GMT-0400 (Eastern Daylight Time)","332278","green","red","","1576","","","","choice","","img/red_lw/choose11.jpg","2","218","red","0.5","0.5","0.5","w","",""
"animation","19","77979","0.0-5.0-2.7","63d7a9346e833b93500723d4","bdp_lott","Sun Mar 26 2023 08:47:16 GMT-0400 (Eastern Daylight Time)","332278","green","red","","","","","","","","","","218","","","","","","[{""stimulus"":""img/red_lw/1.jpg"",""time"":59},{""stimulus"":""img/red_lw/2.jpg"",""time"":106},{""stimulus"":""img/red_lw/3.jpg"",""time"":151},{""stimulus"":""img/red_lw/4.jpg"",""time"":214},{""stimulus"":""img/red_lw/5.jpg"",""time"":260},{""stimulus"":""img/red_lw/6.jpg"",""time"":306},{""stimulus"":""img/red_lw/7.jpg"",""time"":352},{""stimulus"":""img/red_lw/8.jpg"",""time"":414},{""stimulus"":""img/red_lw/9.jpg"",""time"":460},{""stimulus"":""img/red_lw/10.jpg"",""time"":506},{""stimulus"":""img/red_lw/11.jpg"",""time"":551}]","[]"
"image-keyboard-response","20","79171","0.0-5.0-1.8","63d7a9346e833b93500723d4","bdp_lott","Sun Mar 26 2023 08:47:16 GMT-0400 (Eastern Daylight Time)","332278","green","red","","1191","","","","choice","","img/red_lw/choose11.jpg","2","217","red","0.5","0.5","0.5","w","",""
"animation","21","79785","0.0-5.0-2.8","63d7a9346e833b93500723d4","bdp_lott","Sun Mar 26 2023 08:47:16 GMT-0400 (Eastern Daylight Time)","332278","green","red","","","","","","","","","","217","","","","","","[{""stimulus"":""img/red_lw/1.jpg"",""time"":51},{""stimulus"":""img/red_lw/2.jpg"",""time"":105},{""stimulus"":""img/red_lw/3.jpg"",""time"":151},{""stimulus"":""img/red_lw/4.jpg"",""time"":201},{""stimulus"":""img/red_lw/5.jpg"",""time"":251},{""stimulus"":""img/red_lw/6.jpg"",""time"":301},{""stimulus"":""img/red_lw/7.jpg"",""time"":352},{""stimulus"":""img/red_lw/8.jpg"",""time"":414},{""stimulus"":""img/red_lw/9.jpg"",""time"":460},{""stimulus"":""img/red_lw/10.jpg"",""time"":507},{""stimulus"":""img/red_lw/11.jpg"",""time"":552}]","[]"
"image-keyboard-response","22","81139","0.0-5.0-1.9","63d7a9346e833b93500723d4","bdp_lott","Sun Mar 26 2023 08:47:16 GMT-0400 (Eastern Daylight Time)","332278","green","red","","1353","","","","choice","","img/red_lw/choose11.jpg","2","216","red","0.5","0.5","0.5","w","",""
"animation","23","81741","0.0-5.0-2.9","63d7a9346e833b93500723d4","bdp_lott","Sun Mar 26 2023 08:47:16 GMT-0400 (Eastern Daylight Time)","332278","green","red","","","","","","","","","","216","","","","","","[{""stimulus"":""img/red_lw/1.jpg"",""time"":50},{""stimulus"":""img/red_lw/2.jpg"",""time"":110},{""stimulus"":""img/red_lw/3.jpg"",""time"":156},{""stimulus"":""img/red_lw/4.jpg"",""time"":200},{""stimulus"":""img/red_lw/5.jpg"",""time"":250},{""stimulus"":""img/red_lw/6.jpg"",""time"":301},{""stimulus"":""img/red_lw/7.jpg"",""time"":351},{""stimulus"":""img/red_lw/8.jpg"",""time"":400},{""stimulus"":""img/red_lw/9.jpg"",""time"":450},{""stimulus"":""img/red_lw/10.jpg"",""time"":513},{""stimulus"":""img/red_lw/11.jpg"",""time"":551}]","[]"
"image-keyboard-response","24","82899","0.0-5.0-1.10","63d7a9346e833b93500723d4","bdp_lott","Sun Mar 26 2023 08:47:16 GMT-0400 (Eastern Daylight Time)","332278","green","red","","1157","","","","choice","","img/red_lw/choose11.jpg","2","215","red","0.5","0.5","0.5","l","",""
"animation","25","83510","0.0-5.0-2.10","63d7a9346e833b93500723d4","bdp_lott","Sun Mar 26 2023 08:47:16 GMT-0400 (Eastern Daylight Time)","332278","green","red","","","","","","","","","","215","","","","","","[{""stimulus"":""img/red_ll/1.jpg"",""time"":51},{""stimulus"":""img/red_ll/2.jpg"",""time"":101},{""stimulus"":""img/red_ll/3.jpg"",""time"":161},{""stimulus"":""img/red_ll/4.jpg"",""time"":207},{""stimulus"":""img/red_ll/5.jpg"",""time"":253},{""stimulus"":""img/red_ll/6.jpg"",""time"":317},{""stimulus"":""img/red_ll/7.jpg"",""time"":363},{""stimulus"":""img/red_ll/8.jpg"",""time"":401},{""stimulus"":""img/red_ll/9.jpg"",""time"":451},{""stimulus"":""img/red_ll/10.jpg"",""time"":502},{""stimulus"":""img/red_ll/11.jpg"",""time"":564}]","[]"
"image-keyboard-response","26","84707","0.0-5.0-1.11","63d7a9346e833b93500723d4","bdp_lott","Sun Mar 26 2023 08:47:16 GMT-0400 (Eastern Daylight Time)","332278","green","red","","1196","","","","choice","","img/red_ll/choose11.jpg","1","214","green","0.5","0.5","0.5","w","",""
"animation","27","85308","0.0-5.0-2.11","63d7a9346e833b93500723d4","bdp_lott","Sun Mar 26 2023 08:47:16 GMT-0400 (Eastern Daylight Time)","332278","green","red","","","","","","","","","","214","","","","","","[{""stimulus"":""img/green_wl/1.jpg"",""time"":52},{""stimulus"":""img/green_wl/2.jpg"",""time"":103},{""stimulus"":""img/green_wl/3.jpg"",""time"":153},{""stimulus"":""img/green_wl/4.jpg"",""time"":203},{""stimulus"":""img/green_wl/5.jpg"",""time"":252},{""stimulus"":""img/green_wl/6.jpg"",""time"":314},{""stimulus"":""img/green_wl/7.jpg"",""time"":352},{""stimulus"":""img/green_wl/8.jpg"",""time"":403},{""stimulus"":""img/green_wl/9.jpg"",""time"":453},{""stimulus"":""img/green_wl/10.jpg"",""time"":501},{""stimulus"":""img/green_wl/11.jpg"",""time"":551}]","[]"
"image-keyboard-response","28","86547","0.0-5.0-1.12","63d7a9346e833b93500723d4","bdp_lott","Sun Mar 26 2023 08:47:16 GMT-0400 (Eastern Daylight Time)","332278","green","red","","1238","","","","choice","","img/green_wl/choose11.jpg","1","213","green","0.5","0.5","0.5","w","",""
"animation","29","87156","0.0-5.0-2.12","63d7a9346e833b93500723d4","bdp_lott","Sun Mar 26 2023 08:47:16 GMT-0400 (Eastern Daylight Time)","332278","green","red","","","","","","","","","","213","","","","","","[{""stimulus"":""img/green_wl/1.jpg"",""time"":50},{""stimulus"":""img/green_wl/2.jpg"",""time"":112},{""stimulus"":""img/green_wl/3.jpg"",""time"":150},{""stimulus"":""img/green_wl/4.jpg"",""time"":200},{""stimulus"":""img/green_wl/5.jpg"",""time"":251},{""stimulus"":""img/green_wl/6.jpg"",""time"":300},{""stimulus"":""img/green_wl/7.jpg"",""time"":360},{""stimulus"":""img/green_wl/8.jpg"",""time"":400},{""stimulus"":""img/green_wl/9.jpg"",""time"":451},{""stimulus"":""img/green_wl/10.jpg"",""time"":514},{""stimulus"":""img/green_wl/11.jpg"",""time"":562}]","[]"
"image-keyboard-response","30","88483","0.0-5.0-1.13","63d7a9346e833b93500723d4","bdp_lott","Sun Mar 26 2023 08:47:16 GMT-0400 (Eastern Daylight Time)","332278","green","red","","1326","","","","choice","","img/green_wl/choose11.jpg","1","212","green","0.5","0.5","0.5","w","",""
"animation","31","89085","0.0-5.0-2.13","63d7a9346e833b93500723d4","bdp_lott","Sun Mar 26 2023 08:47:16 GMT-0400 (Eastern Daylight Time)","332278","green","red","","","","","","","","","","212","","","","","","[{""stimulus"":""img/green_wl/1.jpg"",""time"":58},{""stimulus"":""img/green_wl/2.jpg"",""time"":104},{""stimulus"":""img/green_wl/3.jpg"",""time"":166},{""stimulus"":""img/green_wl/4.jpg"",""time"":201},{""stimulus"":""img/green_wl/5.jpg"",""time"":251},{""stimulus"":""img/green_wl/6.jpg"",""time"":307},{""stimulus"":""img/green_wl/7.jpg"",""time"":351},{""stimulus"":""img/green_wl/8.jpg"",""time"":402},{""stimulus"":""img/green_wl/9.jpg"",""time"":452},{""stimulus"":""img/green_wl/10.jpg"",""time"":508},{""stimulus"":""img/green_wl/11.jpg"",""time"":551}]","[]"
"image-keyboard-response","32","90186","0.0-5.0-1.14","63d7a9346e833b93500723d4","bdp_lott","Sun Mar 26 2023 08:47:16 GMT-0400 (Eastern Daylight Time)","332278","green","red","","1100","","","","choice","","img/green_wl/choose11.jpg","1","211","green","0.5","0.5","0.5","w","",""
"animation","33","90786","0.0-5.0-2.14","63d7a9346e833b93500723d4","bdp_lott","Sun Mar 26 2023 08:47:16 GMT-0400 (Eastern Daylight Time)","332278","green","red","","","","","","","","","","211","","","","","","[{""stimulus"":""img/green_wl/1.jpg"",""time"":51},{""stimulus"":""img/green_wl/2.jpg"",""time"":113},{""stimulus"":""img/green_wl/3.jpg"",""time"":150},{""stimulus"":""img/green_wl/4.jpg"",""time"":206},{""stimulus"":""img/green_wl/5.jpg"",""time"":251},{""stimulus"":""img/green_wl/6.jpg"",""time"":313},{""stimulus"":""img/green_wl/7.jpg"",""time"":360},{""stimulus"":""img/green_wl/8.jpg"",""time"":400},{""stimulus"":""img/green_wl/9.jpg"",""time"":452},{""stimulus"":""img/green_wl/10.jpg"",""time"":501},{""stimulus"":""img/green_wl/11.jpg"",""time"":550}]","[]"
"image-keyboard-response","34","91963","0.0-5.0-1.15","63d7a9346e833b93500723d4","bdp_lott","Sun Mar 26 2023 08:47:16 GMT-0400 (Eastern Daylight Time)","332278","green","red","","1176","","","","choice","","img/green_wl/choose11.jpg","1","210","green","0.5","0.5","0.5","w","",""
"animation","35","92565","0.0-5.0-2.15","63d7a9346e833b93500723d4","bdp_lott","Sun Mar 26 2023 08:47:16 GMT-0400 (Eastern Daylight Time)","332278","green","red","","","","","","","","","","210","","","","","","[{""stimulus"":""img/green_wl/1.jpg"",""time"":51},{""stimulus"":""img/green_wl/2.jpg"",""time"":108},{""stimulus"":""img/green_wl/3.jpg"",""time"":155},{""stimulus"":""img/green_wl/4.jpg"",""time"":202},{""stimulus"":""img/green_wl/5.jpg"",""time"":251},{""stimulus"":""img/green_wl/6.jpg"",""time"":301},{""stimulus"":""img/green_wl/7.jpg"",""time"":358},{""stimulus"":""img/green_wl/8.jpg"",""time"":401},{""stimulus"":""img/green_wl/9.jpg"",""time"":451},{""stimulus"":""img/green_wl/10.jpg"",""time"":514},{""stimulus"":""img/green_wl/11.jpg"",""time"":551}]","[]"
"image-keyboard-response","36","93675","0.0-5.0-1.16","63d7a9346e833b93500723d4","bdp_lott","Sun Mar 26 2023 08:47:16 GMT-0400 (Eastern Daylight Time)","332278","green","red","","1109","","","","choice","","img/green_wl/choose11.jpg","1","209","green","0.5","0.5","0.5","l","",""
"animation","37","94286","0.0-5.0-2.16","63d7a9346e833b93500723d4","bdp_lott","Sun Mar 26 2023 08:47:16 GMT-0400 (Eastern Daylight Time)","332278","green","red","","","","","","","","","","209","","","","","","[{""stimulus"":""img/green_ll/1.jpg"",""time"":66},{""stimulus"":""img/green_ll/2.jpg"",""time"":112},{""stimulus"":""img/green_ll/3.jpg"",""time"":151},{""stimulus"":""img/green_ll/4.jpg"",""time"":206},{""stimulus"":""img/green_ll/5.jpg"",""time"":253},{""stimulus"":""img/green_ll/6.jpg"",""time"":301},{""stimulus"":""img/green_ll/7.jpg"",""time"":352},{""stimulus"":""img/green_ll/8.jpg"",""time"":409},{""stimulus"":""img/green_ll/9.jpg"",""time"":455},{""stimulus"":""img/green_ll/10.jpg"",""time"":502},{""stimulus"":""img/green_ll/11.jpg"",""time"":552}]","[]"
"image-keyboard-response","38","95028","0.0-5.0-1.17","63d7a9346e833b93500723d4","bdp_lott","Sun Mar 26 2023 08:47:16 GMT-0400 (Eastern Daylight Time)","332278","green","red","","742","","","","choice","","img/green_ll/choose11.jpg","2","208","red","0.5","0.5","0.5","l","",""
"animation","39","95640","0.0-5.0-2.17","63d7a9346e833b93500723d4","bdp_lott","Sun Mar 26 2023 08:47:16 GMT-0400 (Eastern Daylight Time)","332278","green","red","","","","","","","","","","208","","","","","","[{""stimulus"":""img/red_ll/1.jpg"",""time"":51},{""stimulus"":""img/red_ll/2.jpg"",""time"":101},{""stimulus"":""img/red_ll/3.jpg"",""time"":151},{""stimulus"":""img/red_ll/4.jpg"",""time"":202},{""stimulus"":""img/red_ll/5.jpg"",""time"":251},{""stimulus"":""img/red_ll/6.jpg"",""time"":302},{""stimulus"":""img/red_ll/7.jpg"",""time"":360},{""stimulus"":""img/red_ll/8.jpg"",""time"":408},{""stimulus"":""img/red_ll/9.jpg"",""time"":452},{""stimulus"":""img/red_ll/10.jpg"",""time"":502},{""stimulus"":""img/red_ll/11.jpg"",""time"":551}]","[]"
"image-keyboard-response","40","96844","0.0-5.0-1.18","63d7a9346e833b93500723d4","bdp_lott","Sun Mar 26 2023 08:47:16 GMT-0400 (Eastern Daylight Time)","332278","green","red","","1202","","","","choice","","img/red_ll/choose11.jpg","2","207","red","0.5","0.5","0.5","w","",""
"animation","41","97461","0.0-5.0-2.18","63d7a9346e833b93500723d4","bdp_lott","Sun Mar 26 2023 08:47:16 GMT-0400 (Eastern Daylight Time)","332278","green","red","","","","","","","","","","207","","","","","","[{""stimulus"":""img/red_lw/1.jpg"",""time"":59},{""stimulus"":""img/red_lw/2.jpg"",""time"":101},{""stimulus"":""img/red_lw/3.jpg"",""time"":150},{""stimulus"":""img/red_lw/4.jpg"",""time"":201},{""stimulus"":""img/red_lw/5.jpg"",""time"":259},{""stimulus"":""img/red_lw/6.jpg"",""time"":305},{""stimulus"":""img/red_lw/7.jpg"",""time"":350},{""stimulus"":""img/red_lw/8.jpg"",""time"":413},{""stimulus"":""img/red_lw/9.jpg"",""time"":460},{""stimulus"":""img/red_lw/10.jpg"",""time"":507},{""stimulus"":""img/red_lw/11.jpg"",""time"":553}]","[]"
"image-keyboard-response","42","98772","0.0-5.0-1.19","63d7a9346e833b93500723d4","bdp_lott","Sun Mar 26 2023 08:47:16 GMT-0400 (Eastern Daylight Time)","332278","green","red","","1310","","","","choice","","img/red_lw/choose11.jpg","2","206","red","0.5","0.5","0.5","l","",""
"animation","43","99373","0.0-5.0-2.19","63d7a9346e833b93500723d4","bdp_lott","Sun Mar 26 2023 08:47:16 GMT-0400 (Eastern Daylight Time)","332278","green","red","","","","","","","","","","206","","","","","","[{""stimulus"":""img/red_ll/1.jpg"",""time"":50},{""stimulus"":""img/red_ll/2.jpg"",""time"":102},{""stimulus"":""img/red_ll/3.jpg"",""time"":163},{""stimulus"":""img/red_ll/4.jpg"",""time"":200},{""stimulus"":""img/red_ll/5.jpg"",""time"":257},{""stimulus"":""img/red_ll/6.jpg"",""time"":300},{""stimulus"":""img/red_ll/7.jpg"",""time"":352},{""stimulus"":""img/red_ll/8.jpg"",""time"":400},{""stimulus"":""img/red_ll/9.jpg"",""time"":459},{""stimulus"":""img/red_ll/10.jpg"",""time"":507},{""stimulus"":""img/red_ll/11.jpg"",""time"":550}]","[]"
"image-keyboard-response","44","100883","0.0-5.0-1.20","63d7a9346e833b93500723d4","bdp_lott","Sun Mar 26 2023 08:47:16 GMT-0400 (Eastern Daylight Time)","332278","green","red","","1510","","","","choice","","img/red_ll/choose11.jpg","2","205","red","0.5","0.5","0.5","l","",""
"animation","45","101484","0.0-5.0-2.20","63d7a9346e833b93500723d4","bdp_lott","Sun Mar 26 2023 08:47:16 GMT-0400 (Eastern Daylight Time)","332278","green","red","","","","","","","","","","205","","","","","","[{""stimulus"":""img/red_ll/1.jpg"",""time"":51},{""stimulus"":""img/red_ll/2.jpg"",""time"":104},{""stimulus"":""img/red_ll/3.jpg"",""time"":151},{""stimulus"":""img/red_ll/4.jpg"",""time"":213},{""stimulus"":""img/red_ll/5.jpg"",""time"":251},{""stimulus"":""img/red_ll/6.jpg"",""time"":301},{""stimulus"":""img/red_ll/7.jpg"",""time"":352},{""stimulus"":""img/red_ll/8.jpg"",""time"":401},{""stimulus"":""img/red_ll/9.jpg"",""time"":451},{""stimulus"":""img/red_ll/10.jpg"",""time"":506},{""stimulus"":""img/red_ll/11.jpg"",""time"":554}]","[]"
"image-keyboard-response","46","102851","0.0-5.0-1.21","63d7a9346e833b93500723d4","bdp_lott","Sun Mar 26 2023 08:47:16 GMT-0400 (Eastern Daylight Time)","332278","green","red","","1366","","","","choice","","img/red_ll/choose11.jpg","2","204","red","0.5","0.5","0.5","w","",""
"animation","47","103452","0.0-5.0-2.21","63d7a9346e833b93500723d4","bdp_lott","Sun Mar 26 2023 08:47:16 GMT-0400 (Eastern Daylight Time)","332278","green","red","","","","","","","","","","204","","","","","","[{""stimulus"":""img/red_lw/1.jpg"",""time"":51},{""stimulus"":""img/red_lw/2.jpg"",""time"":108},{""stimulus"":""img/red_lw/3.jpg"",""time"":150},{""stimulus"":""img/red_lw/4.jpg"",""time"":201},{""stimulus"":""img/red_lw/5.jpg"",""time"":261},{""stimulus"":""img/red_lw/6.jpg"",""time"":301},{""stimulus"":""img/red_lw/7.jpg"",""time"":351},{""stimulus"":""img/red_lw/8.jpg"",""time"":400},{""stimulus"":""img/red_lw/9.jpg"",""time"":450},{""stimulus"":""img/red_lw/10.jpg"",""time"":500},{""stimulus"":""img/red_lw/11.jpg"",""time"":551}]","[]"
"image-keyboard-response","48","103829","0.0-5.0-1.22","63d7a9346e833b93500723d4","bdp_lott","Sun Mar 26 2023 08:47:16 GMT-0400 (Eastern Daylight Time)","332278","green","red","","377","","","","choice","","img/red_lw/choose11.jpg","1","203","green","0.5","0.5","0.5","l","",""
"animation","49","104430","0.0-5.0-2.22","63d7a9346e833b93500723d4","bdp_lott","Sun Mar 26 2023 08:47:16 GMT-0400 (Eastern Daylight Time)","332278","green","red","","","","","","","","","","203","","","","","","[{""stimulus"":""img/green_lw/1.jpg"",""time"":59},{""stimulus"":""img/green_lw/2.jpg"",""time"":106},{""stimulus"":""img/green_lw/3.jpg"",""time"":150},{""stimulus"":""img/green_lw/4.jpg"",""time"":201},{""stimulus"":""img/green_lw/5.jpg"",""time"":261},{""stimulus"":""img/green_lw/6.jpg"",""time"":301},{""stimulus"":""img/green_lw/7.jpg"",""time"":350},{""stimulus"":""img/green_lw/8.jpg"",""time"":402},{""stimulus"":""img/green_lw/9.jpg"",""time"":451},{""stimulus"":""img/green_lw/10.jpg"",""time"":500},{""stimulus"":""img/green_lw/11.jpg"",""time"":551}]","[]"
"image-keyboard-response","50","105459","0.0-5.0-1.23","63d7a9346e833b93500723d4","bdp_lott","Sun Mar 26 2023 08:47:16 GMT-0400 (Eastern Daylight Time)","332278","green","red","","1028","","","","choice","","img/green_lw/choose11.jpg","1","202","green","0.5","0.5","0.5","l","",""
"animation","51","106060","0.0-5.0-2.23","63d7a9346e833b93500723d4","bdp_lott","Sun Mar 26 2023 08:47:16 GMT-0400 (Eastern Daylight Time)","332278","green","red","","","","","","","","","","202","","","","","","[{""stimulus"":""img/green_lw/1.jpg"",""time"":52},{""stimulus"":""img/green_lw/2.jpg"",""time"":112},{""stimulus"":""img/green_lw/3.jpg"",""time"":152},{""stimulus"":""img/green_lw/4.jpg"",""time"":201},{""stimulus"":""img/green_lw/5.jpg"",""time"":266},{""stimulus"":""img/green_lw/6.jpg"",""time"":312},{""stimulus"":""img/green_lw/7.jpg"",""time"":359},{""stimulus"":""img/green_lw/8.jpg"",""time"":404},{""stimulus"":""img/green_lw/9.jpg"",""time"":451},{""stimulus"":""img/green_lw/10.jpg"",""time"":502},{""stimulus"":""img/green_lw/11.jpg"",""time"":551}]","[]"
"image-keyboard-response","52","107019","0.0-5.0-1.24","63d7a9346e833b93500723d4","bdp_lott","Sun Mar 26 2023 08:47:16 GMT-0400 (Eastern Daylight Time)","332278","green","red","","958","","","","choice","","img/green_lw/choose11.jpg","2","201","red","0.5","0.5","0.5","w","",""
"animation","53","107625","0.0-5.0-2.24","63d7a9346e833b93500723d4","bdp_lott","Sun Mar 26 2023 08:47:16 GMT-0400 (Eastern Daylight Time)","332278","green","red","","","","","","","","","","201","","","","","","[{""stimulus"":""img/red_lw/1.jpg"",""time"":51},{""stimulus"":""img/red_lw/2.jpg"",""time"":110},{""stimulus"":""img/red_lw/3.jpg"",""time"":152},{""stimulus"":""img/red_lw/4.jpg"",""time"":203},{""stimulus"":""img/red_lw/5.jpg"",""time"":251},{""stimulus"":""img/red_lw/6.jpg"",""time"":301},{""stimulus"":""img/red_lw/7.jpg"",""time"":357},{""stimulus"":""img/red_lw/8.jpg"",""time"":405},{""stimulus"":""img/red_lw/9.jpg"",""time"":451},{""stimulus"":""img/red_lw/10.jpg"",""time"":513},{""stimulus"":""img/red_lw/11.jpg"",""time"":559}]","[]"
"image-keyboard-response","54","108810","0.0-5.0-1.25","63d7a9346e833b93500723d4","bdp_lott","Sun Mar 26 2023 08:47:16 GMT-0400 (Eastern Daylight Time)","332278","green","red","","1184","","","","choice","","img/red_lw/choose11.jpg","2","200","red","0.5","0.5","0.5","l","",""
"animation","55","109410","0.0-5.0-2.25","63d7a9346e833b93500723d4","bdp_lott","Sun Mar 26 2023 08:47:16 GMT-0400 (Eastern Daylight Time)","332278","green","red","","","","","","","","","","200","","","","","","[{""stimulus"":""img/red_ll/1.jpg"",""time"":51},{""stimulus"":""img/red_ll/2.jpg"",""time"":106},{""stimulus"":""img/red_ll/3.jpg"",""time"":150},{""stimulus"":""img/red_ll/4.jpg"",""time"":201},{""stimulus"":""img/red_ll/5.jpg"",""time"":252},{""stimulus"":""img/red_ll/6.jpg"",""time"":306},{""stimulus"":""img/red_ll/7.jpg"",""time"":352},{""stimulus"":""img/red_ll/8.jpg"",""time"":401},{""stimulus"":""img/red_ll/9.jpg"",""time"":452},{""stimulus"":""img/red_ll/10.jpg"",""time"":506},{""stimulus"":""img/red_ll/11.jpg"",""time"":552}]","[]"
"image-keyboard-response","56","110418","0.0-5.0-1.26","63d7a9346e833b93500723d4","bdp_lott","Sun Mar 26 2023 08:47:16 GMT-0400 (Eastern Daylight Time)","332278","green","red","","1007","","","","choice","","img/red_ll/choose11.jpg","2","199","red","0.5","0.5","0.5","w","",""
"animation","57","111019","0.0-5.0-2.26","63d7a9346e833b93500723d4","bdp_lott","Sun Mar 26 2023 08:47:16 GMT-0400 (Eastern Daylight Time)","332278","green","red","","","","","","","","","","199","","","","","","[{""stimulus"":""img/red_lw/1.jpg"",""time"":51},{""stimulus"":""img/red_lw/2.jpg"",""time"":100},{""stimulus"":""img/red_lw/3.jpg"",""time"":158},{""stimulus"":""img/red_lw/4.jpg"",""time"":203},{""stimulus"":""img/red_lw/5.jpg"",""time"":266},{""stimulus"":""img/red_lw/6.jpg"",""time"":301},{""stimulus"":""img/red_lw/7.jpg"",""time"":351},{""stimulus"":""img/red_lw/8.jpg"",""time"":402},{""stimulus"":""img/red_lw/9.jpg"",""time"":450},{""stimulus"":""img/red_lw/10.jpg"",""time"":501},{""stimulus"":""img/red_lw/11.jpg"",""time"":551}]","[]"
"image-keyboard-response","58","111955","0.0-5.0-1.27","63d7a9346e833b93500723d4","bdp_lott","Sun Mar 26 2023 08:47:16 GMT-0400 (Eastern Daylight Time)","332278","green","red","","935","","","","choice","","img/red_lw/choose11.jpg","2","198","red","0.5","0.5","0.5","l","",""
"animation","59","112556","0.0-5.0-2.27","63d7a9346e833b93500723d4","bdp_lott","Sun Mar 26 2023 08:47:16 GMT-0400 (Eastern Daylight Time)","332278","green","red","","","","","","","","","","198","","","","","","[{""stimulus"":""img/red_ll/1.jpg"",""time"":54},{""stimulus"":""img/red_ll/2.jpg"",""time"":101},{""stimulus"":""img/red_ll/3.jpg"",""time"":164},{""stimulus"":""img/red_ll/4.jpg"",""time"":207},{""stimulus"":""img/red_ll/5.jpg"",""time"":257},{""stimulus"":""img/red_ll/6.jpg"",""time"":304},{""stimulus"":""img/red_ll/7.jpg"",""time"":351},{""stimulus"":""img/red_ll/8.jpg"",""time"":411},{""stimulus"":""img/red_ll/9.jpg"",""time"":451},{""stimulus"":""img/red_ll/10.jpg"",""time"":504},{""stimulus"":""img/red_ll/11.jpg"",""time"":566}]","[]"
"image-keyboard-response","60","113195","0.0-5.0-1.28","63d7a9346e833b93500723d4","bdp_lott","Sun Mar 26 2023 08:47:16 GMT-0400 (Eastern Daylight Time)","332278","green","red","","638","","","","choice","","img/red_ll/choose11.jpg","2","197","red","0.5","0.5","0.5","l","",""
"animation","61","113801","0.0-5.0-2.28","63d7a9346e833b93500723d4","bdp_lott","Sun Mar 26 2023 08:47:16 GMT-0400 (Eastern Daylight Time)","332278","green","red","","","","","","","","","","197","","","","","","[{""stimulus"":""img/red_ll/1.jpg"",""time"":52},{""stimulus"":""img/red_ll/2.jpg"",""time"":113},{""stimulus"":""img/red_ll/3.jpg"",""time"":159},{""stimulus"":""img/red_ll/4.jpg"",""time"":205},{""stimulus"":""img/red_ll/5.jpg"",""time"":251},{""stimulus"":""img/red_ll/6.jpg"",""time"":313},{""stimulus"":""img/red_ll/7.jpg"",""time"":351},{""stimulus"":""img/red_ll/8.jpg"",""time"":405},{""stimulus"":""img/red_ll/9.jpg"",""time"":452},{""stimulus"":""img/red_ll/10.jpg"",""time"":514},{""stimulus"":""img/red_ll/11.jpg"",""time"":551}]","[]"
"image-keyboard-response","62","114722","0.0-5.0-1.29","63d7a9346e833b93500723d4","bdp_lott","Sun Mar 26 2023 08:47:16 GMT-0400 (Eastern Daylight Time)","332278","green","red","","920","","","","choice","","img/red_ll/choose11.jpg","1","196","green","0.5","0.5","0.5","w","",""
"animation","63","115323","0.0-5.0-2.29","63d7a9346e833b93500723d4","bdp_lott","Sun Mar 26 2023 08:47:16 GMT-0400 (Eastern Daylight Time)","332278","green","red","","","","","","","","","","196","","","","","","[{""stimulus"":""img/green_wl/1.jpg"",""time"":51},{""stimulus"":""img/green_wl/2.jpg"",""time"":102},{""stimulus"":""img/green_wl/3.jpg"",""time"":150},{""stimulus"":""img/green_wl/4.jpg"",""time"":200},{""stimulus"":""img/green_wl/5.jpg"",""time"":251},{""stimulus"":""img/green_wl/6.jpg"",""time"":301},{""stimulus"":""img/green_wl/7.jpg"",""time"":350},{""stimulus"":""img/green_wl/8.jpg"",""time"":401},{""stimulus"":""img/green_wl/9.jpg"",""time"":451},{""stimulus"":""img/green_wl/10.jpg"",""time"":501},{""stimulus"":""img/green_wl/11.jpg"",""time"":551}]","[]"
"image-keyboard-response","64","116323","0.0-5.0-1.30","63d7a9346e833b93500723d4","bdp_lott","Sun Mar 26 2023 08:47:16 GMT-0400 (Eastern Daylight Time)","332278","green","red","","999","","","","choice","","img/green_wl/choose11.jpg","1","195","green","0.5","0.5","0.5","w","",""
"animation","65","116923","0.0-5.0-2.30","63d7a9346e833b93500723d4","bdp_lott","Sun Mar 26 2023 08:47:16 GMT-0400 (Eastern Daylight Time)","332278","green","red","","","","","","","","","","195","","","","","","[{""stimulus"":""img/green_wl/1.jpg"",""time"":51},{""stimulus"":""img/green_wl/2.jpg"",""time"":102},{""stimulus"":""img/green_wl/3.jpg"",""time"":152},{""stimulus"":""img/green_wl/4.jpg"",""time"":202},{""stimulus"":""img/green_wl/5.jpg"",""time"":252},{""stimulus"":""img/green_wl/6.jpg"",""time"":302},{""stimulus"":""img/green_wl/7.jpg"",""time"":352},{""stimulus"":""img/green_wl/8.jpg"",""time"":413},{""stimulus"":""img/green_wl/9.jpg"",""time"":451},{""stimulus"":""img/green_wl/10.jpg"",""time"":501},{""stimulus"":""img/green_wl/11.jpg"",""time"":553}]","[]"
"image-keyboard-response","66","117787","0.0-5.0-1.31","63d7a9346e833b93500723d4","bdp_lott","Sun Mar 26 2023 08:47:16 GMT-0400 (Eastern Daylight Time)","332278","green","red","","862","","","","choice","","img/green_wl/choose11.jpg","1","194","green","0.5","0.5","0.5","w","",""
"animation","67","118402","0.0-5.0-2.31","63d7a9346e833b93500723d4","bdp_lott","Sun Mar 26 2023 08:47:16 GMT-0400 (Eastern Daylight Time)","332278","green","red","","","","","","","","","","194","","","","","","[{""stimulus"":""img/green_wl/1.jpg"",""time"":51},{""stimulus"":""img/green_wl/2.jpg"",""time"":105},{""stimulus"":""img/green_wl/3.jpg"",""time"":151},{""stimulus"":""img/green_wl/4.jpg"",""time"":201},{""stimulus"":""img/green_wl/5.jpg"",""time"":251},{""stimulus"":""img/green_wl/6.jpg"",""time"":307},{""stimulus"":""img/green_wl/7.jpg"",""time"":353},{""stimulus"":""img/green_wl/8.jpg"",""time"":415},{""stimulus"":""img/green_wl/9.jpg"",""time"":451},{""stimulus"":""img/green_wl/10.jpg"",""time"":507},{""stimulus"":""img/green_wl/11.jpg"",""time"":551}]","[]"
"image-keyboard-response","68","119380","0.0-5.0-1.32","63d7a9346e833b93500723d4","bdp_lott","Sun Mar 26 2023 08:47:16 GMT-0400 (Eastern Daylight Time)","332278","green","red","","977","","","","choice","","img/green_wl/choose11.jpg","1","193","green","0.5","0.5","0.5","l","",""
"animation","69","119994","0.0-5.0-2.32","63d7a9346e833b93500723d4","bdp_lott","Sun Mar 26 2023 08:47:16 GMT-0400 (Eastern Daylight Time)","332278","green","red","","","","","","","","","","193","","","","","","[{""stimulus"":""img/green_ll/1.jpg"",""time"":51},{""stimulus"":""img/green_ll/2.jpg"",""time"":100},{""stimulus"":""img/green_ll/3.jpg"",""time"":150},{""stimulus"":""img/green_ll/4.jpg"",""time"":201},{""stimulus"":""img/green_ll/5.jpg"",""time"":256},{""stimulus"":""img/green_ll/6.jpg"",""time"":301},{""stimulus"":""img/green_ll/7.jpg"",""time"":351},{""stimulus"":""img/green_ll/8.jpg"",""time"":401},{""stimulus"":""img/green_ll/9.jpg"",""time"":460},{""stimulus"":""img/green_ll/10.jpg"",""time"":506},{""stimulus"":""img/green_ll/11.jpg"",""time"":552}]","[]"
"image-keyboard-response","70","121059","0.0-5.0-1.33","63d7a9346e833b93500723d4","bdp_lott","Sun Mar 26 2023 08:47:16 GMT-0400 (Eastern Daylight Time)","332278","green","red","","1064","","","","choice","","img/green_ll/choose11.jpg","1","192","green","0.5","0.5","0.5","l","",""
"animation","71","121666","0.0-5.0-2.33","63d7a9346e833b93500723d4","bdp_lott","Sun Mar 26 2023 08:47:16 GMT-0400 (Eastern Daylight Time)","332278","green","red","","","","","","","","","","192","","","","","","[{""stimulus"":""img/green_ll/1.jpg"",""time"":52},{""stimulus"":""img/green_ll/2.jpg"",""time"":107},{""stimulus"":""img/green_ll/3.jpg"",""time"":153},{""stimulus"":""img/green_ll/4.jpg"",""time"":202},{""stimulus"":""img/green_ll/5.jpg"",""time"":251},{""stimulus"":""img/green_ll/6.jpg"",""time"":302},{""stimulus"":""img/green_ll/7.jpg"",""time"":351},{""stimulus"":""img/green_ll/8.jpg"",""time"":402},{""stimulus"":""img/green_ll/9.jpg"",""time"":451},{""stimulus"":""img/green_ll/10.jpg"",""time"":501},{""stimulus"":""img/green_ll/11.jpg"",""time"":559}]","[]"
"image-keyboard-response","72","122219","0.0-5.0-1.34","63d7a9346e833b93500723d4","bdp_lott","Sun Mar 26 2023 08:47:16 GMT-0400 (Eastern Daylight Time)","332278","green","red","","553","","","","choice","","img/green_ll/choose11.jpg","2","191","red","0.5","0.5","0.5","l","",""
"animation","73","122820","0.0-5.0-2.34","63d7a9346e833b93500723d4","bdp_lott","Sun Mar 26 2023 08:47:16 GMT-0400 (Eastern Daylight Time)","332278","green","red","","","","","","","","","","191","","","","","","[{""stimulus"":""img/red_ll/1.jpg"",""time"":64},{""stimulus"":""img/red_ll/2.jpg"",""time"":110},{""stimulus"":""img/red_ll/3.jpg"",""time"":151},{""stimulus"":""img/red_ll/4.jpg"",""time"":205},{""stimulus"":""img/red_ll/5.jpg"",""time"":251},{""stimulus"":""img/red_ll/6.jpg"",""time"":301},{""stimulus"":""img/red_ll/7.jpg"",""time"":360},{""stimulus"":""img/red_ll/8.jpg"",""time"":407},{""stimulus"":""img/red_ll/9.jpg"",""time"":453},{""stimulus"":""img/red_ll/10.jpg"",""time"":515},{""stimulus"":""img/red_ll/11.jpg"",""time"":550}]","[]"
"image-keyboard-response","74","123506","0.0-5.0-1.35","63d7a9346e833b93500723d4","bdp_lott","Sun Mar 26 2023 08:47:16 GMT-0400 (Eastern Daylight Time)","332278","green","red","","685","","","","choice","","img/red_ll/choose11.jpg","2","190","red","0.5","0.5","0.5","l","",""
"animation","75","124112","0.0-5.0-2.35","63d7a9346e833b93500723d4","bdp_lott","Sun Mar 26 2023 08:47:16 GMT-0400 (Eastern Daylight Time)","332278","green","red","","","","","","","","","","190","","","","","","[{""stimulus"":""img/red_ll/1.jpg"",""time"":51},{""stimulus"":""img/red_ll/2.jpg"",""time"":109},{""stimulus"":""img/red_ll/3.jpg"",""time"":156},{""stimulus"":""img/red_ll/4.jpg"",""time"":203},{""stimulus"":""img/red_ll/5.jpg"",""time"":251},{""stimulus"":""img/red_ll/6.jpg"",""time"":302},{""stimulus"":""img/red_ll/7.jpg"",""time"":351},{""stimulus"":""img/red_ll/8.jpg"",""time"":401},{""stimulus"":""img/red_ll/9.jpg"",""time"":451},{""stimulus"":""img/red_ll/10.jpg"",""time"":501},{""stimulus"":""img/red_ll/11.jpg"",""time"":551}]","[]"
"image-keyboard-response","76","124483","0.0-5.0-1.36","63d7a9346e833b93500723d4","bdp_lott","Sun Mar 26 2023 08:47:16 GMT-0400 (Eastern Daylight Time)","332278","green","red","","370","","","","choice","","img/red_ll/choose11.jpg","1","189","green","0.5","0.5","0.5","l","",""
"animation","77","125084","0.0-5.0-2.36","63d7a9346e833b93500723d4","bdp_lott","Sun Mar 26 2023 08:47:16 GMT-0400 (Eastern Daylight Time)","332278","green","red","","","","","","","","","","189","","","","","","[{""stimulus"":""img/green_ll/1.jpg"",""time"":51},{""stimulus"":""img/green_ll/2.jpg"",""time"":108},{""stimulus"":""img/green_ll/3.jpg"",""time"":155},{""stimulus"":""img/green_ll/4.jpg"",""time"":202},{""stimulus"":""img/green_ll/5.jpg"",""time"":264},{""stimulus"":""img/green_ll/6.jpg"",""time"":300},{""stimulus"":""img/green_ll/7.jpg"",""time"":351},{""stimulus"":""img/green_ll/8.jpg"",""time"":401},{""stimulus"":""img/green_ll/9.jpg"",""time"":451},{""stimulus"":""img/green_ll/10.jpg"",""time"":512},{""stimulus"":""img/green_ll/11.jpg"",""time"":551}]","[]"
"image-keyboard-response","78","126220","0.0-5.0-1.37","63d7a9346e833b93500723d4","bdp_lott","Sun Mar 26 2023 08:47:16 GMT-0400 (Eastern Daylight Time)","332278","green","red","","1134","","","","choice","","img/green_ll/choose11.jpg","2","188","red","0.5","0.5","0.5","l","",""
"animation","79","126821","0.0-5.0-2.37","63d7a9346e833b93500723d4","bdp_lott","Sun Mar 26 2023 08:47:16 GMT-0400 (Eastern Daylight Time)","332278","green","red","","","","","","","","","","188","","","","","","[{""stimulus"":""img/red_ll/1.jpg"",""time"":51},{""stimulus"":""img/red_ll/2.jpg"",""time"":100},{""stimulus"":""img/red_ll/3.jpg"",""time"":150},{""stimulus"":""img/red_ll/4.jpg"",""time"":208},{""stimulus"":""img/red_ll/5.jpg"",""time"":251},{""stimulus"":""img/red_ll/6.jpg"",""time"":303},{""stimulus"":""img/red_ll/7.jpg"",""time"":351},{""stimulus"":""img/red_ll/8.jpg"",""time"":411},{""stimulus"":""img/red_ll/9.jpg"",""time"":451},{""stimulus"":""img/red_ll/10.jpg"",""time"":503},{""stimulus"":""img/red_ll/11.jpg"",""time"":565}]","[]"
"image-keyboard-response","80","127427","0.0-5.0-1.38","63d7a9346e833b93500723d4","bdp_lott","Sun Mar 26 2023 08:47:16 GMT-0400 (Eastern Daylight Time)","332278","green","red","","605","","","","choice","","img/red_ll/choose11.jpg","1","187","green","0.5","0.5","0.5","l","",""
"animation","81","128028","0.0-5.0-2.38","63d7a9346e833b93500723d4","bdp_lott","Sun Mar 26 2023 08:47:16 GMT-0400 (Eastern Daylight Time)","332278","green","red","","","","","","","","","","187","","","","","","[{""stimulus"":""img/green_ll/1.jpg"",""time"":51},{""stimulus"":""img/green_ll/2.jpg"",""time"":100},{""stimulus"":""img/green_ll/3.jpg"",""time"":151},{""stimulus"":""img/green_ll/4.jpg"",""time"":206},{""stimulus"":""img/green_ll/5.jpg"",""time"":251},{""stimulus"":""img/green_ll/6.jpg"",""time"":316},{""stimulus"":""img/green_ll/7.jpg"",""time"":350},{""stimulus"":""img/green_ll/8.jpg"",""time"":401},{""stimulus"":""img/green_ll/9.jpg"",""time"":450},{""stimulus"":""img/green_ll/10.jpg"",""time"":515},{""stimulus"":""img/green_ll/11.jpg"",""time"":551}]","[]"
"image-keyboard-response","82","128731","0.0-5.0-1.39","63d7a9346e833b93500723d4","bdp_lott","Sun Mar 26 2023 08:47:16 GMT-0400 (Eastern Daylight Time)","332278","green","red","","702","","","","choice","","img/green_ll/choose11.jpg","2","186","red","0.5","0.5","0.5","l","",""
"animation","83","129333","0.0-5.0-2.39","63d7a9346e833b93500723d4","bdp_lott","Sun Mar 26 2023 08:47:16 GMT-0400 (Eastern Daylight Time)","332278","green","red","","","","","","","","","","186","","","","","","[{""stimulus"":""img/red_ll/1.jpg"",""time"":51},{""stimulus"":""img/red_ll/2.jpg"",""time"":100},{""stimulus"":""img/red_ll/3.jpg"",""time"":151},{""stimulus"":""img/red_ll/4.jpg"",""time"":215},{""stimulus"":""img/red_ll/5.jpg"",""time"":251},{""stimulus"":""img/red_ll/6.jpg"",""time"":300},{""stimulus"":""img/red_ll/7.jpg"",""time"":351},{""stimulus"":""img/red_ll/8.jpg"",""time"":401},{""stimulus"":""img/red_ll/9.jpg"",""time"":464},{""stimulus"":""img/red_ll/10.jpg"",""time"":511},{""stimulus"":""img/red_ll/11.jpg"",""time"":550}]","[]"
"image-keyboard-response","84","129933","0.0-5.0-1.40","63d7a9346e833b93500723d4","bdp_lott","Sun Mar 26 2023 08:47:16 GMT-0400 (Eastern Daylight Time)","332278","green","red","","599","","","","choice","","img/red_ll/choose11.jpg","1","185","green","0.5","0.5","0.5","w","",""
"animation","85","130537","0.0-5.0-2.40","63d7a9346e833b93500723d4","bdp_lott","Sun Mar 26 2023 08:47:16 GMT-0400 (Eastern Daylight Time)","332278","green","red","","","","","","","","","","185","","","","","","[{""stimulus"":""img/green_wl/1.jpg"",""time"":51},{""stimulus"":""img/green_wl/2.jpg"",""time"":114},{""stimulus"":""img/green_wl/3.jpg"",""time"":151},{""stimulus"":""img/green_wl/4.jpg"",""time"":201},{""stimulus"":""img/green_wl/5.jpg"",""time"":266},{""stimulus"":""img/green_wl/6.jpg"",""time"":301},{""stimulus"":""img/green_wl/7.jpg"",""time"":359},{""stimulus"":""img/green_wl/8.jpg"",""time"":401},{""stimulus"":""img/green_wl/9.jpg"",""time"":466},{""stimulus"":""img/green_wl/10.jpg"",""time"":512},{""stimulus"":""img/green_wl/11.jpg"",""time"":551}]","[]"
"image-keyboard-response","86","131467","0.0-5.0-1.41","63d7a9346e833b93500723d4","bdp_lott","Sun Mar 26 2023 08:47:16 GMT-0400 (Eastern Daylight Time)","332278","green","red","","929","","","","choice","","img/green_wl/choose11.jpg","1","184","green","0.5","0.5","0.5","l","",""
"animation","87","132084","0.0-5.0-2.41","63d7a9346e833b93500723d4","bdp_lott","Sun Mar 26 2023 08:47:16 GMT-0400 (Eastern Daylight Time)","332278","green","red","","","","","","","","","","184","","","","","","[{""stimulus"":""img/green_ll/1.jpg"",""time"":51},{""stimulus"":""img/green_ll/2.jpg"",""time"":103},{""stimulus"":""img/green_ll/3.jpg"",""time"":151},{""stimulus"":""img/green_ll/4.jpg"",""time"":212},{""stimulus"":""img/green_ll/5.jpg"",""time"":258},{""stimulus"":""img/green_ll/6.jpg"",""time"":305},{""stimulus"":""img/green_ll/7.jpg"",""time"":351},{""stimulus"":""img/green_ll/8.jpg"",""time"":414},{""stimulus"":""img/green_ll/9.jpg"",""time"":451},{""stimulus"":""img/green_ll/10.jpg"",""time"":509},{""stimulus"":""img/green_ll/11.jpg"",""time"":555}]","[]"
"image-keyboard-response","88","132890","0.0-5.0-1.42","63d7a9346e833b93500723d4","bdp_lott","Sun Mar 26 2023 08:47:16 GMT-0400 (Eastern Daylight Time)","332278","green","red","","806","","","","choice","","img/green_ll/choose11.jpg","2","183","red","0.5","0.5","0.5","l","",""
"animation","89","133492","0.0-5.0-2.42","63d7a9346e833b93500723d4","bdp_lott","Sun Mar 26 2023 08:47:16 GMT-0400 (Eastern Daylight Time)","332278","green","red","","","","","","","","","","183","","","","","","[{""stimulus"":""img/red_ll/1.jpg"",""time"":59},{""stimulus"":""img/red_ll/2.jpg"",""time"":105},{""stimulus"":""img/red_ll/3.jpg"",""time"":152},{""stimulus"":""img/red_ll/4.jpg"",""time"":201},{""stimulus"":""img/red_ll/5.jpg"",""time"":252},{""stimulus"":""img/red_ll/6.jpg"",""time"":302},{""stimulus"":""img/red_ll/7.jpg"",""time"":351},{""stimulus"":""img/red_ll/8.jpg"",""time"":402},{""stimulus"":""img/red_ll/9.jpg"",""time"":452},{""stimulus"":""img/red_ll/10.jpg"",""time"":502},{""stimulus"":""img/red_ll/11.jpg"",""time"":552}]","[]"
"image-keyboard-response","90","134268","0.0-5.0-1.43","63d7a9346e833b93500723d4","bdp_lott","Sun Mar 26 2023 08:47:16 GMT-0400 (Eastern Daylight Time)","332278","green","red","","774","","","","choice","","img/red_ll/choose11.jpg","2","182","red","0.5","0.5","0.5","w","",""
"animation","91","134879","0.0-5.0-2.43","63d7a9346e833b93500723d4","bdp_lott","Sun Mar 26 2023 08:47:16 GMT-0400 (Eastern Daylight Time)","332278","green","red","","","","","","","","","","182","","","","","","[{""stimulus"":""img/red_lw/1.jpg"",""time"":51},{""stimulus"":""img/red_lw/2.jpg"",""time"":113},{""stimulus"":""img/red_lw/3.jpg"",""time"":150},{""stimulus"":""img/red_lw/4.jpg"",""time"":201},{""stimulus"":""img/red_lw/5.jpg"",""time"":250},{""stimulus"":""img/red_lw/6.jpg"",""time"":301},{""stimulus"":""img/red_lw/7.jpg"",""time"":362},{""stimulus"":""img/red_lw/8.jpg"",""time"":410},{""stimulus"":""img/red_lw/9.jpg"",""time"":451},{""stimulus"":""img/red_lw/10.jpg"",""time"":502},{""stimulus"":""img/red_lw/11.jpg"",""time"":551}]","[]"
"image-keyboard-response","92","135595","0.0-5.0-1.44","63d7a9346e833b93500723d4","bdp_lott","Sun Mar 26 2023 08:47:16 GMT-0400 (Eastern Daylight Time)","332278","green","red","","715","","","","choice","","img/red_lw/choose11.jpg","2","181","red","0.5","0.5","0.5","l","",""
"animation","93","136197","0.0-5.0-2.44","63d7a9346e833b93500723d4","bdp_lott","Sun Mar 26 2023 08:47:16 GMT-0400 (Eastern Daylight Time)","332278","green","red","","","","","","","","","","181","","","","","","[{""stimulus"":""img/red_ll/1.jpg"",""time"":51},{""stimulus"":""img/red_ll/2.jpg"",""time"":115},{""stimulus"":""img/red_ll/3.jpg"",""time"":151},{""stimulus"":""img/red_ll/4.jpg"",""time"":208},{""stimulus"":""img/red_ll/5.jpg"",""time"":250},{""stimulus"":""img/red_ll/6.jpg"",""time"":300},{""stimulus"":""img/red_ll/7.jpg"",""time"":365},{""stimulus"":""img/red_ll/8.jpg"",""time"":401},{""stimulus"":""img/red_ll/9.jpg"",""time"":451},{""stimulus"":""img/red_ll/10.jpg"",""time"":504},{""stimulus"":""img/red_ll/11.jpg"",""time"":551}]","[]"
"image-keyboard-response","94","136931","0.0-5.0-1.45","63d7a9346e833b93500723d4","bdp_lott","Sun Mar 26 2023 08:47:16 GMT-0400 (Eastern Daylight Time)","332278","green","red","","734","","","","choice","","img/red_ll/choose11.jpg","1","180","green","0.5","0.5","0.5","w","",""
"animation","95","137533","0.0-5.0-2.45","63d7a9346e833b93500723d4","bdp_lott","Sun Mar 26 2023 08:47:16 GMT-0400 (Eastern Daylight Time)","332278","green","red","","","","","","","","","","180","","","","","","[{""stimulus"":""img/green_wl/1.jpg"",""time"":51},{""stimulus"":""img/green_wl/2.jpg"",""time"":101},{""stimulus"":""img/green_wl/3.jpg"",""time"":159},{""stimulus"":""img/green_wl/4.jpg"",""time"":205},{""stimulus"":""img/green_wl/5.jpg"",""time"":251},{""stimulus"":""img/green_wl/6.jpg"",""time"":301},{""stimulus"":""img/green_wl/7.jpg"",""time"":351},{""stimulus"":""img/green_wl/8.jpg"",""time"":406},{""stimulus"":""img/green_wl/9.jpg"",""time"":451},{""stimulus"":""img/green_wl/10.jpg"",""time"":501},{""stimulus"":""img/green_wl/11.jpg"",""time"":552}]","[]"
"image-keyboard-response","96","138277","0.0-5.0-1.46","63d7a9346e833b93500723d4","bdp_lott","Sun Mar 26 2023 08:47:16 GMT-0400 (Eastern Daylight Time)","332278","green","red","","743","","","","choice","","img/green_wl/choose11.jpg","1","179","green","0.5","0.5","0.5","l","",""
"animation","97","138887","0.0-5.0-2.46","63d7a9346e833b93500723d4","bdp_lott","Sun Mar 26 2023 08:47:16 GMT-0400 (Eastern Daylight Time)","332278","green","red","","","","","","","","","","179","","","","","","[{""stimulus"":""img/green_ll/1.jpg"",""time"":51},{""stimulus"":""img/green_ll/2.jpg"",""time"":114},{""stimulus"":""img/green_ll/3.jpg"",""time"":160},{""stimulus"":""img/green_ll/4.jpg"",""time"":207},{""stimulus"":""img/green_ll/5.jpg"",""time"":251},{""stimulus"":""img/green_ll/6.jpg"",""time"":302},{""stimulus"":""img/green_ll/7.jpg"",""time"":363},{""stimulus"":""img/green_ll/8.jpg"",""time"":401},{""stimulus"":""img/green_ll/9.jpg"",""time"":451},{""stimulus"":""img/green_ll/10.jpg"",""time"":502},{""stimulus"":""img/green_ll/11.jpg"",""time"":551}]","[]"
"image-keyboard-response","98","139949","0.0-5.0-1.47","63d7a9346e833b93500723d4","bdp_lott","Sun Mar 26 2023 08:47:16 GMT-0400 (Eastern Daylight Time)","332278","green","red","","1062","","","","choice","","img/green_ll/choose11.jpg","1","178","green","0.5","0.5","0.5","w","",""
"animation","99","140558","0.0-5.0-2.47","63d7a9346e833b93500723d4","bdp_lott","Sun Mar 26 2023 08:47:16 GMT-0400 (Eastern Daylight Time)","332278","green","red","","","","","","","","","","178","","","","","","[{""stimulus"":""img/green_wl/1.jpg"",""time"":51},{""stimulus"":""img/green_wl/2.jpg"",""time"":111},{""stimulus"":""img/green_wl/3.jpg"",""time"":151},{""stimulus"":""img/green_wl/4.jpg"",""time"":204},{""stimulus"":""img/green_wl/5.jpg"",""time"":265},{""stimulus"":""img/green_wl/6.jpg"",""time"":302},{""stimulus"":""img/green_wl/7.jpg"",""time"":359},{""stimulus"":""img/green_wl/8.jpg"",""time"":406},{""stimulus"":""img/green_wl/9.jpg"",""time"":451},{""stimulus"":""img/green_wl/10.jpg"",""time"":515},{""stimulus"":""img/green_wl/11.jpg"",""time"":562}]","[]"
"image-keyboard-response","100","141539","0.0-5.0-1.48","63d7a9346e833b93500723d4","bdp_lott","Sun Mar 26 2023 08:47:16 GMT-0400 (Eastern Daylight Time)","332278","green","red","","979","","","","choice","","img/green_wl/choose11.jpg","1","177","green","0.5","0.5","0.5","l","",""
"animation","101","142141","0.0-5.0-2.48","63d7a9346e833b93500723d4","bdp_lott","Sun Mar 26 2023 08:47:16 GMT-0400 (Eastern Daylight Time)","332278","green","red","","","","","","","","","","177","","","","","","[{""stimulus"":""img/green_ll/1.jpg"",""time"":50},{""stimulus"":""img/green_ll/2.jpg"",""time"":101},{""stimulus"":""img/green_ll/3.jpg"",""time"":160},{""stimulus"":""img/green_ll/4.jpg"",""time"":207},{""stimulus"":""img/green_ll/5.jpg"",""time"":254},{""stimulus"":""img/green_ll/6.jpg"",""time"":301},{""stimulus"":""img/green_ll/7.jpg"",""time"":352},{""stimulus"":""img/green_ll/8.jpg"",""time"":402},{""stimulus"":""img/green_ll/9.jpg"",""time"":452},{""stimulus"":""img/green_ll/10.jpg"",""time"":502},{""stimulus"":""img/green_ll/11.jpg"",""time"":552}]","[]"
"image-keyboard-response","102","143179","0.0-5.0-1.49","63d7a9346e833b93500723d4","bdp_lott","Sun Mar 26 2023 08:47:16 GMT-0400 (Eastern Daylight Time)","332278","green","red","","1036","","","","choice","","img/green_ll/choose11.jpg","2","176","red","0.5","0.5","0.5","w","",""
"animation","103","143787","0.0-5.0-2.49","63d7a9346e833b93500723d4","bdp_lott","Sun Mar 26 2023 08:47:16 GMT-0400 (Eastern Daylight Time)","332278","green","red","","","","","","","","","","176","","","","","","[{""stimulus"":""img/red_lw/1.jpg"",""time"":52},{""stimulus"":""img/red_lw/2.jpg"",""time"":110},{""stimulus"":""img/red_lw/3.jpg"",""time"":157},{""stimulus"":""img/red_lw/4.jpg"",""time"":204},{""stimulus"":""img/red_lw/5.jpg"",""time"":251},{""stimulus"":""img/red_lw/6.jpg"",""time"":312},{""stimulus"":""img/red_lw/7.jpg"",""time"":357},{""stimulus"":""img/red_lw/8.jpg"",""time"":400},{""stimulus"":""img/red_lw/9.jpg"",""time"":452},{""stimulus"":""img/red_lw/10.jpg"",""time"":514},{""stimulus"":""img/red_lw/11.jpg"",""time"":561}]","[]"
"image-keyboard-response","104","144795","0.0-5.0-1.50","63d7a9346e833b93500723d4","bdp_lott","Sun Mar 26 2023 08:47:16 GMT-0400 (Eastern Daylight Time)","332278","green","red","","1006","","","","choice","","img/red_lw/choose11.jpg","2","175","red","0.5","0.5","0.5","w","",""
"animation","105","145406","0.0-5.0-2.50","63d7a9346e833b93500723d4","bdp_lott","Sun Mar 26 2023 08:47:16 GMT-0400 (Eastern Daylight Time)","332278","green","red","","","","","","","","","","175","","","","","","[{""stimulus"":""img/red_lw/1.jpg"",""time"":51},{""stimulus"":""img/red_lw/2.jpg"",""time"":116},{""stimulus"":""img/red_lw/3.jpg"",""time"":162},{""stimulus"":""img/red_lw/4.jpg"",""time"":209},{""stimulus"":""img/red_lw/5.jpg"",""time"":254},{""stimulus"":""img/red_lw/6.jpg"",""time"":316},{""stimulus"":""img/red_lw/7.jpg"",""time"":351},{""stimulus"":""img/red_lw/8.jpg"",""time"":409},{""stimulus"":""img/red_lw/9.jpg"",""time"":451},{""stimulus"":""img/red_lw/10.jpg"",""time"":503},{""stimulus"":""img/red_lw/11.jpg"",""time"":564}]","[]"
"image-keyboard-response","106","146170","0.0-5.0-1.51","63d7a9346e833b93500723d4","bdp_lott","Sun Mar 26 2023 08:47:16 GMT-0400 (Eastern Daylight Time)","332278","green","red","","763","","","","choice","","img/red_lw/choose11.jpg","2","174","red","0.5","0.5","0.5","w","",""
"animation","107","146771","0.0-5.0-2.51","63d7a9346e833b93500723d4","bdp_lott","Sun Mar 26 2023 08:47:16 GMT-0400 (Eastern Daylight Time)","332278","green","red","","","","","","","","","","174","","","","","","[{""stimulus"":""img/red_lw/1.jpg"",""time"":51},{""stimulus"":""img/red_lw/2.jpg"",""time"":113},{""stimulus"":""img/red_lw/3.jpg"",""time"":150},{""stimulus"":""img/red_lw/4.jpg"",""time"":201},{""stimulus"":""img/red_lw/5.jpg"",""time"":254},{""stimulus"":""img/red_lw/6.jpg"",""time"":315},{""stimulus"":""img/red_lw/7.jpg"",""time"":362},{""stimulus"":""img/red_lw/8.jpg"",""time"":407},{""stimulus"":""img/red_lw/9.jpg"",""time"":455},{""stimulus"":""img/red_lw/10.jpg"",""time"":500},{""stimulus"":""img/red_lw/11.jpg"",""time"":551}]","[]"
"image-keyboard-response","108","147803","0.0-5.0-1.52","63d7a9346e833b93500723d4","bdp_lott","Sun Mar 26 2023 08:47:16 GMT-0400 (Eastern Daylight Time)","332278","green","red","","1031","","","","choice","","img/red_lw/choose11.jpg","2","173","red","0.5","0.5","0.5","l","",""
"animation","109","148405","0.0-5.0-2.52","63d7a9346e833b93500723d4","bdp_lott","Sun Mar 26 2023 08:47:16 GMT-0400 (Eastern Daylight Time)","332278","green","red","","","","","","","","","","173","","","","","","[{""stimulus"":""img/red_ll/1.jpg"",""time"":51},{""stimulus"":""img/red_ll/2.jpg"",""time"":103},{""stimulus"":""img/red_ll/3.jpg"",""time"":154},{""stimulus"":""img/red_ll/4.jpg"",""time"":204},{""stimulus"":""img/red_ll/5.jpg"",""time"":254},{""stimulus"":""img/red_ll/6.jpg"",""time"":304},{""stimulus"":""img/red_ll/7.jpg"",""time"":351},{""stimulus"":""img/red_ll/8.jpg"",""time"":414},{""stimulus"":""img/red_ll/9.jpg"",""time"":451},{""stimulus"":""img/red_ll/10.jpg"",""time"":507},{""stimulus"":""img/red_ll/11.jpg"",""time"":555}]","[]"
"image-keyboard-response","110","149315","0.0-5.0-1.53","63d7a9346e833b93500723d4","bdp_lott","Sun Mar 26 2023 08:47:16 GMT-0400 (Eastern Daylight Time)","332278","green","red","","909","","","","choice","","img/red_ll/choose11.jpg","1","172","green","0.5","0.5","0.5","l","",""
"animation","111","149920","0.0-5.0-2.53","63d7a9346e833b93500723d4","bdp_lott","Sun Mar 26 2023 08:47:16 GMT-0400 (Eastern Daylight Time)","332278","green","red","","","","","","","","","","172","","","","","","[{""stimulus"":""img/green_ll/1.jpg"",""time"":51},{""stimulus"":""img/green_ll/2.jpg"",""time"":108},{""stimulus"":""img/green_ll/3.jpg"",""time"":152},{""stimulus"":""img/green_ll/4.jpg"",""time"":201},{""stimulus"":""img/green_ll/5.jpg"",""time"":251},{""stimulus"":""img/green_ll/6.jpg"",""time"":310},{""stimulus"":""img/green_ll/7.jpg"",""time"":351},{""stimulus"":""img/green_ll/8.jpg"",""time"":402},{""stimulus"":""img/green_ll/9.jpg"",""time"":451},{""stimulus"":""img/green_ll/10.jpg"",""time"":511},{""stimulus"":""img/green_ll/11.jpg"",""time"":551}]","[]"
"image-keyboard-response","112","150765","0.0-5.0-1.54","63d7a9346e833b93500723d4","bdp_lott","Sun Mar 26 2023 08:47:16 GMT-0400 (Eastern Daylight Time)","332278","green","red","","844","","","","choice","","img/green_ll/choose11.jpg","1","171","green","0.5","0.5","0.5","w","",""
"animation","113","151377","0.0-5.0-2.54","63d7a9346e833b93500723d4","bdp_lott","Sun Mar 26 2023 08:47:16 GMT-0400 (Eastern Daylight Time)","332278","green","red","","","","","","","","","","171","","","","","","[{""stimulus"":""img/green_wl/1.jpg"",""time"":51},{""stimulus"":""img/green_wl/2.jpg"",""time"":114},{""stimulus"":""img/green_wl/3.jpg"",""time"":151},{""stimulus"":""img/green_wl/4.jpg"",""time"":207},{""stimulus"":""img/green_wl/5.jpg"",""time"":254},{""stimulus"":""img/green_wl/6.jpg"",""time"":301},{""stimulus"":""img/green_wl/7.jpg"",""time"":351},{""stimulus"":""img/green_wl/8.jpg"",""time"":410},{""stimulus"":""img/green_wl/9.jpg"",""time"":450},{""stimulus"":""img/green_wl/10.jpg"",""time"":504},{""stimulus"":""img/green_wl/11.jpg"",""time"":551}]","[]"
"image-keyboard-response","114","152188","0.0-5.0-1.55","63d7a9346e833b93500723d4","bdp_lott","Sun Mar 26 2023 08:47:16 GMT-0400 (Eastern Daylight Time)","332278","green","red","","809","","","","choice","","img/green_wl/choose11.jpg","1","170","green","0.5","0.5","0.5","w","",""
"animation","115","152801","0.0-5.0-2.55","63d7a9346e833b93500723d4","bdp_lott","Sun Mar 26 2023 08:47:16 GMT-0400 (Eastern Daylight Time)","332278","green","red","","","","","","","","","","170","","","","","","[{""stimulus"":""img/green_wl/1.jpg"",""time"":51},{""stimulus"":""img/green_wl/2.jpg"",""time"":102},{""stimulus"":""img/green_wl/3.jpg"",""time"":151},{""stimulus"":""img/green_wl/4.jpg"",""time"":209},{""stimulus"":""img/green_wl/5.jpg"",""time"":257},{""stimulus"":""img/green_wl/6.jpg"",""time"":304},{""stimulus"":""img/green_wl/7.jpg"",""time"":351},{""stimulus"":""img/green_wl/8.jpg"",""time"":400},{""stimulus"":""img/green_wl/9.jpg"",""time"":460},{""stimulus"":""img/green_wl/10.jpg"",""time"":506},{""stimulus"":""img/green_wl/11.jpg"",""time"":552}]","[]"
"image-keyboard-response","116","153666","0.0-5.0-1.56","63d7a9346e833b93500723d4","bdp_lott","Sun Mar 26 2023 08:47:16 GMT-0400 (Eastern Daylight Time)","332278","green","red","","864","","","","choice","","img/green_wl/choose11.jpg","1","169","green","0.5","0.5","0.5","l","",""
"animation","117","154271","0.0-5.0-2.56","63d7a9346e833b93500723d4","bdp_lott","Sun Mar 26 2023 08:47:16 GMT-0400 (Eastern Daylight Time)","332278","green","red","","","","","","","","","","169","","","","","","[{""stimulus"":""img/green_ll/1.jpg"",""time"":51},{""stimulus"":""img/green_ll/2.jpg"",""time"":101},{""stimulus"":""img/green_ll/3.jpg"",""time"":151},{""stimulus"":""img/green_ll/4.jpg"",""time"":202},{""stimulus"":""img/green_ll/5.jpg"",""time"":251},{""stimulus"":""img/green_ll/6.jpg"",""time"":300},{""stimulus"":""img/green_ll/7.jpg"",""time"":351},{""stimulus"":""img/green_ll/8.jpg"",""time"":403},{""stimulus"":""img/green_ll/9.jpg"",""time"":452},{""stimulus"":""img/green_ll/10.jpg"",""time"":512},{""stimulus"":""img/green_ll/11.jpg"",""time"":559}]","[]"
"image-keyboard-response","118","155299","0.0-5.0-1.57","63d7a9346e833b93500723d4","bdp_lott","Sun Mar 26 2023 08:47:16 GMT-0400 (Eastern Daylight Time)","332278","green","red","","1026","","","","choice","","img/green_ll/choose11.jpg","2","168","red","0.5","0.5","0.5","w","",""
"animation","119","155901","0.0-5.0-2.57","63d7a9346e833b93500723d4","bdp_lott","Sun Mar 26 2023 08:47:16 GMT-0400 (Eastern Daylight Time)","332278","green","red","","","","","","","","","","168","","","","","","[{""stimulus"":""img/red_lw/1.jpg"",""time"":51},{""stimulus"":""img/red_lw/2.jpg"",""time"":101},{""stimulus"":""img/red_lw/3.jpg"",""time"":161},{""stimulus"":""img/red_lw/4.jpg"",""time"":200},{""stimulus"":""img/red_lw/5.jpg"",""time"":250},{""stimulus"":""img/red_lw/6.jpg"",""time"":301},{""stimulus"":""img/red_lw/7.jpg"",""time"":352},{""stimulus"":""img/red_lw/8.jpg"",""time"":400},{""stimulus"":""img/red_lw/9.jpg"",""time"":451},{""stimulus"":""img/red_lw/10.jpg"",""time"":506},{""stimulus"":""img/red_lw/11.jpg"",""time"":551}]","[]"
"image-keyboard-response","120","156595","0.0-5.0-1.58","63d7a9346e833b93500723d4","bdp_lott","Sun Mar 26 2023 08:47:16 GMT-0400 (Eastern Daylight Time)","332278","green","red","","692","","","","choice","","img/red_lw/choose11.jpg","2","167","red","0.5","0.5","0.5","w","",""
"animation","121","157196","0.0-5.0-2.58","63d7a9346e833b93500723d4","bdp_lott","Sun Mar 26 2023 08:47:16 GMT-0400 (Eastern Daylight Time)","332278","green","red","","","","","","","","","","167","","","","","","[{""stimulus"":""img/red_lw/1.jpg"",""time"":51},{""stimulus"":""img/red_lw/2.jpg"",""time"":109},{""stimulus"":""img/red_lw/3.jpg"",""time"":155},{""stimulus"":""img/red_lw/4.jpg"",""time"":201},{""stimulus"":""img/red_lw/5.jpg"",""time"":263},{""stimulus"":""img/red_lw/6.jpg"",""time"":301},{""stimulus"":""img/red_lw/7.jpg"",""time"":357},{""stimulus"":""img/red_lw/8.jpg"",""time"":401},{""stimulus"":""img/red_lw/9.jpg"",""time"":451},{""stimulus"":""img/red_lw/10.jpg"",""time"":514},{""stimulus"":""img/red_lw/11.jpg"",""time"":551}]","[]"
"image-keyboard-response","122","158044","0.0-5.0-1.59","63d7a9346e833b93500723d4","bdp_lott","Sun Mar 26 2023 08:47:16 GMT-0400 (Eastern Daylight Time)","332278","green","red","","846","","","","choice","","img/red_lw/choose11.jpg","2","166","red","0.5","0.5","0.5","l","",""
"animation","123","158657","0.0-5.0-2.59","63d7a9346e833b93500723d4","bdp_lott","Sun Mar 26 2023 08:47:16 GMT-0400 (Eastern Daylight Time)","332278","green","red","","","","","","","","","","166","","","","","","[{""stimulus"":""img/red_ll/1.jpg"",""time"":53},{""stimulus"":""img/red_ll/2.jpg"",""time"":115},{""stimulus"":""img/red_ll/3.jpg"",""time"":151},{""stimulus"":""img/red_ll/4.jpg"",""time"":201},{""stimulus"":""img/red_ll/5.jpg"",""time"":251},{""stimulus"":""img/red_ll/6.jpg"",""time"":301},{""stimulus"":""img/red_ll/7.jpg"",""time"":350},{""stimulus"":""img/red_ll/8.jpg"",""time"":411},{""stimulus"":""img/red_ll/9.jpg"",""time"":451},{""stimulus"":""img/red_ll/10.jpg"",""time"":504},{""stimulus"":""img/red_ll/11.jpg"",""time"":551}]","[]"
"image-keyboard-response","124","159612","0.0-5.0-1.60","63d7a9346e833b93500723d4","bdp_lott","Sun Mar 26 2023 08:47:16 GMT-0400 (Eastern Daylight Time)","332278","green","red","","954","","","","choice","","img/red_ll/choose11.jpg","1","165","green","0.5","0.5","0.5","l","",""
"animation","125","160215","0.0-5.0-2.60","63d7a9346e833b93500723d4","bdp_lott","Sun Mar 26 2023 08:47:16 GMT-0400 (Eastern Daylight Time)","332278","green","red","","","","","","","","","","165","","","","","","[{""stimulus"":""img/green_ll/1.jpg"",""time"":51},{""stimulus"":""img/green_ll/2.jpg"",""time"":108},{""stimulus"":""img/green_ll/3.jpg"",""time"":151},{""stimulus"":""img/green_ll/4.jpg"",""time"":201},{""stimulus"":""img/green_ll/5.jpg"",""time"":251},{""stimulus"":""img/green_ll/6.jpg"",""time"":301},{""stimulus"":""img/green_ll/7.jpg"",""time"":356},{""stimulus"":""img/green_ll/8.jpg"",""time"":401},{""stimulus"":""img/green_ll/9.jpg"",""time"":451},{""stimulus"":""img/green_ll/10.jpg"",""time"":511},{""stimulus"":""img/green_ll/11.jpg"",""time"":557}]","[]"
"image-keyboard-response","126","161498","0.0-5.0-1.61","63d7a9346e833b93500723d4","bdp_lott","Sun Mar 26 2023 08:47:16 GMT-0400 (Eastern Daylight Time)","332278","green","red","","1282","","","","choice","","img/green_ll/choose11.jpg","2","164","red","0.5","0.5","0.5","w","",""
"animation","127","162111","0.0-5.0-2.61","63d7a9346e833b93500723d4","bdp_lott","Sun Mar 26 2023 08:47:16 GMT-0400 (Eastern Daylight Time)","332278","green","red","","","","","","","","","","164","","","","","","[{""stimulus"":""img/red_lw/1.jpg"",""time"":51},{""stimulus"":""img/red_lw/2.jpg"",""time"":102},{""stimulus"":""img/red_lw/3.jpg"",""time"":163},{""stimulus"":""img/red_lw/4.jpg"",""time"":201},{""stimulus"":""img/red_lw/5.jpg"",""time"":256},{""stimulus"":""img/red_lw/6.jpg"",""time"":301},{""stimulus"":""img/red_lw/7.jpg"",""time"":365},{""stimulus"":""img/red_lw/8.jpg"",""time"":401},{""stimulus"":""img/red_lw/9.jpg"",""time"":451},{""stimulus"":""img/red_lw/10.jpg"",""time"":505},{""stimulus"":""img/red_lw/11.jpg"",""time"":552}]","[]"
"image-keyboard-response","128","162930","0.0-5.0-1.62","63d7a9346e833b93500723d4","bdp_lott","Sun Mar 26 2023 08:47:16 GMT-0400 (Eastern Daylight Time)","332278","green","red","","817","","","","choice","","img/red_lw/choose11.jpg","2","163","red","0.5","0.5","0.5","l","",""
"animation","129","163534","0.0-5.0-2.62","63d7a9346e833b93500723d4","bdp_lott","Sun Mar 26 2023 08:47:16 GMT-0400 (Eastern Daylight Time)","332278","green","red","","","","","","","","","","163","","","","","","[{""stimulus"":""img/red_ll/1.jpg"",""time"":61},{""stimulus"":""img/red_ll/2.jpg"",""time"":101},{""stimulus"":""img/red_ll/3.jpg"",""time"":155},{""stimulus"":""img/red_ll/4.jpg"",""time"":201},{""stimulus"":""img/red_ll/5.jpg"",""time"":251},{""stimulus"":""img/red_ll/6.jpg"",""time"":301},{""stimulus"":""img/red_ll/7.jpg"",""time"":358},{""stimulus"":""img/red_ll/8.jpg"",""time"":403},{""stimulus"":""img/red_ll/9.jpg"",""time"":451},{""stimulus"":""img/red_ll/10.jpg"",""time"":501},{""stimulus"":""img/red_ll/11.jpg"",""time"":551}]","[]"
"image-keyboard-response","130","164339","0.0-5.0-1.63","63d7a9346e833b93500723d4","bdp_lott","Sun Mar 26 2023 08:47:16 GMT-0400 (Eastern Daylight Time)","332278","green","red","","804","","","","choice","","img/red_ll/choose11.jpg","1","162","green","0.5","0.5","0.5","l","",""
"animation","131","164940","0.0-5.0-2.63","63d7a9346e833b93500723d4","bdp_lott","Sun Mar 26 2023 08:47:16 GMT-0400 (Eastern Daylight Time)","332278","green","red","","","","","","","","","","162","","","","","","[{""stimulus"":""img/green_ll/1.jpg"",""time"":51},{""stimulus"":""img/green_ll/2.jpg"",""time"":100},{""stimulus"":""img/green_ll/3.jpg"",""time"":151},{""stimulus"":""img/green_ll/4.jpg"",""time"":200},{""stimulus"":""img/green_ll/5.jpg"",""time"":251},{""stimulus"":""img/green_ll/6.jpg"",""time"":301},{""stimulus"":""img/green_ll/7.jpg"",""time"":351},{""stimulus"":""img/green_ll/8.jpg"",""time"":401},{""stimulus"":""img/green_ll/9.jpg"",""time"":451},{""stimulus"":""img/green_ll/10.jpg"",""time"":500},{""stimulus"":""img/green_ll/11.jpg"",""time"":550}]","[]"
"image-keyboard-response","132","165708","0.0-5.0-1.64","63d7a9346e833b93500723d4","bdp_lott","Sun Mar 26 2023 08:47:16 GMT-0400 (Eastern Daylight Time)","332278","green","red","","767","","","","choice","","img/green_ll/choose11.jpg","1","161","green","0.5","0.5","0.5","l","",""
"animation","133","166309","0.0-5.0-2.64","63d7a9346e833b93500723d4","bdp_lott","Sun Mar 26 2023 08:47:16 GMT-0400 (Eastern Daylight Time)","332278","green","red","","","","","","","","","","161","","","","","","[{""stimulus"":""img/green_ll/1.jpg"",""time"":52},{""stimulus"":""img/green_ll/2.jpg"",""time"":101},{""stimulus"":""img/green_ll/3.jpg"",""time"":151},{""stimulus"":""img/green_ll/4.jpg"",""time"":207},{""stimulus"":""img/green_ll/5.jpg"",""time"":251},{""stimulus"":""img/green_ll/6.jpg"",""time"":315},{""stimulus"":""img/green_ll/7.jpg"",""time"":361},{""stimulus"":""img/green_ll/8.jpg"",""time"":402},{""stimulus"":""img/green_ll/9.jpg"",""time"":452},{""stimulus"":""img/green_ll/10.jpg"",""time"":516},{""stimulus"":""img/green_ll/11.jpg"",""time"":563}]","[]"
"image-keyboard-response","134","166827","0.0-5.0-1.65","63d7a9346e833b93500723d4","bdp_lott","Sun Mar 26 2023 08:47:16 GMT-0400 (Eastern Daylight Time)","332278","green","red","","517","","","","choice","","img/green_ll/choose11.jpg","2","160","red","0.5","0.5","0.5","l","",""
"animation","135","167429","0.0-5.0-2.65","63d7a9346e833b93500723d4","bdp_lott","Sun Mar 26 2023 08:47:16 GMT-0400 (Eastern Daylight Time)","332278","green","red","","","","","","","","","","160","","","","","","[{""stimulus"":""img/red_ll/1.jpg"",""time"":51},{""stimulus"":""img/red_ll/2.jpg"",""time"":103},{""stimulus"":""img/red_ll/3.jpg"",""time"":150},{""stimulus"":""img/red_ll/4.jpg"",""time"":201},{""stimulus"":""img/red_ll/5.jpg"",""time"":251},{""stimulus"":""img/red_ll/6.jpg"",""time"":301},{""stimulus"":""img/red_ll/7.jpg"",""time"":351},{""stimulus"":""img/red_ll/8.jpg"",""time"":401},{""stimulus"":""img/red_ll/9.jpg"",""time"":451},{""stimulus"":""img/red_ll/10.jpg"",""time"":505},{""stimulus"":""img/red_ll/11.jpg"",""time"":551}]","[]"
"image-keyboard-response","136","167930","0.0-5.0-1.66","63d7a9346e833b93500723d4","bdp_lott","Sun Mar 26 2023 08:47:16 GMT-0400 (Eastern Daylight Time)","332278","green","red","","501","","","","choice","","img/red_ll/choose11.jpg","2","159","red","0.5","0.5","0.5","l","",""
"animation","137","168531","0.0-5.0-2.66","63d7a9346e833b93500723d4","bdp_lott","Sun Mar 26 2023 08:47:16 GMT-0400 (Eastern Daylight Time)","332278","green","red","","","","","","","","","","159","","","","","","[{""stimulus"":""img/red_ll/1.jpg"",""time"":53},{""stimulus"":""img/red_ll/2.jpg"",""time"":115},{""stimulus"":""img/red_ll/3.jpg"",""time"":151},{""stimulus"":""img/red_ll/4.jpg"",""time"":207},{""stimulus"":""img/red_ll/5.jpg"",""time"":251},{""stimulus"":""img/red_ll/6.jpg"",""time"":316},{""stimulus"":""img/red_ll/7.jpg"",""time"":362},{""stimulus"":""img/red_ll/8.jpg"",""time"":409},{""stimulus"":""img/red_ll/9.jpg"",""time"":451},{""stimulus"":""img/red_ll/10.jpg"",""time"":503},{""stimulus"":""img/red_ll/11.jpg"",""time"":551}]","[]"
"image-keyboard-response","138","169083","0.0-5.0-1.67","63d7a9346e833b93500723d4","bdp_lott","Sun Mar 26 2023 08:47:16 GMT-0400 (Eastern Daylight Time)","332278","green","red","","552","","","","choice","","img/red_ll/choose11.jpg","2","158","red","0.5","0.5","0.5","l","",""
"animation","139","169685","0.0-5.0-2.67","63d7a9346e833b93500723d4","bdp_lott","Sun Mar 26 2023 08:47:16 GMT-0400 (Eastern Daylight Time)","332278","green","red","","","","","","","","","","158","","","","","","[{""stimulus"":""img/red_ll/1.jpg"",""time"":51},{""stimulus"":""img/red_ll/2.jpg"",""time"":104},{""stimulus"":""img/red_ll/3.jpg"",""time"":152},{""stimulus"":""img/red_ll/4.jpg"",""time"":213},{""stimulus"":""img/red_ll/5.jpg"",""time"":260},{""stimulus"":""img/red_ll/6.jpg"",""time"":301},{""stimulus"":""img/red_ll/7.jpg"",""time"":353},{""stimulus"":""img/red_ll/8.jpg"",""time"":415},{""stimulus"":""img/red_ll/9.jpg"",""time"":461},{""stimulus"":""img/red_ll/10.jpg"",""time"":508},{""stimulus"":""img/red_ll/11.jpg"",""time"":554}]","[]"
"image-keyboard-response","140","170123","0.0-5.0-1.68","63d7a9346e833b93500723d4","bdp_lott","Sun Mar 26 2023 08:47:16 GMT-0400 (Eastern Daylight Time)","332278","green","red","","437","","","","choice","","img/red_ll/choose11.jpg","1","157","green","0.5","0.5","0.5","l","",""
"animation","141","170724","0.0-5.0-2.68","63d7a9346e833b93500723d4","bdp_lott","Sun Mar 26 2023 08:47:16 GMT-0400 (Eastern Daylight Time)","332278","green","red","","","","","","","","","","157","","","","","","[{""stimulus"":""img/green_ll/1.jpg"",""time"":51},{""stimulus"":""img/green_ll/2.jpg"",""time"":101},{""stimulus"":""img/green_ll/3.jpg"",""time"":152},{""stimulus"":""img/green_ll/4.jpg"",""time"":209},{""stimulus"":""img/green_ll/5.jpg"",""time"":255},{""stimulus"":""img/green_ll/6.jpg"",""time"":301},{""stimulus"":""img/green_ll/7.jpg"",""time"":351},{""stimulus"":""img/green_ll/8.jpg"",""time"":400},{""stimulus"":""img/green_ll/9.jpg"",""time"":451},{""stimulus"":""img/green_ll/10.jpg"",""time"":503},{""stimulus"":""img/green_ll/11.jpg"",""time"":551}]","[]"
"image-keyboard-response","142","171227","0.0-5.0-1.69","63d7a9346e833b93500723d4","bdp_lott","Sun Mar 26 2023 08:47:16 GMT-0400 (Eastern Daylight Time)","332278","green","red","","502","","","","choice","","img/green_ll/choose11.jpg","1","156","green","0.5","0.5","0.5","l","",""
"animation","143","171828","0.0-5.0-2.69","63d7a9346e833b93500723d4","bdp_lott","Sun Mar 26 2023 08:47:16 GMT-0400 (Eastern Daylight Time)","332278","green","red","","","","","","","","","","156","","","","","","[{""stimulus"":""img/green_ll/1.jpg"",""time"":51},{""stimulus"":""img/green_ll/2.jpg"",""time"":109},{""stimulus"":""img/green_ll/3.jpg"",""time"":156},{""stimulus"":""img/green_ll/4.jpg"",""time"":201},{""stimulus"":""img/green_ll/5.jpg"",""time"":251},{""stimulus"":""img/green_ll/6.jpg"",""time"":301},{""stimulus"":""img/green_ll/7.jpg"",""time"":358},{""stimulus"":""img/green_ll/8.jpg"",""time"":404},{""stimulus"":""img/green_ll/9.jpg"",""time"":464},{""stimulus"":""img/green_ll/10.jpg"",""time"":513},{""stimulus"":""img/green_ll/11.jpg"",""time"":558}]","[]"
"image-keyboard-response","144","172325","0.0-5.0-1.70","63d7a9346e833b93500723d4","bdp_lott","Sun Mar 26 2023 08:47:16 GMT-0400 (Eastern Daylight Time)","332278","green","red","","495","","","","choice","","img/green_ll/choose11.jpg","1","155","green","0.5","0.5","0.5","l","",""
"animation","145","172926","0.0-5.0-2.70","63d7a9346e833b93500723d4","bdp_lott","Sun Mar 26 2023 08:47:16 GMT-0400 (Eastern Daylight Time)","332278","green","red","","","","","","","","","","155","","","","","","[{""stimulus"":""img/green_ll/1.jpg"",""time"":50},{""stimulus"":""img/green_ll/2.jpg"",""time"":109},{""stimulus"":""img/green_ll/3.jpg"",""time"":151},{""stimulus"":""img/green_ll/4.jpg"",""time"":203},{""stimulus"":""img/green_ll/5.jpg"",""time"":250},{""stimulus"":""img/green_ll/6.jpg"",""time"":312},{""stimulus"":""img/green_ll/7.jpg"",""time"":351},{""stimulus"":""img/green_ll/8.jpg"",""time"":401},{""stimulus"":""img/green_ll/9.jpg"",""time"":452},{""stimulus"":""img/green_ll/10.jpg"",""time"":515},{""stimulus"":""img/green_ll/11.jpg"",""time"":561}]","[]"
"image-keyboard-response","146","173403","0.0-5.0-1.71","63d7a9346e833b93500723d4","bdp_lott","Sun Mar 26 2023 08:47:16 GMT-0400 (Eastern Daylight Time)","332278","green","red","","476","","","","choice","","img/green_ll/choose11.jpg","1","154","green","0.5","0.5","0.5","w","",""
"animation","147","174019","0.0-5.0-2.71","63d7a9346e833b93500723d4","bdp_lott","Sun Mar 26 2023 08:47:16 GMT-0400 (Eastern Daylight Time)","332278","green","red","","","","","","","","","","154","","","","","","[{""stimulus"":""img/green_wl/1.jpg"",""time"":51},{""stimulus"":""img/green_wl/2.jpg"",""time"":102},{""stimulus"":""img/green_wl/3.jpg"",""time"":151},{""stimulus"":""img/green_wl/4.jpg"",""time"":201},{""stimulus"":""img/green_wl/5.jpg"",""time"":251},{""stimulus"":""img/green_wl/6.jpg"",""time"":301},{""stimulus"":""img/green_wl/7.jpg"",""time"":351},{""stimulus"":""img/green_wl/8.jpg"",""time"":401},{""stimulus"":""img/green_wl/9.jpg"",""time"":451},{""stimulus"":""img/green_wl/10.jpg"",""time"":506},{""stimulus"":""img/green_wl/11.jpg"",""time"":551}]","[]"
"image-keyboard-response","148","174323","0.0-5.0-1.72","63d7a9346e833b93500723d4","bdp_lott","Sun Mar 26 2023 08:47:16 GMT-0400 (Eastern Daylight Time)","332278","green","red","","303","","","","choice","","img/green_wl/choose11.jpg","2","153","red","0.5","0.5","0.5","w","",""
"animation","149","174925","0.0-5.0-2.72","63d7a9346e833b93500723d4","bdp_lott","Sun Mar 26 2023 08:47:16 GMT-0400 (Eastern Daylight Time)","332278","green","red","","","","","","","","","","153","","","","","","[{""stimulus"":""img/red_ww/1.jpg"",""time"":51},{""stimulus"":""img/red_ww/2.jpg"",""time"":113},{""stimulus"":""img/red_ww/3.jpg"",""time"":161},{""stimulus"":""img/red_ww/4.jpg"",""time"":201},{""stimulus"":""img/red_ww/5.jpg"",""time"":251},{""stimulus"":""img/red_ww/6.jpg"",""time"":301},{""stimulus"":""img/red_ww/7.jpg"",""time"":351},{""stimulus"":""img/red_ww/8.jpg"",""time"":401},{""stimulus"":""img/red_ww/9.jpg"",""time"":456},{""stimulus"":""img/red_ww/10.jpg"",""time"":500},{""stimulus"":""img/red_ww/11.jpg"",""time"":551}]","[]"
"image-keyboard-response","150","175860","0.0-5.0-1.73","63d7a9346e833b93500723d4","bdp_lott","Sun Mar 26 2023 08:47:16 GMT-0400 (Eastern Daylight Time)","332278","green","red","","935","","","","choice","","img/red_ww/choose11.jpg","1","152","green","0.5","0.5","0.5","w","",""
"animation","151","176464","0.0-5.0-2.73","63d7a9346e833b93500723d4","bdp_lott","Sun Mar 26 2023 08:47:16 GMT-0400 (Eastern Daylight Time)","332278","green","red","","","","","","","","","","152","","","","","","[{""stimulus"":""img/green_ww/1.jpg"",""time"":51},{""stimulus"":""img/green_ww/2.jpg"",""time"":109},{""stimulus"":""img/green_ww/3.jpg"",""time"":156},{""stimulus"":""img/green_ww/4.jpg"",""time"":201},{""stimulus"":""img/green_ww/5.jpg"",""time"":251},{""stimulus"":""img/green_ww/6.jpg"",""time"":311},{""stimulus"":""img/green_ww/7.jpg"",""time"":351},{""stimulus"":""img/green_ww/8.jpg"",""time"":403},{""stimulus"":""img/green_ww/9.jpg"",""time"":466},{""stimulus"":""img/green_ww/10.jpg"",""time"":513},{""stimulus"":""img/green_ww/11.jpg"",""time"":559}]","[]"
"image-keyboard-response","152","177219","0.0-5.0-1.74","63d7a9346e833b93500723d4","bdp_lott","Sun Mar 26 2023 08:47:16 GMT-0400 (Eastern Daylight Time)","332278","green","red","","754","","","","choice","","img/green_ww/choose11.jpg","2","151","red","0.5","0.5","0.5","l","",""
"animation","153","177821","0.0-5.0-2.74","63d7a9346e833b93500723d4","bdp_lott","Sun Mar 26 2023 08:47:16 GMT-0400 (Eastern Daylight Time)","332278","green","red","","","","","","","","","","151","","","","","","[{""stimulus"":""img/red_wl/1.jpg"",""time"":51},{""stimulus"":""img/red_wl/2.jpg"",""time"":104},{""stimulus"":""img/red_wl/3.jpg"",""time"":151},{""stimulus"":""img/red_wl/4.jpg"",""time"":213},{""stimulus"":""img/red_wl/5.jpg"",""time"":253},{""stimulus"":""img/red_wl/6.jpg"",""time"":303},{""stimulus"":""img/red_wl/7.jpg"",""time"":352},{""stimulus"":""img/red_wl/8.jpg"",""time"":415},{""stimulus"":""img/red_wl/9.jpg"",""time"":451},{""stimulus"":""img/red_wl/10.jpg"",""time"":507},{""stimulus"":""img/red_wl/11.jpg"",""time"":550}]","[]"
"image-keyboard-response","154","178490","0.0-5.0-1.75","63d7a9346e833b93500723d4","bdp_lott","Sun Mar 26 2023 08:47:16 GMT-0400 (Eastern Daylight Time)","332278","green","red","","668","","","","choice","","img/red_wl/choose11.jpg","1","150","green","0.5","0.5","0.5","w","",""
"animation","155","179100","0.0-5.0-2.75","63d7a9346e833b93500723d4","bdp_lott","Sun Mar 26 2023 08:47:16 GMT-0400 (Eastern Daylight Time)","332278","green","red","","","","","","","","","","150","","","","","","[{""stimulus"":""img/green_wl/1.jpg"",""time"":50},{""stimulus"":""img/green_wl/2.jpg"",""time"":101},{""stimulus"":""img/green_wl/3.jpg"",""time"":151},{""stimulus"":""img/green_wl/4.jpg"",""time"":201},{""stimulus"":""img/green_wl/5.jpg"",""time"":250},{""stimulus"":""img/green_wl/6.jpg"",""time"":300},{""stimulus"":""img/green_wl/7.jpg"",""time"":350},{""stimulus"":""img/green_wl/8.jpg"",""time"":408},{""stimulus"":""img/green_wl/9.jpg"",""time"":454},{""stimulus"":""img/green_wl/10.jpg"",""time"":500},{""stimulus"":""img/green_wl/11.jpg"",""time"":551}]","[]"
"image-keyboard-response","156","180363","0.0-5.0-1.76","63d7a9346e833b93500723d4","bdp_lott","Sun Mar 26 2023 08:47:16 GMT-0400 (Eastern Daylight Time)","332278","green","red","","1263","","","","choice","","img/green_wl/choose11.jpg","1","149","green","0.5","0.1","0.5","l","",""
"animation","157","180964","0.0-5.0-2.76","63d7a9346e833b93500723d4","bdp_lott","Sun Mar 26 2023 08:47:16 GMT-0400 (Eastern Daylight Time)","332278","green","red","","","","","","","","","","149","","","","","","[{""stimulus"":""img/green_ll/1.jpg"",""time"":58},{""stimulus"":""img/green_ll/2.jpg"",""time"":104},{""stimulus"":""img/green_ll/3.jpg"",""time"":158},{""stimulus"":""img/green_ll/4.jpg"",""time"":201},{""stimulus"":""img/green_ll/5.jpg"",""time"":250},{""stimulus"":""img/green_ll/6.jpg"",""time"":300},{""stimulus"":""img/green_ll/7.jpg"",""time"":353},{""stimulus"":""img/green_ll/8.jpg"",""time"":401},{""stimulus"":""img/green_ll/9.jpg"",""time"":461},{""stimulus"":""img/green_ll/10.jpg"",""time"":509},{""stimulus"":""img/green_ll/11.jpg"",""time"":555}]","[]"
"image-keyboard-response","158","181524","0.0-5.0-1.77","63d7a9346e833b93500723d4","bdp_lott","Sun Mar 26 2023 08:47:16 GMT-0400 (Eastern Daylight Time)","332278","green","red","","558","","","","choice","","img/green_ll/choose11.jpg","2","148","red","0.5","0.1","0.1","l","",""
"animation","159","182125","0.0-5.0-2.77","63d7a9346e833b93500723d4","bdp_lott","Sun Mar 26 2023 08:47:16 GMT-0400 (Eastern Daylight Time)","332278","green","red","","","","","","","","","","148","","","","","","[{""stimulus"":""img/red_ll/1.jpg"",""time"":51},{""stimulus"":""img/red_ll/2.jpg"",""time"":102},{""stimulus"":""img/red_ll/3.jpg"",""time"":166},{""stimulus"":""img/red_ll/4.jpg"",""time"":201},{""stimulus"":""img/red_ll/5.jpg"",""time"":257},{""stimulus"":""img/red_ll/6.jpg"",""time"":301},{""stimulus"":""img/red_ll/7.jpg"",""time"":351},{""stimulus"":""img/red_ll/8.jpg"",""time"":401},{""stimulus"":""img/red_ll/9.jpg"",""time"":451},{""stimulus"":""img/red_ll/10.jpg"",""time"":506},{""stimulus"":""img/red_ll/11.jpg"",""time"":552}]","[]"
"image-keyboard-response","160","182789","0.0-5.0-1.78","63d7a9346e833b93500723d4","bdp_lott","Sun Mar 26 2023 08:47:16 GMT-0400 (Eastern Daylight Time)","332278","green","red","","663","","","","choice","","img/red_ll/choose11.jpg","1","147","green","0.5","0.1","0.5","l","",""
"animation","161","183390","0.0-5.0-2.78","63d7a9346e833b93500723d4","bdp_lott","Sun Mar 26 2023 08:47:16 GMT-0400 (Eastern Daylight Time)","332278","green","red","","","","","","","","","","147","","","","","","[{""stimulus"":""img/green_ll/1.jpg"",""time"":52},{""stimulus"":""img/green_ll/2.jpg"",""time"":108},{""stimulus"":""img/green_ll/3.jpg"",""time"":154},{""stimulus"":""img/green_ll/4.jpg"",""time"":217},{""stimulus"":""img/green_ll/5.jpg"",""time"":263},{""stimulus"":""img/green_ll/6.jpg"",""time"":301},{""stimulus"":""img/green_ll/7.jpg"",""time"":352},{""stimulus"":""img/green_ll/8.jpg"",""time"":401},{""stimulus"":""img/green_ll/9.jpg"",""time"":452},{""stimulus"":""img/green_ll/10.jpg"",""time"":502},{""stimulus"":""img/green_ll/11.jpg"",""time"":552}]","[]"
"image-keyboard-response","162","183851","0.0-5.0-1.79","63d7a9346e833b93500723d4","bdp_lott","Sun Mar 26 2023 08:47:16 GMT-0400 (Eastern Daylight Time)","332278","green","red","","460","","","","choice","","img/green_ll/choose11.jpg","2","146","red","0.5","0.1","0.1","l","",""
"animation","163","184453","0.0-5.0-2.79","63d7a9346e833b93500723d4","bdp_lott","Sun Mar 26 2023 08:47:16 GMT-0400 (Eastern Daylight Time)","332278","green","red","","","","","","","","","","146","","","","","","[{""stimulus"":""img/red_ll/1.jpg"",""time"":51},{""stimulus"":""img/red_ll/2.jpg"",""time"":113},{""stimulus"":""img/red_ll/3.jpg"",""time"":151},{""stimulus"":""img/red_ll/4.jpg"",""time"":201},{""stimulus"":""img/red_ll/5.jpg"",""time"":252},{""stimulus"":""img/red_ll/6.jpg"",""time"":300},{""stimulus"":""img/red_ll/7.jpg"",""time"":361},{""stimulus"":""img/red_ll/8.jpg"",""time"":402},{""stimulus"":""img/red_ll/9.jpg"",""time"":451},{""stimulus"":""img/red_ll/10.jpg"",""time"":500},{""stimulus"":""img/red_ll/11.jpg"",""time"":551}]","[]"
"image-keyboard-response","164","184858","0.0-5.0-1.80","63d7a9346e833b93500723d4","bdp_lott","Sun Mar 26 2023 08:47:16 GMT-0400 (Eastern Daylight Time)","332278","green","red","","405","","","","choice","","img/red_ll/choose11.jpg","1","145","green","0.5","0.1","0.5","l","",""
"animation","165","185459","0.0-5.0-2.80","63d7a9346e833b93500723d4","bdp_lott","Sun Mar 26 2023 08:47:16 GMT-0400 (Eastern Daylight Time)","332278","green","red","","","","","","","","","","145","","","","","","[{""stimulus"":""img/green_ll/1.jpg"",""time"":51},{""stimulus"":""img/green_ll/2.jpg"",""time"":114},{""stimulus"":""img/green_ll/3.jpg"",""time"":161},{""stimulus"":""img/green_ll/4.jpg"",""time"":207},{""stimulus"":""img/green_ll/5.jpg"",""time"":254},{""stimulus"":""img/green_ll/6.jpg"",""time"":316},{""stimulus"":""img/green_ll/7.jpg"",""time"":363},{""stimulus"":""img/green_ll/8.jpg"",""time"":410},{""stimulus"":""img/green_ll/9.jpg"",""time"":451},{""stimulus"":""img/green_ll/10.jpg"",""time"":503},{""stimulus"":""img/green_ll/11.jpg"",""time"":566}]","[]"
"image-keyboard-response","166","185899","0.0-5.0-1.81","63d7a9346e833b93500723d4","bdp_lott","Sun Mar 26 2023 08:47:16 GMT-0400 (Eastern Daylight Time)","332278","green","red","","439","","","","choice","","img/green_ll/choose11.jpg","2","144","red","0.5","0.1","0.1","l","",""
"animation","167","186507","0.0-5.0-2.81","63d7a9346e833b93500723d4","bdp_lott","Sun Mar 26 2023 08:47:16 GMT-0400 (Eastern Daylight Time)","332278","green","red","","","","","","","","","","144","","","","","","[{""stimulus"":""img/red_ll/1.jpg"",""time"":50},{""stimulus"":""img/red_ll/2.jpg"",""time"":110},{""stimulus"":""img/red_ll/3.jpg"",""time"":157},{""stimulus"":""img/red_ll/4.jpg"",""time"":200},{""stimulus"":""img/red_ll/5.jpg"",""time"":263},{""stimulus"":""img/red_ll/6.jpg"",""time"":300},{""stimulus"":""img/red_ll/7.jpg"",""time"":358},{""stimulus"":""img/red_ll/8.jpg"",""time"":405},{""stimulus"":""img/red_ll/9.jpg"",""time"":451},{""stimulus"":""img/red_ll/10.jpg"",""time"":514},{""stimulus"":""img/red_ll/11.jpg"",""time"":551}]","[]"
"image-keyboard-response","168","186867","0.0-5.0-1.82","63d7a9346e833b93500723d4","bdp_lott","Sun Mar 26 2023 08:47:16 GMT-0400 (Eastern Daylight Time)","332278","green","red","","360","","","","choice","","img/red_ll/choose11.jpg","1","143","green","0.5","0.1","0.5","w","",""
"animation","169","187481","0.0-5.0-2.82","63d7a9346e833b93500723d4","bdp_lott","Sun Mar 26 2023 08:47:16 GMT-0400 (Eastern Daylight Time)","332278","green","red","","","","","","","","","","143","","","","","","[{""stimulus"":""img/green_wl/1.jpg"",""time"":51},{""stimulus"":""img/green_wl/2.jpg"",""time"":103},{""stimulus"":""img/green_wl/3.jpg"",""time"":163},{""stimulus"":""img/green_wl/4.jpg"",""time"":210},{""stimulus"":""img/green_wl/5.jpg"",""time"":257},{""stimulus"":""img/green_wl/6.jpg"",""time"":304},{""stimulus"":""img/green_wl/7.jpg"",""time"":351},{""stimulus"":""img/green_wl/8.jpg"",""time"":401},{""stimulus"":""img/green_wl/9.jpg"",""time"":450},{""stimulus"":""img/green_wl/10.jpg"",""time"":506},{""stimulus"":""img/green_wl/11.jpg"",""time"":552}]","[]"
"image-keyboard-response","170","187739","0.0-5.0-1.83","63d7a9346e833b93500723d4","bdp_lott","Sun Mar 26 2023 08:47:16 GMT-0400 (Eastern Daylight Time)","332278","green","red","","256","","","","choice","","img/green_wl/choose11.jpg","2","142","red","0.5","0.1","0.1","l","",""
"animation","171","188341","0.0-5.0-2.83","63d7a9346e833b93500723d4","bdp_lott","Sun Mar 26 2023 08:47:16 GMT-0400 (Eastern Daylight Time)","332278","green","red","","","","","","","","","","142","","","","","","[{""stimulus"":""img/red_wl/1.jpg"",""time"":51},{""stimulus"":""img/red_wl/2.jpg"",""time"":111},{""stimulus"":""img/red_wl/3.jpg"",""time"":157},{""stimulus"":""img/red_wl/4.jpg"",""time"":201},{""stimulus"":""img/red_wl/5.jpg"",""time"":251},{""stimulus"":""img/red_wl/6.jpg"",""time"":301},{""stimulus"":""img/red_wl/7.jpg"",""time"":351},{""stimulus"":""img/red_wl/8.jpg"",""time"":400},{""stimulus"":""img/red_wl/9.jpg"",""time"":451},{""stimulus"":""img/red_wl/10.jpg"",""time"":514},{""stimulus"":""img/red_wl/11.jpg"",""time"":562}]","[]"
"image-keyboard-response","172","188755","0.0-5.0-1.84","63d7a9346e833b93500723d4","bdp_lott","Sun Mar 26 2023 08:47:16 GMT-0400 (Eastern Daylight Time)","332278","green","red","","413","","","","choice","","img/red_wl/choose11.jpg","1","141","green","0.5","0.1","0.5","w","",""
"animation","173","189356","0.0-5.0-2.84","63d7a9346e833b93500723d4","bdp_lott","Sun Mar 26 2023 08:47:16 GMT-0400 (Eastern Daylight Time)","332278","green","red","","","","","","","","","","141","","","","","","[{""stimulus"":""img/green_wl/1.jpg"",""time"":51},{""stimulus"":""img/green_wl/2.jpg"",""time"":102},{""stimulus"":""img/green_wl/3.jpg"",""time"":151},{""stimulus"":""img/green_wl/4.jpg"",""time"":211},{""stimulus"":""img/green_wl/5.jpg"",""time"":258},{""stimulus"":""img/green_wl/6.jpg"",""time"":300},{""stimulus"":""img/green_wl/7.jpg"",""time"":350},{""stimulus"":""img/green_wl/8.jpg"",""time"":414},{""stimulus"":""img/green_wl/9.jpg"",""time"":461},{""stimulus"":""img/green_wl/10.jpg"",""time"":507},{""stimulus"":""img/green_wl/11.jpg"",""time"":550}]","[]"
"image-keyboard-response","174","189779","0.0-5.0-1.85","63d7a9346e833b93500723d4","bdp_lott","Sun Mar 26 2023 08:47:16 GMT-0400 (Eastern Daylight Time)","332278","green","red","","422","","","","choice","","img/green_wl/choose11.jpg","2","140","red","0.5","0.1","0.1","l","",""
"animation","175","190395","0.0-5.0-2.85","63d7a9346e833b93500723d4","bdp_lott","Sun Mar 26 2023 08:47:16 GMT-0400 (Eastern Daylight Time)","332278","green","red","","","","","","","","","","140","","","","","","[{""stimulus"":""img/red_wl/1.jpg"",""time"":51},{""stimulus"":""img/red_wl/2.jpg"",""time"":105},{""stimulus"":""img/red_wl/3.jpg"",""time"":151},{""stimulus"":""img/red_wl/4.jpg"",""time"":213},{""stimulus"":""img/red_wl/5.jpg"",""time"":250},{""stimulus"":""img/red_wl/6.jpg"",""time"":301},{""stimulus"":""img/red_wl/7.jpg"",""time"":351},{""stimulus"":""img/red_wl/8.jpg"",""time"":401},{""stimulus"":""img/red_wl/9.jpg"",""time"":451},{""stimulus"":""img/red_wl/10.jpg"",""time"":508},{""stimulus"":""img/red_wl/11.jpg"",""time"":550}]","[]"
"image-keyboard-response","176","190739","0.0-5.0-1.86","63d7a9346e833b93500723d4","bdp_lott","Sun Mar 26 2023 08:47:16 GMT-0400 (Eastern Daylight Time)","332278","green","red","","343","","","","choice","","img/red_wl/choose11.jpg","1","139","green","0.5","0.1","0.5","l","",""
"animation","177","191340","0.0-5.0-2.86","63d7a9346e833b93500723d4","bdp_lott","Sun Mar 26 2023 08:47:16 GMT-0400 (Eastern Daylight Time)","332278","green","red","","","","","","","","","","139","","","","","","[{""stimulus"":""img/green_ll/1.jpg"",""time"":51},{""stimulus"":""img/green_ll/2.jpg"",""time"":103},{""stimulus"":""img/green_ll/3.jpg"",""time"":151},{""stimulus"":""img/green_ll/4.jpg"",""time"":200},{""stimulus"":""img/green_ll/5.jpg"",""time"":251},{""stimulus"":""img/green_ll/6.jpg"",""time"":303},{""stimulus"":""img/green_ll/7.jpg"",""time"":365},{""stimulus"":""img/green_ll/8.jpg"",""time"":400},{""stimulus"":""img/green_ll/9.jpg"",""time"":450},{""stimulus"":""img/green_ll/10.jpg"",""time"":500},{""stimulus"":""img/green_ll/11.jpg"",""time"":551}]","[]"
"image-keyboard-response","178","191883","0.0-5.0-1.87","63d7a9346e833b93500723d4","bdp_lott","Sun Mar 26 2023 08:47:16 GMT-0400 (Eastern Daylight Time)","332278","green","red","","542","","","","choice","","img/green_ll/choose11.jpg","2","138","red","0.5","0.1","0.1","l","",""
"animation","179","192484","0.0-5.0-2.87","63d7a9346e833b93500723d4","bdp_lott","Sun Mar 26 2023 08:47:16 GMT-0400 (Eastern Daylight Time)","332278","green","red","","","","","","","","","","138","","","","","","[{""stimulus"":""img/red_ll/1.jpg"",""time"":51},{""stimulus"":""img/red_ll/2.jpg"",""time"":102},{""stimulus"":""img/red_ll/3.jpg"",""time"":163},{""stimulus"":""img/red_ll/4.jpg"",""time"":209},{""stimulus"":""img/red_ll/5.jpg"",""time"":256},{""stimulus"":""img/red_ll/6.jpg"",""time"":302},{""stimulus"":""img/red_ll/7.jpg"",""time"":351},{""stimulus"":""img/red_ll/8.jpg"",""time"":400},{""stimulus"":""img/red_ll/9.jpg"",""time"":451},{""stimulus"":""img/red_ll/10.jpg"",""time"":506},{""stimulus"":""img/red_ll/11.jpg"",""time"":552}]","[]"
"image-keyboard-response","180","192877","0.0-5.0-1.88","63d7a9346e833b93500723d4","bdp_lott","Sun Mar 26 2023 08:47:16 GMT-0400 (Eastern Daylight Time)","332278","green","red","","390","","","","choice","","img/red_ll/choose11.jpg","1","137","green","0.5","0.1","0.5","l","",""
"animation","181","193492","0.0-5.0-2.88","63d7a9346e833b93500723d4","bdp_lott","Sun Mar 26 2023 08:47:16 GMT-0400 (Eastern Daylight Time)","332278","green","red","","","","","","","","","","137","","","","","","[{""stimulus"":""img/green_ll/1.jpg"",""time"":51},{""stimulus"":""img/green_ll/2.jpg"",""time"":116},{""stimulus"":""img/green_ll/3.jpg"",""time"":164},{""stimulus"":""img/green_ll/4.jpg"",""time"":209},{""stimulus"":""img/green_ll/5.jpg"",""time"":255},{""stimulus"":""img/green_ll/6.jpg"",""time"":303},{""stimulus"":""img/green_ll/7.jpg"",""time"":366},{""stimulus"":""img/green_ll/8.jpg"",""time"":413},{""stimulus"":""img/green_ll/9.jpg"",""time"":451},{""stimulus"":""img/green_ll/10.jpg"",""time"":504},{""stimulus"":""img/green_ll/11.jpg"",""time"":551}]","[]"
"image-keyboard-response","182","193979","0.0-5.0-1.89","63d7a9346e833b93500723d4","bdp_lott","Sun Mar 26 2023 08:47:16 GMT-0400 (Eastern Daylight Time)","332278","green","red","","486","","","","choice","","img/green_ll/choose11.jpg","2","136","red","0.5","0.1","0.1","l","",""
"animation","183","194580","0.0-5.0-2.89","63d7a9346e833b93500723d4","bdp_lott","Sun Mar 26 2023 08:47:16 GMT-0400 (Eastern Daylight Time)","332278","green","red","","","","","","","","","","136","","","","","","[{""stimulus"":""img/red_ll/1.jpg"",""time"":50},{""stimulus"":""img/red_ll/2.jpg"",""time"":101},{""stimulus"":""img/red_ll/3.jpg"",""time"":162},{""stimulus"":""img/red_ll/4.jpg"",""time"":210},{""stimulus"":""img/red_ll/5.jpg"",""time"":255},{""stimulus"":""img/red_ll/6.jpg"",""time"":300},{""stimulus"":""img/red_ll/7.jpg"",""time"":350},{""stimulus"":""img/red_ll/8.jpg"",""time"":400},{""stimulus"":""img/red_ll/9.jpg"",""time"":457},{""stimulus"":""img/red_ll/10.jpg"",""time"":504},{""stimulus"":""img/red_ll/11.jpg"",""time"":550}]","[]"
"image-keyboard-response","184","195043","0.0-5.0-1.90","63d7a9346e833b93500723d4","bdp_lott","Sun Mar 26 2023 08:47:16 GMT-0400 (Eastern Daylight Time)","332278","green","red","","461","","","","choice","","img/red_ll/choose11.jpg","1","135","green","0.5","0.1","0.5","l","",""
"animation","185","195644","0.0-5.0-2.90","63d7a9346e833b93500723d4","bdp_lott","Sun Mar 26 2023 08:47:16 GMT-0400 (Eastern Daylight Time)","332278","green","red","","","","","","","","","","135","","","","","","[{""stimulus"":""img/green_ll/1.jpg"",""time"":50},{""stimulus"":""img/green_ll/2.jpg"",""time"":116},{""stimulus"":""img/green_ll/3.jpg"",""time"":150},{""stimulus"":""img/green_ll/4.jpg"",""time"":200},{""stimulus"":""img/green_ll/5.jpg"",""time"":251},{""stimulus"":""img/green_ll/6.jpg"",""time"":301},{""stimulus"":""img/green_ll/7.jpg"",""time"":350},{""stimulus"":""img/green_ll/8.jpg"",""time"":400},{""stimulus"":""img/green_ll/9.jpg"",""time"":450},{""stimulus"":""img/green_ll/10.jpg"",""time"":506},{""stimulus"":""img/green_ll/11.jpg"",""time"":550}]","[]"
"image-keyboard-response","186","196147","0.0-5.0-1.91","63d7a9346e833b93500723d4","bdp_lott","Sun Mar 26 2023 08:47:16 GMT-0400 (Eastern Daylight Time)","332278","green","red","","503","","","","choice","","img/green_ll/choose11.jpg","2","134","red","0.5","0.1","0.1","w","",""
"animation","187","196757","0.0-5.0-2.91","63d7a9346e833b93500723d4","bdp_lott","Sun Mar 26 2023 08:47:16 GMT-0400 (Eastern Daylight Time)","332278","green","red","","","","","","","","","","134","","","","","","[{""stimulus"":""img/red_lw/1.jpg"",""time"":51},{""stimulus"":""img/red_lw/2.jpg"",""time"":111},{""stimulus"":""img/red_lw/3.jpg"",""time"":157},{""stimulus"":""img/red_lw/4.jpg"",""time"":204},{""stimulus"":""img/red_lw/5.jpg"",""time"":250},{""stimulus"":""img/red_lw/6.jpg"",""time"":313},{""stimulus"":""img/red_lw/7.jpg"",""time"":350},{""stimulus"":""img/red_lw/8.jpg"",""time"":401},{""stimulus"":""img/red_lw/9.jpg"",""time"":451},{""stimulus"":""img/red_lw/10.jpg"",""time"":501},{""stimulus"":""img/red_lw/11.jpg"",""time"":551}]","[]"
"image-keyboard-response","188","197299","0.0-5.0-1.92","63d7a9346e833b93500723d4","bdp_lott","Sun Mar 26 2023 08:47:16 GMT-0400 (Eastern Daylight Time)","332278","green","red","","541","","","","choice","","img/red_lw/choose11.jpg","1","133","green","0.5","0.1","0.5","w","",""
"animation","189","197901","0.0-5.0-2.92","63d7a9346e833b93500723d4","bdp_lott","Sun Mar 26 2023 08:47:16 GMT-0400 (Eastern Daylight Time)","332278","green","red","","","","","","","","","","133","","","","","","[{""stimulus"":""img/green_ww/1.jpg"",""time"":51},{""stimulus"":""img/green_ww/2.jpg"",""time"":102},{""stimulus"":""img/green_ww/3.jpg"",""time"":151},{""stimulus"":""img/green_ww/4.jpg"",""time"":212},{""stimulus"":""img/green_ww/5.jpg"",""time"":251},{""stimulus"":""img/green_ww/6.jpg"",""time"":301},{""stimulus"":""img/green_ww/7.jpg"",""time"":351},{""stimulus"":""img/green_ww/8.jpg"",""time"":412},{""stimulus"":""img/green_ww/9.jpg"",""time"":451},{""stimulus"":""img/green_ww/10.jpg"",""time"":505},{""stimulus"":""img/green_ww/11.jpg"",""time"":566}]","[]"
"image-keyboard-response","190","198379","0.0-5.0-1.93","63d7a9346e833b93500723d4","bdp_lott","Sun Mar 26 2023 08:47:16 GMT-0400 (Eastern Daylight Time)","332278","green","red","","477","","","","choice","","img/green_ww/choose11.jpg","2","132","red","0.5","0.1","0.1","l","",""
"animation","191","198980","0.0-5.0-2.93","63d7a9346e833b93500723d4","bdp_lott","Sun Mar 26 2023 08:47:16 GMT-0400 (Eastern Daylight Time)","332278","green","red","","","","","","","","","","132","","","","","","[{""stimulus"":""img/red_wl/1.jpg"",""time"":50},{""stimulus"":""img/red_wl/2.jpg"",""time"":104},{""stimulus"":""img/red_wl/3.jpg"",""time"":151},{""stimulus"":""img/red_wl/4.jpg"",""time"":212},{""stimulus"":""img/red_wl/5.jpg"",""time"":251},{""stimulus"":""img/red_wl/6.jpg"",""time"":300},{""stimulus"":""img/red_wl/7.jpg"",""time"":352},{""stimulus"":""img/red_wl/8.jpg"",""time"":414},{""stimulus"":""img/red_wl/9.jpg"",""time"":450},{""stimulus"":""img/red_wl/10.jpg"",""time"":509},{""stimulus"":""img/red_wl/11.jpg"",""time"":555}]","[]"
