"event","trial","time","trialtype","subject_id","task","startTime","totalTime","fairMachine","unfairMachine","trial_type","trial_index","time_elapsed","internal_node_id","view_history","rt","success","stimulus","key_press","roundsLeft","chosen","pFairMachWin","pUnfairMachWin","pTrialWin","outcome","animation_sequence","responses"
"focus","0","0","focusevent","63d13b44f511eff0aef876f2","bdp_lott","Sat Mar 25 2023 15:46:32 GMT-0700 (Pacific Daylight Time)","185985","green","red","","","","","","","","","","","","","","","","",""
"focus","0","0","focusevent","63d13b44f511eff0aef876f2","bdp_lott","Sat Mar 25 2023 15:46:32 GMT-0700 (Pacific Daylight Time)","185985","green","red","","","","","","","","","","","","","","","","",""
"","","","","63d13b44f511eff0aef876f2","bdp_lott","Sat Mar 25 2023 15:46:32 GMT-0700 (Pacific Daylight Time)","185985","green","red","pavlovia","0","8","0.0-0.0","","","","","","","","","","","","",""
"","","","","63d13b44f511eff0aef876f2","bdp_lott","Sat Mar 25 2023 15:46:32 GMT-0700 (Pacific Daylight Time)","185985","green","red","instructions","1","2596","0.0-1.0","[{""page_index"":0,""viewing_time"":2587}]","2587","","","","","","","","","","",""
"fullscreenenter","2","4922","fullscreenenter","63d13b44f511eff0aef876f2","bdp_lott","Sat Mar 25 2023 15:46:32 GMT-0700 (Pacific Daylight Time)","185985","green","red","","","","","","","","","","","","","","","","",""
"","","","","63d13b44f511eff0aef876f2","bdp_lott","Sat Mar 25 2023 15:46:32 GMT-0700 (Pacific Daylight Time)","185985","green","red","fullscreen","2","5914","0.0-2.0","","","true","","","","","","","","","",""
"","","","","63d13b44f511eff0aef876f2","bdp_lott","Sat Mar 25 2023 15:46:32 GMT-0700 (Pacific Daylight Time)","185985","green","red","instructions","3","22252","0.0-4.0","[{""page_index"":0,""viewing_time"":16337}]","16337","","","","","","","","","","",""
"","","","choice","63d13b44f511eff0aef876f2","bdp_lott","Sat Mar 25 2023 15:46:32 GMT-0700 (Pacific Daylight Time)","185985","green","red","image-keyboard-response","4","23390","0.0-5.0-1.0","","1136","","img/red_ll/initchoose11.jpg","1","225","green","0.5","0.5","0.5","w","",""
"","","","","63d13b44f511eff0aef876f2","bdp_lott","Sat Mar 25 2023 15:46:32 GMT-0700 (Pacific Daylight Time)","185985","green","red","animation","5","23991","0.0-5.0-2.0","","","","","","225","","","","","","[{""stimulus"":""img/green_wl/1.jpg"",""time"":62},{""stimulus"":""img/green_wl/2.jpg"",""time"":103},{""stimulus"":""img/green_wl/3.jpg"",""time"":150},{""stimulus"":""img/green_wl/4.jpg"",""time"":200},{""stimulus"":""img/green_wl/5.jpg"",""time"":250},{""stimulus"":""img/green_wl/6.jpg"",""time"":300},{""stimulus"":""img/green_wl/7.jpg"",""time"":351},{""stimulus"":""img/green_wl/8.jpg"",""time"":400},{""stimulus"":""img/green_wl/9.jpg"",""time"":450},{""stimulus"":""img/green_wl/10.jpg"",""time"":512},{""stimulus"":""img/green_wl/11.jpg"",""time"":551}]","[]"
"","","","choice","63d13b44f511eff0aef876f2","bdp_lott","Sat Mar 25 2023 15:46:32 GMT-0700 (Pacific Daylight Time)","185985","green","red","image-keyboard-response","6","25077","0.0-5.0-1.1","","1085","","img/green_wl/choose11.jpg","1","224","green","0.5","0.5","0.5","l","",""
"","","","","63d13b44f511eff0aef876f2","bdp_lott","Sat Mar 25 2023 15:46:32 GMT-0700 (Pacific Daylight Time)","185985","green","red","animation","7","25688","0.0-5.0-2.1","","","","","","224","","","","","","[{""stimulus"":""img/green_ll/1.jpg"",""time"":62},{""stimulus"":""img/green_ll/2.jpg"",""time"":109},{""stimulus"":""img/green_ll/3.jpg"",""time"":157},{""stimulus"":""img/green_ll/4.jpg"",""time"":204},{""stimulus"":""img/green_ll/5.jpg"",""time"":250},{""stimulus"":""img/green_ll/6.jpg"",""time"":301},{""stimulus"":""img/green_ll/7.jpg"",""time"":351},{""stimulus"":""img/green_ll/8.jpg"",""time"":400},{""stimulus"":""img/green_ll/9.jpg"",""time"":451},{""stimulus"":""img/green_ll/10.jpg"",""time"":501},{""stimulus"":""img/green_ll/11.jpg"",""time"":559}]","[]"
"","","","choice","63d13b44f511eff0aef876f2","bdp_lott","Sat Mar 25 2023 15:46:32 GMT-0700 (Pacific Daylight Time)","185985","green","red","image-keyboard-response","8","26324","0.0-5.0-1.2","","635","","img/green_ll/choose11.jpg","2","223","red","0.5","0.5","0.5","w","",""
"","","","","63d13b44f511eff0aef876f2","bdp_lott","Sat Mar 25 2023 15:46:32 GMT-0700 (Pacific Daylight Time)","185985","green","red","animation","9","26925","0.0-5.0-2.2","","","","","","223","","","","","","[{""stimulus"":""img/red_lw/1.jpg"",""time"":59},{""stimulus"":""img/red_lw/2.jpg"",""time"":101},{""stimulus"":""img/red_lw/3.jpg"",""time"":151},{""stimulus"":""img/red_lw/4.jpg"",""time"":214},{""stimulus"":""img/red_lw/5.jpg"",""time"":261},{""stimulus"":""img/red_lw/6.jpg"",""time"":302},{""stimulus"":""img/red_lw/7.jpg"",""time"":352},{""stimulus"":""img/red_lw/8.jpg"",""time"":401},{""stimulus"":""img/red_lw/9.jpg"",""time"":463},{""stimulus"":""img/red_lw/10.jpg"",""time"":510},{""stimulus"":""img/red_lw/11.jpg"",""time"":551}]","[]"
"","","","choice","63d13b44f511eff0aef876f2","bdp_lott","Sat Mar 25 2023 15:46:32 GMT-0700 (Pacific Daylight Time)","185985","green","red","image-keyboard-response","10","27325","0.0-5.0-1.3","","399","","img/red_lw/choose11.jpg","2","222","red","0.5","0.5","0.5","l","",""
"","","","","63d13b44f511eff0aef876f2","bdp_lott","Sat Mar 25 2023 15:46:32 GMT-0700 (Pacific Daylight Time)","185985","green","red","animation","11","27927","0.0-5.0-2.3","","","","","","222","","","","","","[{""stimulus"":""img/red_ll/1.jpg"",""time"":54},{""stimulus"":""img/red_ll/2.jpg"",""time"":111},{""stimulus"":""img/red_ll/3.jpg"",""time"":162},{""stimulus"":""img/red_ll/4.jpg"",""time"":201},{""stimulus"":""img/red_ll/5.jpg"",""time"":252},{""stimulus"":""img/red_ll/6.jpg"",""time"":303},{""stimulus"":""img/red_ll/7.jpg"",""time"":365},{""stimulus"":""img/red_ll/8.jpg"",""time"":412},{""stimulus"":""img/red_ll/9.jpg"",""time"":451},{""stimulus"":""img/red_ll/10.jpg"",""time"":506},{""stimulus"":""img/red_ll/11.jpg"",""time"":552}]","[]"
"","","","choice","63d13b44f511eff0aef876f2","bdp_lott","Sat Mar 25 2023 15:46:32 GMT-0700 (Pacific Daylight Time)","185985","green","red","image-keyboard-response","12","28461","0.0-5.0-1.4","","533","","img/red_ll/choose11.jpg","1","221","green","0.5","0.5","0.5","w","",""
"","","","","63d13b44f511eff0aef876f2","bdp_lott","Sat Mar 25 2023 15:46:32 GMT-0700 (Pacific Daylight Time)","185985","green","red","animation","13","29062","0.0-5.0-2.4","","","","","","221","","","","","","[{""stimulus"":""img/green_wl/1.jpg"",""time"":53},{""stimulus"":""img/green_wl/2.jpg"",""time"":114},{""stimulus"":""img/green_wl/3.jpg"",""time"":152},{""stimulus"":""img/green_wl/4.jpg"",""time"":201},{""stimulus"":""img/green_wl/5.jpg"",""time"":252},{""stimulus"":""img/green_wl/6.jpg"",""time"":302},{""stimulus"":""img/green_wl/7.jpg"",""time"":352},{""stimulus"":""img/green_wl/8.jpg"",""time"":401},{""stimulus"":""img/green_wl/9.jpg"",""time"":453},{""stimulus"":""img/green_wl/10.jpg"",""time"":502},{""stimulus"":""img/green_wl/11.jpg"",""time"":551}]","[]"
"","","","choice","63d13b44f511eff0aef876f2","bdp_lott","Sat Mar 25 2023 15:46:32 GMT-0700 (Pacific Daylight Time)","185985","green","red","image-keyboard-response","14","29541","0.0-5.0-1.5","","479","","img/green_wl/choose11.jpg","1","220","green","0.5","0.5","0.5","l","",""
"","","","","63d13b44f511eff0aef876f2","bdp_lott","Sat Mar 25 2023 15:46:32 GMT-0700 (Pacific Daylight Time)","185985","green","red","animation","15","30142","0.0-5.0-2.5","","","","","","220","","","","","","[{""stimulus"":""img/green_ll/1.jpg"",""time"":57},{""stimulus"":""img/green_ll/2.jpg"",""time"":104},{""stimulus"":""img/green_ll/3.jpg"",""time"":151},{""stimulus"":""img/green_ll/4.jpg"",""time"":201},{""stimulus"":""img/green_ll/5.jpg"",""time"":256},{""stimulus"":""img/green_ll/6.jpg"",""time"":302},{""stimulus"":""img/green_ll/7.jpg"",""time"":351},{""stimulus"":""img/green_ll/8.jpg"",""time"":401},{""stimulus"":""img/green_ll/9.jpg"",""time"":451},{""stimulus"":""img/green_ll/10.jpg"",""time"":503},{""stimulus"":""img/green_ll/11.jpg"",""time"":551}]","[]"
"","","","choice","63d13b44f511eff0aef876f2","bdp_lott","Sat Mar 25 2023 15:46:32 GMT-0700 (Pacific Daylight Time)","185985","green","red","image-keyboard-response","16","30461","0.0-5.0-1.6","","319","","img/green_ll/choose11.jpg","1","219","green","0.5","0.5","0.5","l","",""
"","","","","63d13b44f511eff0aef876f2","bdp_lott","Sat Mar 25 2023 15:46:32 GMT-0700 (Pacific Daylight Time)","185985","green","red","animation","17","31073","0.0-5.0-2.6","","","","","","219","","","","","","[{""stimulus"":""img/green_ll/1.jpg"",""time"":52},{""stimulus"":""img/green_ll/2.jpg"",""time"":113},{""stimulus"":""img/green_ll/3.jpg"",""time"":160},{""stimulus"":""img/green_ll/4.jpg"",""time"":201},{""stimulus"":""img/green_ll/5.jpg"",""time"":252},{""stimulus"":""img/green_ll/6.jpg"",""time"":302},{""stimulus"":""img/green_ll/7.jpg"",""time"":352},{""stimulus"":""img/green_ll/8.jpg"",""time"":402},{""stimulus"":""img/green_ll/9.jpg"",""time"":453},{""stimulus"":""img/green_ll/10.jpg"",""time"":504},{""stimulus"":""img/green_ll/11.jpg"",""time"":551}]","[]"
"","","","choice","63d13b44f511eff0aef876f2","bdp_lott","Sat Mar 25 2023 15:46:32 GMT-0700 (Pacific Daylight Time)","185985","green","red","image-keyboard-response","18","31445","0.0-5.0-1.7","","371","","img/green_ll/choose11.jpg","1","218","green","0.5","0.5","0.5","l","",""
"","","","","63d13b44f511eff0aef876f2","bdp_lott","Sat Mar 25 2023 15:46:32 GMT-0700 (Pacific Daylight Time)","185985","green","red","animation","19","32047","0.0-5.0-2.7","","","","","","218","","","","","","[{""stimulus"":""img/green_ll/1.jpg"",""time"":64},{""stimulus"":""img/green_ll/2.jpg"",""time"":110},{""stimulus"":""img/green_ll/3.jpg"",""time"":152},{""stimulus"":""img/green_ll/4.jpg"",""time"":201},{""stimulus"":""img/green_ll/5.jpg"",""time"":251},{""stimulus"":""img/green_ll/6.jpg"",""time"":302},{""stimulus"":""img/green_ll/7.jpg"",""time"":351},{""stimulus"":""img/green_ll/8.jpg"",""time"":401},{""stimulus"":""img/green_ll/9.jpg"",""time"":451},{""stimulus"":""img/green_ll/10.jpg"",""time"":501},{""stimulus"":""img/green_ll/11.jpg"",""time"":551}]","[]"
"","","","choice","63d13b44f511eff0aef876f2","bdp_lott","Sat Mar 25 2023 15:46:32 GMT-0700 (Pacific Daylight Time)","185985","green","red","image-keyboard-response","20","32396","0.0-5.0-1.8","","348","","img/green_ll/choose11.jpg","2","217","red","0.5","0.5","0.5","w","",""
"","","","","63d13b44f511eff0aef876f2","bdp_lott","Sat Mar 25 2023 15:46:32 GMT-0700 (Pacific Daylight Time)","185985","green","red","animation","21","32997","0.0-5.0-2.8","","","","","","217","","","","","","[{""stimulus"":""img/red_lw/1.jpg"",""time"":61},{""stimulus"":""img/red_lw/2.jpg"",""time"":108},{""stimulus"":""img/red_lw/3.jpg"",""time"":155},{""stimulus"":""img/red_lw/4.jpg"",""time"":201},{""stimulus"":""img/red_lw/5.jpg"",""time"":263},{""stimulus"":""img/red_lw/6.jpg"",""time"":301},{""stimulus"":""img/red_lw/7.jpg"",""time"":352},{""stimulus"":""img/red_lw/8.jpg"",""time"":404},{""stimulus"":""img/red_lw/9.jpg"",""time"":466},{""stimulus"":""img/red_lw/10.jpg"",""time"":502},{""stimulus"":""img/red_lw/11.jpg"",""time"":551}]","[]"
"","","","choice","63d13b44f511eff0aef876f2","bdp_lott","Sat Mar 25 2023 15:46:32 GMT-0700 (Pacific Daylight Time)","185985","green","red","image-keyboard-response","22","33188","0.0-5.0-1.9","","190","","img/red_lw/choose11.jpg","2","216","red","0.5","0.5","0.5","w","",""
"","","","","63d13b44f511eff0aef876f2","bdp_lott","Sat Mar 25 2023 15:46:32 GMT-0700 (Pacific Daylight Time)","185985","green","red","animation","23","33789","0.0-5.0-2.9","","","","","","216","","","","","","[{""stimulus"":""img/red_lw/1.jpg"",""time"":64},{""stimulus"":""img/red_lw/2.jpg"",""time"":101},{""stimulus"":""img/red_lw/3.jpg"",""time"":157},{""stimulus"":""img/red_lw/4.jpg"",""time"":201},{""stimulus"":""img/red_lw/5.jpg"",""time"":251},{""stimulus"":""img/red_lw/6.jpg"",""time"":301},{""stimulus"":""img/red_lw/7.jpg"",""time"":351},{""stimulus"":""img/red_lw/8.jpg"",""time"":401},{""stimulus"":""img/red_lw/9.jpg"",""time"":451},{""stimulus"":""img/red_lw/10.jpg"",""time"":513},{""stimulus"":""img/red_lw/11.jpg"",""time"":551}]","[]"
"","","","choice","63d13b44f511eff0aef876f2","bdp_lott","Sat Mar 25 2023 15:46:32 GMT-0700 (Pacific Daylight Time)","185985","green","red","image-keyboard-response","24","34028","0.0-5.0-1.10","","238","","img/red_lw/choose11.jpg","2","215","red","0.5","0.5","0.5","w","",""
"","","","","63d13b44f511eff0aef876f2","bdp_lott","Sat Mar 25 2023 15:46:32 GMT-0700 (Pacific Daylight Time)","185985","green","red","animation","25","34633","0.0-5.0-2.10","","","","","","215","","","","","","[{""stimulus"":""img/red_lw/1.jpg"",""time"":59},{""stimulus"":""img/red_lw/2.jpg"",""time"":101},{""stimulus"":""img/red_lw/3.jpg"",""time"":151},{""stimulus"":""img/red_lw/4.jpg"",""time"":201},{""stimulus"":""img/red_lw/5.jpg"",""time"":251},{""stimulus"":""img/red_lw/6.jpg"",""time"":301},{""stimulus"":""img/red_lw/7.jpg"",""time"":351},{""stimulus"":""img/red_lw/8.jpg"",""time"":402},{""stimulus"":""img/red_lw/9.jpg"",""time"":451},{""stimulus"":""img/red_lw/10.jpg"",""time"":511},{""stimulus"":""img/red_lw/11.jpg"",""time"":551}]","[]"
"","","","choice","63d13b44f511eff0aef876f2","bdp_lott","Sat Mar 25 2023 15:46:32 GMT-0700 (Pacific Daylight Time)","185985","green","red","image-keyboard-response","26","34932","0.0-5.0-1.11","","299","","img/red_lw/choose11.jpg","2","214","red","0.5","0.5","0.5","w","",""
"","","","","63d13b44f511eff0aef876f2","bdp_lott","Sat Mar 25 2023 15:46:32 GMT-0700 (Pacific Daylight Time)","185985","green","red","animation","27","35533","0.0-5.0-2.11","","","","","","214","","","","","","[{""stimulus"":""img/red_lw/1.jpg"",""time"":59},{""stimulus"":""img/red_lw/2.jpg"",""time"":101},{""stimulus"":""img/red_lw/3.jpg"",""time"":151},{""stimulus"":""img/red_lw/4.jpg"",""time"":214},{""stimulus"":""img/red_lw/5.jpg"",""time"":260},{""stimulus"":""img/red_lw/6.jpg"",""time"":302},{""stimulus"":""img/red_lw/7.jpg"",""time"":351},{""stimulus"":""img/red_lw/8.jpg"",""time"":402},{""stimulus"":""img/red_lw/9.jpg"",""time"":452},{""stimulus"":""img/red_lw/10.jpg"",""time"":502},{""stimulus"":""img/red_lw/11.jpg"",""time"":551}]","[]"
"","","","choice","63d13b44f511eff0aef876f2","bdp_lott","Sat Mar 25 2023 15:46:32 GMT-0700 (Pacific Daylight Time)","185985","green","red","image-keyboard-response","28","35764","0.0-5.0-1.12","","230","","img/red_lw/choose11.jpg","2","213","red","0.5","0.5","0.5","l","",""
"","","","","63d13b44f511eff0aef876f2","bdp_lott","Sat Mar 25 2023 15:46:32 GMT-0700 (Pacific Daylight Time)","185985","green","red","animation","29","36365","0.0-5.0-2.12","","","","","","213","","","","","","[{""stimulus"":""img/red_ll/1.jpg"",""time"":62},{""stimulus"":""img/red_ll/2.jpg"",""time"":108},{""stimulus"":""img/red_ll/3.jpg"",""time"":151},{""stimulus"":""img/red_ll/4.jpg"",""time"":201},{""stimulus"":""img/red_ll/5.jpg"",""time"":251},{""stimulus"":""img/red_ll/6.jpg"",""time"":300},{""stimulus"":""img/red_ll/7.jpg"",""time"":351},{""stimulus"":""img/red_ll/8.jpg"",""time"":400},{""stimulus"":""img/red_ll/9.jpg"",""time"":451},{""stimulus"":""img/red_ll/10.jpg"",""time"":500},{""stimulus"":""img/red_ll/11.jpg"",""time"":550}]","[]"
"","","","choice","63d13b44f511eff0aef876f2","bdp_lott","Sat Mar 25 2023 15:46:32 GMT-0700 (Pacific Daylight Time)","185985","green","red","image-keyboard-response","30","36605","0.0-5.0-1.13","","239","","img/red_ll/choose11.jpg","2","212","red","0.5","0.5","0.5","w","",""
"","","","","63d13b44f511eff0aef876f2","bdp_lott","Sat Mar 25 2023 15:46:32 GMT-0700 (Pacific Daylight Time)","185985","green","red","animation","31","37206","0.0-5.0-2.13","","","","","","212","","","","","","[{""stimulus"":""img/red_lw/1.jpg"",""time"":64},{""stimulus"":""img/red_lw/2.jpg"",""time"":111},{""stimulus"":""img/red_lw/3.jpg"",""time"":151},{""stimulus"":""img/red_lw/4.jpg"",""time"":201},{""stimulus"":""img/red_lw/5.jpg"",""time"":251},{""stimulus"":""img/red_lw/6.jpg"",""time"":301},{""stimulus"":""img/red_lw/7.jpg"",""time"":352},{""stimulus"":""img/red_lw/8.jpg"",""time"":401},{""stimulus"":""img/red_lw/9.jpg"",""time"":452},{""stimulus"":""img/red_lw/10.jpg"",""time"":514},{""stimulus"":""img/red_lw/11.jpg"",""time"":551}]","[]"
"","","","choice","63d13b44f511eff0aef876f2","bdp_lott","Sat Mar 25 2023 15:46:32 GMT-0700 (Pacific Daylight Time)","185985","green","red","image-keyboard-response","32","37277","0.0-5.0-1.14","","71","","img/red_lw/choose11.jpg","2","211","red","0.5","0.5","0.5","l","",""
"","","","","63d13b44f511eff0aef876f2","bdp_lott","Sat Mar 25 2023 15:46:32 GMT-0700 (Pacific Daylight Time)","185985","green","red","animation","33","37877","0.0-5.0-2.14","","","","","","211","","","","","","[{""stimulus"":""img/red_ll/1.jpg"",""time"":58},{""stimulus"":""img/red_ll/2.jpg"",""time"":105},{""stimulus"":""img/red_ll/3.jpg"",""time"":152},{""stimulus"":""img/red_ll/4.jpg"",""time"":202},{""stimulus"":""img/red_ll/5.jpg"",""time"":260},{""stimulus"":""img/red_ll/6.jpg"",""time"":301},{""stimulus"":""img/red_ll/7.jpg"",""time"":351},{""stimulus"":""img/red_ll/8.jpg"",""time"":401},{""stimulus"":""img/red_ll/9.jpg"",""time"":461},{""stimulus"":""img/red_ll/10.jpg"",""time"":508},{""stimulus"":""img/red_ll/11.jpg"",""time"":555}]","[]"
"","","","choice","63d13b44f511eff0aef876f2","bdp_lott","Sat Mar 25 2023 15:46:32 GMT-0700 (Pacific Daylight Time)","185985","green","red","image-keyboard-response","34","38028","0.0-5.0-1.15","","150","","img/red_ll/choose11.jpg","2","210","red","0.5","0.5","0.5","w","",""
"","","","","63d13b44f511eff0aef876f2","bdp_lott","Sat Mar 25 2023 15:46:32 GMT-0700 (Pacific Daylight Time)","185985","green","red","animation","35","38640","0.0-5.0-2.15","","","","","","210","","","","","","[{""stimulus"":""img/red_lw/1.jpg"",""time"":53},{""stimulus"":""img/red_lw/2.jpg"",""time"":115},{""stimulus"":""img/red_lw/3.jpg"",""time"":151},{""stimulus"":""img/red_lw/4.jpg"",""time"":210},{""stimulus"":""img/red_lw/5.jpg"",""time"":257},{""stimulus"":""img/red_lw/6.jpg"",""time"":303},{""stimulus"":""img/red_lw/7.jpg"",""time"":351},{""stimulus"":""img/red_lw/8.jpg"",""time"":401},{""stimulus"":""img/red_lw/9.jpg"",""time"":451},{""stimulus"":""img/red_lw/10.jpg"",""time"":503},{""stimulus"":""img/red_lw/11.jpg"",""time"":566}]","[]"
"","","","choice","63d13b44f511eff0aef876f2","bdp_lott","Sat Mar 25 2023 15:46:32 GMT-0700 (Pacific Daylight Time)","185985","green","red","image-keyboard-response","36","38757","0.0-5.0-1.16","","116","","img/red_lw/choose11.jpg","2","209","red","0.5","0.5","0.5","w","",""
"","","","","63d13b44f511eff0aef876f2","bdp_lott","Sat Mar 25 2023 15:46:32 GMT-0700 (Pacific Daylight Time)","185985","green","red","animation","37","39358","0.0-5.0-2.16","","","","","","209","","","","","","[{""stimulus"":""img/red_lw/1.jpg"",""time"":55},{""stimulus"":""img/red_lw/2.jpg"",""time"":101},{""stimulus"":""img/red_lw/3.jpg"",""time"":151},{""stimulus"":""img/red_lw/4.jpg"",""time"":209},{""stimulus"":""img/red_lw/5.jpg"",""time"":256},{""stimulus"":""img/red_lw/6.jpg"",""time"":303},{""stimulus"":""img/red_lw/7.jpg"",""time"":351},{""stimulus"":""img/red_lw/8.jpg"",""time"":402},{""stimulus"":""img/red_lw/9.jpg"",""time"":451},{""stimulus"":""img/red_lw/10.jpg"",""time"":506},{""stimulus"":""img/red_lw/11.jpg"",""time"":551}]","[]"
"","","","choice","63d13b44f511eff0aef876f2","bdp_lott","Sat Mar 25 2023 15:46:32 GMT-0700 (Pacific Daylight Time)","185985","green","red","image-keyboard-response","38","39580","0.0-5.0-1.17","","221","","img/red_lw/choose11.jpg","2","208","red","0.5","0.5","0.5","w","",""
"","","","","63d13b44f511eff0aef876f2","bdp_lott","Sat Mar 25 2023 15:46:32 GMT-0700 (Pacific Daylight Time)","185985","green","red","animation","39","40181","0.0-5.0-2.17","","","","","","208","","","","","","[{""stimulus"":""img/red_lw/1.jpg"",""time"":59},{""stimulus"":""img/red_lw/2.jpg"",""time"":107},{""stimulus"":""img/red_lw/3.jpg"",""time"":154},{""stimulus"":""img/red_lw/4.jpg"",""time"":201},{""stimulus"":""img/red_lw/5.jpg"",""time"":250},{""stimulus"":""img/red_lw/6.jpg"",""time"":300},{""stimulus"":""img/red_lw/7.jpg"",""time"":351},{""stimulus"":""img/red_lw/8.jpg"",""time"":401},{""stimulus"":""img/red_lw/9.jpg"",""time"":451},{""stimulus"":""img/red_lw/10.jpg"",""time"":501},{""stimulus"":""img/red_lw/11.jpg"",""time"":551}]","[]"
"","","","choice","63d13b44f511eff0aef876f2","bdp_lott","Sat Mar 25 2023 15:46:32 GMT-0700 (Pacific Daylight Time)","185985","green","red","image-keyboard-response","40","40357","0.0-5.0-1.18","","176","","img/red_lw/choose11.jpg","2","207","red","0.5","0.5","0.5","l","",""
"","","","","63d13b44f511eff0aef876f2","bdp_lott","Sat Mar 25 2023 15:46:32 GMT-0700 (Pacific Daylight Time)","185985","green","red","animation","41","40958","0.0-5.0-2.18","","","","","","207","","","","","","[{""stimulus"":""img/red_ll/1.jpg"",""time"":64},{""stimulus"":""img/red_ll/2.jpg"",""time"":101},{""stimulus"":""img/red_ll/3.jpg"",""time"":156},{""stimulus"":""img/red_ll/4.jpg"",""time"":201},{""stimulus"":""img/red_ll/5.jpg"",""time"":251},{""stimulus"":""img/red_ll/6.jpg"",""time"":301},{""stimulus"":""img/red_ll/7.jpg"",""time"":351},{""stimulus"":""img/red_ll/8.jpg"",""time"":401},{""stimulus"":""img/red_ll/9.jpg"",""time"":451},{""stimulus"":""img/red_ll/10.jpg"",""time"":501},{""stimulus"":""img/red_ll/11.jpg"",""time"":551}]","[]"
"","","","choice","63d13b44f511eff0aef876f2","bdp_lott","Sat Mar 25 2023 15:46:32 GMT-0700 (Pacific Daylight Time)","185985","green","red","image-keyboard-response","42","41141","0.0-5.0-1.19","","183","","img/red_ll/choose11.jpg","2","206","red","0.5","0.5","0.5","l","",""
"","","","","63d13b44f511eff0aef876f2","bdp_lott","Sat Mar 25 2023 15:46:32 GMT-0700 (Pacific Daylight Time)","185985","green","red","animation","43","41743","0.0-5.0-2.19","","","","","","206","","","","","","[{""stimulus"":""img/red_ll/1.jpg"",""time"":55},{""stimulus"":""img/red_ll/2.jpg"",""time"":101},{""stimulus"":""img/red_ll/3.jpg"",""time"":151},{""stimulus"":""img/red_ll/4.jpg"",""time"":201},{""stimulus"":""img/red_ll/5.jpg"",""time"":252},{""stimulus"":""img/red_ll/6.jpg"",""time"":301},{""stimulus"":""img/red_ll/7.jpg"",""time"":351},{""stimulus"":""img/red_ll/8.jpg"",""time"":401},{""stimulus"":""img/red_ll/9.jpg"",""time"":451},{""stimulus"":""img/red_ll/10.jpg"",""time"":501},{""stimulus"":""img/red_ll/11.jpg"",""time"":551}]","[]"
"","","","choice","63d13b44f511eff0aef876f2","bdp_lott","Sat Mar 25 2023 15:46:32 GMT-0700 (Pacific Daylight Time)","185985","green","red","image-keyboard-response","44","41852","0.0-5.0-1.20","","109","","img/red_ll/choose11.jpg","2","205","red","0.5","0.5","0.5","w","",""
"","","","","63d13b44f511eff0aef876f2","bdp_lott","Sat Mar 25 2023 15:46:32 GMT-0700 (Pacific Daylight Time)","185985","green","red","animation","45","42455","0.0-5.0-2.20","","","","","","205","","","","","","[{""stimulus"":""img/red_lw/1.jpg"",""time"":61},{""stimulus"":""img/red_lw/2.jpg"",""time"":107},{""stimulus"":""img/red_lw/3.jpg"",""time"":152},{""stimulus"":""img/red_lw/4.jpg"",""time"":201},{""stimulus"":""img/red_lw/5.jpg"",""time"":263},{""stimulus"":""img/red_lw/6.jpg"",""time"":301},{""stimulus"":""img/red_lw/7.jpg"",""time"":355},{""stimulus"":""img/red_lw/8.jpg"",""time"":402},{""stimulus"":""img/red_lw/9.jpg"",""time"":453},{""stimulus"":""img/red_lw/10.jpg"",""time"":503},{""stimulus"":""img/red_lw/11.jpg"",""time"":553}]","[]"
"","","","choice","63d13b44f511eff0aef876f2","bdp_lott","Sat Mar 25 2023 15:46:32 GMT-0700 (Pacific Daylight Time)","185985","green","red","image-keyboard-response","46","42662","0.0-5.0-1.21","","207","","img/red_lw/choose11.jpg","2","204","red","0.5","0.5","0.5","w","",""
"","","","","63d13b44f511eff0aef876f2","bdp_lott","Sat Mar 25 2023 15:46:32 GMT-0700 (Pacific Daylight Time)","185985","green","red","animation","47","43263","0.0-5.0-2.21","","","","","","204","","","","","","[{""stimulus"":""img/red_lw/1.jpg"",""time"":58},{""stimulus"":""img/red_lw/2.jpg"",""time"":102},{""stimulus"":""img/red_lw/3.jpg"",""time"":151},{""stimulus"":""img/red_lw/4.jpg"",""time"":201},{""stimulus"":""img/red_lw/5.jpg"",""time"":251},{""stimulus"":""img/red_lw/6.jpg"",""time"":302},{""stimulus"":""img/red_lw/7.jpg"",""time"":355},{""stimulus"":""img/red_lw/8.jpg"",""time"":402},{""stimulus"":""img/red_lw/9.jpg"",""time"":452},{""stimulus"":""img/red_lw/10.jpg"",""time"":510},{""stimulus"":""img/red_lw/11.jpg"",""time"":551}]","[]"
"","","","choice","63d13b44f511eff0aef876f2","bdp_lott","Sat Mar 25 2023 15:46:32 GMT-0700 (Pacific Daylight Time)","185985","green","red","image-keyboard-response","48","43388","0.0-5.0-1.22","","124","","img/red_lw/choose11.jpg","2","203","red","0.5","0.5","0.5","l","",""
"","","","","63d13b44f511eff0aef876f2","bdp_lott","Sat Mar 25 2023 15:46:32 GMT-0700 (Pacific Daylight Time)","185985","green","red","animation","49","43989","0.0-5.0-2.22","","","","","","203","","","","","","[{""stimulus"":""img/red_ll/1.jpg"",""time"":65},{""stimulus"":""img/red_ll/2.jpg"",""time"":100},{""stimulus"":""img/red_ll/3.jpg"",""time"":157},{""stimulus"":""img/red_ll/4.jpg"",""time"":200},{""stimulus"":""img/red_ll/5.jpg"",""time"":266},{""stimulus"":""img/red_ll/6.jpg"",""time"":301},{""stimulus"":""img/red_ll/7.jpg"",""time"":352},{""stimulus"":""img/red_ll/8.jpg"",""time"":402},{""stimulus"":""img/red_ll/9.jpg"",""time"":450},{""stimulus"":""img/red_ll/10.jpg"",""time"":501},{""stimulus"":""img/red_ll/11.jpg"",""time"":551}]","[]"
"","","","choice","63d13b44f511eff0aef876f2","bdp_lott","Sat Mar 25 2023 15:46:32 GMT-0700 (Pacific Daylight Time)","185985","green","red","image-keyboard-response","50","44157","0.0-5.0-1.23","","167","","img/red_ll/choose11.jpg","2","202","red","0.5","0.5","0.5","l","",""
"","","","","63d13b44f511eff0aef876f2","bdp_lott","Sat Mar 25 2023 15:46:32 GMT-0700 (Pacific Daylight Time)","185985","green","red","animation","51","44757","0.0-5.0-2.23","","","","","","202","","","","","","[{""stimulus"":""img/red_ll/1.jpg"",""time"":60},{""stimulus"":""img/red_ll/2.jpg"",""time"":102},{""stimulus"":""img/red_ll/3.jpg"",""time"":152},{""stimulus"":""img/red_ll/4.jpg"",""time"":201},{""stimulus"":""img/red_ll/5.jpg"",""time"":261},{""stimulus"":""img/red_ll/6.jpg"",""time"":308},{""stimulus"":""img/red_ll/7.jpg"",""time"":351},{""stimulus"":""img/red_ll/8.jpg"",""time"":401},{""stimulus"":""img/red_ll/9.jpg"",""time"":452},{""stimulus"":""img/red_ll/10.jpg"",""time"":501},{""stimulus"":""img/red_ll/11.jpg"",""time"":551}]","[]"
"","","","choice","63d13b44f511eff0aef876f2","bdp_lott","Sat Mar 25 2023 15:46:32 GMT-0700 (Pacific Daylight Time)","185985","green","red","image-keyboard-response","52","44876","0.0-5.0-1.24","","118","","img/red_ll/choose11.jpg","2","201","red","0.5","0.5","0.5","l","",""
"","","","","63d13b44f511eff0aef876f2","bdp_lott","Sat Mar 25 2023 15:46:32 GMT-0700 (Pacific Daylight Time)","185985","green","red","animation","53","45476","0.0-5.0-2.24","","","","","","201","","","","","","[{""stimulus"":""img/red_ll/1.jpg"",""time"":58},{""stimulus"":""img/red_ll/2.jpg"",""time"":106},{""stimulus"":""img/red_ll/3.jpg"",""time"":151},{""stimulus"":""img/red_ll/4.jpg"",""time"":201},{""stimulus"":""img/red_ll/5.jpg"",""time"":262},{""stimulus"":""img/red_ll/6.jpg"",""time"":310},{""stimulus"":""img/red_ll/7.jpg"",""time"":351},{""stimulus"":""img/red_ll/8.jpg"",""time"":402},{""stimulus"":""img/red_ll/9.jpg"",""time"":464},{""stimulus"":""img/red_ll/10.jpg"",""time"":501},{""stimulus"":""img/red_ll/11.jpg"",""time"":551}]","[]"
"","","","choice","63d13b44f511eff0aef876f2","bdp_lott","Sat Mar 25 2023 15:46:32 GMT-0700 (Pacific Daylight Time)","185985","green","red","image-keyboard-response","54","45565","0.0-5.0-1.25","","88","","img/red_ll/choose11.jpg","2","200","red","0.5","0.5","0.5","w","",""
"","","","","63d13b44f511eff0aef876f2","bdp_lott","Sat Mar 25 2023 15:46:32 GMT-0700 (Pacific Daylight Time)","185985","green","red","animation","55","46166","0.0-5.0-2.25","","","","","","200","","","","","","[{""stimulus"":""img/red_lw/1.jpg"",""time"":55},{""stimulus"":""img/red_lw/2.jpg"",""time"":101},{""stimulus"":""img/red_lw/3.jpg"",""time"":164},{""stimulus"":""img/red_lw/4.jpg"",""time"":211},{""stimulus"":""img/red_lw/5.jpg"",""time"":251},{""stimulus"":""img/red_lw/6.jpg"",""time"":305},{""stimulus"":""img/red_lw/7.jpg"",""time"":352},{""stimulus"":""img/red_lw/8.jpg"",""time"":401},{""stimulus"":""img/red_lw/9.jpg"",""time"":451},{""stimulus"":""img/red_lw/10.jpg"",""time"":508},{""stimulus"":""img/red_lw/11.jpg"",""time"":552}]","[]"
"","","","choice","63d13b44f511eff0aef876f2","bdp_lott","Sat Mar 25 2023 15:46:32 GMT-0700 (Pacific Daylight Time)","185985","green","red","image-keyboard-response","56","46604","0.0-5.0-1.26","","437","","img/red_lw/choose11.jpg","2","199","red","0.5","0.5","0.5","w","",""
"","","","","63d13b44f511eff0aef876f2","bdp_lott","Sat Mar 25 2023 15:46:32 GMT-0700 (Pacific Daylight Time)","185985","green","red","animation","57","47205","0.0-5.0-2.26","","","","","","199","","","","","","[{""stimulus"":""img/red_lw/1.jpg"",""time"":55},{""stimulus"":""img/red_lw/2.jpg"",""time"":101},{""stimulus"":""img/red_lw/3.jpg"",""time"":163},{""stimulus"":""img/red_lw/4.jpg"",""time"":209},{""stimulus"":""img/red_lw/5.jpg"",""time"":251},{""stimulus"":""img/red_lw/6.jpg"",""time"":301},{""stimulus"":""img/red_lw/7.jpg"",""time"":351},{""stimulus"":""img/red_lw/8.jpg"",""time"":402},{""stimulus"":""img/red_lw/9.jpg"",""time"":451},{""stimulus"":""img/red_lw/10.jpg"",""time"":500},{""stimulus"":""img/red_lw/11.jpg"",""time"":551}]","[]"
"","","","choice","63d13b44f511eff0aef876f2","bdp_lott","Sat Mar 25 2023 15:46:32 GMT-0700 (Pacific Daylight Time)","185985","green","red","image-keyboard-response","58","47237","0.0-5.0-1.27","","31","","img/red_lw/choose11.jpg","2","198","red","0.5","0.5","0.5","w","",""
"","","","","63d13b44f511eff0aef876f2","bdp_lott","Sat Mar 25 2023 15:46:32 GMT-0700 (Pacific Daylight Time)","185985","green","red","animation","59","47839","0.0-5.0-2.27","","","","","","198","","","","","","[{""stimulus"":""img/red_lw/1.jpg"",""time"":58},{""stimulus"":""img/red_lw/2.jpg"",""time"":101},{""stimulus"":""img/red_lw/3.jpg"",""time"":151},{""stimulus"":""img/red_lw/4.jpg"",""time"":201},{""stimulus"":""img/red_lw/5.jpg"",""time"":251},{""stimulus"":""img/red_lw/6.jpg"",""time"":301},{""stimulus"":""img/red_lw/7.jpg"",""time"":352},{""stimulus"":""img/red_lw/8.jpg"",""time"":401},{""stimulus"":""img/red_lw/9.jpg"",""time"":452},{""stimulus"":""img/red_lw/10.jpg"",""time"":510},{""stimulus"":""img/red_lw/11.jpg"",""time"":551}]","[]"
"","","","choice","63d13b44f511eff0aef876f2","bdp_lott","Sat Mar 25 2023 15:46:32 GMT-0700 (Pacific Daylight Time)","185985","green","red","image-keyboard-response","60","47933","0.0-5.0-1.28","","93","","img/red_lw/choose11.jpg","2","197","red","0.5","0.5","0.5","w","",""
"","","","","63d13b44f511eff0aef876f2","bdp_lott","Sat Mar 25 2023 15:46:32 GMT-0700 (Pacific Daylight Time)","185985","green","red","animation","61","48534","0.0-5.0-2.28","","","","","","197","","","","","","[{""stimulus"":""img/red_lw/1.jpg"",""time"":61},{""stimulus"":""img/red_lw/2.jpg"",""time"":102},{""stimulus"":""img/red_lw/3.jpg"",""time"":151},{""stimulus"":""img/red_lw/4.jpg"",""time"":201},{""stimulus"":""img/red_lw/5.jpg"",""time"":265},{""stimulus"":""img/red_lw/6.jpg"",""time"":301},{""stimulus"":""img/red_lw/7.jpg"",""time"":351},{""stimulus"":""img/red_lw/8.jpg"",""time"":405},{""stimulus"":""img/red_lw/9.jpg"",""time"":451},{""stimulus"":""img/red_lw/10.jpg"",""time"":501},{""stimulus"":""img/red_lw/11.jpg"",""time"":551}]","[]"
"","","","choice","63d13b44f511eff0aef876f2","bdp_lott","Sat Mar 25 2023 15:46:32 GMT-0700 (Pacific Daylight Time)","185985","green","red","image-keyboard-response","62","48612","0.0-5.0-1.29","","77","","img/red_lw/choose11.jpg","2","196","red","0.5","0.5","0.5","w","",""
"","","","","63d13b44f511eff0aef876f2","bdp_lott","Sat Mar 25 2023 15:46:32 GMT-0700 (Pacific Daylight Time)","185985","green","red","animation","63","49224","0.0-5.0-2.29","","","","","","196","","","","","","[{""stimulus"":""img/red_lw/1.jpg"",""time"":51},{""stimulus"":""img/red_lw/2.jpg"",""time"":102},{""stimulus"":""img/red_lw/3.jpg"",""time"":159},{""stimulus"":""img/red_lw/4.jpg"",""time"":202},{""stimulus"":""img/red_lw/5.jpg"",""time"":254},{""stimulus"":""img/red_lw/6.jpg"",""time"":301},{""stimulus"":""img/red_lw/7.jpg"",""time"":351},{""stimulus"":""img/red_lw/8.jpg"",""time"":401},{""stimulus"":""img/red_lw/9.jpg"",""time"":451},{""stimulus"":""img/red_lw/10.jpg"",""time"":501},{""stimulus"":""img/red_lw/11.jpg"",""time"":552}]","[]"
"","","","choice","63d13b44f511eff0aef876f2","bdp_lott","Sat Mar 25 2023 15:46:32 GMT-0700 (Pacific Daylight Time)","185985","green","red","image-keyboard-response","64","49301","0.0-5.0-1.30","","77","","img/red_lw/choose11.jpg","2","195","red","0.5","0.5","0.5","w","",""
"","","","","63d13b44f511eff0aef876f2","bdp_lott","Sat Mar 25 2023 15:46:32 GMT-0700 (Pacific Daylight Time)","185985","green","red","animation","65","49902","0.0-5.0-2.30","","","","","","195","","","","","","[{""stimulus"":""img/red_lw/1.jpg"",""time"":62},{""stimulus"":""img/red_lw/2.jpg"",""time"":101},{""stimulus"":""img/red_lw/3.jpg"",""time"":151},{""stimulus"":""img/red_lw/4.jpg"",""time"":202},{""stimulus"":""img/red_lw/5.jpg"",""time"":251},{""stimulus"":""img/red_lw/6.jpg"",""time"":302},{""stimulus"":""img/red_lw/7.jpg"",""time"":350},{""stimulus"":""img/red_lw/8.jpg"",""time"":401},{""stimulus"":""img/red_lw/9.jpg"",""time"":450},{""stimulus"":""img/red_lw/10.jpg"",""time"":500},{""stimulus"":""img/red_lw/11.jpg"",""time"":560}]","[]"
"","","","choice","63d13b44f511eff0aef876f2","bdp_lott","Sat Mar 25 2023 15:46:32 GMT-0700 (Pacific Daylight Time)","185985","green","red","image-keyboard-response","66","49997","0.0-5.0-1.31","","95","","img/red_lw/choose11.jpg","2","194","red","0.5","0.5","0.5","l","",""
"","","","","63d13b44f511eff0aef876f2","bdp_lott","Sat Mar 25 2023 15:46:32 GMT-0700 (Pacific Daylight Time)","185985","green","red","animation","67","50598","0.0-5.0-2.31","","","","","","194","","","","","","[{""stimulus"":""img/red_ll/1.jpg"",""time"":52},{""stimulus"":""img/red_ll/2.jpg"",""time"":101},{""stimulus"":""img/red_ll/3.jpg"",""time"":151},{""stimulus"":""img/red_ll/4.jpg"",""time"":202},{""stimulus"":""img/red_ll/5.jpg"",""time"":251},{""stimulus"":""img/red_ll/6.jpg"",""time"":301},{""stimulus"":""img/red_ll/7.jpg"",""time"":363},{""stimulus"":""img/red_ll/8.jpg"",""time"":409},{""stimulus"":""img/red_ll/9.jpg"",""time"":456},{""stimulus"":""img/red_ll/10.jpg"",""time"":504},{""stimulus"":""img/red_ll/11.jpg"",""time"":552}]","[]"
"","","","choice","63d13b44f511eff0aef876f2","bdp_lott","Sat Mar 25 2023 15:46:32 GMT-0700 (Pacific Daylight Time)","185985","green","red","image-keyboard-response","68","50676","0.0-5.0-1.32","","77","","img/red_ll/choose11.jpg","2","193","red","0.5","0.5","0.5","l","",""
"","","","","63d13b44f511eff0aef876f2","bdp_lott","Sat Mar 25 2023 15:46:32 GMT-0700 (Pacific Daylight Time)","185985","green","red","animation","69","51277","0.0-5.0-2.32","","","","","","193","","","","","","[{""stimulus"":""img/red_ll/1.jpg"",""time"":59},{""stimulus"":""img/red_ll/2.jpg"",""time"":101},{""stimulus"":""img/red_ll/3.jpg"",""time"":151},{""stimulus"":""img/red_ll/4.jpg"",""time"":201},{""stimulus"":""img/red_ll/5.jpg"",""time"":252},{""stimulus"":""img/red_ll/6.jpg"",""time"":301},{""stimulus"":""img/red_ll/7.jpg"",""time"":351},{""stimulus"":""img/red_ll/8.jpg"",""time"":401},{""stimulus"":""img/red_ll/9.jpg"",""time"":452},{""stimulus"":""img/red_ll/10.jpg"",""time"":500},{""stimulus"":""img/red_ll/11.jpg"",""time"":551}]","[]"
"","","","choice","63d13b44f511eff0aef876f2","bdp_lott","Sat Mar 25 2023 15:46:32 GMT-0700 (Pacific Daylight Time)","185985","green","red","image-keyboard-response","70","51349","0.0-5.0-1.33","","71","","img/red_ll/choose11.jpg","2","192","red","0.5","0.5","0.5","w","",""
"","","","","63d13b44f511eff0aef876f2","bdp_lott","Sat Mar 25 2023 15:46:32 GMT-0700 (Pacific Daylight Time)","185985","green","red","animation","71","51951","0.0-5.0-2.33","","","","","","192","","","","","","[{""stimulus"":""img/red_lw/1.jpg"",""time"":66},{""stimulus"":""img/red_lw/2.jpg"",""time"":112},{""stimulus"":""img/red_lw/3.jpg"",""time"":158},{""stimulus"":""img/red_lw/4.jpg"",""time"":201},{""stimulus"":""img/red_lw/5.jpg"",""time"":251},{""stimulus"":""img/red_lw/6.jpg"",""time"":302},{""stimulus"":""img/red_lw/7.jpg"",""time"":361},{""stimulus"":""img/red_lw/8.jpg"",""time"":402},{""stimulus"":""img/red_lw/9.jpg"",""time"":451},{""stimulus"":""img/red_lw/10.jpg"",""time"":501},{""stimulus"":""img/red_lw/11.jpg"",""time"":564}]","[]"
"","","","choice","63d13b44f511eff0aef876f2","bdp_lott","Sat Mar 25 2023 15:46:32 GMT-0700 (Pacific Daylight Time)","185985","green","red","image-keyboard-response","72","52013","0.0-5.0-1.34","","62","","img/red_lw/choose11.jpg","2","191","red","0.5","0.5","0.5","w","",""
"","","","","63d13b44f511eff0aef876f2","bdp_lott","Sat Mar 25 2023 15:46:32 GMT-0700 (Pacific Daylight Time)","185985","green","red","animation","73","52614","0.0-5.0-2.34","","","","","","191","","","","","","[{""stimulus"":""img/red_lw/1.jpg"",""time"":54},{""stimulus"":""img/red_lw/2.jpg"",""time"":101},{""stimulus"":""img/red_lw/3.jpg"",""time"":163},{""stimulus"":""img/red_lw/4.jpg"",""time"":210},{""stimulus"":""img/red_lw/5.jpg"",""time"":256},{""stimulus"":""img/red_lw/6.jpg"",""time"":301},{""stimulus"":""img/red_lw/7.jpg"",""time"":365},{""stimulus"":""img/red_lw/8.jpg"",""time"":400},{""stimulus"":""img/red_lw/9.jpg"",""time"":450},{""stimulus"":""img/red_lw/10.jpg"",""time"":500},{""stimulus"":""img/red_lw/11.jpg"",""time"":552}]","[]"
"","","","choice","63d13b44f511eff0aef876f2","bdp_lott","Sat Mar 25 2023 15:46:32 GMT-0700 (Pacific Daylight Time)","185985","green","red","image-keyboard-response","74","52764","0.0-5.0-1.35","","150","","img/red_lw/choose11.jpg","2","190","red","0.5","0.5","0.5","l","",""
"","","","","63d13b44f511eff0aef876f2","bdp_lott","Sat Mar 25 2023 15:46:32 GMT-0700 (Pacific Daylight Time)","185985","green","red","animation","75","53377","0.0-5.0-2.35","","","","","","190","","","","","","[{""stimulus"":""img/red_ll/1.jpg"",""time"":51},{""stimulus"":""img/red_ll/2.jpg"",""time"":101},{""stimulus"":""img/red_ll/3.jpg"",""time"":151},{""stimulus"":""img/red_ll/4.jpg"",""time"":201},{""stimulus"":""img/red_ll/5.jpg"",""time"":251},{""stimulus"":""img/red_ll/6.jpg"",""time"":301},{""stimulus"":""img/red_ll/7.jpg"",""time"":351},{""stimulus"":""img/red_ll/8.jpg"",""time"":401},{""stimulus"":""img/red_ll/9.jpg"",""time"":452},{""stimulus"":""img/red_ll/10.jpg"",""time"":501},{""stimulus"":""img/red_ll/11.jpg"",""time"":551}]","[]"
"","","","choice","63d13b44f511eff0aef876f2","bdp_lott","Sat Mar 25 2023 15:46:32 GMT-0700 (Pacific Daylight Time)","185985","green","red","image-keyboard-response","76","53461","0.0-5.0-1.36","","83","","img/red_ll/choose11.jpg","2","189","red","0.5","0.5","0.5","w","",""
"","","","","63d13b44f511eff0aef876f2","bdp_lott","Sat Mar 25 2023 15:46:32 GMT-0700 (Pacific Daylight Time)","185985","green","red","animation","77","54063","0.0-5.0-2.36","","","","","","189","","","","","","[{""stimulus"":""img/red_lw/1.jpg"",""time"":56},{""stimulus"":""img/red_lw/2.jpg"",""time"":101},{""stimulus"":""img/red_lw/3.jpg"",""time"":151},{""stimulus"":""img/red_lw/4.jpg"",""time"":210},{""stimulus"":""img/red_lw/5.jpg"",""time"":257},{""stimulus"":""img/red_lw/6.jpg"",""time"":304},{""stimulus"":""img/red_lw/7.jpg"",""time"":351},{""stimulus"":""img/red_lw/8.jpg"",""time"":412},{""stimulus"":""img/red_lw/9.jpg"",""time"":452},{""stimulus"":""img/red_lw/10.jpg"",""time"":501},{""stimulus"":""img/red_lw/11.jpg"",""time"":556}]","[]"
"","","","choice","63d13b44f511eff0aef876f2","bdp_lott","Sat Mar 25 2023 15:46:32 GMT-0700 (Pacific Daylight Time)","185985","green","red","image-keyboard-response","78","54173","0.0-5.0-1.37","","109","","img/red_lw/choose11.jpg","2","188","red","0.5","0.5","0.5","w","",""
"","","","","63d13b44f511eff0aef876f2","bdp_lott","Sat Mar 25 2023 15:46:32 GMT-0700 (Pacific Daylight Time)","185985","green","red","animation","79","54774","0.0-5.0-2.37","","","","","","188","","","","","","[{""stimulus"":""img/red_lw/1.jpg"",""time"":61},{""stimulus"":""img/red_lw/2.jpg"",""time"":107},{""stimulus"":""img/red_lw/3.jpg"",""time"":151},{""stimulus"":""img/red_lw/4.jpg"",""time"":202},{""stimulus"":""img/red_lw/5.jpg"",""time"":251},{""stimulus"":""img/red_lw/6.jpg"",""time"":311},{""stimulus"":""img/red_lw/7.jpg"",""time"":352},{""stimulus"":""img/red_lw/8.jpg"",""time"":403},{""stimulus"":""img/red_lw/9.jpg"",""time"":451},{""stimulus"":""img/red_lw/10.jpg"",""time"":513},{""stimulus"":""img/red_lw/11.jpg"",""time"":551}]","[]"
"","","","choice","63d13b44f511eff0aef876f2","bdp_lott","Sat Mar 25 2023 15:46:32 GMT-0700 (Pacific Daylight Time)","185985","green","red","image-keyboard-response","80","54845","0.0-5.0-1.38","","71","","img/red_lw/choose11.jpg","2","187","red","0.5","0.5","0.5","l","",""
"","","","","63d13b44f511eff0aef876f2","bdp_lott","Sat Mar 25 2023 15:46:32 GMT-0700 (Pacific Daylight Time)","185985","green","red","animation","81","55446","0.0-5.0-2.38","","","","","","187","","","","","","[{""stimulus"":""img/red_ll/1.jpg"",""time"":57},{""stimulus"":""img/red_ll/2.jpg"",""time"":101},{""stimulus"":""img/red_ll/3.jpg"",""time"":151},{""stimulus"":""img/red_ll/4.jpg"",""time"":202},{""stimulus"":""img/red_ll/5.jpg"",""time"":259},{""stimulus"":""img/red_ll/6.jpg"",""time"":302},{""stimulus"":""img/red_ll/7.jpg"",""time"":351},{""stimulus"":""img/red_ll/8.jpg"",""time"":401},{""stimulus"":""img/red_ll/9.jpg"",""time"":452},{""stimulus"":""img/red_ll/10.jpg"",""time"":509},{""stimulus"":""img/red_ll/11.jpg"",""time"":555}]","[]"
"","","","choice","63d13b44f511eff0aef876f2","bdp_lott","Sat Mar 25 2023 15:46:32 GMT-0700 (Pacific Daylight Time)","185985","green","red","image-keyboard-response","82","55524","0.0-5.0-1.39","","77","","img/red_ll/choose11.jpg","2","186","red","0.5","0.5","0.5","w","",""
"","","","","63d13b44f511eff0aef876f2","bdp_lott","Sat Mar 25 2023 15:46:32 GMT-0700 (Pacific Daylight Time)","185985","green","red","animation","83","56125","0.0-5.0-2.39","","","","","","186","","","","","","[{""stimulus"":""img/red_lw/1.jpg"",""time"":63},{""stimulus"":""img/red_lw/2.jpg"",""time"":108},{""stimulus"":""img/red_lw/3.jpg"",""time"":154},{""stimulus"":""img/red_lw/4.jpg"",""time"":202},{""stimulus"":""img/red_lw/5.jpg"",""time"":262},{""stimulus"":""img/red_lw/6.jpg"",""time"":310},{""stimulus"":""img/red_lw/7.jpg"",""time"":351},{""stimulus"":""img/red_lw/8.jpg"",""time"":402},{""stimulus"":""img/red_lw/9.jpg"",""time"":452},{""stimulus"":""img/red_lw/10.jpg"",""time"":501},{""stimulus"":""img/red_lw/11.jpg"",""time"":551}]","[]"
"","","","choice","63d13b44f511eff0aef876f2","bdp_lott","Sat Mar 25 2023 15:46:32 GMT-0700 (Pacific Daylight Time)","185985","green","red","image-keyboard-response","84","56229","0.0-5.0-1.40","","103","","img/red_lw/choose11.jpg","2","185","red","0.5","0.5","0.5","l","",""
"","","","","63d13b44f511eff0aef876f2","bdp_lott","Sat Mar 25 2023 15:46:32 GMT-0700 (Pacific Daylight Time)","185985","green","red","animation","85","56835","0.0-5.0-2.40","","","","","","185","","","","","","[{""stimulus"":""img/red_ll/1.jpg"",""time"":54},{""stimulus"":""img/red_ll/2.jpg"",""time"":102},{""stimulus"":""img/red_ll/3.jpg"",""time"":165},{""stimulus"":""img/red_ll/4.jpg"",""time"":201},{""stimulus"":""img/red_ll/5.jpg"",""time"":251},{""stimulus"":""img/red_ll/6.jpg"",""time"":306},{""stimulus"":""img/red_ll/7.jpg"",""time"":351},{""stimulus"":""img/red_ll/8.jpg"",""time"":402},{""stimulus"":""img/red_ll/9.jpg"",""time"":452},{""stimulus"":""img/red_ll/10.jpg"",""time"":501},{""stimulus"":""img/red_ll/11.jpg"",""time"":551}]","[]"
"","","","choice","63d13b44f511eff0aef876f2","bdp_lott","Sat Mar 25 2023 15:46:32 GMT-0700 (Pacific Daylight Time)","185985","green","red","image-keyboard-response","86","56932","0.0-5.0-1.41","","97","","img/red_ll/choose11.jpg","2","184","red","0.5","0.5","0.5","l","",""
"","","","","63d13b44f511eff0aef876f2","bdp_lott","Sat Mar 25 2023 15:46:32 GMT-0700 (Pacific Daylight Time)","185985","green","red","animation","87","57532","0.0-5.0-2.41","","","","","","184","","","","","","[{""stimulus"":""img/red_ll/1.jpg"",""time"":60},{""stimulus"":""img/red_ll/2.jpg"",""time"":107},{""stimulus"":""img/red_ll/3.jpg"",""time"":152},{""stimulus"":""img/red_ll/4.jpg"",""time"":201},{""stimulus"":""img/red_ll/5.jpg"",""time"":251},{""stimulus"":""img/red_ll/6.jpg"",""time"":308},{""stimulus"":""img/red_ll/7.jpg"",""time"":351},{""stimulus"":""img/red_ll/8.jpg"",""time"":401},{""stimulus"":""img/red_ll/9.jpg"",""time"":462},{""stimulus"":""img/red_ll/10.jpg"",""time"":501},{""stimulus"":""img/red_ll/11.jpg"",""time"":556}]","[]"
"","","","choice","63d13b44f511eff0aef876f2","bdp_lott","Sat Mar 25 2023 15:46:32 GMT-0700 (Pacific Daylight Time)","185985","green","red","image-keyboard-response","88","57580","0.0-5.0-1.42","","47","","img/red_ll/choose11.jpg","2","183","red","0.5","0.5","0.5","w","",""
"","","","","63d13b44f511eff0aef876f2","bdp_lott","Sat Mar 25 2023 15:46:32 GMT-0700 (Pacific Daylight Time)","185985","green","red","animation","89","58188","0.0-5.0-2.42","","","","","","183","","","","","","[{""stimulus"":""img/red_lw/1.jpg"",""time"":65},{""stimulus"":""img/red_lw/2.jpg"",""time"":102},{""stimulus"":""img/red_lw/3.jpg"",""time"":152},{""stimulus"":""img/red_lw/4.jpg"",""time"":202},{""stimulus"":""img/red_lw/5.jpg"",""time"":251},{""stimulus"":""img/red_lw/6.jpg"",""time"":301},{""stimulus"":""img/red_lw/7.jpg"",""time"":351},{""stimulus"":""img/red_lw/8.jpg"",""time"":401},{""stimulus"":""img/red_lw/9.jpg"",""time"":451},{""stimulus"":""img/red_lw/10.jpg"",""time"":514},{""stimulus"":""img/red_lw/11.jpg"",""time"":552}]","[]"
"","","","choice","63d13b44f511eff0aef876f2","bdp_lott","Sat Mar 25 2023 15:46:32 GMT-0700 (Pacific Daylight Time)","185985","green","red","image-keyboard-response","90","58213","0.0-5.0-1.43","","24","","img/red_lw/choose11.jpg","2","182","red","0.5","0.5","0.5","l","",""
"","","","","63d13b44f511eff0aef876f2","bdp_lott","Sat Mar 25 2023 15:46:32 GMT-0700 (Pacific Daylight Time)","185985","green","red","animation","91","58814","0.0-5.0-2.43","","","","","","182","","","","","","[{""stimulus"":""img/red_ll/1.jpg"",""time"":51},{""stimulus"":""img/red_ll/2.jpg"",""time"":101},{""stimulus"":""img/red_ll/3.jpg"",""time"":151},{""stimulus"":""img/red_ll/4.jpg"",""time"":202},{""stimulus"":""img/red_ll/5.jpg"",""time"":251},{""stimulus"":""img/red_ll/6.jpg"",""time"":304},{""stimulus"":""img/red_ll/7.jpg"",""time"":366},{""stimulus"":""img/red_ll/8.jpg"",""time"":401},{""stimulus"":""img/red_ll/9.jpg"",""time"":451},{""stimulus"":""img/red_ll/10.jpg"",""time"":501},{""stimulus"":""img/red_ll/11.jpg"",""time"":550}]","[]"
"","","","choice","63d13b44f511eff0aef876f2","bdp_lott","Sat Mar 25 2023 15:46:32 GMT-0700 (Pacific Daylight Time)","185985","green","red","image-keyboard-response","92","58916","0.0-5.0-1.44","","102","","img/red_ll/choose11.jpg","2","181","red","0.5","0.5","0.5","w","",""
"","","","","63d13b44f511eff0aef876f2","bdp_lott","Sat Mar 25 2023 15:46:32 GMT-0700 (Pacific Daylight Time)","185985","green","red","animation","93","59517","0.0-5.0-2.44","","","","","","181","","","","","","[{""stimulus"":""img/red_lw/1.jpg"",""time"":54},{""stimulus"":""img/red_lw/2.jpg"",""time"":102},{""stimulus"":""img/red_lw/3.jpg"",""time"":163},{""stimulus"":""img/red_lw/4.jpg"",""time"":201},{""stimulus"":""img/red_lw/5.jpg"",""time"":251},{""stimulus"":""img/red_lw/6.jpg"",""time"":302},{""stimulus"":""img/red_lw/7.jpg"",""time"":352},{""stimulus"":""img/red_lw/8.jpg"",""time"":401},{""stimulus"":""img/red_lw/9.jpg"",""time"":450},{""stimulus"":""img/red_lw/10.jpg"",""time"":502},{""stimulus"":""img/red_lw/11.jpg"",""time"":551}]","[]"
"","","","choice","63d13b44f511eff0aef876f2","bdp_lott","Sat Mar 25 2023 15:46:32 GMT-0700 (Pacific Daylight Time)","185985","green","red","image-keyboard-response","94","59573","0.0-5.0-1.45","","55","","img/red_lw/choose11.jpg","2","180","red","0.5","0.5","0.5","w","",""
"","","","","63d13b44f511eff0aef876f2","bdp_lott","Sat Mar 25 2023 15:46:32 GMT-0700 (Pacific Daylight Time)","185985","green","red","animation","95","60174","0.0-5.0-2.45","","","","","","180","","","","","","[{""stimulus"":""img/red_lw/1.jpg"",""time"":64},{""stimulus"":""img/red_lw/2.jpg"",""time"":104},{""stimulus"":""img/red_lw/3.jpg"",""time"":157},{""stimulus"":""img/red_lw/4.jpg"",""time"":205},{""stimulus"":""img/red_lw/5.jpg"",""time"":251},{""stimulus"":""img/red_lw/6.jpg"",""time"":301},{""stimulus"":""img/red_lw/7.jpg"",""time"":350},{""stimulus"":""img/red_lw/8.jpg"",""time"":401},{""stimulus"":""img/red_lw/9.jpg"",""time"":456},{""stimulus"":""img/red_lw/10.jpg"",""time"":501},{""stimulus"":""img/red_lw/11.jpg"",""time"":551}]","[]"
"","","","choice","63d13b44f511eff0aef876f2","bdp_lott","Sat Mar 25 2023 15:46:32 GMT-0700 (Pacific Daylight Time)","185985","green","red","image-keyboard-response","96","60293","0.0-5.0-1.46","","118","","img/red_lw/choose11.jpg","2","179","red","0.5","0.5","0.5","w","",""
"","","","","63d13b44f511eff0aef876f2","bdp_lott","Sat Mar 25 2023 15:46:32 GMT-0700 (Pacific Daylight Time)","185985","green","red","animation","97","60893","0.0-5.0-2.46","","","","","","179","","","","","","[{""stimulus"":""img/red_lw/1.jpg"",""time"":63},{""stimulus"":""img/red_lw/2.jpg"",""time"":110},{""stimulus"":""img/red_lw/3.jpg"",""time"":156},{""stimulus"":""img/red_lw/4.jpg"",""time"":201},{""stimulus"":""img/red_lw/5.jpg"",""time"":251},{""stimulus"":""img/red_lw/6.jpg"",""time"":313},{""stimulus"":""img/red_lw/7.jpg"",""time"":359},{""stimulus"":""img/red_lw/8.jpg"",""time"":405},{""stimulus"":""img/red_lw/9.jpg"",""time"":452},{""stimulus"":""img/red_lw/10.jpg"",""time"":500},{""stimulus"":""img/red_lw/11.jpg"",""time"":550}]","[]"
"","","","choice","63d13b44f511eff0aef876f2","bdp_lott","Sat Mar 25 2023 15:46:32 GMT-0700 (Pacific Daylight Time)","185985","green","red","image-keyboard-response","98","60989","0.0-5.0-1.47","","95","","img/red_lw/choose11.jpg","2","178","red","0.5","0.5","0.5","w","",""
"","","","","63d13b44f511eff0aef876f2","bdp_lott","Sat Mar 25 2023 15:46:32 GMT-0700 (Pacific Daylight Time)","185985","green","red","animation","99","61591","0.0-5.0-2.47","","","","","","178","","","","","","[{""stimulus"":""img/red_lw/1.jpg"",""time"":51},{""stimulus"":""img/red_lw/2.jpg"",""time"":101},{""stimulus"":""img/red_lw/3.jpg"",""time"":152},{""stimulus"":""img/red_lw/4.jpg"",""time"":201},{""stimulus"":""img/red_lw/5.jpg"",""time"":251},{""stimulus"":""img/red_lw/6.jpg"",""time"":301},{""stimulus"":""img/red_lw/7.jpg"",""time"":352},{""stimulus"":""img/red_lw/8.jpg"",""time"":401},{""stimulus"":""img/red_lw/9.jpg"",""time"":451},{""stimulus"":""img/red_lw/10.jpg"",""time"":504},{""stimulus"":""img/red_lw/11.jpg"",""time"":551}]","[]"
"","","","choice","63d13b44f511eff0aef876f2","bdp_lott","Sat Mar 25 2023 15:46:32 GMT-0700 (Pacific Daylight Time)","185985","green","red","image-keyboard-response","100","61709","0.0-5.0-1.48","","118","","img/red_lw/choose11.jpg","2","177","red","0.5","0.5","0.5","l","",""
"","","","","63d13b44f511eff0aef876f2","bdp_lott","Sat Mar 25 2023 15:46:32 GMT-0700 (Pacific Daylight Time)","185985","green","red","animation","101","62309","0.0-5.0-2.48","","","","","","177","","","","","","[{""stimulus"":""img/red_ll/1.jpg"",""time"":62},{""stimulus"":""img/red_ll/2.jpg"",""time"":107},{""stimulus"":""img/red_ll/3.jpg"",""time"":154},{""stimulus"":""img/red_ll/4.jpg"",""time"":201},{""stimulus"":""img/red_ll/5.jpg"",""time"":251},{""stimulus"":""img/red_ll/6.jpg"",""time"":310},{""stimulus"":""img/red_ll/7.jpg"",""time"":351},{""stimulus"":""img/red_ll/8.jpg"",""time"":401},{""stimulus"":""img/red_ll/9.jpg"",""time"":451},{""stimulus"":""img/red_ll/10.jpg"",""time"":510},{""stimulus"":""img/red_ll/11.jpg"",""time"":551}]","[]"
"","","","choice","63d13b44f511eff0aef876f2","bdp_lott","Sat Mar 25 2023 15:46:32 GMT-0700 (Pacific Daylight Time)","185985","green","red","image-keyboard-response","102","62445","0.0-5.0-1.49","","135","","img/red_ll/choose11.jpg","2","176","red","0.5","0.5","0.5","w","",""
"","","","","63d13b44f511eff0aef876f2","bdp_lott","Sat Mar 25 2023 15:46:32 GMT-0700 (Pacific Daylight Time)","185985","green","red","animation","103","63047","0.0-5.0-2.49","","","","","","176","","","","","","[{""stimulus"":""img/red_lw/1.jpg"",""time"":56},{""stimulus"":""img/red_lw/2.jpg"",""time"":102},{""stimulus"":""img/red_lw/3.jpg"",""time"":166},{""stimulus"":""img/red_lw/4.jpg"",""time"":201},{""stimulus"":""img/red_lw/5.jpg"",""time"":250},{""stimulus"":""img/red_lw/6.jpg"",""time"":301},{""stimulus"":""img/red_lw/7.jpg"",""time"":353},{""stimulus"":""img/red_lw/8.jpg"",""time"":402},{""stimulus"":""img/red_lw/9.jpg"",""time"":451},{""stimulus"":""img/red_lw/10.jpg"",""time"":508},{""stimulus"":""img/red_lw/11.jpg"",""time"":551}]","[]"
"","","","choice","63d13b44f511eff0aef876f2","bdp_lott","Sat Mar 25 2023 15:46:32 GMT-0700 (Pacific Daylight Time)","185985","green","red","image-keyboard-response","104","63198","0.0-5.0-1.50","","151","","img/red_lw/choose11.jpg","2","175","red","0.5","0.5","0.5","w","",""
"","","","","63d13b44f511eff0aef876f2","bdp_lott","Sat Mar 25 2023 15:46:32 GMT-0700 (Pacific Daylight Time)","185985","green","red","animation","105","63800","0.0-5.0-2.50","","","","","","175","","","","","","[{""stimulus"":""img/red_lw/1.jpg"",""time"":64},{""stimulus"":""img/red_lw/2.jpg"",""time"":111},{""stimulus"":""img/red_lw/3.jpg"",""time"":150},{""stimulus"":""img/red_lw/4.jpg"",""time"":201},{""stimulus"":""img/red_lw/5.jpg"",""time"":252},{""stimulus"":""img/red_lw/6.jpg"",""time"":312},{""stimulus"":""img/red_lw/7.jpg"",""time"":351},{""stimulus"":""img/red_lw/8.jpg"",""time"":402},{""stimulus"":""img/red_lw/9.jpg"",""time"":451},{""stimulus"":""img/red_lw/10.jpg"",""time"":501},{""stimulus"":""img/red_lw/11.jpg"",""time"":564}]","[]"
"","","","choice","63d13b44f511eff0aef876f2","bdp_lott","Sat Mar 25 2023 15:46:32 GMT-0700 (Pacific Daylight Time)","185985","green","red","image-keyboard-response","106","64028","0.0-5.0-1.51","","228","","img/red_lw/choose11.jpg","1","174","green","0.5","0.5","0.5","l","",""
"","","","","63d13b44f511eff0aef876f2","bdp_lott","Sat Mar 25 2023 15:46:32 GMT-0700 (Pacific Daylight Time)","185985","green","red","animation","107","64628","0.0-5.0-2.51","","","","","","174","","","","","","[{""stimulus"":""img/green_lw/1.jpg"",""time"":61},{""stimulus"":""img/green_lw/2.jpg"",""time"":101},{""stimulus"":""img/green_lw/3.jpg"",""time"":151},{""stimulus"":""img/green_lw/4.jpg"",""time"":201},{""stimulus"":""img/green_lw/5.jpg"",""time"":263},{""stimulus"":""img/green_lw/6.jpg"",""time"":301},{""stimulus"":""img/green_lw/7.jpg"",""time"":351},{""stimulus"":""img/green_lw/8.jpg"",""time"":402},{""stimulus"":""img/green_lw/9.jpg"",""time"":452},{""stimulus"":""img/green_lw/10.jpg"",""time"":500},{""stimulus"":""img/green_lw/11.jpg"",""time"":551}]","[]"
"","","","choice","63d13b44f511eff0aef876f2","bdp_lott","Sat Mar 25 2023 15:46:32 GMT-0700 (Pacific Daylight Time)","185985","green","red","image-keyboard-response","108","64716","0.0-5.0-1.52","","87","","img/green_lw/choose11.jpg","1","173","green","0.5","0.5","0.5","w","",""
"","","","","63d13b44f511eff0aef876f2","bdp_lott","Sat Mar 25 2023 15:46:32 GMT-0700 (Pacific Daylight Time)","185985","green","red","animation","109","65318","0.0-5.0-2.52","","","","","","173","","","","","","[{""stimulus"":""img/green_ww/1.jpg"",""time"":60},{""stimulus"":""img/green_ww/2.jpg"",""time"":106},{""stimulus"":""img/green_ww/3.jpg"",""time"":153},{""stimulus"":""img/green_ww/4.jpg"",""time"":202},{""stimulus"":""img/green_ww/5.jpg"",""time"":262},{""stimulus"":""img/green_ww/6.jpg"",""time"":301},{""stimulus"":""img/green_ww/7.jpg"",""time"":355},{""stimulus"":""img/green_ww/8.jpg"",""time"":402},{""stimulus"":""img/green_ww/9.jpg"",""time"":451},{""stimulus"":""img/green_ww/10.jpg"",""time"":510},{""stimulus"":""img/green_ww/11.jpg"",""time"":551}]","[]"
"","","","choice","63d13b44f511eff0aef876f2","bdp_lott","Sat Mar 25 2023 15:46:32 GMT-0700 (Pacific Daylight Time)","185985","green","red","image-keyboard-response","110","65389","0.0-5.0-1.53","","70","","img/green_ww/choose11.jpg","1","172","green","0.5","0.5","0.5","w","",""
"","","","","63d13b44f511eff0aef876f2","bdp_lott","Sat Mar 25 2023 15:46:32 GMT-0700 (Pacific Daylight Time)","185985","green","red","animation","111","65990","0.0-5.0-2.53","","","","","","172","","","","","","[{""stimulus"":""img/green_ww/1.jpg"",""time"":52},{""stimulus"":""img/green_ww/2.jpg"",""time"":113},{""stimulus"":""img/green_ww/3.jpg"",""time"":151},{""stimulus"":""img/green_ww/4.jpg"",""time"":201},{""stimulus"":""img/green_ww/5.jpg"",""time"":253},{""stimulus"":""img/green_ww/6.jpg"",""time"":301},{""stimulus"":""img/green_ww/7.jpg"",""time"":351},{""stimulus"":""img/green_ww/8.jpg"",""time"":401},{""stimulus"":""img/green_ww/9.jpg"",""time"":451},{""stimulus"":""img/green_ww/10.jpg"",""time"":501},{""stimulus"":""img/green_ww/11.jpg"",""time"":562}]","[]"
"","","","choice","63d13b44f511eff0aef876f2","bdp_lott","Sat Mar 25 2023 15:46:32 GMT-0700 (Pacific Daylight Time)","185985","green","red","image-keyboard-response","112","66076","0.0-5.0-1.54","","86","","img/green_ww/choose11.jpg","1","171","green","0.5","0.5","0.5","w","",""
"","","","","63d13b44f511eff0aef876f2","bdp_lott","Sat Mar 25 2023 15:46:32 GMT-0700 (Pacific Daylight Time)","185985","green","red","animation","113","66677","0.0-5.0-2.54","","","","","","171","","","","","","[{""stimulus"":""img/green_ww/1.jpg"",""time"":60},{""stimulus"":""img/green_ww/2.jpg"",""time"":101},{""stimulus"":""img/green_ww/3.jpg"",""time"":151},{""stimulus"":""img/green_ww/4.jpg"",""time"":213},{""stimulus"":""img/green_ww/5.jpg"",""time"":251},{""stimulus"":""img/green_ww/6.jpg"",""time"":302},{""stimulus"":""img/green_ww/7.jpg"",""time"":352},{""stimulus"":""img/green_ww/8.jpg"",""time"":401},{""stimulus"":""img/green_ww/9.jpg"",""time"":451},{""stimulus"":""img/green_ww/10.jpg"",""time"":501},{""stimulus"":""img/green_ww/11.jpg"",""time"":551}]","[]"
"","","","choice","63d13b44f511eff0aef876f2","bdp_lott","Sat Mar 25 2023 15:46:32 GMT-0700 (Pacific Daylight Time)","185985","green","red","image-keyboard-response","114","66781","0.0-5.0-1.55","","103","","img/green_ww/choose11.jpg","1","170","green","0.5","0.5","0.5","w","",""
"","","","","63d13b44f511eff0aef876f2","bdp_lott","Sat Mar 25 2023 15:46:32 GMT-0700 (Pacific Daylight Time)","185985","green","red","animation","115","67382","0.0-5.0-2.55","","","","","","170","","","","","","[{""stimulus"":""img/green_ww/1.jpg"",""time"":64},{""stimulus"":""img/green_ww/2.jpg"",""time"":111},{""stimulus"":""img/green_ww/3.jpg"",""time"":152},{""stimulus"":""img/green_ww/4.jpg"",""time"":201},{""stimulus"":""img/green_ww/5.jpg"",""time"":252},{""stimulus"":""img/green_ww/6.jpg"",""time"":301},{""stimulus"":""img/green_ww/7.jpg"",""time"":351},{""stimulus"":""img/green_ww/8.jpg"",""time"":401},{""stimulus"":""img/green_ww/9.jpg"",""time"":455},{""stimulus"":""img/green_ww/10.jpg"",""time"":501},{""stimulus"":""img/green_ww/11.jpg"",""time"":552}]","[]"
"","","","choice","63d13b44f511eff0aef876f2","bdp_lott","Sat Mar 25 2023 15:46:32 GMT-0700 (Pacific Daylight Time)","185985","green","red","image-keyboard-response","116","67453","0.0-5.0-1.56","","70","","img/green_ww/choose11.jpg","1","169","green","0.5","0.5","0.5","w","",""
"","","","","63d13b44f511eff0aef876f2","bdp_lott","Sat Mar 25 2023 15:46:32 GMT-0700 (Pacific Daylight Time)","185985","green","red","animation","117","68054","0.0-5.0-2.56","","","","","","169","","","","","","[{""stimulus"":""img/green_ww/1.jpg"",""time"":63},{""stimulus"":""img/green_ww/2.jpg"",""time"":100},{""stimulus"":""img/green_ww/3.jpg"",""time"":152},{""stimulus"":""img/green_ww/4.jpg"",""time"":201},{""stimulus"":""img/green_ww/5.jpg"",""time"":251},{""stimulus"":""img/green_ww/6.jpg"",""time"":312},{""stimulus"":""img/green_ww/7.jpg"",""time"":352},{""stimulus"":""img/green_ww/8.jpg"",""time"":401},{""stimulus"":""img/green_ww/9.jpg"",""time"":451},{""stimulus"":""img/green_ww/10.jpg"",""time"":500},{""stimulus"":""img/green_ww/11.jpg"",""time"":551}]","[]"
"","","","choice","63d13b44f511eff0aef876f2","bdp_lott","Sat Mar 25 2023 15:46:32 GMT-0700 (Pacific Daylight Time)","185985","green","red","image-keyboard-response","118","68117","0.0-5.0-1.57","","63","","img/green_ww/choose11.jpg","1","168","green","0.5","0.5","0.5","l","",""
"","","","","63d13b44f511eff0aef876f2","bdp_lott","Sat Mar 25 2023 15:46:32 GMT-0700 (Pacific Daylight Time)","185985","green","red","animation","119","68717","0.0-5.0-2.57","","","","","","168","","","","","","[{""stimulus"":""img/green_lw/1.jpg"",""time"":52},{""stimulus"":""img/green_lw/2.jpg"",""time"":101},{""stimulus"":""img/green_lw/3.jpg"",""time"":161},{""stimulus"":""img/green_lw/4.jpg"",""time"":201},{""stimulus"":""img/green_lw/5.jpg"",""time"":254},{""stimulus"":""img/green_lw/6.jpg"",""time"":301},{""stimulus"":""img/green_lw/7.jpg"",""time"":352},{""stimulus"":""img/green_lw/8.jpg"",""time"":402},{""stimulus"":""img/green_lw/9.jpg"",""time"":451},{""stimulus"":""img/green_lw/10.jpg"",""time"":503},{""stimulus"":""img/green_lw/11.jpg"",""time"":551}]","[]"
"","","","choice","63d13b44f511eff0aef876f2","bdp_lott","Sat Mar 25 2023 15:46:32 GMT-0700 (Pacific Daylight Time)","185985","green","red","image-keyboard-response","120","68821","0.0-5.0-1.58","","103","","img/green_lw/choose11.jpg","1","167","green","0.5","0.5","0.5","l","",""
"","","","","63d13b44f511eff0aef876f2","bdp_lott","Sat Mar 25 2023 15:46:32 GMT-0700 (Pacific Daylight Time)","185985","green","red","animation","121","69422","0.0-5.0-2.58","","","","","","167","","","","","","[{""stimulus"":""img/green_lw/1.jpg"",""time"":62},{""stimulus"":""img/green_lw/2.jpg"",""time"":101},{""stimulus"":""img/green_lw/3.jpg"",""time"":152},{""stimulus"":""img/green_lw/4.jpg"",""time"":201},{""stimulus"":""img/green_lw/5.jpg"",""time"":252},{""stimulus"":""img/green_lw/6.jpg"",""time"":311},{""stimulus"":""img/green_lw/7.jpg"",""time"":352},{""stimulus"":""img/green_lw/8.jpg"",""time"":401},{""stimulus"":""img/green_lw/9.jpg"",""time"":451},{""stimulus"":""img/green_lw/10.jpg"",""time"":516},{""stimulus"":""img/green_lw/11.jpg"",""time"":551}]","[]"
"","","","choice","63d13b44f511eff0aef876f2","bdp_lott","Sat Mar 25 2023 15:46:32 GMT-0700 (Pacific Daylight Time)","185985","green","red","image-keyboard-response","122","69476","0.0-5.0-1.59","","53","","img/green_lw/choose11.jpg","1","166","green","0.5","0.5","0.5","l","",""
"","","","","63d13b44f511eff0aef876f2","bdp_lott","Sat Mar 25 2023 15:46:32 GMT-0700 (Pacific Daylight Time)","185985","green","red","animation","123","70084","0.0-5.0-2.59","","","","","","166","","","","","","[{""stimulus"":""img/green_lw/1.jpg"",""time"":61},{""stimulus"":""img/green_lw/2.jpg"",""time"":101},{""stimulus"":""img/green_lw/3.jpg"",""time"":154},{""stimulus"":""img/green_lw/4.jpg"",""time"":202},{""stimulus"":""img/green_lw/5.jpg"",""time"":263},{""stimulus"":""img/green_lw/6.jpg"",""time"":311},{""stimulus"":""img/green_lw/7.jpg"",""time"":351},{""stimulus"":""img/green_lw/8.jpg"",""time"":406},{""stimulus"":""img/green_lw/9.jpg"",""time"":451},{""stimulus"":""img/green_lw/10.jpg"",""time"":501},{""stimulus"":""img/green_lw/11.jpg"",""time"":551}]","[]"
"","","","choice","63d13b44f511eff0aef876f2","bdp_lott","Sat Mar 25 2023 15:46:32 GMT-0700 (Pacific Daylight Time)","185985","green","red","image-keyboard-response","124","70109","0.0-5.0-1.60","","24","","img/green_lw/choose11.jpg","1","165","green","0.5","0.5","0.5","w","",""
"","","","","63d13b44f511eff0aef876f2","bdp_lott","Sat Mar 25 2023 15:46:32 GMT-0700 (Pacific Daylight Time)","185985","green","red","animation","125","70710","0.0-5.0-2.60","","","","","","165","","","","","","[{""stimulus"":""img/green_ww/1.jpg"",""time"":52},{""stimulus"":""img/green_ww/2.jpg"",""time"":102},{""stimulus"":""img/green_ww/3.jpg"",""time"":151},{""stimulus"":""img/green_ww/4.jpg"",""time"":202},{""stimulus"":""img/green_ww/5.jpg"",""time"":251},{""stimulus"":""img/green_ww/6.jpg"",""time"":301},{""stimulus"":""img/green_ww/7.jpg"",""time"":353},{""stimulus"":""img/green_ww/8.jpg"",""time"":415},{""stimulus"":""img/green_ww/9.jpg"",""time"":451},{""stimulus"":""img/green_ww/10.jpg"",""time"":511},{""stimulus"":""img/green_ww/11.jpg"",""time"":552}]","[]"
"","","","choice","63d13b44f511eff0aef876f2","bdp_lott","Sat Mar 25 2023 15:46:32 GMT-0700 (Pacific Daylight Time)","185985","green","red","image-keyboard-response","126","70749","0.0-5.0-1.61","","38","","img/green_ww/choose11.jpg","1","164","green","0.5","0.5","0.5","w","",""
"","","","","63d13b44f511eff0aef876f2","bdp_lott","Sat Mar 25 2023 15:46:32 GMT-0700 (Pacific Daylight Time)","185985","green","red","animation","127","71351","0.0-5.0-2.61","","","","","","164","","","","","","[{""stimulus"":""img/green_ww/1.jpg"",""time"":52},{""stimulus"":""img/green_ww/2.jpg"",""time"":105},{""stimulus"":""img/green_ww/3.jpg"",""time"":152},{""stimulus"":""img/green_ww/4.jpg"",""time"":201},{""stimulus"":""img/green_ww/5.jpg"",""time"":252},{""stimulus"":""img/green_ww/6.jpg"",""time"":302},{""stimulus"":""img/green_ww/7.jpg"",""time"":351},{""stimulus"":""img/green_ww/8.jpg"",""time"":402},{""stimulus"":""img/green_ww/9.jpg"",""time"":451},{""stimulus"":""img/green_ww/10.jpg"",""time"":502},{""stimulus"":""img/green_ww/11.jpg"",""time"":552}]","[]"
"","","","choice","63d13b44f511eff0aef876f2","bdp_lott","Sat Mar 25 2023 15:46:32 GMT-0700 (Pacific Daylight Time)","185985","green","red","image-keyboard-response","128","71437","0.0-5.0-1.62","","85","","img/green_ww/choose11.jpg","1","163","green","0.5","0.5","0.5","w","",""
"","","","","63d13b44f511eff0aef876f2","bdp_lott","Sat Mar 25 2023 15:46:32 GMT-0700 (Pacific Daylight Time)","185985","green","red","animation","129","72038","0.0-5.0-2.62","","","","","","163","","","","","","[{""stimulus"":""img/green_ww/1.jpg"",""time"":56},{""stimulus"":""img/green_ww/2.jpg"",""time"":117},{""stimulus"":""img/green_ww/3.jpg"",""time"":152},{""stimulus"":""img/green_ww/4.jpg"",""time"":201},{""stimulus"":""img/green_ww/5.jpg"",""time"":258},{""stimulus"":""img/green_ww/6.jpg"",""time"":301},{""stimulus"":""img/green_ww/7.jpg"",""time"":365},{""stimulus"":""img/green_ww/8.jpg"",""time"":400},{""stimulus"":""img/green_ww/9.jpg"",""time"":457},{""stimulus"":""img/green_ww/10.jpg"",""time"":501},{""stimulus"":""img/green_ww/11.jpg"",""time"":551}]","[]"
"","","","choice","63d13b44f511eff0aef876f2","bdp_lott","Sat Mar 25 2023 15:46:32 GMT-0700 (Pacific Daylight Time)","185985","green","red","image-keyboard-response","130","72053","0.0-5.0-1.63","","14","","img/green_ww/choose11.jpg","1","162","green","0.5","0.5","0.5","w","",""
"","","","","63d13b44f511eff0aef876f2","bdp_lott","Sat Mar 25 2023 15:46:32 GMT-0700 (Pacific Daylight Time)","185985","green","red","animation","131","72655","0.0-5.0-2.63","","","","","","162","","","","","","[{""stimulus"":""img/green_ww/1.jpg"",""time"":51},{""stimulus"":""img/green_ww/2.jpg"",""time"":103},{""stimulus"":""img/green_ww/3.jpg"",""time"":151},{""stimulus"":""img/green_ww/4.jpg"",""time"":213},{""stimulus"":""img/green_ww/5.jpg"",""time"":261},{""stimulus"":""img/green_ww/6.jpg"",""time"":306},{""stimulus"":""img/green_ww/7.jpg"",""time"":353},{""stimulus"":""img/green_ww/8.jpg"",""time"":401},{""stimulus"":""img/green_ww/9.jpg"",""time"":451},{""stimulus"":""img/green_ww/10.jpg"",""time"":508},{""stimulus"":""img/green_ww/11.jpg"",""time"":556}]","[]"
"","","","choice","63d13b44f511eff0aef876f2","bdp_lott","Sat Mar 25 2023 15:46:32 GMT-0700 (Pacific Daylight Time)","185985","green","red","image-keyboard-response","132","72701","0.0-5.0-1.64","","45","","img/green_ww/choose11.jpg","1","161","green","0.5","0.5","0.5","w","",""
"","","","","63d13b44f511eff0aef876f2","bdp_lott","Sat Mar 25 2023 15:46:32 GMT-0700 (Pacific Daylight Time)","185985","green","red","animation","133","73302","0.0-5.0-2.64","","","","","","161","","","","","","[{""stimulus"":""img/green_ww/1.jpg"",""time"":52},{""stimulus"":""img/green_ww/2.jpg"",""time"":101},{""stimulus"":""img/green_ww/3.jpg"",""time"":157},{""stimulus"":""img/green_ww/4.jpg"",""time"":201},{""stimulus"":""img/green_ww/5.jpg"",""time"":265},{""stimulus"":""img/green_ww/6.jpg"",""time"":302},{""stimulus"":""img/green_ww/7.jpg"",""time"":351},{""stimulus"":""img/green_ww/8.jpg"",""time"":401},{""stimulus"":""img/green_ww/9.jpg"",""time"":451},{""stimulus"":""img/green_ww/10.jpg"",""time"":502},{""stimulus"":""img/green_ww/11.jpg"",""time"":552}]","[]"
"","","","choice","63d13b44f511eff0aef876f2","bdp_lott","Sat Mar 25 2023 15:46:32 GMT-0700 (Pacific Daylight Time)","185985","green","red","image-keyboard-response","134","73830","0.0-5.0-1.65","","528","","img/green_ww/choose11.jpg","1","160","green","0.5","0.5","0.5","w","",""
"","","","","63d13b44f511eff0aef876f2","bdp_lott","Sat Mar 25 2023 15:46:32 GMT-0700 (Pacific Daylight Time)","185985","green","red","animation","135","74430","0.0-5.0-2.65","","","","","","160","","","","","","[{""stimulus"":""img/green_ww/1.jpg"",""time"":61},{""stimulus"":""img/green_ww/2.jpg"",""time"":107},{""stimulus"":""img/green_ww/3.jpg"",""time"":151},{""stimulus"":""img/green_ww/4.jpg"",""time"":201},{""stimulus"":""img/green_ww/5.jpg"",""time"":251},{""stimulus"":""img/green_ww/6.jpg"",""time"":301},{""stimulus"":""img/green_ww/7.jpg"",""time"":351},{""stimulus"":""img/green_ww/8.jpg"",""time"":401},{""stimulus"":""img/green_ww/9.jpg"",""time"":451},{""stimulus"":""img/green_ww/10.jpg"",""time"":501},{""stimulus"":""img/green_ww/11.jpg"",""time"":551}]","[]"
"","","","choice","63d13b44f511eff0aef876f2","bdp_lott","Sat Mar 25 2023 15:46:32 GMT-0700 (Pacific Daylight Time)","185985","green","red","image-keyboard-response","136","74653","0.0-5.0-1.66","","223","","img/green_ww/choose11.jpg","2","159","red","0.5","0.5","0.5","l","",""
"","","","","63d13b44f511eff0aef876f2","bdp_lott","Sat Mar 25 2023 15:46:32 GMT-0700 (Pacific Daylight Time)","185985","green","red","animation","137","75254","0.0-5.0-2.66","","","","","","159","","","","","","[{""stimulus"":""img/red_wl/1.jpg"",""time"":62},{""stimulus"":""img/red_wl/2.jpg"",""time"":102},{""stimulus"":""img/red_wl/3.jpg"",""time"":152},{""stimulus"":""img/red_wl/4.jpg"",""time"":202},{""stimulus"":""img/red_wl/5.jpg"",""time"":264},{""stimulus"":""img/red_wl/6.jpg"",""time"":301},{""stimulus"":""img/red_wl/7.jpg"",""time"":351},{""stimulus"":""img/red_wl/8.jpg"",""time"":401},{""stimulus"":""img/red_wl/9.jpg"",""time"":452},{""stimulus"":""img/red_wl/10.jpg"",""time"":512},{""stimulus"":""img/red_wl/11.jpg"",""time"":552}]","[]"
"","","","choice","63d13b44f511eff0aef876f2","bdp_lott","Sat Mar 25 2023 15:46:32 GMT-0700 (Pacific Daylight Time)","185985","green","red","image-keyboard-response","138","75348","0.0-5.0-1.67","","94","","img/red_wl/choose11.jpg","2","158","red","0.5","0.5","0.5","w","",""
"","","","","63d13b44f511eff0aef876f2","bdp_lott","Sat Mar 25 2023 15:46:32 GMT-0700 (Pacific Daylight Time)","185985","green","red","animation","139","75949","0.0-5.0-2.67","","","","","","158","","","","","","[{""stimulus"":""img/red_ww/1.jpg"",""time"":64},{""stimulus"":""img/red_ww/2.jpg"",""time"":111},{""stimulus"":""img/red_ww/3.jpg"",""time"":157},{""stimulus"":""img/red_ww/4.jpg"",""time"":204},{""stimulus"":""img/red_ww/5.jpg"",""time"":251},{""stimulus"":""img/red_ww/6.jpg"",""time"":301},{""stimulus"":""img/red_ww/7.jpg"",""time"":351},{""stimulus"":""img/red_ww/8.jpg"",""time"":400},{""stimulus"":""img/red_ww/9.jpg"",""time"":451},{""stimulus"":""img/red_ww/10.jpg"",""time"":501},{""stimulus"":""img/red_ww/11.jpg"",""time"":561}]","[]"
"","","","choice","63d13b44f511eff0aef876f2","bdp_lott","Sat Mar 25 2023 15:46:32 GMT-0700 (Pacific Daylight Time)","185985","green","red","image-keyboard-response","140","75980","0.0-5.0-1.68","","31","","img/red_ww/choose11.jpg","2","157","red","0.5","0.5","0.5","l","",""
"","","","","63d13b44f511eff0aef876f2","bdp_lott","Sat Mar 25 2023 15:46:32 GMT-0700 (Pacific Daylight Time)","185985","green","red","animation","141","76581","0.0-5.0-2.68","","","","","","157","","","","","","[{""stimulus"":""img/red_wl/1.jpg"",""time"":51},{""stimulus"":""img/red_wl/2.jpg"",""time"":101},{""stimulus"":""img/red_wl/3.jpg"",""time"":164},{""stimulus"":""img/red_wl/4.jpg"",""time"":212},{""stimulus"":""img/red_wl/5.jpg"",""time"":251},{""stimulus"":""img/red_wl/6.jpg"",""time"":305},{""stimulus"":""img/red_wl/7.jpg"",""time"":353},{""stimulus"":""img/red_wl/8.jpg"",""time"":401},{""stimulus"":""img/red_wl/9.jpg"",""time"":450},{""stimulus"":""img/red_wl/10.jpg"",""time"":501},{""stimulus"":""img/red_wl/11.jpg"",""time"":553}]","[]"
"","","","choice","63d13b44f511eff0aef876f2","bdp_lott","Sat Mar 25 2023 15:46:32 GMT-0700 (Pacific Daylight Time)","185985","green","red","image-keyboard-response","142","76701","0.0-5.0-1.69","","119","","img/red_wl/choose11.jpg","2","156","red","0.5","0.5","0.5","l","",""
"","","","","63d13b44f511eff0aef876f2","bdp_lott","Sat Mar 25 2023 15:46:32 GMT-0700 (Pacific Daylight Time)","185985","green","red","animation","143","77302","0.0-5.0-2.69","","","","","","156","","","","","","[{""stimulus"":""img/red_wl/1.jpg"",""time"":65},{""stimulus"":""img/red_wl/2.jpg"",""time"":101},{""stimulus"":""img/red_wl/3.jpg"",""time"":151},{""stimulus"":""img/red_wl/4.jpg"",""time"":201},{""stimulus"":""img/red_wl/5.jpg"",""time"":251},{""stimulus"":""img/red_wl/6.jpg"",""time"":312},{""stimulus"":""img/red_wl/7.jpg"",""time"":358},{""stimulus"":""img/red_wl/8.jpg"",""time"":402},{""stimulus"":""img/red_wl/9.jpg"",""time"":451},{""stimulus"":""img/red_wl/10.jpg"",""time"":513},{""stimulus"":""img/red_wl/11.jpg"",""time"":560}]","[]"
"","","","choice","63d13b44f511eff0aef876f2","bdp_lott","Sat Mar 25 2023 15:46:32 GMT-0700 (Pacific Daylight Time)","185985","green","red","image-keyboard-response","144","77365","0.0-5.0-1.70","","61","","img/red_wl/choose11.jpg","2","155","red","0.5","0.5","0.5","l","",""
"","","","","63d13b44f511eff0aef876f2","bdp_lott","Sat Mar 25 2023 15:46:32 GMT-0700 (Pacific Daylight Time)","185985","green","red","animation","145","77965","0.0-5.0-2.70","","","","","","155","","","","","","[{""stimulus"":""img/red_wl/1.jpg"",""time"":51},{""stimulus"":""img/red_wl/2.jpg"",""time"":101},{""stimulus"":""img/red_wl/3.jpg"",""time"":161},{""stimulus"":""img/red_wl/4.jpg"",""time"":207},{""stimulus"":""img/red_wl/5.jpg"",""time"":250},{""stimulus"":""img/red_wl/6.jpg"",""time"":301},{""stimulus"":""img/red_wl/7.jpg"",""time"":351},{""stimulus"":""img/red_wl/8.jpg"",""time"":400},{""stimulus"":""img/red_wl/9.jpg"",""time"":451},{""stimulus"":""img/red_wl/10.jpg"",""time"":500},{""stimulus"":""img/red_wl/11.jpg"",""time"":550}]","[]"
"","","","choice","63d13b44f511eff0aef876f2","bdp_lott","Sat Mar 25 2023 15:46:32 GMT-0700 (Pacific Daylight Time)","185985","green","red","image-keyboard-response","146","78140","0.0-5.0-1.71","","174","","img/red_wl/choose11.jpg","1","154","green","0.5","0.5","0.5","l","",""
"","","","","63d13b44f511eff0aef876f2","bdp_lott","Sat Mar 25 2023 15:46:32 GMT-0700 (Pacific Daylight Time)","185985","green","red","animation","147","78741","0.0-5.0-2.71","","","","","","154","","","","","","[{""stimulus"":""img/green_ll/1.jpg"",""time"":56},{""stimulus"":""img/green_ll/2.jpg"",""time"":100},{""stimulus"":""img/green_ll/3.jpg"",""time"":151},{""stimulus"":""img/green_ll/4.jpg"",""time"":201},{""stimulus"":""img/green_ll/5.jpg"",""time"":250},{""stimulus"":""img/green_ll/6.jpg"",""time"":306},{""stimulus"":""img/green_ll/7.jpg"",""time"":351},{""stimulus"":""img/green_ll/8.jpg"",""time"":400},{""stimulus"":""img/green_ll/9.jpg"",""time"":462},{""stimulus"":""img/green_ll/10.jpg"",""time"":509},{""stimulus"":""img/green_ll/11.jpg"",""time"":555}]","[]"
"","","","choice","63d13b44f511eff0aef876f2","bdp_lott","Sat Mar 25 2023 15:46:32 GMT-0700 (Pacific Daylight Time)","185985","green","red","image-keyboard-response","148","78829","0.0-5.0-1.72","","87","","img/green_ll/choose11.jpg","1","153","green","0.5","0.5","0.5","l","",""
"","","","","63d13b44f511eff0aef876f2","bdp_lott","Sat Mar 25 2023 15:46:32 GMT-0700 (Pacific Daylight Time)","185985","green","red","animation","149","79430","0.0-5.0-2.72","","","","","","153","","","","","","[{""stimulus"":""img/green_ll/1.jpg"",""time"":53},{""stimulus"":""img/green_ll/2.jpg"",""time"":114},{""stimulus"":""img/green_ll/3.jpg"",""time"":151},{""stimulus"":""img/green_ll/4.jpg"",""time"":207},{""stimulus"":""img/green_ll/5.jpg"",""time"":251},{""stimulus"":""img/green_ll/6.jpg"",""time"":301},{""stimulus"":""img/green_ll/7.jpg"",""time"":351},{""stimulus"":""img/green_ll/8.jpg"",""time"":408},{""stimulus"":""img/green_ll/9.jpg"",""time"":451},{""stimulus"":""img/green_ll/10.jpg"",""time"":501},{""stimulus"":""img/green_ll/11.jpg"",""time"":551}]","[]"
"","","","choice","63d13b44f511eff0aef876f2","bdp_lott","Sat Mar 25 2023 15:46:32 GMT-0700 (Pacific Daylight Time)","185985","green","red","image-keyboard-response","150","79476","0.0-5.0-1.73","","45","","img/green_ll/choose11.jpg","1","152","green","0.5","0.5","0.5","w","",""
"","","","","63d13b44f511eff0aef876f2","bdp_lott","Sat Mar 25 2023 15:46:32 GMT-0700 (Pacific Daylight Time)","185985","green","red","animation","151","80091","0.0-5.0-2.73","","","","","","152","","","","","","[{""stimulus"":""img/green_wl/1.jpg"",""time"":54},{""stimulus"":""img/green_wl/2.jpg"",""time"":101},{""stimulus"":""img/green_wl/3.jpg"",""time"":164},{""stimulus"":""img/green_wl/4.jpg"",""time"":210},{""stimulus"":""img/green_wl/5.jpg"",""time"":250},{""stimulus"":""img/green_wl/6.jpg"",""time"":301},{""stimulus"":""img/green_wl/7.jpg"",""time"":350},{""stimulus"":""img/green_wl/8.jpg"",""time"":400},{""stimulus"":""img/green_wl/9.jpg"",""time"":450},{""stimulus"":""img/green_wl/10.jpg"",""time"":501},{""stimulus"":""img/green_wl/11.jpg"",""time"":554}]","[]"
"","","","choice","63d13b44f511eff0aef876f2","bdp_lott","Sat Mar 25 2023 15:46:32 GMT-0700 (Pacific Daylight Time)","185985","green","red","image-keyboard-response","152","80196","0.0-5.0-1.74","","105","","img/green_wl/choose11.jpg","1","151","green","0.5","0.5","0.5","l","",""
"","","","","63d13b44f511eff0aef876f2","bdp_lott","Sat Mar 25 2023 15:46:32 GMT-0700 (Pacific Daylight Time)","185985","green","red","animation","153","80797","0.0-5.0-2.74","","","","","","151","","","","","","[{""stimulus"":""img/green_ll/1.jpg"",""time"":53},{""stimulus"":""img/green_ll/2.jpg"",""time"":101},{""stimulus"":""img/green_ll/3.jpg"",""time"":162},{""stimulus"":""img/green_ll/4.jpg"",""time"":208},{""stimulus"":""img/green_ll/5.jpg"",""time"":252},{""stimulus"":""img/green_ll/6.jpg"",""time"":301},{""stimulus"":""img/green_ll/7.jpg"",""time"":351},{""stimulus"":""img/green_ll/8.jpg"",""time"":401},{""stimulus"":""img/green_ll/9.jpg"",""time"":450},{""stimulus"":""img/green_ll/10.jpg"",""time"":500},{""stimulus"":""img/green_ll/11.jpg"",""time"":551}]","[]"
"","","","choice","63d13b44f511eff0aef876f2","bdp_lott","Sat Mar 25 2023 15:46:32 GMT-0700 (Pacific Daylight Time)","185985","green","red","image-keyboard-response","154","80876","0.0-5.0-1.75","","78","","img/green_ll/choose11.jpg","1","150","green","0.5","0.5","0.5","w","",""
"","","","","63d13b44f511eff0aef876f2","bdp_lott","Sat Mar 25 2023 15:46:32 GMT-0700 (Pacific Daylight Time)","185985","green","red","animation","155","81476","0.0-5.0-2.75","","","","","","150","","","","","","[{""stimulus"":""img/green_wl/1.jpg"",""time"":60},{""stimulus"":""img/green_wl/2.jpg"",""time"":101},{""stimulus"":""img/green_wl/3.jpg"",""time"":151},{""stimulus"":""img/green_wl/4.jpg"",""time"":201},{""stimulus"":""img/green_wl/5.jpg"",""time"":251},{""stimulus"":""img/green_wl/6.jpg"",""time"":301},{""stimulus"":""img/green_wl/7.jpg"",""time"":351},{""stimulus"":""img/green_wl/8.jpg"",""time"":401},{""stimulus"":""img/green_wl/9.jpg"",""time"":450},{""stimulus"":""img/green_wl/10.jpg"",""time"":510},{""stimulus"":""img/green_wl/11.jpg"",""time"":551}]","[]"
"","","","choice","63d13b44f511eff0aef876f2","bdp_lott","Sat Mar 25 2023 15:46:32 GMT-0700 (Pacific Daylight Time)","185985","green","red","image-keyboard-response","156","81541","0.0-5.0-1.76","","64","","img/green_wl/choose11.jpg","1","149","green","0.5","0.1","0.5","w","",""
"","","","","63d13b44f511eff0aef876f2","bdp_lott","Sat Mar 25 2023 15:46:32 GMT-0700 (Pacific Daylight Time)","185985","green","red","animation","157","82142","0.0-5.0-2.76","","","","","","149","","","","","","[{""stimulus"":""img/green_wl/1.jpg"",""time"":62},{""stimulus"":""img/green_wl/2.jpg"",""time"":101},{""stimulus"":""img/green_wl/3.jpg"",""time"":151},{""stimulus"":""img/green_wl/4.jpg"",""time"":201},{""stimulus"":""img/green_wl/5.jpg"",""time"":252},{""stimulus"":""img/green_wl/6.jpg"",""time"":301},{""stimulus"":""img/green_wl/7.jpg"",""time"":351},{""stimulus"":""img/green_wl/8.jpg"",""time"":402},{""stimulus"":""img/green_wl/9.jpg"",""time"":464},{""stimulus"":""img/green_wl/10.jpg"",""time"":501},{""stimulus"":""img/green_wl/11.jpg"",""time"":551}]","[]"
"","","","choice","63d13b44f511eff0aef876f2","bdp_lott","Sat Mar 25 2023 15:46:32 GMT-0700 (Pacific Daylight Time)","185985","green","red","image-keyboard-response","158","82221","0.0-5.0-1.77","","77","","img/green_wl/choose11.jpg","1","148","green","0.5","0.1","0.5","l","",""
"","","","","63d13b44f511eff0aef876f2","bdp_lott","Sat Mar 25 2023 15:46:32 GMT-0700 (Pacific Daylight Time)","185985","green","red","animation","159","82821","0.0-5.0-2.77","","","","","","148","","","","","","[{""stimulus"":""img/green_ll/1.jpg"",""time"":64},{""stimulus"":""img/green_ll/2.jpg"",""time"":100},{""stimulus"":""img/green_ll/3.jpg"",""time"":152},{""stimulus"":""img/green_ll/4.jpg"",""time"":200},{""stimulus"":""img/green_ll/5.jpg"",""time"":251},{""stimulus"":""img/green_ll/6.jpg"",""time"":301},{""stimulus"":""img/green_ll/7.jpg"",""time"":358},{""stimulus"":""img/green_ll/8.jpg"",""time"":401},{""stimulus"":""img/green_ll/9.jpg"",""time"":451},{""stimulus"":""img/green_ll/10.jpg"",""time"":500},{""stimulus"":""img/green_ll/11.jpg"",""time"":551}]","[]"
"","","","choice","63d13b44f511eff0aef876f2","bdp_lott","Sat Mar 25 2023 15:46:32 GMT-0700 (Pacific Daylight Time)","185985","green","red","image-keyboard-response","160","82876","0.0-5.0-1.78","","55","","img/green_ll/choose11.jpg","1","147","green","0.5","0.1","0.5","l","",""
"","","","","63d13b44f511eff0aef876f2","bdp_lott","Sat Mar 25 2023 15:46:32 GMT-0700 (Pacific Daylight Time)","185985","green","red","animation","161","83477","0.0-5.0-2.78","","","","","","147","","","","","","[{""stimulus"":""img/green_ll/1.jpg"",""time"":59},{""stimulus"":""img/green_ll/2.jpg"",""time"":101},{""stimulus"":""img/green_ll/3.jpg"",""time"":154},{""stimulus"":""img/green_ll/4.jpg"",""time"":202},{""stimulus"":""img/green_ll/5.jpg"",""time"":264},{""stimulus"":""img/green_ll/6.jpg"",""time"":301},{""stimulus"":""img/green_ll/7.jpg"",""time"":352},{""stimulus"":""img/green_ll/8.jpg"",""time"":405},{""stimulus"":""img/green_ll/9.jpg"",""time"":451},{""stimulus"":""img/green_ll/10.jpg"",""time"":513},{""stimulus"":""img/green_ll/11.jpg"",""time"":551}]","[]"
"","","","choice","63d13b44f511eff0aef876f2","bdp_lott","Sat Mar 25 2023 15:46:32 GMT-0700 (Pacific Daylight Time)","185985","green","red","image-keyboard-response","162","83518","0.0-5.0-1.79","","40","","img/green_ll/choose11.jpg","1","146","green","0.5","0.1","0.5","l","",""
"","","","","63d13b44f511eff0aef876f2","bdp_lott","Sat Mar 25 2023 15:46:32 GMT-0700 (Pacific Daylight Time)","185985","green","red","animation","163","84119","0.0-5.0-2.79","","","","","","146","","","","","","[{""stimulus"":""img/green_ll/1.jpg"",""time"":54},{""stimulus"":""img/green_ll/2.jpg"",""time"":101},{""stimulus"":""img/green_ll/3.jpg"",""time"":159},{""stimulus"":""img/green_ll/4.jpg"",""time"":212},{""stimulus"":""img/green_ll/5.jpg"",""time"":252},{""stimulus"":""img/green_ll/6.jpg"",""time"":302},{""stimulus"":""img/green_ll/7.jpg"",""time"":351},{""stimulus"":""img/green_ll/8.jpg"",""time"":402},{""stimulus"":""img/green_ll/9.jpg"",""time"":451},{""stimulus"":""img/green_ll/10.jpg"",""time"":502},{""stimulus"":""img/green_ll/11.jpg"",""time"":552}]","[]"
"","","","choice","63d13b44f511eff0aef876f2","bdp_lott","Sat Mar 25 2023 15:46:32 GMT-0700 (Pacific Daylight Time)","185985","green","red","image-keyboard-response","164","84148","0.0-5.0-1.80","","29","","img/green_ll/choose11.jpg","1","145","green","0.5","0.1","0.5","l","",""
"","","","","63d13b44f511eff0aef876f2","bdp_lott","Sat Mar 25 2023 15:46:32 GMT-0700 (Pacific Daylight Time)","185985","green","red","animation","165","84748","0.0-5.0-2.80","","","","","","145","","","","","","[{""stimulus"":""img/green_ll/1.jpg"",""time"":51},{""stimulus"":""img/green_ll/2.jpg"",""time"":102},{""stimulus"":""img/green_ll/3.jpg"",""time"":151},{""stimulus"":""img/green_ll/4.jpg"",""time"":201},{""stimulus"":""img/green_ll/5.jpg"",""time"":251},{""stimulus"":""img/green_ll/6.jpg"",""time"":301},{""stimulus"":""img/green_ll/7.jpg"",""time"":352},{""stimulus"":""img/green_ll/8.jpg"",""time"":401},{""stimulus"":""img/green_ll/9.jpg"",""time"":451},{""stimulus"":""img/green_ll/10.jpg"",""time"":501},{""stimulus"":""img/green_ll/11.jpg"",""time"":551}]","[]"
"","","","choice","63d13b44f511eff0aef876f2","bdp_lott","Sat Mar 25 2023 15:46:32 GMT-0700 (Pacific Daylight Time)","185985","green","red","image-keyboard-response","166","85126","0.0-5.0-1.81","","377","","img/green_ll/choose11.jpg","2","144","red","0.5","0.1","0.1","l","",""
"","","","","63d13b44f511eff0aef876f2","bdp_lott","Sat Mar 25 2023 15:46:32 GMT-0700 (Pacific Daylight Time)","185985","green","red","animation","167","85727","0.0-5.0-2.81","","","","","","144","","","","","","[{""stimulus"":""img/red_ll/1.jpg"",""time"":53},{""stimulus"":""img/red_ll/2.jpg"",""time"":115},{""stimulus"":""img/red_ll/3.jpg"",""time"":161},{""stimulus"":""img/red_ll/4.jpg"",""time"":201},{""stimulus"":""img/red_ll/5.jpg"",""time"":251},{""stimulus"":""img/red_ll/6.jpg"",""time"":301},{""stimulus"":""img/red_ll/7.jpg"",""time"":351},{""stimulus"":""img/red_ll/8.jpg"",""time"":409},{""stimulus"":""img/red_ll/9.jpg"",""time"":450},{""stimulus"":""img/red_ll/10.jpg"",""time"":502},{""stimulus"":""img/red_ll/11.jpg"",""time"":552}]","[]"
"","","","choice","63d13b44f511eff0aef876f2","bdp_lott","Sat Mar 25 2023 15:46:32 GMT-0700 (Pacific Daylight Time)","185985","green","red","image-keyboard-response","168","85732","0.0-5.0-1.82","","5","","img/red_ll/choose11.jpg","2","143","red","0.5","0.1","0.1","l","",""
"","","","","63d13b44f511eff0aef876f2","bdp_lott","Sat Mar 25 2023 15:46:32 GMT-0700 (Pacific Daylight Time)","185985","green","red","animation","169","86333","0.0-5.0-2.82","","","","","","143","","","","","","[{""stimulus"":""img/red_ll/1.jpg"",""time"":51},{""stimulus"":""img/red_ll/2.jpg"",""time"":114},{""stimulus"":""img/red_ll/3.jpg"",""time"":161},{""stimulus"":""img/red_ll/4.jpg"",""time"":201},{""stimulus"":""img/red_ll/5.jpg"",""time"":255},{""stimulus"":""img/red_ll/6.jpg"",""time"":303},{""stimulus"":""img/red_ll/7.jpg"",""time"":364},{""stimulus"":""img/red_ll/8.jpg"",""time"":401},{""stimulus"":""img/red_ll/9.jpg"",""time"":451},{""stimulus"":""img/red_ll/10.jpg"",""time"":501},{""stimulus"":""img/red_ll/11.jpg"",""time"":551}]","[]"
"","","","choice","63d13b44f511eff0aef876f2","bdp_lott","Sat Mar 25 2023 15:46:32 GMT-0700 (Pacific Daylight Time)","185985","green","red","image-keyboard-response","170","86349","0.0-5.0-1.83","","15","","img/red_ll/choose11.jpg","2","142","red","0.5","0.1","0.1","l","",""
"","","","","63d13b44f511eff0aef876f2","bdp_lott","Sat Mar 25 2023 15:46:32 GMT-0700 (Pacific Daylight Time)","185985","green","red","animation","171","86950","0.0-5.0-2.83","","","","","","142","","","","","","[{""stimulus"":""img/red_ll/1.jpg"",""time"":57},{""stimulus"":""img/red_ll/2.jpg"",""time"":104},{""stimulus"":""img/red_ll/3.jpg"",""time"":151},{""stimulus"":""img/red_ll/4.jpg"",""time"":212},{""stimulus"":""img/red_ll/5.jpg"",""time"":259},{""stimulus"":""img/red_ll/6.jpg"",""time"":300},{""stimulus"":""img/red_ll/7.jpg"",""time"":351},{""stimulus"":""img/red_ll/8.jpg"",""time"":401},{""stimulus"":""img/red_ll/9.jpg"",""time"":451},{""stimulus"":""img/red_ll/10.jpg"",""time"":501},{""stimulus"":""img/red_ll/11.jpg"",""time"":550}]","[]"
"","","","choice","63d13b44f511eff0aef876f2","bdp_lott","Sat Mar 25 2023 15:46:32 GMT-0700 (Pacific Daylight Time)","185985","green","red","image-keyboard-response","172","86981","0.0-5.0-1.84","","30","","img/red_ll/choose11.jpg","2","141","red","0.5","0.1","0.1","l","",""
"","","","","63d13b44f511eff0aef876f2","bdp_lott","Sat Mar 25 2023 15:46:32 GMT-0700 (Pacific Daylight Time)","185985","green","red","animation","173","87581","0.0-5.0-2.84","","","","","","141","","","","","","[{""stimulus"":""img/red_ll/1.jpg"",""time"":65},{""stimulus"":""img/red_ll/2.jpg"",""time"":103},{""stimulus"":""img/red_ll/3.jpg"",""time"":153},{""stimulus"":""img/red_ll/4.jpg"",""time"":203},{""stimulus"":""img/red_ll/5.jpg"",""time"":252},{""stimulus"":""img/red_ll/6.jpg"",""time"":301},{""stimulus"":""img/red_ll/7.jpg"",""time"":352},{""stimulus"":""img/red_ll/8.jpg"",""time"":401},{""stimulus"":""img/red_ll/9.jpg"",""time"":451},{""stimulus"":""img/red_ll/10.jpg"",""time"":501},{""stimulus"":""img/red_ll/11.jpg"",""time"":563}]","[]"
"","","","choice","63d13b44f511eff0aef876f2","bdp_lott","Sat Mar 25 2023 15:46:32 GMT-0700 (Pacific Daylight Time)","185985","green","red","image-keyboard-response","174","87652","0.0-5.0-1.85","","70","","img/red_ll/choose11.jpg","2","140","red","0.5","0.1","0.1","l","",""
"","","","","63d13b44f511eff0aef876f2","bdp_lott","Sat Mar 25 2023 15:46:32 GMT-0700 (Pacific Daylight Time)","185985","green","red","animation","175","88256","0.0-5.0-2.85","","","","","","140","","","","","","[{""stimulus"":""img/red_ll/1.jpg"",""time"":61},{""stimulus"":""img/red_ll/2.jpg"",""time"":107},{""stimulus"":""img/red_ll/3.jpg"",""time"":153},{""stimulus"":""img/red_ll/4.jpg"",""time"":214},{""stimulus"":""img/red_ll/5.jpg"",""time"":261},{""stimulus"":""img/red_ll/6.jpg"",""time"":308},{""stimulus"":""img/red_ll/7.jpg"",""time"":352},{""stimulus"":""img/red_ll/8.jpg"",""time"":402},{""stimulus"":""img/red_ll/9.jpg"",""time"":452},{""stimulus"":""img/red_ll/10.jpg"",""time"":511},{""stimulus"":""img/red_ll/11.jpg"",""time"":557}]","[]"
"","","","choice","63d13b44f511eff0aef876f2","bdp_lott","Sat Mar 25 2023 15:46:32 GMT-0700 (Pacific Daylight Time)","185985","green","red","image-keyboard-response","176","88276","0.0-5.0-1.86","","19","","img/red_ll/choose11.jpg","2","139","red","0.5","0.1","0.1","l","",""
"","","","","63d13b44f511eff0aef876f2","bdp_lott","Sat Mar 25 2023 15:46:32 GMT-0700 (Pacific Daylight Time)","185985","green","red","animation","177","88877","0.0-5.0-2.86","","","","","","139","","","","","","[{""stimulus"":""img/red_ll/1.jpg"",""time"":51},{""stimulus"":""img/red_ll/2.jpg"",""time"":101},{""stimulus"":""img/red_ll/3.jpg"",""time"":166},{""stimulus"":""img/red_ll/4.jpg"",""time"":201},{""stimulus"":""img/red_ll/5.jpg"",""time"":258},{""stimulus"":""img/red_ll/6.jpg"",""time"":305},{""stimulus"":""img/red_ll/7.jpg"",""time"":350},{""stimulus"":""img/red_ll/8.jpg"",""time"":400},{""stimulus"":""img/red_ll/9.jpg"",""time"":451},{""stimulus"":""img/red_ll/10.jpg"",""time"":507},{""stimulus"":""img/red_ll/11.jpg"",""time"":554}]","[]"
"","","","choice","63d13b44f511eff0aef876f2","bdp_lott","Sat Mar 25 2023 15:46:32 GMT-0700 (Pacific Daylight Time)","185985","green","red","image-keyboard-response","178","89076","0.0-5.0-1.87","","198","","img/red_ll/choose11.jpg","1","138","green","0.5","0.1","0.5","w","",""
"","","","","63d13b44f511eff0aef876f2","bdp_lott","Sat Mar 25 2023 15:46:32 GMT-0700 (Pacific Daylight Time)","185985","green","red","animation","179","89676","0.0-5.0-2.87","","","","","","138","","","","","","[{""stimulus"":""img/green_wl/1.jpg"",""time"":64},{""stimulus"":""img/green_wl/2.jpg"",""time"":112},{""stimulus"":""img/green_wl/3.jpg"",""time"":151},{""stimulus"":""img/green_wl/4.jpg"",""time"":205},{""stimulus"":""img/green_wl/5.jpg"",""time"":250},{""stimulus"":""img/green_wl/6.jpg"",""time"":300},{""stimulus"":""img/green_wl/7.jpg"",""time"":361},{""stimulus"":""img/green_wl/8.jpg"",""time"":407},{""stimulus"":""img/green_wl/9.jpg"",""time"":451},{""stimulus"":""img/green_wl/10.jpg"",""time"":500},{""stimulus"":""img/green_wl/11.jpg"",""time"":551}]","[]"
"","","","choice","63d13b44f511eff0aef876f2","bdp_lott","Sat Mar 25 2023 15:46:32 GMT-0700 (Pacific Daylight Time)","185985","green","red","image-keyboard-response","180","89708","0.0-5.0-1.88","","32","","img/green_wl/choose11.jpg","1","137","green","0.5","0.1","0.5","l","",""
"","","","","63d13b44f511eff0aef876f2","bdp_lott","Sat Mar 25 2023 15:46:32 GMT-0700 (Pacific Daylight Time)","185985","green","red","animation","181","90309","0.0-5.0-2.88","","","","","","137","","","","","","[{""stimulus"":""img/green_ll/1.jpg"",""time"":51},{""stimulus"":""img/green_ll/2.jpg"",""time"":101},{""stimulus"":""img/green_ll/3.jpg"",""time"":163},{""stimulus"":""img/green_ll/4.jpg"",""time"":201},{""stimulus"":""img/green_ll/5.jpg"",""time"":258},{""stimulus"":""img/green_ll/6.jpg"",""time"":301},{""stimulus"":""img/green_ll/7.jpg"",""time"":351},{""stimulus"":""img/green_ll/8.jpg"",""time"":400},{""stimulus"":""img/green_ll/9.jpg"",""time"":450},{""stimulus"":""img/green_ll/10.jpg"",""time"":504},{""stimulus"":""img/green_ll/11.jpg"",""time"":551}]","[]"
"","","","choice","63d13b44f511eff0aef876f2","bdp_lott","Sat Mar 25 2023 15:46:32 GMT-0700 (Pacific Daylight Time)","185985","green","red","image-keyboard-response","182","90324","0.0-5.0-1.89","","15","","img/green_ll/choose11.jpg","1","136","green","0.5","0.1","0.5","l","",""
"","","","","63d13b44f511eff0aef876f2","bdp_lott","Sat Mar 25 2023 15:46:32 GMT-0700 (Pacific Daylight Time)","185985","green","red","animation","183","90924","0.0-5.0-2.89","","","","","","136","","","","","","[{""stimulus"":""img/green_ll/1.jpg"",""time"":51},{""stimulus"":""img/green_ll/2.jpg"",""time"":101},{""stimulus"":""img/green_ll/3.jpg"",""time"":150},{""stimulus"":""img/green_ll/4.jpg"",""time"":201},{""stimulus"":""img/green_ll/5.jpg"",""time"":263},{""stimulus"":""img/green_ll/6.jpg"",""time"":301},{""stimulus"":""img/green_ll/7.jpg"",""time"":350},{""stimulus"":""img/green_ll/8.jpg"",""time"":401},{""stimulus"":""img/green_ll/9.jpg"",""time"":450},{""stimulus"":""img/green_ll/10.jpg"",""time"":501},{""stimulus"":""img/green_ll/11.jpg"",""time"":551}]","[]"
"","","","choice","63d13b44f511eff0aef876f2","bdp_lott","Sat Mar 25 2023 15:46:32 GMT-0700 (Pacific Daylight Time)","185985","green","red","image-keyboard-response","184","91021","0.0-5.0-1.90","","96","","img/green_ll/choose11.jpg","1","135","green","0.5","0.1","0.5","l","",""
"","","","","63d13b44f511eff0aef876f2","bdp_lott","Sat Mar 25 2023 15:46:32 GMT-0700 (Pacific Daylight Time)","185985","green","red","animation","185","91622","0.0-5.0-2.90","","","","","","135","","","","","","[{""stimulus"":""img/green_ll/1.jpg"",""time"":62},{""stimulus"":""img/green_ll/2.jpg"",""time"":109},{""stimulus"":""img/green_ll/3.jpg"",""time"":151},{""stimulus"":""img/green_ll/4.jpg"",""time"":216},{""stimulus"":""img/green_ll/5.jpg"",""time"":252},{""stimulus"":""img/green_ll/6.jpg"",""time"":302},{""stimulus"":""img/green_ll/7.jpg"",""time"":352},{""stimulus"":""img/green_ll/8.jpg"",""time"":401},{""stimulus"":""img/green_ll/9.jpg"",""time"":451},{""stimulus"":""img/green_ll/10.jpg"",""time"":501},{""stimulus"":""img/green_ll/11.jpg"",""time"":551}]","[]"
"","","","choice","63d13b44f511eff0aef876f2","bdp_lott","Sat Mar 25 2023 15:46:32 GMT-0700 (Pacific Daylight Time)","185985","green","red","image-keyboard-response","186","91701","0.0-5.0-1.91","","79","","img/green_ll/choose11.jpg","1","134","green","0.5","0.1","0.5","w","",""
"","","","","63d13b44f511eff0aef876f2","bdp_lott","Sat Mar 25 2023 15:46:32 GMT-0700 (Pacific Daylight Time)","185985","green","red","animation","187","92302","0.0-5.0-2.91","","","","","","134","","","","","","[{""stimulus"":""img/green_wl/1.jpg"",""time"":66},{""stimulus"":""img/green_wl/2.jpg"",""time"":105},{""stimulus"":""img/green_wl/3.jpg"",""time"":154},{""stimulus"":""img/green_wl/4.jpg"",""time"":205},{""stimulus"":""img/green_wl/5.jpg"",""time"":251},{""stimulus"":""img/green_wl/6.jpg"",""time"":301},{""stimulus"":""img/green_wl/7.jpg"",""time"":359},{""stimulus"":""img/green_wl/8.jpg"",""time"":405},{""stimulus"":""img/green_wl/9.jpg"",""time"":451},{""stimulus"":""img/green_wl/10.jpg"",""time"":515},{""stimulus"":""img/green_wl/11.jpg"",""time"":551}]","[]"
"","","","choice","63d13b44f511eff0aef876f2","bdp_lott","Sat Mar 25 2023 15:46:32 GMT-0700 (Pacific Daylight Time)","185985","green","red","image-keyboard-response","188","92380","0.0-5.0-1.92","","77","","img/green_wl/choose11.jpg","1","133","green","0.5","0.1","0.5","w","",""
"","","","","63d13b44f511eff0aef876f2","bdp_lott","Sat Mar 25 2023 15:46:32 GMT-0700 (Pacific Daylight Time)","185985","green","red","animation","189","92980","0.0-5.0-2.92","","","","","","133","","","","","","[{""stimulus"":""img/green_wl/1.jpg"",""time"":52},{""stimulus"":""img/green_wl/2.jpg"",""time"":101},{""stimulus"":""img/green_wl/3.jpg"",""time"":160},{""stimulus"":""img/green_wl/4.jpg"",""time"":201},{""stimulus"":""img/green_wl/5.jpg"",""time"":251},{""stimulus"":""img/green_wl/6.jpg"",""time"":302},{""stimulus"":""img/green_wl/7.jpg"",""time"":350},{""stimulus"":""img/green_wl/8.jpg"",""time"":401},{""stimulus"":""img/green_wl/9.jpg"",""time"":450},{""stimulus"":""img/green_wl/10.jpg"",""time"":500},{""stimulus"":""img/green_wl/11.jpg"",""time"":551}]","[]"
"","","","choice","63d13b44f511eff0aef876f2","bdp_lott","Sat Mar 25 2023 15:46:32 GMT-0700 (Pacific Daylight Time)","185985","green","red","image-keyboard-response","190","93069","0.0-5.0-1.93","","88","","img/green_wl/choose11.jpg","1","132","green","0.5","0.1","0.5","l","",""
"","","","","63d13b44f511eff0aef876f2","bdp_lott","Sat Mar 25 2023 15:46:32 GMT-0700 (Pacific Daylight Time)","185985","green","red","animation","191","93670","0.0-5.0-2.93","","","","","","132","","","","","","[{""stimulus"":""img/green_ll/1.jpg"",""time"":66},{""stimulus"":""img/green_ll/2.jpg"",""time"":101},{""stimulus"":""img/green_ll/3.jpg"",""time"":151},{""stimulus"":""img/green_ll/4.jpg"",""time"":207},{""stimulus"":""img/green_ll/5.jpg"",""time"":252},{""stimulus"":""img/green_ll/6.jpg"",""time"":300},{""stimulus"":""img/green_ll/7.jpg"",""time"":351},{""stimulus"":""img/green_ll/8.jpg"",""time"":402},{""stimulus"":""img/green_ll/9.jpg"",""time"":451},{""stimulus"":""img/green_ll/10.jpg"",""time"":504},{""stimulus"":""img/green_ll/11.jpg"",""time"":552}]","[]"
