"trial_type","trial_index","time_elapsed","internal_node_id","subject_id","task","startTime","totalTime","fairMachine","unfairMachine","view_history","rt","event","trial","time","trialtype","success","stimulus","key_press","roundsLeft","chosen","pFairMachWin","pUnfairMachWin","pTrialWin","outcome","animation_sequence","responses"
"pavlovia","0","16","0.0-0.0","64141beda1cef49212be9b6c","bdp_lott","Mon Apr 10 2023 06:47:22 GMT+0800 (China Standard Time)","231018","green","red","","","","","","","","","","","","","","","","",""
"instructions","1","14514","0.0-1.0","64141beda1cef49212be9b6c","bdp_lott","Mon Apr 10 2023 06:47:22 GMT+0800 (China Standard Time)","231018","green","red","[{""page_index"":0,""viewing_time"":14496}]","14496","","","","","","","","","","","","","","",""
"","","","","64141beda1cef49212be9b6c","bdp_lott","Mon Apr 10 2023 06:47:22 GMT+0800 (China Standard Time)","231018","green","red","","","fullscreenenter","2","17362","fullscreenenter","","","","","","","","","","",""
"fullscreen","2","18220","0.0-2.0","64141beda1cef49212be9b6c","bdp_lott","Mon Apr 10 2023 06:47:22 GMT+0800 (China Standard Time)","231018","green","red","","","","","","","true","","","","","","","","","",""
"instructions","3","44806","0.0-4.0","64141beda1cef49212be9b6c","bdp_lott","Mon Apr 10 2023 06:47:22 GMT+0800 (China Standard Time)","231018","green","red","[{""page_index"":0,""viewing_time"":26581}]","26582","","","","","","","","","","","","","","",""
"image-keyboard-response","4","47173","0.0-5.0-1.0","64141beda1cef49212be9b6c","bdp_lott","Mon Apr 10 2023 06:47:22 GMT+0800 (China Standard Time)","231018","green","red","","2362","","","","choice","","img/red_ll/initchoose11.jpg","1","225","green","0.5","0.5","0.5","l","",""
"animation","5","47788","0.0-5.0-2.0","64141beda1cef49212be9b6c","bdp_lott","Mon Apr 10 2023 06:47:22 GMT+0800 (China Standard Time)","231018","green","red","","","","","","","","","","225","","","","","","[{""stimulus"":""img/green_ll/1.jpg"",""time"":86},{""stimulus"":""img/green_ll/2.jpg"",""time"":111},{""stimulus"":""img/green_ll/3.jpg"",""time"":151},{""stimulus"":""img/green_ll/4.jpg"",""time"":217},{""stimulus"":""img/green_ll/5.jpg"",""time"":257},{""stimulus"":""img/green_ll/6.jpg"",""time"":305},{""stimulus"":""img/green_ll/7.jpg"",""time"":354},{""stimulus"":""img/green_ll/8.jpg"",""time"":419},{""stimulus"":""img/green_ll/9.jpg"",""time"":453},{""stimulus"":""img/green_ll/10.jpg"",""time"":503},{""stimulus"":""img/green_ll/11.jpg"",""time"":553}]","[]"
"image-keyboard-response","6","48390","0.0-5.0-1.1","64141beda1cef49212be9b6c","bdp_lott","Mon Apr 10 2023 06:47:22 GMT+0800 (China Standard Time)","231018","green","red","","600","","","","choice","","img/green_ll/choose11.jpg","2","224","red","0.5","0.5","0.5","l","",""
"animation","7","49043","0.0-5.0-2.1","64141beda1cef49212be9b6c","bdp_lott","Mon Apr 10 2023 06:47:22 GMT+0800 (China Standard Time)","231018","green","red","","","","","","","","","","224","","","","","","[{""stimulus"":""img/red_ll/1.jpg"",""time"":136},{""stimulus"":""img/red_ll/2.jpg"",""time"":154},{""stimulus"":""img/red_ll/3.jpg"",""time"":202},{""stimulus"":""img/red_ll/4.jpg"",""time"":253},{""stimulus"":""img/red_ll/5.jpg"",""time"":303},{""stimulus"":""img/red_ll/6.jpg"",""time"":353},{""stimulus"":""img/red_ll/7.jpg"",""time"":403},{""stimulus"":""img/red_ll/8.jpg"",""time"":453},{""stimulus"":""img/red_ll/9.jpg"",""time"":502},{""stimulus"":""img/red_ll/10.jpg"",""time"":570},{""stimulus"":""img/red_ll/11.jpg"",""time"":603}]","[]"
"image-keyboard-response","8","49520","0.0-5.0-1.2","64141beda1cef49212be9b6c","bdp_lott","Mon Apr 10 2023 06:47:22 GMT+0800 (China Standard Time)","231018","green","red","","476","","","","choice","","img/red_ll/choose11.jpg","2","223","red","0.5","0.5","0.5","l","",""
"animation","9","50122","0.0-5.0-2.2","64141beda1cef49212be9b6c","bdp_lott","Mon Apr 10 2023 06:47:22 GMT+0800 (China Standard Time)","231018","green","red","","","","","","","","","","223","","","","","","[{""stimulus"":""img/red_ll/1.jpg"",""time"":90},{""stimulus"":""img/red_ll/2.jpg"",""time"":112},{""stimulus"":""img/red_ll/3.jpg"",""time"":152},{""stimulus"":""img/red_ll/4.jpg"",""time"":201},{""stimulus"":""img/red_ll/5.jpg"",""time"":256},{""stimulus"":""img/red_ll/6.jpg"",""time"":301},{""stimulus"":""img/red_ll/7.jpg"",""time"":352},{""stimulus"":""img/red_ll/8.jpg"",""time"":406},{""stimulus"":""img/red_ll/9.jpg"",""time"":452},{""stimulus"":""img/red_ll/10.jpg"",""time"":502},{""stimulus"":""img/red_ll/11.jpg"",""time"":552}]","[]"
"image-keyboard-response","10","50398","0.0-5.0-1.3","64141beda1cef49212be9b6c","bdp_lott","Mon Apr 10 2023 06:47:22 GMT+0800 (China Standard Time)","231018","green","red","","274","","","","choice","","img/red_ll/choose11.jpg","2","222","red","0.5","0.5","0.5","w","",""
"animation","11","51262","0.0-5.0-2.3","64141beda1cef49212be9b6c","bdp_lott","Mon Apr 10 2023 06:47:22 GMT+0800 (China Standard Time)","231018","green","red","","","","","","","","","","222","","","","","","[{""stimulus"":""img/red_lw/1.jpg"",""time"":96},{""stimulus"":""img/red_lw/2.jpg"",""time"":115},{""stimulus"":""img/red_lw/3.jpg"",""time"":181},{""stimulus"":""img/red_lw/4.jpg"",""time"":255},{""stimulus"":""img/red_lw/5.jpg"",""time"":379},{""stimulus"":""img/red_lw/6.jpg"",""time"":540},{""stimulus"":""img/red_lw/7.jpg"",""time"":558},{""stimulus"":""img/red_lw/8.jpg"",""time"":602},{""stimulus"":""img/red_lw/9.jpg"",""time"":652},{""stimulus"":""img/red_lw/10.jpg"",""time"":702},{""stimulus"":""img/red_lw/11.jpg"",""time"":754}]","[]"
"image-keyboard-response","12","51345","0.0-5.0-1.4","64141beda1cef49212be9b6c","bdp_lott","Mon Apr 10 2023 06:47:22 GMT+0800 (China Standard Time)","231018","green","red","","81","","","","choice","","img/red_lw/choose11.jpg","1","221","green","0.5","0.5","0.5","w","",""
"animation","13","51998","0.0-5.0-2.4","64141beda1cef49212be9b6c","bdp_lott","Mon Apr 10 2023 06:47:22 GMT+0800 (China Standard Time)","231018","green","red","","","","","","","","","","221","","","","","","[{""stimulus"":""img/green_ww/1.jpg"",""time"":71},{""stimulus"":""img/green_ww/2.jpg"",""time"":167},{""stimulus"":""img/green_ww/3.jpg"",""time"":203},{""stimulus"":""img/green_ww/4.jpg"",""time"":254},{""stimulus"":""img/green_ww/5.jpg"",""time"":304},{""stimulus"":""img/green_ww/6.jpg"",""time"":353},{""stimulus"":""img/green_ww/7.jpg"",""time"":404},{""stimulus"":""img/green_ww/8.jpg"",""time"":463},{""stimulus"":""img/green_ww/9.jpg"",""time"":503},{""stimulus"":""img/green_ww/10.jpg"",""time"":552},{""stimulus"":""img/green_ww/11.jpg"",""time"":616}]","[]"
"image-keyboard-response","14","52181","0.0-5.0-1.5","64141beda1cef49212be9b6c","bdp_lott","Mon Apr 10 2023 06:47:22 GMT+0800 (China Standard Time)","231018","green","red","","182","","","","choice","","img/green_ww/choose11.jpg","1","220","green","0.5","0.5","0.5","l","",""
"animation","15","53035","0.0-5.0-2.5","64141beda1cef49212be9b6c","bdp_lott","Mon Apr 10 2023 06:47:22 GMT+0800 (China Standard Time)","231018","green","red","","","","","","","","","","220","","","","","","[{""stimulus"":""img/green_lw/1.jpg"",""time"":68},{""stimulus"":""img/green_lw/2.jpg"",""time"":146},{""stimulus"":""img/green_lw/3.jpg"",""time"":196},{""stimulus"":""img/green_lw/4.jpg"",""time"":205},{""stimulus"":""img/green_lw/5.jpg"",""time"":333},{""stimulus"":""img/green_lw/6.jpg"",""time"":419},{""stimulus"":""img/green_lw/7.jpg"",""time"":516},{""stimulus"":""img/green_lw/8.jpg"",""time"":594},{""stimulus"":""img/green_lw/9.jpg"",""time"":667},{""stimulus"":""img/green_lw/10.jpg"",""time"":751},{""stimulus"":""img/green_lw/11.jpg"",""time"":804}]","[]"
"image-keyboard-response","16","53093","0.0-5.0-1.6","64141beda1cef49212be9b6c","bdp_lott","Mon Apr 10 2023 06:47:22 GMT+0800 (China Standard Time)","231018","green","red","","55","","","","choice","","img/green_lw/choose11.jpg","2","219","red","0.5","0.5","0.5","w","",""
"animation","17","53796","0.0-5.0-2.6","64141beda1cef49212be9b6c","bdp_lott","Mon Apr 10 2023 06:47:22 GMT+0800 (China Standard Time)","231018","green","red","","","","","","","","","","219","","","","","","[{""stimulus"":""img/red_lw/1.jpg"",""time"":125},{""stimulus"":""img/red_lw/2.jpg"",""time"":152},{""stimulus"":""img/red_lw/3.jpg"",""time"":201},{""stimulus"":""img/red_lw/4.jpg"",""time"":255},{""stimulus"":""img/red_lw/5.jpg"",""time"":310},{""stimulus"":""img/red_lw/6.jpg"",""time"":352},{""stimulus"":""img/red_lw/7.jpg"",""time"":476},{""stimulus"":""img/red_lw/8.jpg"",""time"":507},{""stimulus"":""img/red_lw/9.jpg"",""time"":556},{""stimulus"":""img/red_lw/10.jpg"",""time"":602},{""stimulus"":""img/red_lw/11.jpg"",""time"":653}]","[]"
"image-keyboard-response","18","53979","0.0-5.0-1.7","64141beda1cef49212be9b6c","bdp_lott","Mon Apr 10 2023 06:47:22 GMT+0800 (China Standard Time)","231018","green","red","","180","","","","choice","","img/red_lw/choose11.jpg","1","218","green","0.5","0.5","0.5","w","",""
"animation","19","54683","0.0-5.0-2.7","64141beda1cef49212be9b6c","bdp_lott","Mon Apr 10 2023 06:47:22 GMT+0800 (China Standard Time)","231018","green","red","","","","","","","","","","218","","","","","","[{""stimulus"":""img/green_ww/1.jpg"",""time"":99},{""stimulus"":""img/green_ww/2.jpg"",""time"":188},{""stimulus"":""img/green_ww/3.jpg"",""time"":254},{""stimulus"":""img/green_ww/4.jpg"",""time"":302},{""stimulus"":""img/green_ww/5.jpg"",""time"":366},{""stimulus"":""img/green_ww/6.jpg"",""time"":405},{""stimulus"":""img/green_ww/7.jpg"",""time"":452},{""stimulus"":""img/green_ww/8.jpg"",""time"":517},{""stimulus"":""img/green_ww/9.jpg"",""time"":556},{""stimulus"":""img/green_ww/10.jpg"",""time"":607},{""stimulus"":""img/green_ww/11.jpg"",""time"":673}]","[]"
"image-keyboard-response","20","54745","0.0-5.0-1.8","64141beda1cef49212be9b6c","bdp_lott","Mon Apr 10 2023 06:47:22 GMT+0800 (China Standard Time)","231018","green","red","","60","","","","choice","","img/green_ww/choose11.jpg","1","217","green","0.5","0.5","0.5","w","",""
"animation","21","55447","0.0-5.0-2.8","64141beda1cef49212be9b6c","bdp_lott","Mon Apr 10 2023 06:47:22 GMT+0800 (China Standard Time)","231018","green","red","","","","","","","","","","217","","","","","","[{""stimulus"":""img/green_ww/1.jpg"",""time"":104},{""stimulus"":""img/green_ww/2.jpg"",""time"":199},{""stimulus"":""img/green_ww/3.jpg"",""time"":259},{""stimulus"":""img/green_ww/4.jpg"",""time"":303},{""stimulus"":""img/green_ww/5.jpg"",""time"":395},{""stimulus"":""img/green_ww/6.jpg"",""time"":403},{""stimulus"":""img/green_ww/7.jpg"",""time"":452},{""stimulus"":""img/green_ww/8.jpg"",""time"":507},{""stimulus"":""img/green_ww/9.jpg"",""time"":552},{""stimulus"":""img/green_ww/10.jpg"",""time"":618},{""stimulus"":""img/green_ww/11.jpg"",""time"":653}]","[]"
"image-keyboard-response","22","55541","0.0-5.0-1.9","64141beda1cef49212be9b6c","bdp_lott","Mon Apr 10 2023 06:47:22 GMT+0800 (China Standard Time)","231018","green","red","","92","","","","choice","","img/green_ww/choose11.jpg","2","216","red","0.5","0.5","0.5","l","",""
"animation","23","56143","0.0-5.0-2.9","64141beda1cef49212be9b6c","bdp_lott","Mon Apr 10 2023 06:47:22 GMT+0800 (China Standard Time)","231018","green","red","","","","","","","","","","216","","","","","","[{""stimulus"":""img/red_wl/1.jpg"",""time"":81},{""stimulus"":""img/red_wl/2.jpg"",""time"":104},{""stimulus"":""img/red_wl/3.jpg"",""time"":152},{""stimulus"":""img/red_wl/4.jpg"",""time"":202},{""stimulus"":""img/red_wl/5.jpg"",""time"":251},{""stimulus"":""img/red_wl/6.jpg"",""time"":305},{""stimulus"":""img/red_wl/7.jpg"",""time"":354},{""stimulus"":""img/red_wl/8.jpg"",""time"":404},{""stimulus"":""img/red_wl/9.jpg"",""time"":451},{""stimulus"":""img/red_wl/10.jpg"",""time"":503},{""stimulus"":""img/red_wl/11.jpg"",""time"":562}]","[]"
"image-keyboard-response","24","56292","0.0-5.0-1.10","64141beda1cef49212be9b6c","bdp_lott","Mon Apr 10 2023 06:47:22 GMT+0800 (China Standard Time)","231018","green","red","","148","","","","choice","","img/red_wl/choose11.jpg","2","215","red","0.5","0.5","0.5","l","",""
"animation","25","56895","0.0-5.0-2.10","64141beda1cef49212be9b6c","bdp_lott","Mon Apr 10 2023 06:47:22 GMT+0800 (China Standard Time)","231018","green","red","","","","","","","","","","215","","","","","","[{""stimulus"":""img/red_wl/1.jpg"",""time"":53},{""stimulus"":""img/red_wl/2.jpg"",""time"":132},{""stimulus"":""img/red_wl/3.jpg"",""time"":164},{""stimulus"":""img/red_wl/4.jpg"",""time"":201},{""stimulus"":""img/red_wl/5.jpg"",""time"":253},{""stimulus"":""img/red_wl/6.jpg"",""time"":303},{""stimulus"":""img/red_wl/7.jpg"",""time"":365},{""stimulus"":""img/red_wl/8.jpg"",""time"":404},{""stimulus"":""img/red_wl/9.jpg"",""time"":454},{""stimulus"":""img/red_wl/10.jpg"",""time"":502},{""stimulus"":""img/red_wl/11.jpg"",""time"":551}]","[]"
"image-keyboard-response","26","57110","0.0-5.0-1.11","64141beda1cef49212be9b6c","bdp_lott","Mon Apr 10 2023 06:47:22 GMT+0800 (China Standard Time)","231018","green","red","","213","","","","choice","","img/red_wl/choose11.jpg","1","214","green","0.5","0.5","0.5","l","",""
"animation","27","57717","0.0-5.0-2.11","64141beda1cef49212be9b6c","bdp_lott","Mon Apr 10 2023 06:47:22 GMT+0800 (China Standard Time)","231018","green","red","","","","","","","","","","214","","","","","","[{""stimulus"":""img/green_ll/1.jpg"",""time"":86},{""stimulus"":""img/green_ll/2.jpg"",""time"":134},{""stimulus"":""img/green_ll/3.jpg"",""time"":152},{""stimulus"":""img/green_ll/4.jpg"",""time"":202},{""stimulus"":""img/green_ll/5.jpg"",""time"":254},{""stimulus"":""img/green_ll/6.jpg"",""time"":303},{""stimulus"":""img/green_ll/7.jpg"",""time"":352},{""stimulus"":""img/green_ll/8.jpg"",""time"":403},{""stimulus"":""img/green_ll/9.jpg"",""time"":452},{""stimulus"":""img/green_ll/10.jpg"",""time"":502},{""stimulus"":""img/green_ll/11.jpg"",""time"":552}]","[]"
"image-keyboard-response","28","57869","0.0-5.0-1.12","64141beda1cef49212be9b6c","bdp_lott","Mon Apr 10 2023 06:47:22 GMT+0800 (China Standard Time)","231018","green","red","","150","","","","choice","","img/green_ll/choose11.jpg","2","213","red","0.5","0.5","0.5","w","",""
"animation","29","58630","0.0-5.0-2.12","64141beda1cef49212be9b6c","bdp_lott","Mon Apr 10 2023 06:47:22 GMT+0800 (China Standard Time)","231018","green","red","","","","","","","","","","213","","","","","","[{""stimulus"":""img/red_lw/1.jpg"",""time"":121},{""stimulus"":""img/red_lw/2.jpg"",""time"":181},{""stimulus"":""img/red_lw/3.jpg"",""time"":227},{""stimulus"":""img/red_lw/4.jpg"",""time"":283},{""stimulus"":""img/red_lw/5.jpg"",""time"":354},{""stimulus"":""img/red_lw/6.jpg"",""time"":465},{""stimulus"":""img/red_lw/7.jpg"",""time"":503},{""stimulus"":""img/red_lw/8.jpg"",""time"":555},{""stimulus"":""img/red_lw/9.jpg"",""time"":603},{""stimulus"":""img/red_lw/10.jpg"",""time"":652},{""stimulus"":""img/red_lw/11.jpg"",""time"":702}]","[]"
"image-keyboard-response","30","58783","0.0-5.0-1.13","64141beda1cef49212be9b6c","bdp_lott","Mon Apr 10 2023 06:47:22 GMT+0800 (China Standard Time)","231018","green","red","","151","","","","choice","","img/red_lw/choose11.jpg","2","212","red","0.5","0.5","0.5","w","",""
"animation","31","59386","0.0-5.0-2.13","64141beda1cef49212be9b6c","bdp_lott","Mon Apr 10 2023 06:47:22 GMT+0800 (China Standard Time)","231018","green","red","","","","","","","","","","212","","","","","","[{""stimulus"":""img/red_lw/1.jpg"",""time"":95},{""stimulus"":""img/red_lw/2.jpg"",""time"":104},{""stimulus"":""img/red_lw/3.jpg"",""time"":167},{""stimulus"":""img/red_lw/4.jpg"",""time"":214},{""stimulus"":""img/red_lw/5.jpg"",""time"":259},{""stimulus"":""img/red_lw/6.jpg"",""time"":317},{""stimulus"":""img/red_lw/7.jpg"",""time"":353},{""stimulus"":""img/red_lw/8.jpg"",""time"":401},{""stimulus"":""img/red_lw/9.jpg"",""time"":454},{""stimulus"":""img/red_lw/10.jpg"",""time"":537},{""stimulus"":""img/red_lw/11.jpg"",""time"":560}]","[]"
"image-keyboard-response","32","59522","0.0-5.0-1.14","64141beda1cef49212be9b6c","bdp_lott","Mon Apr 10 2023 06:47:22 GMT+0800 (China Standard Time)","231018","green","red","","134","","","","choice","","img/red_lw/choose11.jpg","2","211","red","0.5","0.5","0.5","l","",""
"animation","33","60151","0.0-5.0-2.14","64141beda1cef49212be9b6c","bdp_lott","Mon Apr 10 2023 06:47:22 GMT+0800 (China Standard Time)","231018","green","red","","","","","","","","","","211","","","","","","[{""stimulus"":""img/red_ll/1.jpg"",""time"":92},{""stimulus"":""img/red_ll/2.jpg"",""time"":145},{""stimulus"":""img/red_ll/3.jpg"",""time"":155},{""stimulus"":""img/red_ll/4.jpg"",""time"":208},{""stimulus"":""img/red_ll/5.jpg"",""time"":254},{""stimulus"":""img/red_ll/6.jpg"",""time"":304},{""stimulus"":""img/red_ll/7.jpg"",""time"":354},{""stimulus"":""img/red_ll/8.jpg"",""time"":401},{""stimulus"":""img/red_ll/9.jpg"",""time"":452},{""stimulus"":""img/red_ll/10.jpg"",""time"":514},{""stimulus"":""img/red_ll/11.jpg"",""time"":581}]","[]"
"image-keyboard-response","34","60274","0.0-5.0-1.15","64141beda1cef49212be9b6c","bdp_lott","Mon Apr 10 2023 06:47:22 GMT+0800 (China Standard Time)","231018","green","red","","121","","","","choice","","img/red_ll/choose11.jpg","1","210","green","0.5","0.5","0.5","w","",""
"animation","35","60897","0.0-5.0-2.15","64141beda1cef49212be9b6c","bdp_lott","Mon Apr 10 2023 06:47:22 GMT+0800 (China Standard Time)","231018","green","red","","","","","","","","","","210","","","","","","[{""stimulus"":""img/green_wl/1.jpg"",""time"":98},{""stimulus"":""img/green_wl/2.jpg"",""time"":102},{""stimulus"":""img/green_wl/3.jpg"",""time"":170},{""stimulus"":""img/green_wl/4.jpg"",""time"":205},{""stimulus"":""img/green_wl/5.jpg"",""time"":253},{""stimulus"":""img/green_wl/6.jpg"",""time"":308},{""stimulus"":""img/green_wl/7.jpg"",""time"":361},{""stimulus"":""img/green_wl/8.jpg"",""time"":404},{""stimulus"":""img/green_wl/9.jpg"",""time"":454},{""stimulus"":""img/green_wl/10.jpg"",""time"":504},{""stimulus"":""img/green_wl/11.jpg"",""time"":554}]","[]"
"image-keyboard-response","36","60986","0.0-5.0-1.16","64141beda1cef49212be9b6c","bdp_lott","Mon Apr 10 2023 06:47:22 GMT+0800 (China Standard Time)","231018","green","red","","88","","","","choice","","img/green_wl/choose11.jpg","2","209","red","0.5","0.5","0.5","l","",""
"animation","37","61611","0.0-5.0-2.16","64141beda1cef49212be9b6c","bdp_lott","Mon Apr 10 2023 06:47:22 GMT+0800 (China Standard Time)","231018","green","red","","","","","","","","","","209","","","","","","[{""stimulus"":""img/red_wl/1.jpg"",""time"":66},{""stimulus"":""img/red_wl/2.jpg"",""time"":116},{""stimulus"":""img/red_wl/3.jpg"",""time"":153},{""stimulus"":""img/red_wl/4.jpg"",""time"":207},{""stimulus"":""img/red_wl/5.jpg"",""time"":251},{""stimulus"":""img/red_wl/6.jpg"",""time"":301},{""stimulus"":""img/red_wl/7.jpg"",""time"":358},{""stimulus"":""img/red_wl/8.jpg"",""time"":402},{""stimulus"":""img/red_wl/9.jpg"",""time"":452},{""stimulus"":""img/red_wl/10.jpg"",""time"":515},{""stimulus"":""img/red_wl/11.jpg"",""time"":564}]","[]"
"image-keyboard-response","38","61735","0.0-5.0-1.17","64141beda1cef49212be9b6c","bdp_lott","Mon Apr 10 2023 06:47:22 GMT+0800 (China Standard Time)","231018","green","red","","122","","","","choice","","img/red_wl/choose11.jpg","2","208","red","0.5","0.5","0.5","w","",""
"animation","39","62393","0.0-5.0-2.17","64141beda1cef49212be9b6c","bdp_lott","Mon Apr 10 2023 06:47:22 GMT+0800 (China Standard Time)","231018","green","red","","","","","","","","","","208","","","","","","[{""stimulus"":""img/red_ww/1.jpg"",""time"":59},{""stimulus"":""img/red_ww/2.jpg"",""time"":102},{""stimulus"":""img/red_ww/3.jpg"",""time"":159},{""stimulus"":""img/red_ww/4.jpg"",""time"":203},{""stimulus"":""img/red_ww/5.jpg"",""time"":260},{""stimulus"":""img/red_ww/6.jpg"",""time"":336},{""stimulus"":""img/red_ww/7.jpg"",""time"":356},{""stimulus"":""img/red_ww/8.jpg"",""time"":442},{""stimulus"":""img/red_ww/9.jpg"",""time"":459},{""stimulus"":""img/red_ww/10.jpg"",""time"":503},{""stimulus"":""img/red_ww/11.jpg"",""time"":560}]","[]"
"image-keyboard-response","40","62677","0.0-5.0-1.18","64141beda1cef49212be9b6c","bdp_lott","Mon Apr 10 2023 06:47:22 GMT+0800 (China Standard Time)","231018","green","red","","282","","","","choice","","img/red_ww/choose11.jpg","2","207","red","0.5","0.5","0.5","w","",""
"animation","41","63279","0.0-5.0-2.18","64141beda1cef49212be9b6c","bdp_lott","Mon Apr 10 2023 06:47:22 GMT+0800 (China Standard Time)","231018","green","red","","","","","","","","","","207","","","","","","[{""stimulus"":""img/red_ww/1.jpg"",""time"":85},{""stimulus"":""img/red_ww/2.jpg"",""time"":125},{""stimulus"":""img/red_ww/3.jpg"",""time"":151},{""stimulus"":""img/red_ww/4.jpg"",""time"":204},{""stimulus"":""img/red_ww/5.jpg"",""time"":251},{""stimulus"":""img/red_ww/6.jpg"",""time"":301},{""stimulus"":""img/red_ww/7.jpg"",""time"":353},{""stimulus"":""img/red_ww/8.jpg"",""time"":420},{""stimulus"":""img/red_ww/9.jpg"",""time"":462},{""stimulus"":""img/red_ww/10.jpg"",""time"":511},{""stimulus"":""img/red_ww/11.jpg"",""time"":562}]","[]"
"image-keyboard-response","42","63458","0.0-5.0-1.19","64141beda1cef49212be9b6c","bdp_lott","Mon Apr 10 2023 06:47:22 GMT+0800 (China Standard Time)","231018","green","red","","176","","","","choice","","img/red_ww/choose11.jpg","2","206","red","0.5","0.5","0.5","w","",""
"animation","43","64211","0.0-5.0-2.19","64141beda1cef49212be9b6c","bdp_lott","Mon Apr 10 2023 06:47:22 GMT+0800 (China Standard Time)","231018","green","red","","","","","","","","","","206","","","","","","[{""stimulus"":""img/red_ww/1.jpg"",""time"":112},{""stimulus"":""img/red_ww/2.jpg"",""time"":207},{""stimulus"":""img/red_ww/3.jpg"",""time"":252},{""stimulus"":""img/red_ww/4.jpg"",""time"":303},{""stimulus"":""img/red_ww/5.jpg"",""time"":359},{""stimulus"":""img/red_ww/6.jpg"",""time"":417},{""stimulus"":""img/red_ww/7.jpg"",""time"":488},{""stimulus"":""img/red_ww/8.jpg"",""time"":537},{""stimulus"":""img/red_ww/9.jpg"",""time"":570},{""stimulus"":""img/red_ww/10.jpg"",""time"":614},{""stimulus"":""img/red_ww/11.jpg"",""time"":741}]","[]"
"image-keyboard-response","44","64343","0.0-5.0-1.20","64141beda1cef49212be9b6c","bdp_lott","Mon Apr 10 2023 06:47:22 GMT+0800 (China Standard Time)","231018","green","red","","130","","","","choice","","img/red_ww/choose11.jpg","1","205","green","0.5","0.5","0.5","l","",""
"animation","45","64944","0.0-5.0-2.20","64141beda1cef49212be9b6c","bdp_lott","Mon Apr 10 2023 06:47:22 GMT+0800 (China Standard Time)","231018","green","red","","","","","","","","","","205","","","","","","[{""stimulus"":""img/green_lw/1.jpg"",""time"":86},{""stimulus"":""img/green_lw/2.jpg"",""time"":137},{""stimulus"":""img/green_lw/3.jpg"",""time"":184},{""stimulus"":""img/green_lw/4.jpg"",""time"":242},{""stimulus"":""img/green_lw/5.jpg"",""time"":252},{""stimulus"":""img/green_lw/6.jpg"",""time"":326},{""stimulus"":""img/green_lw/7.jpg"",""time"":378},{""stimulus"":""img/green_lw/8.jpg"",""time"":401},{""stimulus"":""img/green_lw/9.jpg"",""time"":452},{""stimulus"":""img/green_lw/10.jpg"",""time"":503},{""stimulus"":""img/green_lw/11.jpg"",""time"":568}]","[]"
"image-keyboard-response","46","65032","0.0-5.0-1.21","64141beda1cef49212be9b6c","bdp_lott","Mon Apr 10 2023 06:47:22 GMT+0800 (China Standard Time)","231018","green","red","","85","","","","choice","","img/green_lw/choose11.jpg","2","204","red","0.5","0.5","0.5","l","",""
"animation","47","65640","0.0-5.0-2.21","64141beda1cef49212be9b6c","bdp_lott","Mon Apr 10 2023 06:47:22 GMT+0800 (China Standard Time)","231018","green","red","","","","","","","","","","204","","","","","","[{""stimulus"":""img/red_ll/1.jpg"",""time"":97},{""stimulus"":""img/red_ll/2.jpg"",""time"":106},{""stimulus"":""img/red_ll/3.jpg"",""time"":153},{""stimulus"":""img/red_ll/4.jpg"",""time"":206},{""stimulus"":""img/red_ll/5.jpg"",""time"":252},{""stimulus"":""img/red_ll/6.jpg"",""time"":302},{""stimulus"":""img/red_ll/7.jpg"",""time"":353},{""stimulus"":""img/red_ll/8.jpg"",""time"":403},{""stimulus"":""img/red_ll/9.jpg"",""time"":463},{""stimulus"":""img/red_ll/10.jpg"",""time"":514},{""stimulus"":""img/red_ll/11.jpg"",""time"":561}]","[]"
"image-keyboard-response","48","65754","0.0-5.0-1.22","64141beda1cef49212be9b6c","bdp_lott","Mon Apr 10 2023 06:47:22 GMT+0800 (China Standard Time)","231018","green","red","","112","","","","choice","","img/red_ll/choose11.jpg","2","203","red","0.5","0.5","0.5","l","",""
"animation","49","66405","0.0-5.0-2.22","64141beda1cef49212be9b6c","bdp_lott","Mon Apr 10 2023 06:47:22 GMT+0800 (China Standard Time)","231018","green","red","","","","","","","","","","203","","","","","","[{""stimulus"":""img/red_ll/1.jpg"",""time"":83},{""stimulus"":""img/red_ll/2.jpg"",""time"":131},{""stimulus"":""img/red_ll/3.jpg"",""time"":152},{""stimulus"":""img/red_ll/4.jpg"",""time"":203},{""stimulus"":""img/red_ll/5.jpg"",""time"":252},{""stimulus"":""img/red_ll/6.jpg"",""time"":302},{""stimulus"":""img/red_ll/7.jpg"",""time"":352},{""stimulus"":""img/red_ll/8.jpg"",""time"":402},{""stimulus"":""img/red_ll/9.jpg"",""time"":474},{""stimulus"":""img/red_ll/10.jpg"",""time"":549},{""stimulus"":""img/red_ll/11.jpg"",""time"":602}]","[]"
"image-keyboard-response","50","66530","0.0-5.0-1.23","64141beda1cef49212be9b6c","bdp_lott","Mon Apr 10 2023 06:47:22 GMT+0800 (China Standard Time)","231018","green","red","","124","","","","choice","","img/red_ll/choose11.jpg","2","202","red","0.5","0.5","0.5","w","",""
"animation","51","67133","0.0-5.0-2.23","64141beda1cef49212be9b6c","bdp_lott","Mon Apr 10 2023 06:47:22 GMT+0800 (China Standard Time)","231018","green","red","","","","","","","","","","202","","","","","","[{""stimulus"":""img/red_lw/1.jpg"",""time"":56},{""stimulus"":""img/red_lw/2.jpg"",""time"":117},{""stimulus"":""img/red_lw/3.jpg"",""time"":160},{""stimulus"":""img/red_lw/4.jpg"",""time"":209},{""stimulus"":""img/red_lw/5.jpg"",""time"":252},{""stimulus"":""img/red_lw/6.jpg"",""time"":305},{""stimulus"":""img/red_lw/7.jpg"",""time"":366},{""stimulus"":""img/red_lw/8.jpg"",""time"":406},{""stimulus"":""img/red_lw/9.jpg"",""time"":455},{""stimulus"":""img/red_lw/10.jpg"",""time"":506},{""stimulus"":""img/red_lw/11.jpg"",""time"":555}]","[]"
"image-keyboard-response","52","67353","0.0-5.0-1.24","64141beda1cef49212be9b6c","bdp_lott","Mon Apr 10 2023 06:47:22 GMT+0800 (China Standard Time)","231018","green","red","","219","","","","choice","","img/red_lw/choose11.jpg","2","201","red","0.5","0.5","0.5","l","",""
"animation","53","67955","0.0-5.0-2.24","64141beda1cef49212be9b6c","bdp_lott","Mon Apr 10 2023 06:47:22 GMT+0800 (China Standard Time)","231018","green","red","","","","","","","","","","201","","","","","","[{""stimulus"":""img/red_ll/1.jpg"",""time"":64},{""stimulus"":""img/red_ll/2.jpg"",""time"":107},{""stimulus"":""img/red_ll/3.jpg"",""time"":153},{""stimulus"":""img/red_ll/4.jpg"",""time"":204},{""stimulus"":""img/red_ll/5.jpg"",""time"":259},{""stimulus"":""img/red_ll/6.jpg"",""time"":302},{""stimulus"":""img/red_ll/7.jpg"",""time"":358},{""stimulus"":""img/red_ll/8.jpg"",""time"":404},{""stimulus"":""img/red_ll/9.jpg"",""time"":453},{""stimulus"":""img/red_ll/10.jpg"",""time"":509},{""stimulus"":""img/red_ll/11.jpg"",""time"":554}]","[]"
"image-keyboard-response","54","68171","0.0-5.0-1.25","64141beda1cef49212be9b6c","bdp_lott","Mon Apr 10 2023 06:47:22 GMT+0800 (China Standard Time)","231018","green","red","","213","","","","choice","","img/red_ll/choose11.jpg","1","200","green","0.5","0.5","0.5","w","",""
"animation","55","68826","0.0-5.0-2.25","64141beda1cef49212be9b6c","bdp_lott","Mon Apr 10 2023 06:47:22 GMT+0800 (China Standard Time)","231018","green","red","","","","","","","","","","200","","","","","","[{""stimulus"":""img/green_wl/1.jpg"",""time"":112},{""stimulus"":""img/green_wl/2.jpg"",""time"":153},{""stimulus"":""img/green_wl/3.jpg"",""time"":202},{""stimulus"":""img/green_wl/4.jpg"",""time"":252},{""stimulus"":""img/green_wl/5.jpg"",""time"":305},{""stimulus"":""img/green_wl/6.jpg"",""time"":363},{""stimulus"":""img/green_wl/7.jpg"",""time"":412},{""stimulus"":""img/green_wl/8.jpg"",""time"":480},{""stimulus"":""img/green_wl/9.jpg"",""time"":508},{""stimulus"":""img/green_wl/10.jpg"",""time"":553},{""stimulus"":""img/green_wl/11.jpg"",""time"":616}]","[]"
"image-keyboard-response","56","69052","0.0-5.0-1.26","64141beda1cef49212be9b6c","bdp_lott","Mon Apr 10 2023 06:47:22 GMT+0800 (China Standard Time)","231018","green","red","","224","","","","choice","","img/green_wl/choose11.jpg","1","199","green","0.5","0.5","0.5","l","",""
"animation","57","69656","0.0-5.0-2.26","64141beda1cef49212be9b6c","bdp_lott","Mon Apr 10 2023 06:47:22 GMT+0800 (China Standard Time)","231018","green","red","","","","","","","","","","199","","","","","","[{""stimulus"":""img/green_ll/1.jpg"",""time"":69},{""stimulus"":""img/green_ll/2.jpg"",""time"":116},{""stimulus"":""img/green_ll/3.jpg"",""time"":155},{""stimulus"":""img/green_ll/4.jpg"",""time"":206},{""stimulus"":""img/green_ll/5.jpg"",""time"":260},{""stimulus"":""img/green_ll/6.jpg"",""time"":304},{""stimulus"":""img/green_ll/7.jpg"",""time"":355},{""stimulus"":""img/green_ll/8.jpg"",""time"":408},{""stimulus"":""img/green_ll/9.jpg"",""time"":453},{""stimulus"":""img/green_ll/10.jpg"",""time"":502},{""stimulus"":""img/green_ll/11.jpg"",""time"":552}]","[]"
"image-keyboard-response","58","69795","0.0-5.0-1.27","64141beda1cef49212be9b6c","bdp_lott","Mon Apr 10 2023 06:47:22 GMT+0800 (China Standard Time)","231018","green","red","","136","","","","choice","","img/green_ll/choose11.jpg","2","198","red","0.5","0.5","0.5","w","",""
"animation","59","70446","0.0-5.0-2.27","64141beda1cef49212be9b6c","bdp_lott","Mon Apr 10 2023 06:47:22 GMT+0800 (China Standard Time)","231018","green","red","","","","","","","","","","198","","","","","","[{""stimulus"":""img/red_lw/1.jpg"",""time"":78},{""stimulus"":""img/red_lw/2.jpg"",""time"":129},{""stimulus"":""img/red_lw/3.jpg"",""time"":152},{""stimulus"":""img/red_lw/4.jpg"",""time"":207},{""stimulus"":""img/red_lw/5.jpg"",""time"":255},{""stimulus"":""img/red_lw/6.jpg"",""time"":326},{""stimulus"":""img/red_lw/7.jpg"",""time"":387},{""stimulus"":""img/red_lw/8.jpg"",""time"":469},{""stimulus"":""img/red_lw/9.jpg"",""time"":525},{""stimulus"":""img/red_lw/10.jpg"",""time"":553},{""stimulus"":""img/red_lw/11.jpg"",""time"":604}]","[]"
"image-keyboard-response","60","70595","0.0-5.0-1.28","64141beda1cef49212be9b6c","bdp_lott","Mon Apr 10 2023 06:47:22 GMT+0800 (China Standard Time)","231018","green","red","","148","","","","choice","","img/red_lw/choose11.jpg","2","197","red","0.5","0.5","0.5","l","",""
"animation","61","71245","0.0-5.0-2.28","64141beda1cef49212be9b6c","bdp_lott","Mon Apr 10 2023 06:47:22 GMT+0800 (China Standard Time)","231018","green","red","","","","","","","","","","197","","","","","","[{""stimulus"":""img/red_ll/1.jpg"",""time"":76},{""stimulus"":""img/red_ll/2.jpg"",""time"":103},{""stimulus"":""img/red_ll/3.jpg"",""time"":152},{""stimulus"":""img/red_ll/4.jpg"",""time"":202},{""stimulus"":""img/red_ll/5.jpg"",""time"":341},{""stimulus"":""img/red_ll/6.jpg"",""time"":377},{""stimulus"":""img/red_ll/7.jpg"",""time"":408},{""stimulus"":""img/red_ll/8.jpg"",""time"":458},{""stimulus"":""img/red_ll/9.jpg"",""time"":505},{""stimulus"":""img/red_ll/10.jpg"",""time"":555},{""stimulus"":""img/red_ll/11.jpg"",""time"":613}]","[]"
"image-keyboard-response","62","71357","0.0-5.0-1.29","64141beda1cef49212be9b6c","bdp_lott","Mon Apr 10 2023 06:47:22 GMT+0800 (China Standard Time)","231018","green","red","","110","","","","choice","","img/red_ll/choose11.jpg","1","196","green","0.5","0.5","0.5","w","",""
"animation","63","72176","0.0-5.0-2.29","64141beda1cef49212be9b6c","bdp_lott","Mon Apr 10 2023 06:47:22 GMT+0800 (China Standard Time)","231018","green","red","","","","","","","","","","196","","","","","","[{""stimulus"":""img/green_wl/1.jpg"",""time"":167},{""stimulus"":""img/green_wl/2.jpg"",""time"":210},{""stimulus"":""img/green_wl/3.jpg"",""time"":298},{""stimulus"":""img/green_wl/4.jpg"",""time"":305},{""stimulus"":""img/green_wl/5.jpg"",""time"":354},{""stimulus"":""img/green_wl/6.jpg"",""time"":404},{""stimulus"":""img/green_wl/7.jpg"",""time"":467},{""stimulus"":""img/green_wl/8.jpg"",""time"":506},{""stimulus"":""img/green_wl/9.jpg"",""time"":574},{""stimulus"":""img/green_wl/10.jpg"",""time"":678},{""stimulus"":""img/green_wl/11.jpg"",""time"":737}]","[]"
"image-keyboard-response","64","72233","0.0-5.0-1.30","64141beda1cef49212be9b6c","bdp_lott","Mon Apr 10 2023 06:47:22 GMT+0800 (China Standard Time)","231018","green","red","","55","","","","choice","","img/green_wl/choose11.jpg","1","195","green","0.5","0.5","0.5","w","",""
"animation","65","72835","0.0-5.0-2.30","64141beda1cef49212be9b6c","bdp_lott","Mon Apr 10 2023 06:47:22 GMT+0800 (China Standard Time)","231018","green","red","","","","","","","","","","195","","","","","","[{""stimulus"":""img/green_wl/1.jpg"",""time"":54},{""stimulus"":""img/green_wl/2.jpg"",""time"":114},{""stimulus"":""img/green_wl/3.jpg"",""time"":173},{""stimulus"":""img/green_wl/4.jpg"",""time"":202},{""stimulus"":""img/green_wl/5.jpg"",""time"":251},{""stimulus"":""img/green_wl/6.jpg"",""time"":348},{""stimulus"":""img/green_wl/7.jpg"",""time"":354},{""stimulus"":""img/green_wl/8.jpg"",""time"":402},{""stimulus"":""img/green_wl/9.jpg"",""time"":452},{""stimulus"":""img/green_wl/10.jpg"",""time"":510},{""stimulus"":""img/green_wl/11.jpg"",""time"":551}]","[]"
"image-keyboard-response","66","73024","0.0-5.0-1.31","64141beda1cef49212be9b6c","bdp_lott","Mon Apr 10 2023 06:47:22 GMT+0800 (China Standard Time)","231018","green","red","","188","","","","choice","","img/green_wl/choose11.jpg","2","194","red","0.5","0.5","0.5","l","",""
"animation","67","73634","0.0-5.0-2.31","64141beda1cef49212be9b6c","bdp_lott","Mon Apr 10 2023 06:47:22 GMT+0800 (China Standard Time)","231018","green","red","","","","","","","","","","194","","","","","","[{""stimulus"":""img/red_wl/1.jpg"",""time"":82},{""stimulus"":""img/red_wl/2.jpg"",""time"":104},{""stimulus"":""img/red_wl/3.jpg"",""time"":203},{""stimulus"":""img/red_wl/4.jpg"",""time"":212},{""stimulus"":""img/red_wl/5.jpg"",""time"":253},{""stimulus"":""img/red_wl/6.jpg"",""time"":303},{""stimulus"":""img/red_wl/7.jpg"",""time"":353},{""stimulus"":""img/red_wl/8.jpg"",""time"":405},{""stimulus"":""img/red_wl/9.jpg"",""time"":474},{""stimulus"":""img/red_wl/10.jpg"",""time"":504},{""stimulus"":""img/red_wl/11.jpg"",""time"":558}]","[]"
"image-keyboard-response","68","73786","0.0-5.0-1.32","64141beda1cef49212be9b6c","bdp_lott","Mon Apr 10 2023 06:47:22 GMT+0800 (China Standard Time)","231018","green","red","","151","","","","choice","","img/red_wl/choose11.jpg","2","193","red","0.5","0.5","0.5","l","",""
"animation","69","74442","0.0-5.0-2.32","64141beda1cef49212be9b6c","bdp_lott","Mon Apr 10 2023 06:47:22 GMT+0800 (China Standard Time)","231018","green","red","","","","","","","","","","193","","","","","","[{""stimulus"":""img/red_wl/1.jpg"",""time"":66},{""stimulus"":""img/red_wl/2.jpg"",""time"":103},{""stimulus"":""img/red_wl/3.jpg"",""time"":163},{""stimulus"":""img/red_wl/4.jpg"",""time"":210},{""stimulus"":""img/red_wl/5.jpg"",""time"":252},{""stimulus"":""img/red_wl/6.jpg"",""time"":304},{""stimulus"":""img/red_wl/7.jpg"",""time"":351},{""stimulus"":""img/red_wl/8.jpg"",""time"":416},{""stimulus"":""img/red_wl/9.jpg"",""time"":508},{""stimulus"":""img/red_wl/10.jpg"",""time"":553},{""stimulus"":""img/red_wl/11.jpg"",""time"":603}]","[]"
"image-keyboard-response","70","74581","0.0-5.0-1.33","64141beda1cef49212be9b6c","bdp_lott","Mon Apr 10 2023 06:47:22 GMT+0800 (China Standard Time)","231018","green","red","","136","","","","choice","","img/red_wl/choose11.jpg","2","192","red","0.5","0.5","0.5","l","",""
"animation","71","75335","0.0-5.0-2.33","64141beda1cef49212be9b6c","bdp_lott","Mon Apr 10 2023 06:47:22 GMT+0800 (China Standard Time)","231018","green","red","","","","","","","","","","192","","","","","","[{""stimulus"":""img/red_wl/1.jpg"",""time"":124},{""stimulus"":""img/red_wl/2.jpg"",""time"":204},{""stimulus"":""img/red_wl/3.jpg"",""time"":314},{""stimulus"":""img/red_wl/4.jpg"",""time"":355},{""stimulus"":""img/red_wl/5.jpg"",""time"":405},{""stimulus"":""img/red_wl/6.jpg"",""time"":452},{""stimulus"":""img/red_wl/7.jpg"",""time"":509},{""stimulus"":""img/red_wl/8.jpg"",""time"":553},{""stimulus"":""img/red_wl/9.jpg"",""time"":606},{""stimulus"":""img/red_wl/10.jpg"",""time"":657},{""stimulus"":""img/red_wl/11.jpg"",""time"":712}]","[]"
"image-keyboard-response","72","75562","0.0-5.0-1.34","64141beda1cef49212be9b6c","bdp_lott","Mon Apr 10 2023 06:47:22 GMT+0800 (China Standard Time)","231018","green","red","","226","","","","choice","","img/red_wl/choose11.jpg","1","191","green","0.5","0.5","0.5","l","",""
"animation","73","76265","0.0-5.0-2.34","64141beda1cef49212be9b6c","bdp_lott","Mon Apr 10 2023 06:47:22 GMT+0800 (China Standard Time)","231018","green","red","","","","","","","","","","191","","","","","","[{""stimulus"":""img/green_ll/1.jpg"",""time"":112},{""stimulus"":""img/green_ll/2.jpg"",""time"":158},{""stimulus"":""img/green_ll/3.jpg"",""time"":203},{""stimulus"":""img/green_ll/4.jpg"",""time"":314},{""stimulus"":""img/green_ll/5.jpg"",""time"":355},{""stimulus"":""img/green_ll/6.jpg"",""time"":404},{""stimulus"":""img/green_ll/7.jpg"",""time"":453},{""stimulus"":""img/green_ll/8.jpg"",""time"":502},{""stimulus"":""img/green_ll/9.jpg"",""time"":553},{""stimulus"":""img/green_ll/10.jpg"",""time"":607},{""stimulus"":""img/green_ll/11.jpg"",""time"":653}]","[]"
"image-keyboard-response","74","76453","0.0-5.0-1.35","64141beda1cef49212be9b6c","bdp_lott","Mon Apr 10 2023 06:47:22 GMT+0800 (China Standard Time)","231018","green","red","","187","","","","choice","","img/green_ll/choose11.jpg","2","190","red","0.5","0.5","0.5","w","",""
"animation","75","77057","0.0-5.0-2.35","64141beda1cef49212be9b6c","bdp_lott","Mon Apr 10 2023 06:47:22 GMT+0800 (China Standard Time)","231018","green","red","","","","","","","","","","190","","","","","","[{""stimulus"":""img/red_lw/1.jpg"",""time"":77},{""stimulus"":""img/red_lw/2.jpg"",""time"":118},{""stimulus"":""img/red_lw/3.jpg"",""time"":167},{""stimulus"":""img/red_lw/4.jpg"",""time"":202},{""stimulus"":""img/red_lw/5.jpg"",""time"":252},{""stimulus"":""img/red_lw/6.jpg"",""time"":302},{""stimulus"":""img/red_lw/7.jpg"",""time"":357},{""stimulus"":""img/red_lw/8.jpg"",""time"":401},{""stimulus"":""img/red_lw/9.jpg"",""time"":453},{""stimulus"":""img/red_lw/10.jpg"",""time"":505},{""stimulus"":""img/red_lw/11.jpg"",""time"":559}]","[]"
"image-keyboard-response","76","77198","0.0-5.0-1.36","64141beda1cef49212be9b6c","bdp_lott","Mon Apr 10 2023 06:47:22 GMT+0800 (China Standard Time)","231018","green","red","","140","","","","choice","","img/red_lw/choose11.jpg","2","189","red","0.5","0.5","0.5","w","",""
"animation","77","77799","0.0-5.0-2.36","64141beda1cef49212be9b6c","bdp_lott","Mon Apr 10 2023 06:47:22 GMT+0800 (China Standard Time)","231018","green","red","","","","","","","","","","189","","","","","","[{""stimulus"":""img/red_lw/1.jpg"",""time"":76},{""stimulus"":""img/red_lw/2.jpg"",""time"":102},{""stimulus"":""img/red_lw/3.jpg"",""time"":152},{""stimulus"":""img/red_lw/4.jpg"",""time"":203},{""stimulus"":""img/red_lw/5.jpg"",""time"":254},{""stimulus"":""img/red_lw/6.jpg"",""time"":304},{""stimulus"":""img/red_lw/7.jpg"",""time"":363},{""stimulus"":""img/red_lw/8.jpg"",""time"":409},{""stimulus"":""img/red_lw/9.jpg"",""time"":452},{""stimulus"":""img/red_lw/10.jpg"",""time"":502},{""stimulus"":""img/red_lw/11.jpg"",""time"":553}]","[]"
"image-keyboard-response","78","77804","0.0-5.0-1.37","64141beda1cef49212be9b6c","bdp_lott","Mon Apr 10 2023 06:47:22 GMT+0800 (China Standard Time)","231018","green","red","","1","","","","choice","","img/red_lw/choose11.jpg","1","188","green","0.5","0.5","0.5","w","",""
"animation","79","78408","0.0-5.0-2.37","64141beda1cef49212be9b6c","bdp_lott","Mon Apr 10 2023 06:47:22 GMT+0800 (China Standard Time)","231018","green","red","","","","","","","","","","188","","","","","","[{""stimulus"":""img/green_ww/1.jpg"",""time"":58},{""stimulus"":""img/green_ww/2.jpg"",""time"":112},{""stimulus"":""img/green_ww/3.jpg"",""time"":152},{""stimulus"":""img/green_ww/4.jpg"",""time"":202},{""stimulus"":""img/green_ww/5.jpg"",""time"":251},{""stimulus"":""img/green_ww/6.jpg"",""time"":302},{""stimulus"":""img/green_ww/7.jpg"",""time"":358},{""stimulus"":""img/green_ww/8.jpg"",""time"":402},{""stimulus"":""img/green_ww/9.jpg"",""time"":452},{""stimulus"":""img/green_ww/10.jpg"",""time"":519},{""stimulus"":""img/green_ww/11.jpg"",""time"":596}]","[]"
"image-keyboard-response","80","78556","0.0-5.0-1.38","64141beda1cef49212be9b6c","bdp_lott","Mon Apr 10 2023 06:47:22 GMT+0800 (China Standard Time)","231018","green","red","","144","","","","choice","","img/green_ww/choose11.jpg","1","187","green","0.5","0.5","0.5","w","",""
"animation","81","79228","0.0-5.0-2.38","64141beda1cef49212be9b6c","bdp_lott","Mon Apr 10 2023 06:47:22 GMT+0800 (China Standard Time)","231018","green","red","","","","","","","","","","187","","","","","","[{""stimulus"":""img/green_ww/1.jpg"",""time"":135},{""stimulus"":""img/green_ww/2.jpg"",""time"":191},{""stimulus"":""img/green_ww/3.jpg"",""time"":231},{""stimulus"":""img/green_ww/4.jpg"",""time"":252},{""stimulus"":""img/green_ww/5.jpg"",""time"":304},{""stimulus"":""img/green_ww/6.jpg"",""time"":354},{""stimulus"":""img/green_ww/7.jpg"",""time"":406},{""stimulus"":""img/green_ww/8.jpg"",""time"":457},{""stimulus"":""img/green_ww/9.jpg"",""time"":504},{""stimulus"":""img/green_ww/10.jpg"",""time"":555},{""stimulus"":""img/green_ww/11.jpg"",""time"":604}]","[]"
"image-keyboard-response","82","79440","0.0-5.0-1.39","64141beda1cef49212be9b6c","bdp_lott","Mon Apr 10 2023 06:47:22 GMT+0800 (China Standard Time)","231018","green","red","","210","","","","choice","","img/green_ww/choose11.jpg","2","186","red","0.5","0.5","0.5","l","",""
"animation","83","80045","0.0-5.0-2.39","64141beda1cef49212be9b6c","bdp_lott","Mon Apr 10 2023 06:47:22 GMT+0800 (China Standard Time)","231018","green","red","","","","","","","","","","186","","","","","","[{""stimulus"":""img/red_wl/1.jpg"",""time"":72},{""stimulus"":""img/red_wl/2.jpg"",""time"":113},{""stimulus"":""img/red_wl/3.jpg"",""time"":154},{""stimulus"":""img/red_wl/4.jpg"",""time"":201},{""stimulus"":""img/red_wl/5.jpg"",""time"":252},{""stimulus"":""img/red_wl/6.jpg"",""time"":310},{""stimulus"":""img/red_wl/7.jpg"",""time"":353},{""stimulus"":""img/red_wl/8.jpg"",""time"":402},{""stimulus"":""img/red_wl/9.jpg"",""time"":454},{""stimulus"":""img/red_wl/10.jpg"",""time"":502},{""stimulus"":""img/red_wl/11.jpg"",""time"":553}]","[]"
"image-keyboard-response","84","80132","0.0-5.0-1.40","64141beda1cef49212be9b6c","bdp_lott","Mon Apr 10 2023 06:47:22 GMT+0800 (China Standard Time)","231018","green","red","","85","","","","choice","","img/red_wl/choose11.jpg","1","185","green","0.5","0.5","0.5","l","",""
"animation","85","80734","0.0-5.0-2.40","64141beda1cef49212be9b6c","bdp_lott","Mon Apr 10 2023 06:47:22 GMT+0800 (China Standard Time)","231018","green","red","","","","","","","","","","185","","","","","","[{""stimulus"":""img/green_ll/1.jpg"",""time"":62},{""stimulus"":""img/green_ll/2.jpg"",""time"":106},{""stimulus"":""img/green_ll/3.jpg"",""time"":155},{""stimulus"":""img/green_ll/4.jpg"",""time"":201},{""stimulus"":""img/green_ll/5.jpg"",""time"":262},{""stimulus"":""img/green_ll/6.jpg"",""time"":303},{""stimulus"":""img/green_ll/7.jpg"",""time"":352},{""stimulus"":""img/green_ll/8.jpg"",""time"":405},{""stimulus"":""img/green_ll/9.jpg"",""time"":455},{""stimulus"":""img/green_ll/10.jpg"",""time"":502},{""stimulus"":""img/green_ll/11.jpg"",""time"":555}]","[]"
"image-keyboard-response","86","81028","0.0-5.0-1.41","64141beda1cef49212be9b6c","bdp_lott","Mon Apr 10 2023 06:47:22 GMT+0800 (China Standard Time)","231018","green","red","","293","","","","choice","","img/green_ll/choose11.jpg","2","184","red","0.5","0.5","0.5","l","",""
"animation","87","81830","0.0-5.0-2.41","64141beda1cef49212be9b6c","bdp_lott","Mon Apr 10 2023 06:47:22 GMT+0800 (China Standard Time)","231018","green","red","","","","","","","","","","184","","","","","","[{""stimulus"":""img/red_ll/1.jpg"",""time"":107},{""stimulus"":""img/red_ll/2.jpg"",""time"":154},{""stimulus"":""img/red_ll/3.jpg"",""time"":202},{""stimulus"":""img/red_ll/4.jpg"",""time"":251},{""stimulus"":""img/red_ll/5.jpg"",""time"":303},{""stimulus"":""img/red_ll/6.jpg"",""time"":400},{""stimulus"":""img/red_ll/7.jpg"",""time"":486},{""stimulus"":""img/red_ll/8.jpg"",""time"":571},{""stimulus"":""img/red_ll/9.jpg"",""time"":675},{""stimulus"":""img/red_ll/10.jpg"",""time"":716},{""stimulus"":""img/red_ll/11.jpg"",""time"":757}]","[]"
"image-keyboard-response","88","81837","0.0-5.0-1.42","64141beda1cef49212be9b6c","bdp_lott","Mon Apr 10 2023 06:47:22 GMT+0800 (China Standard Time)","231018","green","red","","6","","","","choice","","img/red_ll/choose11.jpg","1","183","green","0.5","0.5","0.5","w","",""
"animation","89","82440","0.0-5.0-2.42","64141beda1cef49212be9b6c","bdp_lott","Mon Apr 10 2023 06:47:22 GMT+0800 (China Standard Time)","231018","green","red","","","","","","","","","","183","","","","","","[{""stimulus"":""img/green_wl/1.jpg"",""time"":53},{""stimulus"":""img/green_wl/2.jpg"",""time"":108},{""stimulus"":""img/green_wl/3.jpg"",""time"":159},{""stimulus"":""img/green_wl/4.jpg"",""time"":203},{""stimulus"":""img/green_wl/5.jpg"",""time"":252},{""stimulus"":""img/green_wl/6.jpg"",""time"":304},{""stimulus"":""img/green_wl/7.jpg"",""time"":352},{""stimulus"":""img/green_wl/8.jpg"",""time"":402},{""stimulus"":""img/green_wl/9.jpg"",""time"":452},{""stimulus"":""img/green_wl/10.jpg"",""time"":502},{""stimulus"":""img/green_wl/11.jpg"",""time"":552}]","[]"
"image-keyboard-response","90","82627","0.0-5.0-1.43","64141beda1cef49212be9b6c","bdp_lott","Mon Apr 10 2023 06:47:22 GMT+0800 (China Standard Time)","231018","green","red","","185","","","","choice","","img/green_wl/choose11.jpg","2","182","red","0.5","0.5","0.5","l","",""
"animation","91","83228","0.0-5.0-2.43","64141beda1cef49212be9b6c","bdp_lott","Mon Apr 10 2023 06:47:22 GMT+0800 (China Standard Time)","231018","green","red","","","","","","","","","","182","","","","","","[{""stimulus"":""img/red_wl/1.jpg"",""time"":92},{""stimulus"":""img/red_wl/2.jpg"",""time"":102},{""stimulus"":""img/red_wl/3.jpg"",""time"":172},{""stimulus"":""img/red_wl/4.jpg"",""time"":203},{""stimulus"":""img/red_wl/5.jpg"",""time"":254},{""stimulus"":""img/red_wl/6.jpg"",""time"":306},{""stimulus"":""img/red_wl/7.jpg"",""time"":352},{""stimulus"":""img/red_wl/8.jpg"",""time"":407},{""stimulus"":""img/red_wl/9.jpg"",""time"":453},{""stimulus"":""img/red_wl/10.jpg"",""time"":502},{""stimulus"":""img/red_wl/11.jpg"",""time"":553}]","[]"
"image-keyboard-response","92","83419","0.0-5.0-1.44","64141beda1cef49212be9b6c","bdp_lott","Mon Apr 10 2023 06:47:22 GMT+0800 (China Standard Time)","231018","green","red","","190","","","","choice","","img/red_wl/choose11.jpg","2","181","red","0.5","0.5","0.5","l","",""
"animation","93","84096","0.0-5.0-2.44","64141beda1cef49212be9b6c","bdp_lott","Mon Apr 10 2023 06:47:22 GMT+0800 (China Standard Time)","231018","green","red","","","","","","","","","","181","","","","","","[{""stimulus"":""img/red_wl/1.jpg"",""time"":52},{""stimulus"":""img/red_wl/2.jpg"",""time"":113},{""stimulus"":""img/red_wl/3.jpg"",""time"":153},{""stimulus"":""img/red_wl/4.jpg"",""time"":202},{""stimulus"":""img/red_wl/5.jpg"",""time"":253},{""stimulus"":""img/red_wl/6.jpg"",""time"":302},{""stimulus"":""img/red_wl/7.jpg"",""time"":360},{""stimulus"":""img/red_wl/8.jpg"",""time"":403},{""stimulus"":""img/red_wl/9.jpg"",""time"":463},{""stimulus"":""img/red_wl/10.jpg"",""time"":513},{""stimulus"":""img/red_wl/11.jpg"",""time"":552}]","[]"
"image-keyboard-response","94","84332","0.0-5.0-1.45","64141beda1cef49212be9b6c","bdp_lott","Mon Apr 10 2023 06:47:22 GMT+0800 (China Standard Time)","231018","green","red","","234","","","","choice","","img/red_wl/choose11.jpg","1","180","green","0.5","0.5","0.5","l","",""
"animation","95","84984","0.0-5.0-2.45","64141beda1cef49212be9b6c","bdp_lott","Mon Apr 10 2023 06:47:22 GMT+0800 (China Standard Time)","231018","green","red","","","","","","","","","","180","","","","","","[{""stimulus"":""img/green_ll/1.jpg"",""time"":116},{""stimulus"":""img/green_ll/2.jpg"",""time"":153},{""stimulus"":""img/green_ll/3.jpg"",""time"":204},{""stimulus"":""img/green_ll/4.jpg"",""time"":255},{""stimulus"":""img/green_ll/5.jpg"",""time"":302},{""stimulus"":""img/green_ll/6.jpg"",""time"":368},{""stimulus"":""img/green_ll/7.jpg"",""time"":407},{""stimulus"":""img/green_ll/8.jpg"",""time"":452},{""stimulus"":""img/green_ll/9.jpg"",""time"":502},{""stimulus"":""img/green_ll/10.jpg"",""time"":572},{""stimulus"":""img/green_ll/11.jpg"",""time"":603}]","[]"
"image-keyboard-response","96","85099","0.0-5.0-1.46","64141beda1cef49212be9b6c","bdp_lott","Mon Apr 10 2023 06:47:22 GMT+0800 (China Standard Time)","231018","green","red","","113","","","","choice","","img/green_ll/choose11.jpg","2","179","red","0.5","0.5","0.5","w","",""
"animation","97","85751","0.0-5.0-2.46","64141beda1cef49212be9b6c","bdp_lott","Mon Apr 10 2023 06:47:22 GMT+0800 (China Standard Time)","231018","green","red","","","","","","","","","","179","","","","","","[{""stimulus"":""img/red_lw/1.jpg"",""time"":83},{""stimulus"":""img/red_lw/2.jpg"",""time"":165},{""stimulus"":""img/red_lw/3.jpg"",""time"":206},{""stimulus"":""img/red_lw/4.jpg"",""time"":251},{""stimulus"":""img/red_lw/5.jpg"",""time"":310},{""stimulus"":""img/red_lw/6.jpg"",""time"":352},{""stimulus"":""img/red_lw/7.jpg"",""time"":410},{""stimulus"":""img/red_lw/8.jpg"",""time"":451},{""stimulus"":""img/red_lw/9.jpg"",""time"":502},{""stimulus"":""img/red_lw/10.jpg"",""time"":558},{""stimulus"":""img/red_lw/11.jpg"",""time"":605}]","[]"
"image-keyboard-response","98","86035","0.0-5.0-1.47","64141beda1cef49212be9b6c","bdp_lott","Mon Apr 10 2023 06:47:22 GMT+0800 (China Standard Time)","231018","green","red","","277","","","","choice","","img/red_lw/choose11.jpg","1","178","green","0.5","0.5","0.5","l","",""
"animation","99","86737","0.0-5.0-2.47","64141beda1cef49212be9b6c","bdp_lott","Mon Apr 10 2023 06:47:22 GMT+0800 (China Standard Time)","231018","green","red","","","","","","","","","","178","","","","","","[{""stimulus"":""img/green_lw/1.jpg"",""time"":136},{""stimulus"":""img/green_lw/2.jpg"",""time"":194},{""stimulus"":""img/green_lw/3.jpg"",""time"":201},{""stimulus"":""img/green_lw/4.jpg"",""time"":255},{""stimulus"":""img/green_lw/5.jpg"",""time"":302},{""stimulus"":""img/green_lw/6.jpg"",""time"":351},{""stimulus"":""img/green_lw/7.jpg"",""time"":403},{""stimulus"":""img/green_lw/8.jpg"",""time"":521},{""stimulus"":""img/green_lw/9.jpg"",""time"":588},{""stimulus"":""img/green_lw/10.jpg"",""time"":638},{""stimulus"":""img/green_lw/11.jpg"",""time"":652}]","[]"
"image-keyboard-response","100","86925","0.0-5.0-1.48","64141beda1cef49212be9b6c","bdp_lott","Mon Apr 10 2023 06:47:22 GMT+0800 (China Standard Time)","231018","green","red","","185","","","","choice","","img/green_lw/choose11.jpg","2","177","red","0.5","0.5","0.5","w","",""
"animation","101","87577","0.0-5.0-2.48","64141beda1cef49212be9b6c","bdp_lott","Mon Apr 10 2023 06:47:22 GMT+0800 (China Standard Time)","231018","green","red","","","","","","","","","","177","","","","","","[{""stimulus"":""img/red_lw/1.jpg"",""time"":87},{""stimulus"":""img/red_lw/2.jpg"",""time"":153},{""stimulus"":""img/red_lw/3.jpg"",""time"":203},{""stimulus"":""img/red_lw/4.jpg"",""time"":254},{""stimulus"":""img/red_lw/5.jpg"",""time"":303},{""stimulus"":""img/red_lw/6.jpg"",""time"":355},{""stimulus"":""img/red_lw/7.jpg"",""time"":403},{""stimulus"":""img/red_lw/8.jpg"",""time"":455},{""stimulus"":""img/red_lw/9.jpg"",""time"":503},{""stimulus"":""img/red_lw/10.jpg"",""time"":556},{""stimulus"":""img/red_lw/11.jpg"",""time"":602}]","[]"
"image-keyboard-response","102","87712","0.0-5.0-1.49","64141beda1cef49212be9b6c","bdp_lott","Mon Apr 10 2023 06:47:22 GMT+0800 (China Standard Time)","231018","green","red","","134","","","","choice","","img/red_lw/choose11.jpg","2","176","red","0.5","0.5","0.5","l","",""
"animation","103","88315","0.0-5.0-2.49","64141beda1cef49212be9b6c","bdp_lott","Mon Apr 10 2023 06:47:22 GMT+0800 (China Standard Time)","231018","green","red","","","","","","","","","","176","","","","","","[{""stimulus"":""img/red_ll/1.jpg"",""time"":67},{""stimulus"":""img/red_ll/2.jpg"",""time"":101},{""stimulus"":""img/red_ll/3.jpg"",""time"":156},{""stimulus"":""img/red_ll/4.jpg"",""time"":207},{""stimulus"":""img/red_ll/5.jpg"",""time"":252},{""stimulus"":""img/red_ll/6.jpg"",""time"":315},{""stimulus"":""img/red_ll/7.jpg"",""time"":358},{""stimulus"":""img/red_ll/8.jpg"",""time"":413},{""stimulus"":""img/red_ll/9.jpg"",""time"":457},{""stimulus"":""img/red_ll/10.jpg"",""time"":503},{""stimulus"":""img/red_ll/11.jpg"",""time"":552}]","[]"
"image-keyboard-response","104","88655","0.0-5.0-1.50","64141beda1cef49212be9b6c","bdp_lott","Mon Apr 10 2023 06:47:22 GMT+0800 (China Standard Time)","231018","green","red","","338","","","","choice","","img/red_ll/choose11.jpg","1","175","green","0.5","0.5","0.5","l","",""
"animation","105","89308","0.0-5.0-2.50","64141beda1cef49212be9b6c","bdp_lott","Mon Apr 10 2023 06:47:22 GMT+0800 (China Standard Time)","231018","green","red","","","","","","","","","","175","","","","","","[{""stimulus"":""img/green_ll/1.jpg"",""time"":124},{""stimulus"":""img/green_ll/2.jpg"",""time"":153},{""stimulus"":""img/green_ll/3.jpg"",""time"":202},{""stimulus"":""img/green_ll/4.jpg"",""time"":254},{""stimulus"":""img/green_ll/5.jpg"",""time"":302},{""stimulus"":""img/green_ll/6.jpg"",""time"":357},{""stimulus"":""img/green_ll/7.jpg"",""time"":403},{""stimulus"":""img/green_ll/8.jpg"",""time"":456},{""stimulus"":""img/green_ll/9.jpg"",""time"":503},{""stimulus"":""img/green_ll/10.jpg"",""time"":556},{""stimulus"":""img/green_ll/11.jpg"",""time"":605}]","[]"
"image-keyboard-response","106","89694","0.0-5.0-1.51","64141beda1cef49212be9b6c","bdp_lott","Mon Apr 10 2023 06:47:22 GMT+0800 (China Standard Time)","231018","green","red","","384","","","","choice","","img/green_ll/choose11.jpg","2","174","red","0.5","0.5","0.5","w","",""
"animation","107","90295","0.0-5.0-2.51","64141beda1cef49212be9b6c","bdp_lott","Mon Apr 10 2023 06:47:22 GMT+0800 (China Standard Time)","231018","green","red","","","","","","","","","","174","","","","","","[{""stimulus"":""img/red_lw/1.jpg"",""time"":52},{""stimulus"":""img/red_lw/2.jpg"",""time"":102},{""stimulus"":""img/red_lw/3.jpg"",""time"":152},{""stimulus"":""img/red_lw/4.jpg"",""time"":202},{""stimulus"":""img/red_lw/5.jpg"",""time"":252},{""stimulus"":""img/red_lw/6.jpg"",""time"":303},{""stimulus"":""img/red_lw/7.jpg"",""time"":353},{""stimulus"":""img/red_lw/8.jpg"",""time"":409},{""stimulus"":""img/red_lw/9.jpg"",""time"":452},{""stimulus"":""img/red_lw/10.jpg"",""time"":503},{""stimulus"":""img/red_lw/11.jpg"",""time"":553}]","[]"
"image-keyboard-response","108","90382","0.0-5.0-1.52","64141beda1cef49212be9b6c","bdp_lott","Mon Apr 10 2023 06:47:22 GMT+0800 (China Standard Time)","231018","green","red","","86","","","","choice","","img/red_lw/choose11.jpg","1","173","green","0.5","0.5","0.5","w","",""
"animation","109","90984","0.0-5.0-2.52","64141beda1cef49212be9b6c","bdp_lott","Mon Apr 10 2023 06:47:22 GMT+0800 (China Standard Time)","231018","green","red","","","","","","","","","","173","","","","","","[{""stimulus"":""img/green_ww/1.jpg"",""time"":77},{""stimulus"":""img/green_ww/2.jpg"",""time"":104},{""stimulus"":""img/green_ww/3.jpg"",""time"":159},{""stimulus"":""img/green_ww/4.jpg"",""time"":208},{""stimulus"":""img/green_ww/5.jpg"",""time"":253},{""stimulus"":""img/green_ww/6.jpg"",""time"":309},{""stimulus"":""img/green_ww/7.jpg"",""time"":354},{""stimulus"":""img/green_ww/8.jpg"",""time"":402},{""stimulus"":""img/green_ww/9.jpg"",""time"":457},{""stimulus"":""img/green_ww/10.jpg"",""time"":512},{""stimulus"":""img/green_ww/11.jpg"",""time"":553}]","[]"
"image-keyboard-response","110","91034","0.0-5.0-1.53","64141beda1cef49212be9b6c","bdp_lott","Mon Apr 10 2023 06:47:22 GMT+0800 (China Standard Time)","231018","green","red","","49","","","","choice","","img/green_ww/choose11.jpg","1","172","green","0.5","0.5","0.5","l","",""
"animation","111","91686","0.0-5.0-2.53","64141beda1cef49212be9b6c","bdp_lott","Mon Apr 10 2023 06:47:22 GMT+0800 (China Standard Time)","231018","green","red","","","","","","","","","","172","","","","","","[{""stimulus"":""img/green_lw/1.jpg"",""time"":104},{""stimulus"":""img/green_lw/2.jpg"",""time"":152},{""stimulus"":""img/green_lw/3.jpg"",""time"":203},{""stimulus"":""img/green_lw/4.jpg"",""time"":252},{""stimulus"":""img/green_lw/5.jpg"",""time"":304},{""stimulus"":""img/green_lw/6.jpg"",""time"":352},{""stimulus"":""img/green_lw/7.jpg"",""time"":401},{""stimulus"":""img/green_lw/8.jpg"",""time"":452},{""stimulus"":""img/green_lw/9.jpg"",""time"":505},{""stimulus"":""img/green_lw/10.jpg"",""time"":567},{""stimulus"":""img/green_lw/11.jpg"",""time"":623}]","[]"
"image-keyboard-response","112","91838","0.0-5.0-1.54","64141beda1cef49212be9b6c","bdp_lott","Mon Apr 10 2023 06:47:22 GMT+0800 (China Standard Time)","231018","green","red","","151","","","","choice","","img/green_lw/choose11.jpg","2","171","red","0.5","0.5","0.5","l","",""
"animation","113","92490","0.0-5.0-2.54","64141beda1cef49212be9b6c","bdp_lott","Mon Apr 10 2023 06:47:22 GMT+0800 (China Standard Time)","231018","green","red","","","","","","","","","","171","","","","","","[{""stimulus"":""img/red_ll/1.jpg"",""time"":69},{""stimulus"":""img/red_ll/2.jpg"",""time"":126},{""stimulus"":""img/red_ll/3.jpg"",""time"":224},{""stimulus"":""img/red_ll/4.jpg"",""time"":284},{""stimulus"":""img/red_ll/5.jpg"",""time"":334},{""stimulus"":""img/red_ll/6.jpg"",""time"":389},{""stimulus"":""img/red_ll/7.jpg"",""time"":442},{""stimulus"":""img/red_ll/8.jpg"",""time"":453},{""stimulus"":""img/red_ll/9.jpg"",""time"":503},{""stimulus"":""img/red_ll/10.jpg"",""time"":553},{""stimulus"":""img/red_ll/11.jpg"",""time"":602}]","[]"
"image-keyboard-response","114","93091","0.0-5.0-1.55","64141beda1cef49212be9b6c","bdp_lott","Mon Apr 10 2023 06:47:22 GMT+0800 (China Standard Time)","231018","green","red","","599","","","","choice","","img/red_ll/choose11.jpg","1","170","green","0.5","0.5","0.5","w","",""
"animation","115","93696","0.0-5.0-2.55","64141beda1cef49212be9b6c","bdp_lott","Mon Apr 10 2023 06:47:22 GMT+0800 (China Standard Time)","231018","green","red","","","","","","","","","","170","","","","","","[{""stimulus"":""img/green_wl/1.jpg"",""time"":70},{""stimulus"":""img/green_wl/2.jpg"",""time"":120},{""stimulus"":""img/green_wl/3.jpg"",""time"":154},{""stimulus"":""img/green_wl/4.jpg"",""time"":210},{""stimulus"":""img/green_wl/5.jpg"",""time"":260},{""stimulus"":""img/green_wl/6.jpg"",""time"":343},{""stimulus"":""img/green_wl/7.jpg"",""time"":355},{""stimulus"":""img/green_wl/8.jpg"",""time"":430},{""stimulus"":""img/green_wl/9.jpg"",""time"":453},{""stimulus"":""img/green_wl/10.jpg"",""time"":502},{""stimulus"":""img/green_wl/11.jpg"",""time"":552}]","[]"
"image-keyboard-response","116","93769","0.0-5.0-1.56","64141beda1cef49212be9b6c","bdp_lott","Mon Apr 10 2023 06:47:22 GMT+0800 (China Standard Time)","231018","green","red","","71","","","","choice","","img/green_wl/choose11.jpg","2","169","red","0.5","0.5","0.5","l","",""
"animation","117","94434","0.0-5.0-2.56","64141beda1cef49212be9b6c","bdp_lott","Mon Apr 10 2023 06:47:22 GMT+0800 (China Standard Time)","231018","green","red","","","","","","","","","","169","","","","","","[{""stimulus"":""img/red_wl/1.jpg"",""time"":106},{""stimulus"":""img/red_wl/2.jpg"",""time"":155},{""stimulus"":""img/red_wl/3.jpg"",""time"":203},{""stimulus"":""img/red_wl/4.jpg"",""time"":254},{""stimulus"":""img/red_wl/5.jpg"",""time"":325},{""stimulus"":""img/red_wl/6.jpg"",""time"":351},{""stimulus"":""img/red_wl/7.jpg"",""time"":412},{""stimulus"":""img/red_wl/8.jpg"",""time"":453},{""stimulus"":""img/red_wl/9.jpg"",""time"":502},{""stimulus"":""img/red_wl/10.jpg"",""time"":554},{""stimulus"":""img/red_wl/11.jpg"",""time"":603}]","[]"
"image-keyboard-response","118","94519","0.0-5.0-1.57","64141beda1cef49212be9b6c","bdp_lott","Mon Apr 10 2023 06:47:22 GMT+0800 (China Standard Time)","231018","green","red","","83","","","","choice","","img/red_wl/choose11.jpg","1","168","green","0.5","0.5","0.5","l","",""
"animation","119","95123","0.0-5.0-2.57","64141beda1cef49212be9b6c","bdp_lott","Mon Apr 10 2023 06:47:22 GMT+0800 (China Standard Time)","231018","green","red","","","","","","","","","","168","","","","","","[{""stimulus"":""img/green_ll/1.jpg"",""time"":84},{""stimulus"":""img/green_ll/2.jpg"",""time"":137},{""stimulus"":""img/green_ll/3.jpg"",""time"":151},{""stimulus"":""img/green_ll/4.jpg"",""time"":209},{""stimulus"":""img/green_ll/5.jpg"",""time"":254},{""stimulus"":""img/green_ll/6.jpg"",""time"":306},{""stimulus"":""img/green_ll/7.jpg"",""time"":352},{""stimulus"":""img/green_ll/8.jpg"",""time"":402},{""stimulus"":""img/green_ll/9.jpg"",""time"":452},{""stimulus"":""img/green_ll/10.jpg"",""time"":506},{""stimulus"":""img/green_ll/11.jpg"",""time"":554}]","[]"
"image-keyboard-response","120","95247","0.0-5.0-1.58","64141beda1cef49212be9b6c","bdp_lott","Mon Apr 10 2023 06:47:22 GMT+0800 (China Standard Time)","231018","green","red","","121","","","","choice","","img/green_ll/choose11.jpg","2","167","red","0.5","0.5","0.5","l","",""
"animation","121","95848","0.0-5.0-2.58","64141beda1cef49212be9b6c","bdp_lott","Mon Apr 10 2023 06:47:22 GMT+0800 (China Standard Time)","231018","green","red","","","","","","","","","","167","","","","","","[{""stimulus"":""img/red_ll/1.jpg"",""time"":86},{""stimulus"":""img/red_ll/2.jpg"",""time"":126},{""stimulus"":""img/red_ll/3.jpg"",""time"":157},{""stimulus"":""img/red_ll/4.jpg"",""time"":210},{""stimulus"":""img/red_ll/5.jpg"",""time"":254},{""stimulus"":""img/red_ll/6.jpg"",""time"":302},{""stimulus"":""img/red_ll/7.jpg"",""time"":352},{""stimulus"":""img/red_ll/8.jpg"",""time"":408},{""stimulus"":""img/red_ll/9.jpg"",""time"":458},{""stimulus"":""img/red_ll/10.jpg"",""time"":502},{""stimulus"":""img/red_ll/11.jpg"",""time"":561}]","[]"
"image-keyboard-response","122","96005","0.0-5.0-1.59","64141beda1cef49212be9b6c","bdp_lott","Mon Apr 10 2023 06:47:22 GMT+0800 (China Standard Time)","231018","green","red","","156","","","","choice","","img/red_ll/choose11.jpg","2","166","red","0.5","0.5","0.5","w","",""
"animation","123","96711","0.0-5.0-2.59","64141beda1cef49212be9b6c","bdp_lott","Mon Apr 10 2023 06:47:22 GMT+0800 (China Standard Time)","231018","green","red","","","","","","","","","","166","","","","","","[{""stimulus"":""img/red_lw/1.jpg"",""time"":130},{""stimulus"":""img/red_lw/2.jpg"",""time"":178},{""stimulus"":""img/red_lw/3.jpg"",""time"":263},{""stimulus"":""img/red_lw/4.jpg"",""time"":302},{""stimulus"":""img/red_lw/5.jpg"",""time"":356},{""stimulus"":""img/red_lw/6.jpg"",""time"":418},{""stimulus"":""img/red_lw/7.jpg"",""time"":461},{""stimulus"":""img/red_lw/8.jpg"",""time"":502},{""stimulus"":""img/red_lw/9.jpg"",""time"":556},{""stimulus"":""img/red_lw/10.jpg"",""time"":603},{""stimulus"":""img/red_lw/11.jpg"",""time"":654}]","[]"
"image-keyboard-response","124","96845","0.0-5.0-1.60","64141beda1cef49212be9b6c","bdp_lott","Mon Apr 10 2023 06:47:22 GMT+0800 (China Standard Time)","231018","green","red","","132","","","","choice","","img/red_lw/choose11.jpg","2","165","red","0.5","0.5","0.5","w","",""
"animation","125","97498","0.0-5.0-2.60","64141beda1cef49212be9b6c","bdp_lott","Mon Apr 10 2023 06:47:22 GMT+0800 (China Standard Time)","231018","green","red","","","","","","","","","","165","","","","","","[{""stimulus"":""img/red_lw/1.jpg"",""time"":71},{""stimulus"":""img/red_lw/2.jpg"",""time"":107},{""stimulus"":""img/red_lw/3.jpg"",""time"":158},{""stimulus"":""img/red_lw/4.jpg"",""time"":221},{""stimulus"":""img/red_lw/5.jpg"",""time"":262},{""stimulus"":""img/red_lw/6.jpg"",""time"":311},{""stimulus"":""img/red_lw/7.jpg"",""time"":352},{""stimulus"":""img/red_lw/8.jpg"",""time"":402},{""stimulus"":""img/red_lw/9.jpg"",""time"":453},{""stimulus"":""img/red_lw/10.jpg"",""time"":536},{""stimulus"":""img/red_lw/11.jpg"",""time"":601}]","[]"
"image-keyboard-response","126","97766","0.0-5.0-1.61","64141beda1cef49212be9b6c","bdp_lott","Mon Apr 10 2023 06:47:22 GMT+0800 (China Standard Time)","231018","green","red","","266","","","","choice","","img/red_lw/choose11.jpg","2","164","red","0.5","0.5","0.5","w","",""
"animation","127","98420","0.0-5.0-2.61","64141beda1cef49212be9b6c","bdp_lott","Mon Apr 10 2023 06:47:22 GMT+0800 (China Standard Time)","231018","green","red","","","","","","","","","","164","","","","","","[{""stimulus"":""img/red_lw/1.jpg"",""time"":99},{""stimulus"":""img/red_lw/2.jpg"",""time"":153},{""stimulus"":""img/red_lw/3.jpg"",""time"":204},{""stimulus"":""img/red_lw/4.jpg"",""time"":251},{""stimulus"":""img/red_lw/5.jpg"",""time"":313},{""stimulus"":""img/red_lw/6.jpg"",""time"":357},{""stimulus"":""img/red_lw/7.jpg"",""time"":405},{""stimulus"":""img/red_lw/8.jpg"",""time"":457},{""stimulus"":""img/red_lw/9.jpg"",""time"":507},{""stimulus"":""img/red_lw/10.jpg"",""time"":561},{""stimulus"":""img/red_lw/11.jpg"",""time"":614}]","[]"
"image-keyboard-response","128","98662","0.0-5.0-1.62","64141beda1cef49212be9b6c","bdp_lott","Mon Apr 10 2023 06:47:22 GMT+0800 (China Standard Time)","231018","green","red","","241","","","","choice","","img/red_lw/choose11.jpg","2","163","red","0.5","0.5","0.5","w","",""
"animation","129","99265","0.0-5.0-2.62","64141beda1cef49212be9b6c","bdp_lott","Mon Apr 10 2023 06:47:22 GMT+0800 (China Standard Time)","231018","green","red","","","","","","","","","","163","","","","","","[{""stimulus"":""img/red_lw/1.jpg"",""time"":59},{""stimulus"":""img/red_lw/2.jpg"",""time"":122},{""stimulus"":""img/red_lw/3.jpg"",""time"":153},{""stimulus"":""img/red_lw/4.jpg"",""time"":203},{""stimulus"":""img/red_lw/5.jpg"",""time"":252},{""stimulus"":""img/red_lw/6.jpg"",""time"":303},{""stimulus"":""img/red_lw/7.jpg"",""time"":351},{""stimulus"":""img/red_lw/8.jpg"",""time"":402},{""stimulus"":""img/red_lw/9.jpg"",""time"":452},{""stimulus"":""img/red_lw/10.jpg"",""time"":502},{""stimulus"":""img/red_lw/11.jpg"",""time"":556}]","[]"
"image-keyboard-response","130","102438","0.0-5.0-1.63","64141beda1cef49212be9b6c","bdp_lott","Mon Apr 10 2023 06:47:22 GMT+0800 (China Standard Time)","231018","green","red","","3172","","","","choice","","img/red_lw/choose11.jpg","2","162","red","0.5","0.5","0.5","l","",""
"animation","131","103136","0.0-5.0-2.63","64141beda1cef49212be9b6c","bdp_lott","Mon Apr 10 2023 06:47:22 GMT+0800 (China Standard Time)","231018","green","red","","","","","","","","","","162","","","","","","[{""stimulus"":""img/red_ll/1.jpg"",""time"":100},{""stimulus"":""img/red_ll/2.jpg"",""time"":152},{""stimulus"":""img/red_ll/3.jpg"",""time"":202},{""stimulus"":""img/red_ll/4.jpg"",""time"":252},{""stimulus"":""img/red_ll/5.jpg"",""time"":302},{""stimulus"":""img/red_ll/6.jpg"",""time"":358},{""stimulus"":""img/red_ll/7.jpg"",""time"":403},{""stimulus"":""img/red_ll/8.jpg"",""time"":455},{""stimulus"":""img/red_ll/9.jpg"",""time"":506},{""stimulus"":""img/red_ll/10.jpg"",""time"":596},{""stimulus"":""img/red_ll/11.jpg"",""time"":602}]","[]"
"image-keyboard-response","132","103157","0.0-5.0-1.64","64141beda1cef49212be9b6c","bdp_lott","Mon Apr 10 2023 06:47:22 GMT+0800 (China Standard Time)","231018","green","red","","19","","","","choice","","img/red_ll/choose11.jpg","2","161","red","0.5","0.5","0.5","w","",""
"animation","133","103852","0.0-5.0-2.64","64141beda1cef49212be9b6c","bdp_lott","Mon Apr 10 2023 06:47:22 GMT+0800 (China Standard Time)","231018","green","red","","","","","","","","","","161","","","","","","[{""stimulus"":""img/red_lw/1.jpg"",""time"":107},{""stimulus"":""img/red_lw/2.jpg"",""time"":194},{""stimulus"":""img/red_lw/3.jpg"",""time"":201},{""stimulus"":""img/red_lw/4.jpg"",""time"":253},{""stimulus"":""img/red_lw/5.jpg"",""time"":304},{""stimulus"":""img/red_lw/6.jpg"",""time"":353},{""stimulus"":""img/red_lw/7.jpg"",""time"":405},{""stimulus"":""img/red_lw/8.jpg"",""time"":454},{""stimulus"":""img/red_lw/9.jpg"",""time"":504},{""stimulus"":""img/red_lw/10.jpg"",""time"":553},{""stimulus"":""img/red_lw/11.jpg"",""time"":613}]","[]"
"image-keyboard-response","134","104104","0.0-5.0-1.65","64141beda1cef49212be9b6c","bdp_lott","Mon Apr 10 2023 06:47:22 GMT+0800 (China Standard Time)","231018","green","red","","250","","","","choice","","img/red_lw/choose11.jpg","1","160","green","0.5","0.5","0.5","l","",""
"animation","135","104705","0.0-5.0-2.65","64141beda1cef49212be9b6c","bdp_lott","Mon Apr 10 2023 06:47:22 GMT+0800 (China Standard Time)","231018","green","red","","","","","","","","","","160","","","","","","[{""stimulus"":""img/green_lw/1.jpg"",""time"":82},{""stimulus"":""img/green_lw/2.jpg"",""time"":127},{""stimulus"":""img/green_lw/3.jpg"",""time"":175},{""stimulus"":""img/green_lw/4.jpg"",""time"":209},{""stimulus"":""img/green_lw/5.jpg"",""time"":253},{""stimulus"":""img/green_lw/6.jpg"",""time"":303},{""stimulus"":""img/green_lw/7.jpg"",""time"":352},{""stimulus"":""img/green_lw/8.jpg"",""time"":405},{""stimulus"":""img/green_lw/9.jpg"",""time"":453},{""stimulus"":""img/green_lw/10.jpg"",""time"":502},{""stimulus"":""img/green_lw/11.jpg"",""time"":554}]","[]"
"image-keyboard-response","136","104842","0.0-5.0-1.66","64141beda1cef49212be9b6c","bdp_lott","Mon Apr 10 2023 06:47:22 GMT+0800 (China Standard Time)","231018","green","red","","135","","","","choice","","img/green_lw/choose11.jpg","1","159","green","0.5","0.5","0.5","w","",""
"animation","137","105462","0.0-5.0-2.66","64141beda1cef49212be9b6c","bdp_lott","Mon Apr 10 2023 06:47:22 GMT+0800 (China Standard Time)","231018","green","red","","","","","","","","","","159","","","","","","[{""stimulus"":""img/green_ww/1.jpg"",""time"":72},{""stimulus"":""img/green_ww/2.jpg"",""time"":115},{""stimulus"":""img/green_ww/3.jpg"",""time"":169},{""stimulus"":""img/green_ww/4.jpg"",""time"":208},{""stimulus"":""img/green_ww/5.jpg"",""time"":266},{""stimulus"":""img/green_ww/6.jpg"",""time"":312},{""stimulus"":""img/green_ww/7.jpg"",""time"":359},{""stimulus"":""img/green_ww/8.jpg"",""time"":403},{""stimulus"":""img/green_ww/9.jpg"",""time"":456},{""stimulus"":""img/green_ww/10.jpg"",""time"":505},{""stimulus"":""img/green_ww/11.jpg"",""time"":553}]","[]"
"image-keyboard-response","138","105629","0.0-5.0-1.67","64141beda1cef49212be9b6c","bdp_lott","Mon Apr 10 2023 06:47:22 GMT+0800 (China Standard Time)","231018","green","red","","166","","","","choice","","img/green_ww/choose11.jpg","2","158","red","0.5","0.5","0.5","w","",""
"animation","139","106282","0.0-5.0-2.67","64141beda1cef49212be9b6c","bdp_lott","Mon Apr 10 2023 06:47:22 GMT+0800 (China Standard Time)","231018","green","red","","","","","","","","","","158","","","","","","[{""stimulus"":""img/red_ww/1.jpg"",""time"":62},{""stimulus"":""img/red_ww/2.jpg"",""time"":106},{""stimulus"":""img/red_ww/3.jpg"",""time"":153},{""stimulus"":""img/red_ww/4.jpg"",""time"":204},{""stimulus"":""img/red_ww/5.jpg"",""time"":308},{""stimulus"":""img/red_ww/6.jpg"",""time"":352},{""stimulus"":""img/red_ww/7.jpg"",""time"":403},{""stimulus"":""img/red_ww/8.jpg"",""time"":452},{""stimulus"":""img/red_ww/9.jpg"",""time"":510},{""stimulus"":""img/red_ww/10.jpg"",""time"":563},{""stimulus"":""img/red_ww/11.jpg"",""time"":603}]","[]"
"image-keyboard-response","140","106372","0.0-5.0-1.68","64141beda1cef49212be9b6c","bdp_lott","Mon Apr 10 2023 06:47:22 GMT+0800 (China Standard Time)","231018","green","red","","88","","","","choice","","img/red_ww/choose11.jpg","1","157","green","0.5","0.5","0.5","l","",""
"animation","141","107038","0.0-5.0-2.68","64141beda1cef49212be9b6c","bdp_lott","Mon Apr 10 2023 06:47:22 GMT+0800 (China Standard Time)","231018","green","red","","","","","","","","","","157","","","","","","[{""stimulus"":""img/green_lw/1.jpg"",""time"":51},{""stimulus"":""img/green_lw/2.jpg"",""time"":101},{""stimulus"":""img/green_lw/3.jpg"",""time"":151},{""stimulus"":""img/green_lw/4.jpg"",""time"":202},{""stimulus"":""img/green_lw/5.jpg"",""time"":254},{""stimulus"":""img/green_lw/6.jpg"",""time"":302},{""stimulus"":""img/green_lw/7.jpg"",""time"":365},{""stimulus"":""img/green_lw/8.jpg"",""time"":402},{""stimulus"":""img/green_lw/9.jpg"",""time"":467},{""stimulus"":""img/green_lw/10.jpg"",""time"":508},{""stimulus"":""img/green_lw/11.jpg"",""time"":564}]","[]"
"image-keyboard-response","142","107156","0.0-5.0-1.69","64141beda1cef49212be9b6c","bdp_lott","Mon Apr 10 2023 06:47:22 GMT+0800 (China Standard Time)","231018","green","red","","116","","","","choice","","img/green_lw/choose11.jpg","1","156","green","0.5","0.5","0.5","l","",""
"animation","143","107783","0.0-5.0-2.69","64141beda1cef49212be9b6c","bdp_lott","Mon Apr 10 2023 06:47:22 GMT+0800 (China Standard Time)","231018","green","red","","","","","","","","","","156","","","","","","[{""stimulus"":""img/green_lw/1.jpg"",""time"":83},{""stimulus"":""img/green_lw/2.jpg"",""time"":128},{""stimulus"":""img/green_lw/3.jpg"",""time"":168},{""stimulus"":""img/green_lw/4.jpg"",""time"":201},{""stimulus"":""img/green_lw/5.jpg"",""time"":258},{""stimulus"":""img/green_lw/6.jpg"",""time"":307},{""stimulus"":""img/green_lw/7.jpg"",""time"":354},{""stimulus"":""img/green_lw/8.jpg"",""time"":403},{""stimulus"":""img/green_lw/9.jpg"",""time"":452},{""stimulus"":""img/green_lw/10.jpg"",""time"":502},{""stimulus"":""img/green_lw/11.jpg"",""time"":562}]","[]"
"image-keyboard-response","144","107815","0.0-5.0-1.70","64141beda1cef49212be9b6c","bdp_lott","Mon Apr 10 2023 06:47:22 GMT+0800 (China Standard Time)","231018","green","red","","30","","","","choice","","img/green_lw/choose11.jpg","2","155","red","0.5","0.5","0.5","w","",""
"animation","145","108416","0.0-5.0-2.70","64141beda1cef49212be9b6c","bdp_lott","Mon Apr 10 2023 06:47:22 GMT+0800 (China Standard Time)","231018","green","red","","","","","","","","","","155","","","","","","[{""stimulus"":""img/red_lw/1.jpg"",""time"":65},{""stimulus"":""img/red_lw/2.jpg"",""time"":113},{""stimulus"":""img/red_lw/3.jpg"",""time"":153},{""stimulus"":""img/red_lw/4.jpg"",""time"":213},{""stimulus"":""img/red_lw/5.jpg"",""time"":270},{""stimulus"":""img/red_lw/6.jpg"",""time"":305},{""stimulus"":""img/red_lw/7.jpg"",""time"":353},{""stimulus"":""img/red_lw/8.jpg"",""time"":419},{""stimulus"":""img/red_lw/9.jpg"",""time"":453},{""stimulus"":""img/red_lw/10.jpg"",""time"":502},{""stimulus"":""img/red_lw/11.jpg"",""time"":553}]","[]"
"image-keyboard-response","146","108552","0.0-5.0-1.71","64141beda1cef49212be9b6c","bdp_lott","Mon Apr 10 2023 06:47:22 GMT+0800 (China Standard Time)","231018","green","red","","134","","","","choice","","img/red_lw/choose11.jpg","1","154","green","0.5","0.5","0.5","l","",""
"animation","147","109155","0.0-5.0-2.71","64141beda1cef49212be9b6c","bdp_lott","Mon Apr 10 2023 06:47:22 GMT+0800 (China Standard Time)","231018","green","red","","","","","","","","","","154","","","","","","[{""stimulus"":""img/green_lw/1.jpg"",""time"":54},{""stimulus"":""img/green_lw/2.jpg"",""time"":102},{""stimulus"":""img/green_lw/3.jpg"",""time"":159},{""stimulus"":""img/green_lw/4.jpg"",""time"":206},{""stimulus"":""img/green_lw/5.jpg"",""time"":254},{""stimulus"":""img/green_lw/6.jpg"",""time"":302},{""stimulus"":""img/green_lw/7.jpg"",""time"":355},{""stimulus"":""img/green_lw/8.jpg"",""time"":403},{""stimulus"":""img/green_lw/9.jpg"",""time"":461},{""stimulus"":""img/green_lw/10.jpg"",""time"":514},{""stimulus"":""img/green_lw/11.jpg"",""time"":553}]","[]"
"image-keyboard-response","148","109211","0.0-5.0-1.72","64141beda1cef49212be9b6c","bdp_lott","Mon Apr 10 2023 06:47:22 GMT+0800 (China Standard Time)","231018","green","red","","54","","","","choice","","img/green_lw/choose11.jpg","2","153","red","0.5","0.5","0.5","l","",""
"animation","149","109813","0.0-5.0-2.72","64141beda1cef49212be9b6c","bdp_lott","Mon Apr 10 2023 06:47:22 GMT+0800 (China Standard Time)","231018","green","red","","","","","","","","","","153","","","","","","[{""stimulus"":""img/red_ll/1.jpg"",""time"":93},{""stimulus"":""img/red_ll/2.jpg"",""time"":106},{""stimulus"":""img/red_ll/3.jpg"",""time"":151},{""stimulus"":""img/red_ll/4.jpg"",""time"":209},{""stimulus"":""img/red_ll/5.jpg"",""time"":251},{""stimulus"":""img/red_ll/6.jpg"",""time"":302},{""stimulus"":""img/red_ll/7.jpg"",""time"":356},{""stimulus"":""img/red_ll/8.jpg"",""time"":416},{""stimulus"":""img/red_ll/9.jpg"",""time"":452},{""stimulus"":""img/red_ll/10.jpg"",""time"":502},{""stimulus"":""img/red_ll/11.jpg"",""time"":553}]","[]"
"image-keyboard-response","150","110016","0.0-5.0-1.73","64141beda1cef49212be9b6c","bdp_lott","Mon Apr 10 2023 06:47:22 GMT+0800 (China Standard Time)","231018","green","red","","200","","","","choice","","img/red_ll/choose11.jpg","2","152","red","0.5","0.5","0.5","l","",""
"animation","151","110616","0.0-5.0-2.73","64141beda1cef49212be9b6c","bdp_lott","Mon Apr 10 2023 06:47:22 GMT+0800 (China Standard Time)","231018","green","red","","","","","","","","","","152","","","","","","[{""stimulus"":""img/red_ll/1.jpg"",""time"":90},{""stimulus"":""img/red_ll/2.jpg"",""time"":132},{""stimulus"":""img/red_ll/3.jpg"",""time"":157},{""stimulus"":""img/red_ll/4.jpg"",""time"":216},{""stimulus"":""img/red_ll/5.jpg"",""time"":255},{""stimulus"":""img/red_ll/6.jpg"",""time"":303},{""stimulus"":""img/red_ll/7.jpg"",""time"":358},{""stimulus"":""img/red_ll/8.jpg"",""time"":402},{""stimulus"":""img/red_ll/9.jpg"",""time"":462},{""stimulus"":""img/red_ll/10.jpg"",""time"":507},{""stimulus"":""img/red_ll/11.jpg"",""time"":558}]","[]"
"image-keyboard-response","152","110638","0.0-5.0-1.74","64141beda1cef49212be9b6c","bdp_lott","Mon Apr 10 2023 06:47:22 GMT+0800 (China Standard Time)","231018","green","red","","21","","","","choice","","img/red_ll/choose11.jpg","2","151","red","0.5","0.5","0.5","w","",""
"animation","153","111241","0.0-5.0-2.74","64141beda1cef49212be9b6c","bdp_lott","Mon Apr 10 2023 06:47:22 GMT+0800 (China Standard Time)","231018","green","red","","","","","","","","","","151","","","","","","[{""stimulus"":""img/red_lw/1.jpg"",""time"":54},{""stimulus"":""img/red_lw/2.jpg"",""time"":102},{""stimulus"":""img/red_lw/3.jpg"",""time"":156},{""stimulus"":""img/red_lw/4.jpg"",""time"":213},{""stimulus"":""img/red_lw/5.jpg"",""time"":251},{""stimulus"":""img/red_lw/6.jpg"",""time"":304},{""stimulus"":""img/red_lw/7.jpg"",""time"":353},{""stimulus"":""img/red_lw/8.jpg"",""time"":408},{""stimulus"":""img/red_lw/9.jpg"",""time"":454},{""stimulus"":""img/red_lw/10.jpg"",""time"":502},{""stimulus"":""img/red_lw/11.jpg"",""time"":553}]","[]"
"image-keyboard-response","154","111426","0.0-5.0-1.75","64141beda1cef49212be9b6c","bdp_lott","Mon Apr 10 2023 06:47:22 GMT+0800 (China Standard Time)","231018","green","red","","184","","","","choice","","img/red_lw/choose11.jpg","1","150","green","0.5","0.5","0.5","l","",""
"animation","155","112098","0.0-5.0-2.75","64141beda1cef49212be9b6c","bdp_lott","Mon Apr 10 2023 06:47:22 GMT+0800 (China Standard Time)","231018","green","red","","","","","","","","","","150","","","","","","[{""stimulus"":""img/green_lw/1.jpg"",""time"":107},{""stimulus"":""img/green_lw/2.jpg"",""time"":154},{""stimulus"":""img/green_lw/3.jpg"",""time"":205},{""stimulus"":""img/green_lw/4.jpg"",""time"":264},{""stimulus"":""img/green_lw/5.jpg"",""time"":303},{""stimulus"":""img/green_lw/6.jpg"",""time"":354},{""stimulus"":""img/green_lw/7.jpg"",""time"":403},{""stimulus"":""img/green_lw/8.jpg"",""time"":453},{""stimulus"":""img/green_lw/9.jpg"",""time"":512},{""stimulus"":""img/green_lw/10.jpg"",""time"":556},{""stimulus"":""img/green_lw/11.jpg"",""time"":604}]","[]"
"image-keyboard-response","156","112371","0.0-5.0-1.76","64141beda1cef49212be9b6c","bdp_lott","Mon Apr 10 2023 06:47:22 GMT+0800 (China Standard Time)","231018","green","red","","271","","","","choice","","img/green_lw/choose11.jpg","1","149","green","0.5","0.1","0.5","l","",""
"animation","157","113072","0.0-5.0-2.76","64141beda1cef49212be9b6c","bdp_lott","Mon Apr 10 2023 06:47:22 GMT+0800 (China Standard Time)","231018","green","red","","","","","","","","","","149","","","","","","[{""stimulus"":""img/green_lw/1.jpg"",""time"":76},{""stimulus"":""img/green_lw/2.jpg"",""time"":151},{""stimulus"":""img/green_lw/3.jpg"",""time"":208},{""stimulus"":""img/green_lw/4.jpg"",""time"":288},{""stimulus"":""img/green_lw/5.jpg"",""time"":304},{""stimulus"":""img/green_lw/6.jpg"",""time"":357},{""stimulus"":""img/green_lw/7.jpg"",""time"":424},{""stimulus"":""img/green_lw/8.jpg"",""time"":504},{""stimulus"":""img/green_lw/9.jpg"",""time"":552},{""stimulus"":""img/green_lw/10.jpg"",""time"":602},{""stimulus"":""img/green_lw/11.jpg"",""time"":674}]","[]"
"image-keyboard-response","158","113243","0.0-5.0-1.77","64141beda1cef49212be9b6c","bdp_lott","Mon Apr 10 2023 06:47:22 GMT+0800 (China Standard Time)","231018","green","red","","169","","","","choice","","img/green_lw/choose11.jpg","2","148","red","0.5","0.1","0.1","l","",""
"animation","159","113896","0.0-5.0-2.77","64141beda1cef49212be9b6c","bdp_lott","Mon Apr 10 2023 06:47:22 GMT+0800 (China Standard Time)","231018","green","red","","","","","","","","","","148","","","","","","[{""stimulus"":""img/red_ll/1.jpg"",""time"":99},{""stimulus"":""img/red_ll/2.jpg"",""time"":153},{""stimulus"":""img/red_ll/3.jpg"",""time"":204},{""stimulus"":""img/red_ll/4.jpg"",""time"":253},{""stimulus"":""img/red_ll/5.jpg"",""time"":307},{""stimulus"":""img/red_ll/6.jpg"",""time"":356},{""stimulus"":""img/red_ll/7.jpg"",""time"":412},{""stimulus"":""img/red_ll/8.jpg"",""time"":454},{""stimulus"":""img/red_ll/9.jpg"",""time"":538},{""stimulus"":""img/red_ll/10.jpg"",""time"":591},{""stimulus"":""img/red_ll/11.jpg"",""time"":629}]","[]"
"image-keyboard-response","160","114100","0.0-5.0-1.78","64141beda1cef49212be9b6c","bdp_lott","Mon Apr 10 2023 06:47:22 GMT+0800 (China Standard Time)","231018","green","red","","203","","","","choice","","img/red_ll/choose11.jpg","2","147","red","0.5","0.1","0.1","l","",""
"animation","161","114807","0.0-5.0-2.78","64141beda1cef49212be9b6c","bdp_lott","Mon Apr 10 2023 06:47:22 GMT+0800 (China Standard Time)","231018","green","red","","","","","","","","","","147","","","","","","[{""stimulus"":""img/red_ll/1.jpg"",""time"":99},{""stimulus"":""img/red_ll/2.jpg"",""time"":152},{""stimulus"":""img/red_ll/3.jpg"",""time"":263},{""stimulus"":""img/red_ll/4.jpg"",""time"":303},{""stimulus"":""img/red_ll/5.jpg"",""time"":352},{""stimulus"":""img/red_ll/6.jpg"",""time"":405},{""stimulus"":""img/red_ll/7.jpg"",""time"":454},{""stimulus"":""img/red_ll/8.jpg"",""time"":507},{""stimulus"":""img/red_ll/9.jpg"",""time"":558},{""stimulus"":""img/red_ll/10.jpg"",""time"":614},{""stimulus"":""img/red_ll/11.jpg"",""time"":652}]","[]"
"image-keyboard-response","162","115030","0.0-5.0-1.79","64141beda1cef49212be9b6c","bdp_lott","Mon Apr 10 2023 06:47:22 GMT+0800 (China Standard Time)","231018","green","red","","222","","","","choice","","img/red_ll/choose11.jpg","2","146","red","0.5","0.1","0.1","l","",""
"animation","163","115682","0.0-5.0-2.79","64141beda1cef49212be9b6c","bdp_lott","Mon Apr 10 2023 06:47:22 GMT+0800 (China Standard Time)","231018","green","red","","","","","","","","","","146","","","","","","[{""stimulus"":""img/red_ll/1.jpg"",""time"":114},{""stimulus"":""img/red_ll/2.jpg"",""time"":156},{""stimulus"":""img/red_ll/3.jpg"",""time"":204},{""stimulus"":""img/red_ll/4.jpg"",""time"":272},{""stimulus"":""img/red_ll/5.jpg"",""time"":301},{""stimulus"":""img/red_ll/6.jpg"",""time"":356},{""stimulus"":""img/red_ll/7.jpg"",""time"":410},{""stimulus"":""img/red_ll/8.jpg"",""time"":457},{""stimulus"":""img/red_ll/9.jpg"",""time"":501},{""stimulus"":""img/red_ll/10.jpg"",""time"":554},{""stimulus"":""img/red_ll/11.jpg"",""time"":601}]","[]"
"image-keyboard-response","164","115784","0.0-5.0-1.80","64141beda1cef49212be9b6c","bdp_lott","Mon Apr 10 2023 06:47:22 GMT+0800 (China Standard Time)","231018","green","red","","100","","","","choice","","img/red_ll/choose11.jpg","2","145","red","0.5","0.1","0.1","l","",""
"animation","165","116542","0.0-5.0-2.80","64141beda1cef49212be9b6c","bdp_lott","Mon Apr 10 2023 06:47:22 GMT+0800 (China Standard Time)","231018","green","red","","","","","","","","","","145","","","","","","[{""stimulus"":""img/red_ll/1.jpg"",""time"":90},{""stimulus"":""img/red_ll/2.jpg"",""time"":232},{""stimulus"":""img/red_ll/3.jpg"",""time"":279},{""stimulus"":""img/red_ll/4.jpg"",""time"":352},{""stimulus"":""img/red_ll/5.jpg"",""time"":409},{""stimulus"":""img/red_ll/6.jpg"",""time"":458},{""stimulus"":""img/red_ll/7.jpg"",""time"":504},{""stimulus"":""img/red_ll/8.jpg"",""time"":557},{""stimulus"":""img/red_ll/9.jpg"",""time"":603},{""stimulus"":""img/red_ll/10.jpg"",""time"":653},{""stimulus"":""img/red_ll/11.jpg"",""time"":703}]","[]"
"image-keyboard-response","166","116678","0.0-5.0-1.81","64141beda1cef49212be9b6c","bdp_lott","Mon Apr 10 2023 06:47:22 GMT+0800 (China Standard Time)","231018","green","red","","133","","","","choice","","img/red_ll/choose11.jpg","2","144","red","0.5","0.1","0.1","l","",""
"animation","167","117280","0.0-5.0-2.81","64141beda1cef49212be9b6c","bdp_lott","Mon Apr 10 2023 06:47:22 GMT+0800 (China Standard Time)","231018","green","red","","","","","","","","","","144","","","","","","[{""stimulus"":""img/red_ll/1.jpg"",""time"":57},{""stimulus"":""img/red_ll/2.jpg"",""time"":102},{""stimulus"":""img/red_ll/3.jpg"",""time"":152},{""stimulus"":""img/red_ll/4.jpg"",""time"":216},{""stimulus"":""img/red_ll/5.jpg"",""time"":252},{""stimulus"":""img/red_ll/6.jpg"",""time"":302},{""stimulus"":""img/red_ll/7.jpg"",""time"":355},{""stimulus"":""img/red_ll/8.jpg"",""time"":421},{""stimulus"":""img/red_ll/9.jpg"",""time"":455},{""stimulus"":""img/red_ll/10.jpg"",""time"":512},{""stimulus"":""img/red_ll/11.jpg"",""time"":552}]","[]"
"image-keyboard-response","168","117446","0.0-5.0-1.82","64141beda1cef49212be9b6c","bdp_lott","Mon Apr 10 2023 06:47:22 GMT+0800 (China Standard Time)","231018","green","red","","165","","","","choice","","img/red_ll/choose11.jpg","2","143","red","0.5","0.1","0.1","l","",""
"animation","169","118048","0.0-5.0-2.82","64141beda1cef49212be9b6c","bdp_lott","Mon Apr 10 2023 06:47:22 GMT+0800 (China Standard Time)","231018","green","red","","","","","","","","","","143","","","","","","[{""stimulus"":""img/red_ll/1.jpg"",""time"":83},{""stimulus"":""img/red_ll/2.jpg"",""time"":135},{""stimulus"":""img/red_ll/3.jpg"",""time"":152},{""stimulus"":""img/red_ll/4.jpg"",""time"":203},{""stimulus"":""img/red_ll/5.jpg"",""time"":254},{""stimulus"":""img/red_ll/6.jpg"",""time"":305},{""stimulus"":""img/red_ll/7.jpg"",""time"":351},{""stimulus"":""img/red_ll/8.jpg"",""time"":402},{""stimulus"":""img/red_ll/9.jpg"",""time"":453},{""stimulus"":""img/red_ll/10.jpg"",""time"":502},{""stimulus"":""img/red_ll/11.jpg"",""time"":560}]","[]"
"image-keyboard-response","170","118052","0.0-5.0-1.83","64141beda1cef49212be9b6c","bdp_lott","Mon Apr 10 2023 06:47:22 GMT+0800 (China Standard Time)","231018","green","red","","0","","","","choice","","img/red_ll/choose11.jpg","2","142","red","0.5","0.1","0.1","l","",""
"animation","171","118763","0.0-5.0-2.83","64141beda1cef49212be9b6c","bdp_lott","Mon Apr 10 2023 06:47:22 GMT+0800 (China Standard Time)","231018","green","red","","","","","","","","","","142","","","","","","[{""stimulus"":""img/red_ll/1.jpg"",""time"":53},{""stimulus"":""img/red_ll/2.jpg"",""time"":102},{""stimulus"":""img/red_ll/3.jpg"",""time"":153},{""stimulus"":""img/red_ll/4.jpg"",""time"":203},{""stimulus"":""img/red_ll/5.jpg"",""time"":260},{""stimulus"":""img/red_ll/6.jpg"",""time"":302},{""stimulus"":""img/red_ll/7.jpg"",""time"":353},{""stimulus"":""img/red_ll/8.jpg"",""time"":472},{""stimulus"":""img/red_ll/9.jpg"",""time"":550},{""stimulus"":""img/red_ll/10.jpg"",""time"":609},{""stimulus"":""img/red_ll/11.jpg"",""time"":654}]","[]"
"image-keyboard-response","172","118954","0.0-5.0-1.84","64141beda1cef49212be9b6c","bdp_lott","Mon Apr 10 2023 06:47:22 GMT+0800 (China Standard Time)","231018","green","red","","190","","","","choice","","img/red_ll/choose11.jpg","1","141","green","0.5","0.1","0.5","w","",""
"animation","173","119556","0.0-5.0-2.84","64141beda1cef49212be9b6c","bdp_lott","Mon Apr 10 2023 06:47:22 GMT+0800 (China Standard Time)","231018","green","red","","","","","","","","","","141","","","","","","[{""stimulus"":""img/green_wl/1.jpg"",""time"":77},{""stimulus"":""img/green_wl/2.jpg"",""time"":148},{""stimulus"":""img/green_wl/3.jpg"",""time"":156},{""stimulus"":""img/green_wl/4.jpg"",""time"":202},{""stimulus"":""img/green_wl/5.jpg"",""time"":255},{""stimulus"":""img/green_wl/6.jpg"",""time"":302},{""stimulus"":""img/green_wl/7.jpg"",""time"":352},{""stimulus"":""img/green_wl/8.jpg"",""time"":403},{""stimulus"":""img/green_wl/9.jpg"",""time"":453},{""stimulus"":""img/green_wl/10.jpg"",""time"":503},{""stimulus"":""img/green_wl/11.jpg"",""time"":553}]","[]"
"image-keyboard-response","174","119937","0.0-5.0-1.85","64141beda1cef49212be9b6c","bdp_lott","Mon Apr 10 2023 06:47:22 GMT+0800 (China Standard Time)","231018","green","red","","379","","","","choice","","img/green_wl/choose11.jpg","1","140","green","0.5","0.1","0.5","w","",""
"animation","175","120589","0.0-5.0-2.85","64141beda1cef49212be9b6c","bdp_lott","Mon Apr 10 2023 06:47:22 GMT+0800 (China Standard Time)","231018","green","red","","","","","","","","","","140","","","","","","[{""stimulus"":""img/green_wl/1.jpg"",""time"":103},{""stimulus"":""img/green_wl/2.jpg"",""time"":154},{""stimulus"":""img/green_wl/3.jpg"",""time"":201},{""stimulus"":""img/green_wl/4.jpg"",""time"":252},{""stimulus"":""img/green_wl/5.jpg"",""time"":305},{""stimulus"":""img/green_wl/6.jpg"",""time"":353},{""stimulus"":""img/green_wl/7.jpg"",""time"":402},{""stimulus"":""img/green_wl/8.jpg"",""time"":453},{""stimulus"":""img/green_wl/9.jpg"",""time"":502},{""stimulus"":""img/green_wl/10.jpg"",""time"":556},{""stimulus"":""img/green_wl/11.jpg"",""time"":602}]","[]"
"image-keyboard-response","176","120631","0.0-5.0-1.86","64141beda1cef49212be9b6c","bdp_lott","Mon Apr 10 2023 06:47:22 GMT+0800 (China Standard Time)","231018","green","red","","40","","","","choice","","img/green_wl/choose11.jpg","1","139","green","0.5","0.1","0.5","l","",""
"animation","177","121232","0.0-5.0-2.86","64141beda1cef49212be9b6c","bdp_lott","Mon Apr 10 2023 06:47:22 GMT+0800 (China Standard Time)","231018","green","red","","","","","","","","","","139","","","","","","[{""stimulus"":""img/green_ll/1.jpg"",""time"":89},{""stimulus"":""img/green_ll/2.jpg"",""time"":101},{""stimulus"":""img/green_ll/3.jpg"",""time"":152},{""stimulus"":""img/green_ll/4.jpg"",""time"":202},{""stimulus"":""img/green_ll/5.jpg"",""time"":253},{""stimulus"":""img/green_ll/6.jpg"",""time"":303},{""stimulus"":""img/green_ll/7.jpg"",""time"":352},{""stimulus"":""img/green_ll/8.jpg"",""time"":403},{""stimulus"":""img/green_ll/9.jpg"",""time"":454},{""stimulus"":""img/green_ll/10.jpg"",""time"":503},{""stimulus"":""img/green_ll/11.jpg"",""time"":556}]","[]"
"image-keyboard-response","178","121346","0.0-5.0-1.87","64141beda1cef49212be9b6c","bdp_lott","Mon Apr 10 2023 06:47:22 GMT+0800 (China Standard Time)","231018","green","red","","113","","","","choice","","img/green_ll/choose11.jpg","1","138","green","0.5","0.1","0.5","l","",""
"animation","179","122056","0.0-5.0-2.87","64141beda1cef49212be9b6c","bdp_lott","Mon Apr 10 2023 06:47:22 GMT+0800 (China Standard Time)","231018","green","red","","","","","","","","","","138","","","","","","[{""stimulus"":""img/green_ll/1.jpg"",""time"":108},{""stimulus"":""img/green_ll/2.jpg"",""time"":155},{""stimulus"":""img/green_ll/3.jpg"",""time"":206},{""stimulus"":""img/green_ll/4.jpg"",""time"":257},{""stimulus"":""img/green_ll/5.jpg"",""time"":309},{""stimulus"":""img/green_ll/6.jpg"",""time"":352},{""stimulus"":""img/green_ll/7.jpg"",""time"":403},{""stimulus"":""img/green_ll/8.jpg"",""time"":454},{""stimulus"":""img/green_ll/9.jpg"",""time"":555},{""stimulus"":""img/green_ll/10.jpg"",""time"":603},{""stimulus"":""img/green_ll/11.jpg"",""time"":676}]","[]"
"image-keyboard-response","180","122075","0.0-5.0-1.88","64141beda1cef49212be9b6c","bdp_lott","Mon Apr 10 2023 06:47:22 GMT+0800 (China Standard Time)","231018","green","red","","18","","","","choice","","img/green_ll/choose11.jpg","2","137","red","0.5","0.1","0.1","l","",""
"animation","181","122863","0.0-5.0-2.88","64141beda1cef49212be9b6c","bdp_lott","Mon Apr 10 2023 06:47:22 GMT+0800 (China Standard Time)","231018","green","red","","","","","","","","","","137","","","","","","[{""stimulus"":""img/red_ll/1.jpg"",""time"":116},{""stimulus"":""img/red_ll/2.jpg"",""time"":208},{""stimulus"":""img/red_ll/3.jpg"",""time"":253},{""stimulus"":""img/red_ll/4.jpg"",""time"":316},{""stimulus"":""img/red_ll/5.jpg"",""time"":399},{""stimulus"":""img/red_ll/6.jpg"",""time"":407},{""stimulus"":""img/red_ll/7.jpg"",""time"":480},{""stimulus"":""img/red_ll/8.jpg"",""time"":504},{""stimulus"":""img/red_ll/9.jpg"",""time"":556},{""stimulus"":""img/red_ll/10.jpg"",""time"":658},{""stimulus"":""img/red_ll/11.jpg"",""time"":741}]","[]"
"image-keyboard-response","182","123043","0.0-5.0-1.89","64141beda1cef49212be9b6c","bdp_lott","Mon Apr 10 2023 06:47:22 GMT+0800 (China Standard Time)","231018","green","red","","178","","","","choice","","img/red_ll/choose11.jpg","2","136","red","0.5","0.1","0.1","l","",""
"animation","183","123646","0.0-5.0-2.89","64141beda1cef49212be9b6c","bdp_lott","Mon Apr 10 2023 06:47:22 GMT+0800 (China Standard Time)","231018","green","red","","","","","","","","","","136","","","","","","[{""stimulus"":""img/red_ll/1.jpg"",""time"":85},{""stimulus"":""img/red_ll/2.jpg"",""time"":105},{""stimulus"":""img/red_ll/3.jpg"",""time"":153},{""stimulus"":""img/red_ll/4.jpg"",""time"":202},{""stimulus"":""img/red_ll/5.jpg"",""time"":257},{""stimulus"":""img/red_ll/6.jpg"",""time"":312},{""stimulus"":""img/red_ll/7.jpg"",""time"":354},{""stimulus"":""img/red_ll/8.jpg"",""time"":402},{""stimulus"":""img/red_ll/9.jpg"",""time"":453},{""stimulus"":""img/red_ll/10.jpg"",""time"":502},{""stimulus"":""img/red_ll/11.jpg"",""time"":555}]","[]"
"image-keyboard-response","184","124066","0.0-5.0-1.90","64141beda1cef49212be9b6c","bdp_lott","Mon Apr 10 2023 06:47:22 GMT+0800 (China Standard Time)","231018","green","red","","418","","","","choice","","img/red_ll/choose11.jpg","1","135","green","0.5","0.1","0.5","l","",""
"animation","185","124669","0.0-5.0-2.90","64141beda1cef49212be9b6c","bdp_lott","Mon Apr 10 2023 06:47:22 GMT+0800 (China Standard Time)","231018","green","red","","","","","","","","","","135","","","","","","[{""stimulus"":""img/green_ll/1.jpg"",""time"":77},{""stimulus"":""img/green_ll/2.jpg"",""time"":102},{""stimulus"":""img/green_ll/3.jpg"",""time"":156},{""stimulus"":""img/green_ll/4.jpg"",""time"":203},{""stimulus"":""img/green_ll/5.jpg"",""time"":266},{""stimulus"":""img/green_ll/6.jpg"",""time"":302},{""stimulus"":""img/green_ll/7.jpg"",""time"":352},{""stimulus"":""img/green_ll/8.jpg"",""time"":402},{""stimulus"":""img/green_ll/9.jpg"",""time"":453},{""stimulus"":""img/green_ll/10.jpg"",""time"":503},{""stimulus"":""img/green_ll/11.jpg"",""time"":553}]","[]"
"image-keyboard-response","186","124921","0.0-5.0-1.91","64141beda1cef49212be9b6c","bdp_lott","Mon Apr 10 2023 06:47:22 GMT+0800 (China Standard Time)","231018","green","red","","250","","","","choice","","img/green_ll/choose11.jpg","2","134","red","0.5","0.1","0.1","l","",""
"animation","187","125672","0.0-5.0-2.91","64141beda1cef49212be9b6c","bdp_lott","Mon Apr 10 2023 06:47:22 GMT+0800 (China Standard Time)","231018","green","red","","","","","","","","","","134","","","","","","[{""stimulus"":""img/red_ll/1.jpg"",""time"":129},{""stimulus"":""img/red_ll/2.jpg"",""time"":202},{""stimulus"":""img/red_ll/3.jpg"",""time"":252},{""stimulus"":""img/red_ll/4.jpg"",""time"":361},{""stimulus"":""img/red_ll/5.jpg"",""time"":402},{""stimulus"":""img/red_ll/6.jpg"",""time"":453},{""stimulus"":""img/red_ll/7.jpg"",""time"":504},{""stimulus"":""img/red_ll/8.jpg"",""time"":560},{""stimulus"":""img/red_ll/9.jpg"",""time"":603},{""stimulus"":""img/red_ll/10.jpg"",""time"":652},{""stimulus"":""img/red_ll/11.jpg"",""time"":707}]","[]"
"image-keyboard-response","188","125847","0.0-5.0-1.92","64141beda1cef49212be9b6c","bdp_lott","Mon Apr 10 2023 06:47:22 GMT+0800 (China Standard Time)","231018","green","red","","174","","","","choice","","img/red_ll/choose11.jpg","2","133","red","0.5","0.1","0.1","l","",""
"animation","189","126499","0.0-5.0-2.92","64141beda1cef49212be9b6c","bdp_lott","Mon Apr 10 2023 06:47:22 GMT+0800 (China Standard Time)","231018","green","red","","","","","","","","","","133","","","","","","[{""stimulus"":""img/red_ll/1.jpg"",""time"":102},{""stimulus"":""img/red_ll/2.jpg"",""time"":151},{""stimulus"":""img/red_ll/3.jpg"",""time"":214},{""stimulus"":""img/red_ll/4.jpg"",""time"":255},{""stimulus"":""img/red_ll/5.jpg"",""time"":307},{""stimulus"":""img/red_ll/6.jpg"",""time"":358},{""stimulus"":""img/red_ll/7.jpg"",""time"":401},{""stimulus"":""img/red_ll/8.jpg"",""time"":454},{""stimulus"":""img/red_ll/9.jpg"",""time"":516},{""stimulus"":""img/red_ll/10.jpg"",""time"":552},{""stimulus"":""img/red_ll/11.jpg"",""time"":608}]","[]"
"image-keyboard-response","190","126702","0.0-5.0-1.93","64141beda1cef49212be9b6c","bdp_lott","Mon Apr 10 2023 06:47:22 GMT+0800 (China Standard Time)","231018","green","red","","201","","","","choice","","img/red_ll/choose11.jpg","2","132","red","0.5","0.1","0.1","l","",""
"animation","191","127405","0.0-5.0-2.93","64141beda1cef49212be9b6c","bdp_lott","Mon Apr 10 2023 06:47:22 GMT+0800 (China Standard Time)","231018","green","red","","","","","","","","","","132","","","","","","[{""stimulus"":""img/red_ll/1.jpg"",""time"":113},{""stimulus"":""img/red_ll/2.jpg"",""time"":151},{""stimulus"":""img/red_ll/3.jpg"",""time"":253},{""stimulus"":""img/red_ll/4.jpg"",""time"":335},{""stimulus"":""img/red_ll/5.jpg"",""time"":394},{""stimulus"":""img/red_ll/6.jpg"",""time"":402},{""stimulus"":""img/red_ll/7.jpg"",""time"":453},{""stimulus"":""img/red_ll/8.jpg"",""time"":507},{""stimulus"":""img/red_ll/9.jpg"",""time"":556},{""stimulus"":""img/red_ll/10.jpg"",""time"":617},{""stimulus"":""img/red_ll/11.jpg"",""time"":659}]","[]"
"image-keyboard-response","192","127548","0.0-5.0-1.94","64141beda1cef49212be9b6c","bdp_lott","Mon Apr 10 2023 06:47:22 GMT+0800 (China Standard Time)","231018","green","red","","141","","","","choice","","img/red_ll/choose11.jpg","2","131","red","0.5","0.1","0.1","l","",""
