"trial_type","trial_index","time_elapsed","internal_node_id","subject_id","task","startTime","totalTime","fairMachine","unfairMachine","view_history","rt","event","trial","time","trialtype","success","stimulus","key_press","roundsLeft","chosen","pFairMachWin","pUnfairMachWin","pTrialWin","outcome","animation_sequence","responses"
"pavlovia","0","2","0.0-0.0","63f049c2d78b2bc822a16dac","bdp_lott","Sun Apr 02 2023 08:22:53 GMT-0500 (Central Daylight Time)","345315","green","red","","","","","","","","","","","","","","","","",""
"instructions","1","38819","0.0-1.0","63f049c2d78b2bc822a16dac","bdp_lott","Sun Apr 02 2023 08:22:53 GMT-0500 (Central Daylight Time)","345315","green","red","[{""page_index"":0,""viewing_time"":38816}]","38816","","","","","","","","","","","","","","",""
"","","","","63f049c2d78b2bc822a16dac","bdp_lott","Sun Apr 02 2023 08:22:53 GMT-0500 (Central Daylight Time)","345315","green","red","","","fullscreenenter","2","47476","fullscreenenter","","","","","","","","","","",""
"fullscreen","2","48450","0.0-2.0","63f049c2d78b2bc822a16dac","bdp_lott","Sun Apr 02 2023 08:22:53 GMT-0500 (Central Daylight Time)","345315","green","red","","","","","","","true","","","","","","","","","",""
"instructions","3","76274","0.0-4.0","63f049c2d78b2bc822a16dac","bdp_lott","Sun Apr 02 2023 08:22:53 GMT-0500 (Central Daylight Time)","345315","green","red","[{""page_index"":0,""viewing_time"":27824}]","27824","","","","","","","","","","","","","","",""
"image-keyboard-response","4","77842","0.0-5.0-1.0","63f049c2d78b2bc822a16dac","bdp_lott","Sun Apr 02 2023 08:22:53 GMT-0500 (Central Daylight Time)","345315","green","red","","1567","","","","choice","","img/red_ll/initchoose11.jpg","1","225","green","0.5","0.5","0.5","w","",""
"animation","5","78443","0.0-5.0-2.0","63f049c2d78b2bc822a16dac","bdp_lott","Sun Apr 02 2023 08:22:53 GMT-0500 (Central Daylight Time)","345315","green","red","","","","","","","","","","225","","","","","","[{""stimulus"":""img/green_wl/1.jpg"",""time"":51},{""stimulus"":""img/green_wl/2.jpg"",""time"":101},{""stimulus"":""img/green_wl/3.jpg"",""time"":151},{""stimulus"":""img/green_wl/4.jpg"",""time"":201},{""stimulus"":""img/green_wl/5.jpg"",""time"":251},{""stimulus"":""img/green_wl/6.jpg"",""time"":301},{""stimulus"":""img/green_wl/7.jpg"",""time"":352},{""stimulus"":""img/green_wl/8.jpg"",""time"":401},{""stimulus"":""img/green_wl/9.jpg"",""time"":451},{""stimulus"":""img/green_wl/10.jpg"",""time"":501},{""stimulus"":""img/green_wl/11.jpg"",""time"":551}]","[]"
"image-keyboard-response","6","80276","0.0-5.0-1.1","63f049c2d78b2bc822a16dac","bdp_lott","Sun Apr 02 2023 08:22:53 GMT-0500 (Central Daylight Time)","345315","green","red","","1833","","","","choice","","img/green_wl/choose11.jpg","1","224","green","0.5","0.5","0.5","l","",""
"animation","7","80877","0.0-5.0-2.1","63f049c2d78b2bc822a16dac","bdp_lott","Sun Apr 02 2023 08:22:53 GMT-0500 (Central Daylight Time)","345315","green","red","","","","","","","","","","224","","","","","","[{""stimulus"":""img/green_ll/1.jpg"",""time"":51},{""stimulus"":""img/green_ll/2.jpg"",""time"":101},{""stimulus"":""img/green_ll/3.jpg"",""time"":150},{""stimulus"":""img/green_ll/4.jpg"",""time"":201},{""stimulus"":""img/green_ll/5.jpg"",""time"":250},{""stimulus"":""img/green_ll/6.jpg"",""time"":301},{""stimulus"":""img/green_ll/7.jpg"",""time"":351},{""stimulus"":""img/green_ll/8.jpg"",""time"":400},{""stimulus"":""img/green_ll/9.jpg"",""time"":451},{""stimulus"":""img/green_ll/10.jpg"",""time"":501},{""stimulus"":""img/green_ll/11.jpg"",""time"":550}]","[]"
"image-keyboard-response","8","82028","0.0-5.0-1.2","63f049c2d78b2bc822a16dac","bdp_lott","Sun Apr 02 2023 08:22:53 GMT-0500 (Central Daylight Time)","345315","green","red","","1151","","","","choice","","img/green_ll/choose11.jpg","2","223","red","0.5","0.5","0.5","w","",""
"animation","9","82628","0.0-5.0-2.2","63f049c2d78b2bc822a16dac","bdp_lott","Sun Apr 02 2023 08:22:53 GMT-0500 (Central Daylight Time)","345315","green","red","","","","","","","","","","223","","","","","","[{""stimulus"":""img/red_lw/1.jpg"",""time"":51},{""stimulus"":""img/red_lw/2.jpg"",""time"":100},{""stimulus"":""img/red_lw/3.jpg"",""time"":150},{""stimulus"":""img/red_lw/4.jpg"",""time"":201},{""stimulus"":""img/red_lw/5.jpg"",""time"":251},{""stimulus"":""img/red_lw/6.jpg"",""time"":300},{""stimulus"":""img/red_lw/7.jpg"",""time"":351},{""stimulus"":""img/red_lw/8.jpg"",""time"":400},{""stimulus"":""img/red_lw/9.jpg"",""time"":451},{""stimulus"":""img/red_lw/10.jpg"",""time"":500},{""stimulus"":""img/red_lw/11.jpg"",""time"":551}]","[]"
"image-keyboard-response","10","83850","0.0-5.0-1.3","63f049c2d78b2bc822a16dac","bdp_lott","Sun Apr 02 2023 08:22:53 GMT-0500 (Central Daylight Time)","345315","green","red","","1221","","","","choice","","img/red_lw/choose11.jpg","2","222","red","0.5","0.5","0.5","l","",""
"animation","11","84451","0.0-5.0-2.3","63f049c2d78b2bc822a16dac","bdp_lott","Sun Apr 02 2023 08:22:53 GMT-0500 (Central Daylight Time)","345315","green","red","","","","","","","","","","222","","","","","","[{""stimulus"":""img/red_ll/1.jpg"",""time"":51},{""stimulus"":""img/red_ll/2.jpg"",""time"":101},{""stimulus"":""img/red_ll/3.jpg"",""time"":151},{""stimulus"":""img/red_ll/4.jpg"",""time"":201},{""stimulus"":""img/red_ll/5.jpg"",""time"":251},{""stimulus"":""img/red_ll/6.jpg"",""time"":301},{""stimulus"":""img/red_ll/7.jpg"",""time"":351},{""stimulus"":""img/red_ll/8.jpg"",""time"":401},{""stimulus"":""img/red_ll/9.jpg"",""time"":451},{""stimulus"":""img/red_ll/10.jpg"",""time"":501},{""stimulus"":""img/red_ll/11.jpg"",""time"":551}]","[]"
"image-keyboard-response","12","85524","0.0-5.0-1.4","63f049c2d78b2bc822a16dac","bdp_lott","Sun Apr 02 2023 08:22:53 GMT-0500 (Central Daylight Time)","345315","green","red","","1073","","","","choice","","img/red_ll/choose11.jpg","1","221","green","0.5","0.5","0.5","l","",""
"animation","13","86125","0.0-5.0-2.4","63f049c2d78b2bc822a16dac","bdp_lott","Sun Apr 02 2023 08:22:53 GMT-0500 (Central Daylight Time)","345315","green","red","","","","","","","","","","221","","","","","","[{""stimulus"":""img/green_ll/1.jpg"",""time"":51},{""stimulus"":""img/green_ll/2.jpg"",""time"":102},{""stimulus"":""img/green_ll/3.jpg"",""time"":151},{""stimulus"":""img/green_ll/4.jpg"",""time"":202},{""stimulus"":""img/green_ll/5.jpg"",""time"":252},{""stimulus"":""img/green_ll/6.jpg"",""time"":302},{""stimulus"":""img/green_ll/7.jpg"",""time"":351},{""stimulus"":""img/green_ll/8.jpg"",""time"":401},{""stimulus"":""img/green_ll/9.jpg"",""time"":452},{""stimulus"":""img/green_ll/10.jpg"",""time"":501},{""stimulus"":""img/green_ll/11.jpg"",""time"":551}]","[]"
"image-keyboard-response","14","87254","0.0-5.0-1.5","63f049c2d78b2bc822a16dac","bdp_lott","Sun Apr 02 2023 08:22:53 GMT-0500 (Central Daylight Time)","345315","green","red","","1128","","","","choice","","img/green_ll/choose11.jpg","2","220","red","0.5","0.5","0.5","l","",""
"animation","15","87855","0.0-5.0-2.5","63f049c2d78b2bc822a16dac","bdp_lott","Sun Apr 02 2023 08:22:53 GMT-0500 (Central Daylight Time)","345315","green","red","","","","","","","","","","220","","","","","","[{""stimulus"":""img/red_ll/1.jpg"",""time"":51},{""stimulus"":""img/red_ll/2.jpg"",""time"":101},{""stimulus"":""img/red_ll/3.jpg"",""time"":151},{""stimulus"":""img/red_ll/4.jpg"",""time"":201},{""stimulus"":""img/red_ll/5.jpg"",""time"":251},{""stimulus"":""img/red_ll/6.jpg"",""time"":301},{""stimulus"":""img/red_ll/7.jpg"",""time"":351},{""stimulus"":""img/red_ll/8.jpg"",""time"":400},{""stimulus"":""img/red_ll/9.jpg"",""time"":451},{""stimulus"":""img/red_ll/10.jpg"",""time"":501},{""stimulus"":""img/red_ll/11.jpg"",""time"":551}]","[]"
"image-keyboard-response","16","88810","0.0-5.0-1.6","63f049c2d78b2bc822a16dac","bdp_lott","Sun Apr 02 2023 08:22:53 GMT-0500 (Central Daylight Time)","345315","green","red","","955","","","","choice","","img/red_ll/choose11.jpg","1","219","green","0.5","0.5","0.5","w","",""
"animation","17","89410","0.0-5.0-2.6","63f049c2d78b2bc822a16dac","bdp_lott","Sun Apr 02 2023 08:22:53 GMT-0500 (Central Daylight Time)","345315","green","red","","","","","","","","","","219","","","","","","[{""stimulus"":""img/green_wl/1.jpg"",""time"":51},{""stimulus"":""img/green_wl/2.jpg"",""time"":101},{""stimulus"":""img/green_wl/3.jpg"",""time"":151},{""stimulus"":""img/green_wl/4.jpg"",""time"":201},{""stimulus"":""img/green_wl/5.jpg"",""time"":251},{""stimulus"":""img/green_wl/6.jpg"",""time"":301},{""stimulus"":""img/green_wl/7.jpg"",""time"":351},{""stimulus"":""img/green_wl/8.jpg"",""time"":401},{""stimulus"":""img/green_wl/9.jpg"",""time"":451},{""stimulus"":""img/green_wl/10.jpg"",""time"":501},{""stimulus"":""img/green_wl/11.jpg"",""time"":551}]","[]"
"image-keyboard-response","18","90500","0.0-5.0-1.7","63f049c2d78b2bc822a16dac","bdp_lott","Sun Apr 02 2023 08:22:53 GMT-0500 (Central Daylight Time)","345315","green","red","","1089","","","","choice","","img/green_wl/choose11.jpg","2","218","red","0.5","0.5","0.5","w","",""
"animation","19","91101","0.0-5.0-2.7","63f049c2d78b2bc822a16dac","bdp_lott","Sun Apr 02 2023 08:22:53 GMT-0500 (Central Daylight Time)","345315","green","red","","","","","","","","","","218","","","","","","[{""stimulus"":""img/red_ww/1.jpg"",""time"":50},{""stimulus"":""img/red_ww/2.jpg"",""time"":101},{""stimulus"":""img/red_ww/3.jpg"",""time"":151},{""stimulus"":""img/red_ww/4.jpg"",""time"":201},{""stimulus"":""img/red_ww/5.jpg"",""time"":251},{""stimulus"":""img/red_ww/6.jpg"",""time"":301},{""stimulus"":""img/red_ww/7.jpg"",""time"":351},{""stimulus"":""img/red_ww/8.jpg"",""time"":401},{""stimulus"":""img/red_ww/9.jpg"",""time"":451},{""stimulus"":""img/red_ww/10.jpg"",""time"":501},{""stimulus"":""img/red_ww/11.jpg"",""time"":551}]","[]"
"image-keyboard-response","20","92218","0.0-5.0-1.8","63f049c2d78b2bc822a16dac","bdp_lott","Sun Apr 02 2023 08:22:53 GMT-0500 (Central Daylight Time)","345315","green","red","","1117","","","","choice","","img/red_ww/choose11.jpg","1","217","green","0.5","0.5","0.5","l","",""
"animation","21","92818","0.0-5.0-2.8","63f049c2d78b2bc822a16dac","bdp_lott","Sun Apr 02 2023 08:22:53 GMT-0500 (Central Daylight Time)","345315","green","red","","","","","","","","","","217","","","","","","[{""stimulus"":""img/green_lw/1.jpg"",""time"":51},{""stimulus"":""img/green_lw/2.jpg"",""time"":101},{""stimulus"":""img/green_lw/3.jpg"",""time"":150},{""stimulus"":""img/green_lw/4.jpg"",""time"":201},{""stimulus"":""img/green_lw/5.jpg"",""time"":250},{""stimulus"":""img/green_lw/6.jpg"",""time"":301},{""stimulus"":""img/green_lw/7.jpg"",""time"":351},{""stimulus"":""img/green_lw/8.jpg"",""time"":401},{""stimulus"":""img/green_lw/9.jpg"",""time"":451},{""stimulus"":""img/green_lw/10.jpg"",""time"":501},{""stimulus"":""img/green_lw/11.jpg"",""time"":551}]","[]"
"image-keyboard-response","22","93862","0.0-5.0-1.9","63f049c2d78b2bc822a16dac","bdp_lott","Sun Apr 02 2023 08:22:53 GMT-0500 (Central Daylight Time)","345315","green","red","","1043","","","","choice","","img/green_lw/choose11.jpg","2","216","red","0.5","0.5","0.5","l","",""
"animation","23","94463","0.0-5.0-2.9","63f049c2d78b2bc822a16dac","bdp_lott","Sun Apr 02 2023 08:22:53 GMT-0500 (Central Daylight Time)","345315","green","red","","","","","","","","","","216","","","","","","[{""stimulus"":""img/red_ll/1.jpg"",""time"":51},{""stimulus"":""img/red_ll/2.jpg"",""time"":101},{""stimulus"":""img/red_ll/3.jpg"",""time"":151},{""stimulus"":""img/red_ll/4.jpg"",""time"":201},{""stimulus"":""img/red_ll/5.jpg"",""time"":251},{""stimulus"":""img/red_ll/6.jpg"",""time"":301},{""stimulus"":""img/red_ll/7.jpg"",""time"":351},{""stimulus"":""img/red_ll/8.jpg"",""time"":401},{""stimulus"":""img/red_ll/9.jpg"",""time"":451},{""stimulus"":""img/red_ll/10.jpg"",""time"":500},{""stimulus"":""img/red_ll/11.jpg"",""time"":551}]","[]"
"image-keyboard-response","24","95248","0.0-5.0-1.10","63f049c2d78b2bc822a16dac","bdp_lott","Sun Apr 02 2023 08:22:53 GMT-0500 (Central Daylight Time)","345315","green","red","","785","","","","choice","","img/red_ll/choose11.jpg","1","215","green","0.5","0.5","0.5","w","",""
"animation","25","95849","0.0-5.0-2.10","63f049c2d78b2bc822a16dac","bdp_lott","Sun Apr 02 2023 08:22:53 GMT-0500 (Central Daylight Time)","345315","green","red","","","","","","","","","","215","","","","","","[{""stimulus"":""img/green_wl/1.jpg"",""time"":50},{""stimulus"":""img/green_wl/2.jpg"",""time"":101},{""stimulus"":""img/green_wl/3.jpg"",""time"":151},{""stimulus"":""img/green_wl/4.jpg"",""time"":200},{""stimulus"":""img/green_wl/5.jpg"",""time"":251},{""stimulus"":""img/green_wl/6.jpg"",""time"":300},{""stimulus"":""img/green_wl/7.jpg"",""time"":351},{""stimulus"":""img/green_wl/8.jpg"",""time"":401},{""stimulus"":""img/green_wl/9.jpg"",""time"":451},{""stimulus"":""img/green_wl/10.jpg"",""time"":501},{""stimulus"":""img/green_wl/11.jpg"",""time"":551}]","[]"
"image-keyboard-response","26","96724","0.0-5.0-1.11","63f049c2d78b2bc822a16dac","bdp_lott","Sun Apr 02 2023 08:22:53 GMT-0500 (Central Daylight Time)","345315","green","red","","875","","","","choice","","img/green_wl/choose11.jpg","2","214","red","0.5","0.5","0.5","l","",""
"animation","27","97325","0.0-5.0-2.11","63f049c2d78b2bc822a16dac","bdp_lott","Sun Apr 02 2023 08:22:53 GMT-0500 (Central Daylight Time)","345315","green","red","","","","","","","","","","214","","","","","","[{""stimulus"":""img/red_wl/1.jpg"",""time"":51},{""stimulus"":""img/red_wl/2.jpg"",""time"":101},{""stimulus"":""img/red_wl/3.jpg"",""time"":151},{""stimulus"":""img/red_wl/4.jpg"",""time"":201},{""stimulus"":""img/red_wl/5.jpg"",""time"":251},{""stimulus"":""img/red_wl/6.jpg"",""time"":301},{""stimulus"":""img/red_wl/7.jpg"",""time"":351},{""stimulus"":""img/red_wl/8.jpg"",""time"":401},{""stimulus"":""img/red_wl/9.jpg"",""time"":451},{""stimulus"":""img/red_wl/10.jpg"",""time"":501},{""stimulus"":""img/red_wl/11.jpg"",""time"":551}]","[]"
"image-keyboard-response","28","98405","0.0-5.0-1.12","63f049c2d78b2bc822a16dac","bdp_lott","Sun Apr 02 2023 08:22:53 GMT-0500 (Central Daylight Time)","345315","green","red","","1080","","","","choice","","img/red_wl/choose11.jpg","1","213","green","0.5","0.5","0.5","l","",""
"animation","29","99005","0.0-5.0-2.12","63f049c2d78b2bc822a16dac","bdp_lott","Sun Apr 02 2023 08:22:53 GMT-0500 (Central Daylight Time)","345315","green","red","","","","","","","","","","213","","","","","","[{""stimulus"":""img/green_ll/1.jpg"",""time"":51},{""stimulus"":""img/green_ll/2.jpg"",""time"":101},{""stimulus"":""img/green_ll/3.jpg"",""time"":151},{""stimulus"":""img/green_ll/4.jpg"",""time"":201},{""stimulus"":""img/green_ll/5.jpg"",""time"":250},{""stimulus"":""img/green_ll/6.jpg"",""time"":301},{""stimulus"":""img/green_ll/7.jpg"",""time"":350},{""stimulus"":""img/green_ll/8.jpg"",""time"":401},{""stimulus"":""img/green_ll/9.jpg"",""time"":451},{""stimulus"":""img/green_ll/10.jpg"",""time"":500},{""stimulus"":""img/green_ll/11.jpg"",""time"":551}]","[]"
"image-keyboard-response","30","99826","0.0-5.0-1.13","63f049c2d78b2bc822a16dac","bdp_lott","Sun Apr 02 2023 08:22:53 GMT-0500 (Central Daylight Time)","345315","green","red","","820","","","","choice","","img/green_ll/choose11.jpg","2","212","red","0.5","0.5","0.5","l","",""
"animation","31","100427","0.0-5.0-2.13","63f049c2d78b2bc822a16dac","bdp_lott","Sun Apr 02 2023 08:22:53 GMT-0500 (Central Daylight Time)","345315","green","red","","","","","","","","","","212","","","","","","[{""stimulus"":""img/red_ll/1.jpg"",""time"":51},{""stimulus"":""img/red_ll/2.jpg"",""time"":101},{""stimulus"":""img/red_ll/3.jpg"",""time"":151},{""stimulus"":""img/red_ll/4.jpg"",""time"":201},{""stimulus"":""img/red_ll/5.jpg"",""time"":251},{""stimulus"":""img/red_ll/6.jpg"",""time"":301},{""stimulus"":""img/red_ll/7.jpg"",""time"":351},{""stimulus"":""img/red_ll/8.jpg"",""time"":401},{""stimulus"":""img/red_ll/9.jpg"",""time"":452},{""stimulus"":""img/red_ll/10.jpg"",""time"":501},{""stimulus"":""img/red_ll/11.jpg"",""time"":551}]","[]"
"image-keyboard-response","32","101294","0.0-5.0-1.14","63f049c2d78b2bc822a16dac","bdp_lott","Sun Apr 02 2023 08:22:53 GMT-0500 (Central Daylight Time)","345315","green","red","","867","","","","choice","","img/red_ll/choose11.jpg","1","211","green","0.5","0.5","0.5","w","",""
"animation","33","101895","0.0-5.0-2.14","63f049c2d78b2bc822a16dac","bdp_lott","Sun Apr 02 2023 08:22:53 GMT-0500 (Central Daylight Time)","345315","green","red","","","","","","","","","","211","","","","","","[{""stimulus"":""img/green_wl/1.jpg"",""time"":51},{""stimulus"":""img/green_wl/2.jpg"",""time"":101},{""stimulus"":""img/green_wl/3.jpg"",""time"":151},{""stimulus"":""img/green_wl/4.jpg"",""time"":201},{""stimulus"":""img/green_wl/5.jpg"",""time"":251},{""stimulus"":""img/green_wl/6.jpg"",""time"":301},{""stimulus"":""img/green_wl/7.jpg"",""time"":351},{""stimulus"":""img/green_wl/8.jpg"",""time"":401},{""stimulus"":""img/green_wl/9.jpg"",""time"":451},{""stimulus"":""img/green_wl/10.jpg"",""time"":501},{""stimulus"":""img/green_wl/11.jpg"",""time"":551}]","[]"
"image-keyboard-response","34","103066","0.0-5.0-1.15","63f049c2d78b2bc822a16dac","bdp_lott","Sun Apr 02 2023 08:22:53 GMT-0500 (Central Daylight Time)","345315","green","red","","1171","","","","choice","","img/green_wl/choose11.jpg","2","210","red","0.5","0.5","0.5","w","",""
"animation","35","103666","0.0-5.0-2.15","63f049c2d78b2bc822a16dac","bdp_lott","Sun Apr 02 2023 08:22:53 GMT-0500 (Central Daylight Time)","345315","green","red","","","","","","","","","","210","","","","","","[{""stimulus"":""img/red_ww/1.jpg"",""time"":50},{""stimulus"":""img/red_ww/2.jpg"",""time"":101},{""stimulus"":""img/red_ww/3.jpg"",""time"":150},{""stimulus"":""img/red_ww/4.jpg"",""time"":200},{""stimulus"":""img/red_ww/5.jpg"",""time"":250},{""stimulus"":""img/red_ww/6.jpg"",""time"":301},{""stimulus"":""img/red_ww/7.jpg"",""time"":350},{""stimulus"":""img/red_ww/8.jpg"",""time"":401},{""stimulus"":""img/red_ww/9.jpg"",""time"":450},{""stimulus"":""img/red_ww/10.jpg"",""time"":501},{""stimulus"":""img/red_ww/11.jpg"",""time"":550}]","[]"
"image-keyboard-response","36","104998","0.0-5.0-1.16","63f049c2d78b2bc822a16dac","bdp_lott","Sun Apr 02 2023 08:22:53 GMT-0500 (Central Daylight Time)","345315","green","red","","1331","","","","choice","","img/red_ww/choose11.jpg","2","209","red","0.5","0.5","0.5","l","",""
"animation","37","105599","0.0-5.0-2.16","63f049c2d78b2bc822a16dac","bdp_lott","Sun Apr 02 2023 08:22:53 GMT-0500 (Central Daylight Time)","345315","green","red","","","","","","","","","","209","","","","","","[{""stimulus"":""img/red_wl/1.jpg"",""time"":50},{""stimulus"":""img/red_wl/2.jpg"",""time"":100},{""stimulus"":""img/red_wl/3.jpg"",""time"":151},{""stimulus"":""img/red_wl/4.jpg"",""time"":201},{""stimulus"":""img/red_wl/5.jpg"",""time"":251},{""stimulus"":""img/red_wl/6.jpg"",""time"":301},{""stimulus"":""img/red_wl/7.jpg"",""time"":350},{""stimulus"":""img/red_wl/8.jpg"",""time"":401},{""stimulus"":""img/red_wl/9.jpg"",""time"":451},{""stimulus"":""img/red_wl/10.jpg"",""time"":501},{""stimulus"":""img/red_wl/11.jpg"",""time"":551}]","[]"
"image-keyboard-response","38","106386","0.0-5.0-1.17","63f049c2d78b2bc822a16dac","bdp_lott","Sun Apr 02 2023 08:22:53 GMT-0500 (Central Daylight Time)","345315","green","red","","787","","","","choice","","img/red_wl/choose11.jpg","2","208","red","0.5","0.5","0.5","l","",""
"animation","39","106987","0.0-5.0-2.17","63f049c2d78b2bc822a16dac","bdp_lott","Sun Apr 02 2023 08:22:53 GMT-0500 (Central Daylight Time)","345315","green","red","","","","","","","","","","208","","","","","","[{""stimulus"":""img/red_wl/1.jpg"",""time"":51},{""stimulus"":""img/red_wl/2.jpg"",""time"":100},{""stimulus"":""img/red_wl/3.jpg"",""time"":151},{""stimulus"":""img/red_wl/4.jpg"",""time"":201},{""stimulus"":""img/red_wl/5.jpg"",""time"":251},{""stimulus"":""img/red_wl/6.jpg"",""time"":301},{""stimulus"":""img/red_wl/7.jpg"",""time"":351},{""stimulus"":""img/red_wl/8.jpg"",""time"":401},{""stimulus"":""img/red_wl/9.jpg"",""time"":451},{""stimulus"":""img/red_wl/10.jpg"",""time"":501},{""stimulus"":""img/red_wl/11.jpg"",""time"":551}]","[]"
"image-keyboard-response","40","107594","0.0-5.0-1.18","63f049c2d78b2bc822a16dac","bdp_lott","Sun Apr 02 2023 08:22:53 GMT-0500 (Central Daylight Time)","345315","green","red","","606","","","","choice","","img/red_wl/choose11.jpg","1","207","green","0.5","0.5","0.5","w","",""
"animation","41","108195","0.0-5.0-2.18","63f049c2d78b2bc822a16dac","bdp_lott","Sun Apr 02 2023 08:22:53 GMT-0500 (Central Daylight Time)","345315","green","red","","","","","","","","","","207","","","","","","[{""stimulus"":""img/green_wl/1.jpg"",""time"":51},{""stimulus"":""img/green_wl/2.jpg"",""time"":101},{""stimulus"":""img/green_wl/3.jpg"",""time"":151},{""stimulus"":""img/green_wl/4.jpg"",""time"":201},{""stimulus"":""img/green_wl/5.jpg"",""time"":252},{""stimulus"":""img/green_wl/6.jpg"",""time"":301},{""stimulus"":""img/green_wl/7.jpg"",""time"":351},{""stimulus"":""img/green_wl/8.jpg"",""time"":401},{""stimulus"":""img/green_wl/9.jpg"",""time"":451},{""stimulus"":""img/green_wl/10.jpg"",""time"":501},{""stimulus"":""img/green_wl/11.jpg"",""time"":551}]","[]"
"image-keyboard-response","42","108772","0.0-5.0-1.19","63f049c2d78b2bc822a16dac","bdp_lott","Sun Apr 02 2023 08:22:53 GMT-0500 (Central Daylight Time)","345315","green","red","","577","","","","choice","","img/green_wl/choose11.jpg","1","206","green","0.5","0.5","0.5","w","",""
"animation","43","109373","0.0-5.0-2.19","63f049c2d78b2bc822a16dac","bdp_lott","Sun Apr 02 2023 08:22:53 GMT-0500 (Central Daylight Time)","345315","green","red","","","","","","","","","","206","","","","","","[{""stimulus"":""img/green_wl/1.jpg"",""time"":51},{""stimulus"":""img/green_wl/2.jpg"",""time"":101},{""stimulus"":""img/green_wl/3.jpg"",""time"":151},{""stimulus"":""img/green_wl/4.jpg"",""time"":201},{""stimulus"":""img/green_wl/5.jpg"",""time"":252},{""stimulus"":""img/green_wl/6.jpg"",""time"":302},{""stimulus"":""img/green_wl/7.jpg"",""time"":351},{""stimulus"":""img/green_wl/8.jpg"",""time"":401},{""stimulus"":""img/green_wl/9.jpg"",""time"":451},{""stimulus"":""img/green_wl/10.jpg"",""time"":500},{""stimulus"":""img/green_wl/11.jpg"",""time"":552}]","[]"
"image-keyboard-response","44","109988","0.0-5.0-1.20","63f049c2d78b2bc822a16dac","bdp_lott","Sun Apr 02 2023 08:22:53 GMT-0500 (Central Daylight Time)","345315","green","red","","615","","","","choice","","img/green_wl/choose11.jpg","1","205","green","0.5","0.5","0.5","w","",""
"animation","45","110589","0.0-5.0-2.20","63f049c2d78b2bc822a16dac","bdp_lott","Sun Apr 02 2023 08:22:53 GMT-0500 (Central Daylight Time)","345315","green","red","","","","","","","","","","205","","","","","","[{""stimulus"":""img/green_wl/1.jpg"",""time"":51},{""stimulus"":""img/green_wl/2.jpg"",""time"":100},{""stimulus"":""img/green_wl/3.jpg"",""time"":151},{""stimulus"":""img/green_wl/4.jpg"",""time"":201},{""stimulus"":""img/green_wl/5.jpg"",""time"":251},{""stimulus"":""img/green_wl/6.jpg"",""time"":300},{""stimulus"":""img/green_wl/7.jpg"",""time"":351},{""stimulus"":""img/green_wl/8.jpg"",""time"":401},{""stimulus"":""img/green_wl/9.jpg"",""time"":451},{""stimulus"":""img/green_wl/10.jpg"",""time"":501},{""stimulus"":""img/green_wl/11.jpg"",""time"":551}]","[]"
"image-keyboard-response","46","111162","0.0-5.0-1.21","63f049c2d78b2bc822a16dac","bdp_lott","Sun Apr 02 2023 08:22:53 GMT-0500 (Central Daylight Time)","345315","green","red","","573","","","","choice","","img/green_wl/choose11.jpg","1","204","green","0.5","0.5","0.5","w","",""
"animation","47","111762","0.0-5.0-2.21","63f049c2d78b2bc822a16dac","bdp_lott","Sun Apr 02 2023 08:22:53 GMT-0500 (Central Daylight Time)","345315","green","red","","","","","","","","","","204","","","","","","[{""stimulus"":""img/green_wl/1.jpg"",""time"":51},{""stimulus"":""img/green_wl/2.jpg"",""time"":101},{""stimulus"":""img/green_wl/3.jpg"",""time"":150},{""stimulus"":""img/green_wl/4.jpg"",""time"":201},{""stimulus"":""img/green_wl/5.jpg"",""time"":251},{""stimulus"":""img/green_wl/6.jpg"",""time"":301},{""stimulus"":""img/green_wl/7.jpg"",""time"":350},{""stimulus"":""img/green_wl/8.jpg"",""time"":400},{""stimulus"":""img/green_wl/9.jpg"",""time"":451},{""stimulus"":""img/green_wl/10.jpg"",""time"":500},{""stimulus"":""img/green_wl/11.jpg"",""time"":551}]","[]"
"image-keyboard-response","48","112278","0.0-5.0-1.22","63f049c2d78b2bc822a16dac","bdp_lott","Sun Apr 02 2023 08:22:53 GMT-0500 (Central Daylight Time)","345315","green","red","","515","","","","choice","","img/green_wl/choose11.jpg","1","203","green","0.5","0.5","0.5","l","",""
"animation","49","112879","0.0-5.0-2.22","63f049c2d78b2bc822a16dac","bdp_lott","Sun Apr 02 2023 08:22:53 GMT-0500 (Central Daylight Time)","345315","green","red","","","","","","","","","","203","","","","","","[{""stimulus"":""img/green_ll/1.jpg"",""time"":50},{""stimulus"":""img/green_ll/2.jpg"",""time"":100},{""stimulus"":""img/green_ll/3.jpg"",""time"":151},{""stimulus"":""img/green_ll/4.jpg"",""time"":200},{""stimulus"":""img/green_ll/5.jpg"",""time"":251},{""stimulus"":""img/green_ll/6.jpg"",""time"":300},{""stimulus"":""img/green_ll/7.jpg"",""time"":351},{""stimulus"":""img/green_ll/8.jpg"",""time"":400},{""stimulus"":""img/green_ll/9.jpg"",""time"":450},{""stimulus"":""img/green_ll/10.jpg"",""time"":501},{""stimulus"":""img/green_ll/11.jpg"",""time"":551}]","[]"
"image-keyboard-response","50","114060","0.0-5.0-1.23","63f049c2d78b2bc822a16dac","bdp_lott","Sun Apr 02 2023 08:22:53 GMT-0500 (Central Daylight Time)","345315","green","red","","1181","","","","choice","","img/green_ll/choose11.jpg","1","202","green","0.5","0.5","0.5","l","",""
"animation","51","114660","0.0-5.0-2.23","63f049c2d78b2bc822a16dac","bdp_lott","Sun Apr 02 2023 08:22:53 GMT-0500 (Central Daylight Time)","345315","green","red","","","","","","","","","","202","","","","","","[{""stimulus"":""img/green_ll/1.jpg"",""time"":51},{""stimulus"":""img/green_ll/2.jpg"",""time"":101},{""stimulus"":""img/green_ll/3.jpg"",""time"":150},{""stimulus"":""img/green_ll/4.jpg"",""time"":200},{""stimulus"":""img/green_ll/5.jpg"",""time"":251},{""stimulus"":""img/green_ll/6.jpg"",""time"":301},{""stimulus"":""img/green_ll/7.jpg"",""time"":351},{""stimulus"":""img/green_ll/8.jpg"",""time"":401},{""stimulus"":""img/green_ll/9.jpg"",""time"":450},{""stimulus"":""img/green_ll/10.jpg"",""time"":500},{""stimulus"":""img/green_ll/11.jpg"",""time"":551}]","[]"
"image-keyboard-response","52","115538","0.0-5.0-1.24","63f049c2d78b2bc822a16dac","bdp_lott","Sun Apr 02 2023 08:22:53 GMT-0500 (Central Daylight Time)","345315","green","red","","877","","","","choice","","img/green_ll/choose11.jpg","1","201","green","0.5","0.5","0.5","w","",""
"animation","53","116139","0.0-5.0-2.24","63f049c2d78b2bc822a16dac","bdp_lott","Sun Apr 02 2023 08:22:53 GMT-0500 (Central Daylight Time)","345315","green","red","","","","","","","","","","201","","","","","","[{""stimulus"":""img/green_wl/1.jpg"",""time"":51},{""stimulus"":""img/green_wl/2.jpg"",""time"":101},{""stimulus"":""img/green_wl/3.jpg"",""time"":151},{""stimulus"":""img/green_wl/4.jpg"",""time"":201},{""stimulus"":""img/green_wl/5.jpg"",""time"":251},{""stimulus"":""img/green_wl/6.jpg"",""time"":301},{""stimulus"":""img/green_wl/7.jpg"",""time"":350},{""stimulus"":""img/green_wl/8.jpg"",""time"":401},{""stimulus"":""img/green_wl/9.jpg"",""time"":451},{""stimulus"":""img/green_wl/10.jpg"",""time"":501},{""stimulus"":""img/green_wl/11.jpg"",""time"":551}]","[]"
"image-keyboard-response","54","117094","0.0-5.0-1.25","63f049c2d78b2bc822a16dac","bdp_lott","Sun Apr 02 2023 08:22:53 GMT-0500 (Central Daylight Time)","345315","green","red","","955","","","","choice","","img/green_wl/choose11.jpg","1","200","green","0.5","0.5","0.5","l","",""
"animation","55","117694","0.0-5.0-2.25","63f049c2d78b2bc822a16dac","bdp_lott","Sun Apr 02 2023 08:22:53 GMT-0500 (Central Daylight Time)","345315","green","red","","","","","","","","","","200","","","","","","[{""stimulus"":""img/green_ll/1.jpg"",""time"":51},{""stimulus"":""img/green_ll/2.jpg"",""time"":101},{""stimulus"":""img/green_ll/3.jpg"",""time"":151},{""stimulus"":""img/green_ll/4.jpg"",""time"":200},{""stimulus"":""img/green_ll/5.jpg"",""time"":251},{""stimulus"":""img/green_ll/6.jpg"",""time"":301},{""stimulus"":""img/green_ll/7.jpg"",""time"":351},{""stimulus"":""img/green_ll/8.jpg"",""time"":401},{""stimulus"":""img/green_ll/9.jpg"",""time"":450},{""stimulus"":""img/green_ll/10.jpg"",""time"":501},{""stimulus"":""img/green_ll/11.jpg"",""time"":551}]","[]"
"image-keyboard-response","56","118292","0.0-5.0-1.26","63f049c2d78b2bc822a16dac","bdp_lott","Sun Apr 02 2023 08:22:53 GMT-0500 (Central Daylight Time)","345315","green","red","","597","","","","choice","","img/green_ll/choose11.jpg","2","199","red","0.5","0.5","0.5","w","",""
"animation","57","118892","0.0-5.0-2.26","63f049c2d78b2bc822a16dac","bdp_lott","Sun Apr 02 2023 08:22:53 GMT-0500 (Central Daylight Time)","345315","green","red","","","","","","","","","","199","","","","","","[{""stimulus"":""img/red_lw/1.jpg"",""time"":51},{""stimulus"":""img/red_lw/2.jpg"",""time"":101},{""stimulus"":""img/red_lw/3.jpg"",""time"":150},{""stimulus"":""img/red_lw/4.jpg"",""time"":201},{""stimulus"":""img/red_lw/5.jpg"",""time"":251},{""stimulus"":""img/red_lw/6.jpg"",""time"":301},{""stimulus"":""img/red_lw/7.jpg"",""time"":350},{""stimulus"":""img/red_lw/8.jpg"",""time"":401},{""stimulus"":""img/red_lw/9.jpg"",""time"":451},{""stimulus"":""img/red_lw/10.jpg"",""time"":501},{""stimulus"":""img/red_lw/11.jpg"",""time"":550}]","[]"
"image-keyboard-response","58","119480","0.0-5.0-1.27","63f049c2d78b2bc822a16dac","bdp_lott","Sun Apr 02 2023 08:22:53 GMT-0500 (Central Daylight Time)","345315","green","red","","588","","","","choice","","img/red_lw/choose11.jpg","2","198","red","0.5","0.5","0.5","w","",""
"animation","59","120081","0.0-5.0-2.27","63f049c2d78b2bc822a16dac","bdp_lott","Sun Apr 02 2023 08:22:53 GMT-0500 (Central Daylight Time)","345315","green","red","","","","","","","","","","198","","","","","","[{""stimulus"":""img/red_lw/1.jpg"",""time"":50},{""stimulus"":""img/red_lw/2.jpg"",""time"":100},{""stimulus"":""img/red_lw/3.jpg"",""time"":151},{""stimulus"":""img/red_lw/4.jpg"",""time"":201},{""stimulus"":""img/red_lw/5.jpg"",""time"":251},{""stimulus"":""img/red_lw/6.jpg"",""time"":301},{""stimulus"":""img/red_lw/7.jpg"",""time"":351},{""stimulus"":""img/red_lw/8.jpg"",""time"":401},{""stimulus"":""img/red_lw/9.jpg"",""time"":451},{""stimulus"":""img/red_lw/10.jpg"",""time"":501},{""stimulus"":""img/red_lw/11.jpg"",""time"":551}]","[]"
"image-keyboard-response","60","120590","0.0-5.0-1.28","63f049c2d78b2bc822a16dac","bdp_lott","Sun Apr 02 2023 08:22:53 GMT-0500 (Central Daylight Time)","345315","green","red","","507","","","","choice","","img/red_lw/choose11.jpg","2","197","red","0.5","0.5","0.5","w","",""
"animation","61","121190","0.0-5.0-2.28","63f049c2d78b2bc822a16dac","bdp_lott","Sun Apr 02 2023 08:22:53 GMT-0500 (Central Daylight Time)","345315","green","red","","","","","","","","","","197","","","","","","[{""stimulus"":""img/red_lw/1.jpg"",""time"":50},{""stimulus"":""img/red_lw/2.jpg"",""time"":100},{""stimulus"":""img/red_lw/3.jpg"",""time"":151},{""stimulus"":""img/red_lw/4.jpg"",""time"":201},{""stimulus"":""img/red_lw/5.jpg"",""time"":251},{""stimulus"":""img/red_lw/6.jpg"",""time"":301},{""stimulus"":""img/red_lw/7.jpg"",""time"":351},{""stimulus"":""img/red_lw/8.jpg"",""time"":401},{""stimulus"":""img/red_lw/9.jpg"",""time"":451},{""stimulus"":""img/red_lw/10.jpg"",""time"":500},{""stimulus"":""img/red_lw/11.jpg"",""time"":550}]","[]"
"image-keyboard-response","62","121708","0.0-5.0-1.29","63f049c2d78b2bc822a16dac","bdp_lott","Sun Apr 02 2023 08:22:53 GMT-0500 (Central Daylight Time)","345315","green","red","","516","","","","choice","","img/red_lw/choose11.jpg","2","196","red","0.5","0.5","0.5","w","",""
"animation","63","122308","0.0-5.0-2.29","63f049c2d78b2bc822a16dac","bdp_lott","Sun Apr 02 2023 08:22:53 GMT-0500 (Central Daylight Time)","345315","green","red","","","","","","","","","","196","","","","","","[{""stimulus"":""img/red_lw/1.jpg"",""time"":51},{""stimulus"":""img/red_lw/2.jpg"",""time"":101},{""stimulus"":""img/red_lw/3.jpg"",""time"":151},{""stimulus"":""img/red_lw/4.jpg"",""time"":200},{""stimulus"":""img/red_lw/5.jpg"",""time"":251},{""stimulus"":""img/red_lw/6.jpg"",""time"":300},{""stimulus"":""img/red_lw/7.jpg"",""time"":351},{""stimulus"":""img/red_lw/8.jpg"",""time"":400},{""stimulus"":""img/red_lw/9.jpg"",""time"":450},{""stimulus"":""img/red_lw/10.jpg"",""time"":500},{""stimulus"":""img/red_lw/11.jpg"",""time"":550}]","[]"
"image-keyboard-response","64","122838","0.0-5.0-1.30","63f049c2d78b2bc822a16dac","bdp_lott","Sun Apr 02 2023 08:22:53 GMT-0500 (Central Daylight Time)","345315","green","red","","529","","","","choice","","img/red_lw/choose11.jpg","2","195","red","0.5","0.5","0.5","w","",""
"animation","65","123438","0.0-5.0-2.30","63f049c2d78b2bc822a16dac","bdp_lott","Sun Apr 02 2023 08:22:53 GMT-0500 (Central Daylight Time)","345315","green","red","","","","","","","","","","195","","","","","","[{""stimulus"":""img/red_lw/1.jpg"",""time"":51},{""stimulus"":""img/red_lw/2.jpg"",""time"":100},{""stimulus"":""img/red_lw/3.jpg"",""time"":150},{""stimulus"":""img/red_lw/4.jpg"",""time"":201},{""stimulus"":""img/red_lw/5.jpg"",""time"":250},{""stimulus"":""img/red_lw/6.jpg"",""time"":301},{""stimulus"":""img/red_lw/7.jpg"",""time"":351},{""stimulus"":""img/red_lw/8.jpg"",""time"":401},{""stimulus"":""img/red_lw/9.jpg"",""time"":451},{""stimulus"":""img/red_lw/10.jpg"",""time"":500},{""stimulus"":""img/red_lw/11.jpg"",""time"":551}]","[]"
"image-keyboard-response","66","123974","0.0-5.0-1.31","63f049c2d78b2bc822a16dac","bdp_lott","Sun Apr 02 2023 08:22:53 GMT-0500 (Central Daylight Time)","345315","green","red","","535","","","","choice","","img/red_lw/choose11.jpg","2","194","red","0.5","0.5","0.5","l","",""
"animation","67","124574","0.0-5.0-2.31","63f049c2d78b2bc822a16dac","bdp_lott","Sun Apr 02 2023 08:22:53 GMT-0500 (Central Daylight Time)","345315","green","red","","","","","","","","","","194","","","","","","[{""stimulus"":""img/red_ll/1.jpg"",""time"":51},{""stimulus"":""img/red_ll/2.jpg"",""time"":101},{""stimulus"":""img/red_ll/3.jpg"",""time"":151},{""stimulus"":""img/red_ll/4.jpg"",""time"":201},{""stimulus"":""img/red_ll/5.jpg"",""time"":251},{""stimulus"":""img/red_ll/6.jpg"",""time"":301},{""stimulus"":""img/red_ll/7.jpg"",""time"":351},{""stimulus"":""img/red_ll/8.jpg"",""time"":401},{""stimulus"":""img/red_ll/9.jpg"",""time"":451},{""stimulus"":""img/red_ll/10.jpg"",""time"":500},{""stimulus"":""img/red_ll/11.jpg"",""time"":551}]","[]"
"image-keyboard-response","68","125335","0.0-5.0-1.32","63f049c2d78b2bc822a16dac","bdp_lott","Sun Apr 02 2023 08:22:53 GMT-0500 (Central Daylight Time)","345315","green","red","","760","","","","choice","","img/red_ll/choose11.jpg","2","193","red","0.5","0.5","0.5","l","",""
"animation","69","125937","0.0-5.0-2.32","63f049c2d78b2bc822a16dac","bdp_lott","Sun Apr 02 2023 08:22:53 GMT-0500 (Central Daylight Time)","345315","green","red","","","","","","","","","","193","","","","","","[{""stimulus"":""img/red_ll/1.jpg"",""time"":51},{""stimulus"":""img/red_ll/2.jpg"",""time"":100},{""stimulus"":""img/red_ll/3.jpg"",""time"":151},{""stimulus"":""img/red_ll/4.jpg"",""time"":201},{""stimulus"":""img/red_ll/5.jpg"",""time"":251},{""stimulus"":""img/red_ll/6.jpg"",""time"":301},{""stimulus"":""img/red_ll/7.jpg"",""time"":351},{""stimulus"":""img/red_ll/8.jpg"",""time"":401},{""stimulus"":""img/red_ll/9.jpg"",""time"":451},{""stimulus"":""img/red_ll/10.jpg"",""time"":501},{""stimulus"":""img/red_ll/11.jpg"",""time"":551}]","[]"
"image-keyboard-response","70","126450","0.0-5.0-1.33","63f049c2d78b2bc822a16dac","bdp_lott","Sun Apr 02 2023 08:22:53 GMT-0500 (Central Daylight Time)","345315","green","red","","513","","","","choice","","img/red_ll/choose11.jpg","2","192","red","0.5","0.5","0.5","l","",""
"animation","71","127051","0.0-5.0-2.33","63f049c2d78b2bc822a16dac","bdp_lott","Sun Apr 02 2023 08:22:53 GMT-0500 (Central Daylight Time)","345315","green","red","","","","","","","","","","192","","","","","","[{""stimulus"":""img/red_ll/1.jpg"",""time"":51},{""stimulus"":""img/red_ll/2.jpg"",""time"":100},{""stimulus"":""img/red_ll/3.jpg"",""time"":152},{""stimulus"":""img/red_ll/4.jpg"",""time"":201},{""stimulus"":""img/red_ll/5.jpg"",""time"":251},{""stimulus"":""img/red_ll/6.jpg"",""time"":302},{""stimulus"":""img/red_ll/7.jpg"",""time"":351},{""stimulus"":""img/red_ll/8.jpg"",""time"":401},{""stimulus"":""img/red_ll/9.jpg"",""time"":451},{""stimulus"":""img/red_ll/10.jpg"",""time"":501},{""stimulus"":""img/red_ll/11.jpg"",""time"":551}]","[]"
"image-keyboard-response","72","127497","0.0-5.0-1.34","63f049c2d78b2bc822a16dac","bdp_lott","Sun Apr 02 2023 08:22:53 GMT-0500 (Central Daylight Time)","345315","green","red","","446","","","","choice","","img/red_ll/choose11.jpg","1","191","green","0.5","0.5","0.5","l","",""
"animation","73","128098","0.0-5.0-2.34","63f049c2d78b2bc822a16dac","bdp_lott","Sun Apr 02 2023 08:22:53 GMT-0500 (Central Daylight Time)","345315","green","red","","","","","","","","","","191","","","","","","[{""stimulus"":""img/green_ll/1.jpg"",""time"":50},{""stimulus"":""img/green_ll/2.jpg"",""time"":101},{""stimulus"":""img/green_ll/3.jpg"",""time"":151},{""stimulus"":""img/green_ll/4.jpg"",""time"":200},{""stimulus"":""img/green_ll/5.jpg"",""time"":251},{""stimulus"":""img/green_ll/6.jpg"",""time"":301},{""stimulus"":""img/green_ll/7.jpg"",""time"":351},{""stimulus"":""img/green_ll/8.jpg"",""time"":400},{""stimulus"":""img/green_ll/9.jpg"",""time"":451},{""stimulus"":""img/green_ll/10.jpg"",""time"":501},{""stimulus"":""img/green_ll/11.jpg"",""time"":551}]","[]"
"image-keyboard-response","74","128634","0.0-5.0-1.35","63f049c2d78b2bc822a16dac","bdp_lott","Sun Apr 02 2023 08:22:53 GMT-0500 (Central Daylight Time)","345315","green","red","","535","","","","choice","","img/green_ll/choose11.jpg","1","190","green","0.5","0.5","0.5","w","",""
"animation","75","129235","0.0-5.0-2.35","63f049c2d78b2bc822a16dac","bdp_lott","Sun Apr 02 2023 08:22:53 GMT-0500 (Central Daylight Time)","345315","green","red","","","","","","","","","","190","","","","","","[{""stimulus"":""img/green_wl/1.jpg"",""time"":51},{""stimulus"":""img/green_wl/2.jpg"",""time"":101},{""stimulus"":""img/green_wl/3.jpg"",""time"":151},{""stimulus"":""img/green_wl/4.jpg"",""time"":201},{""stimulus"":""img/green_wl/5.jpg"",""time"":251},{""stimulus"":""img/green_wl/6.jpg"",""time"":301},{""stimulus"":""img/green_wl/7.jpg"",""time"":351},{""stimulus"":""img/green_wl/8.jpg"",""time"":401},{""stimulus"":""img/green_wl/9.jpg"",""time"":451},{""stimulus"":""img/green_wl/10.jpg"",""time"":501},{""stimulus"":""img/green_wl/11.jpg"",""time"":551}]","[]"
"image-keyboard-response","76","129848","0.0-5.0-1.36","63f049c2d78b2bc822a16dac","bdp_lott","Sun Apr 02 2023 08:22:53 GMT-0500 (Central Daylight Time)","345315","green","red","","612","","","","choice","","img/green_wl/choose11.jpg","1","189","green","0.5","0.5","0.5","l","",""
"animation","77","130449","0.0-5.0-2.36","63f049c2d78b2bc822a16dac","bdp_lott","Sun Apr 02 2023 08:22:53 GMT-0500 (Central Daylight Time)","345315","green","red","","","","","","","","","","189","","","","","","[{""stimulus"":""img/green_ll/1.jpg"",""time"":51},{""stimulus"":""img/green_ll/2.jpg"",""time"":100},{""stimulus"":""img/green_ll/3.jpg"",""time"":151},{""stimulus"":""img/green_ll/4.jpg"",""time"":201},{""stimulus"":""img/green_ll/5.jpg"",""time"":251},{""stimulus"":""img/green_ll/6.jpg"",""time"":300},{""stimulus"":""img/green_ll/7.jpg"",""time"":350},{""stimulus"":""img/green_ll/8.jpg"",""time"":401},{""stimulus"":""img/green_ll/9.jpg"",""time"":450},{""stimulus"":""img/green_ll/10.jpg"",""time"":501},{""stimulus"":""img/green_ll/11.jpg"",""time"":551}]","[]"
"image-keyboard-response","78","131288","0.0-5.0-1.37","63f049c2d78b2bc822a16dac","bdp_lott","Sun Apr 02 2023 08:22:53 GMT-0500 (Central Daylight Time)","345315","green","red","","838","","","","choice","","img/green_ll/choose11.jpg","1","188","green","0.5","0.5","0.5","l","",""
"animation","79","131888","0.0-5.0-2.37","63f049c2d78b2bc822a16dac","bdp_lott","Sun Apr 02 2023 08:22:53 GMT-0500 (Central Daylight Time)","345315","green","red","","","","","","","","","","188","","","","","","[{""stimulus"":""img/green_ll/1.jpg"",""time"":50},{""stimulus"":""img/green_ll/2.jpg"",""time"":101},{""stimulus"":""img/green_ll/3.jpg"",""time"":150},{""stimulus"":""img/green_ll/4.jpg"",""time"":201},{""stimulus"":""img/green_ll/5.jpg"",""time"":251},{""stimulus"":""img/green_ll/6.jpg"",""time"":300},{""stimulus"":""img/green_ll/7.jpg"",""time"":350},{""stimulus"":""img/green_ll/8.jpg"",""time"":400},{""stimulus"":""img/green_ll/9.jpg"",""time"":451},{""stimulus"":""img/green_ll/10.jpg"",""time"":501},{""stimulus"":""img/green_ll/11.jpg"",""time"":551}]","[]"
"image-keyboard-response","80","132482","0.0-5.0-1.38","63f049c2d78b2bc822a16dac","bdp_lott","Sun Apr 02 2023 08:22:53 GMT-0500 (Central Daylight Time)","345315","green","red","","594","","","","choice","","img/green_ll/choose11.jpg","2","187","red","0.5","0.5","0.5","l","",""
"animation","81","133083","0.0-5.0-2.38","63f049c2d78b2bc822a16dac","bdp_lott","Sun Apr 02 2023 08:22:53 GMT-0500 (Central Daylight Time)","345315","green","red","","","","","","","","","","187","","","","","","[{""stimulus"":""img/red_ll/1.jpg"",""time"":51},{""stimulus"":""img/red_ll/2.jpg"",""time"":101},{""stimulus"":""img/red_ll/3.jpg"",""time"":151},{""stimulus"":""img/red_ll/4.jpg"",""time"":200},{""stimulus"":""img/red_ll/5.jpg"",""time"":250},{""stimulus"":""img/red_ll/6.jpg"",""time"":301},{""stimulus"":""img/red_ll/7.jpg"",""time"":351},{""stimulus"":""img/red_ll/8.jpg"",""time"":400},{""stimulus"":""img/red_ll/9.jpg"",""time"":451},{""stimulus"":""img/red_ll/10.jpg"",""time"":501},{""stimulus"":""img/red_ll/11.jpg"",""time"":551}]","[]"
"image-keyboard-response","82","133654","0.0-5.0-1.39","63f049c2d78b2bc822a16dac","bdp_lott","Sun Apr 02 2023 08:22:53 GMT-0500 (Central Daylight Time)","345315","green","red","","570","","","","choice","","img/red_ll/choose11.jpg","1","186","green","0.5","0.5","0.5","w","",""
"animation","83","134255","0.0-5.0-2.39","63f049c2d78b2bc822a16dac","bdp_lott","Sun Apr 02 2023 08:22:53 GMT-0500 (Central Daylight Time)","345315","green","red","","","","","","","","","","186","","","","","","[{""stimulus"":""img/green_wl/1.jpg"",""time"":50},{""stimulus"":""img/green_wl/2.jpg"",""time"":101},{""stimulus"":""img/green_wl/3.jpg"",""time"":150},{""stimulus"":""img/green_wl/4.jpg"",""time"":201},{""stimulus"":""img/green_wl/5.jpg"",""time"":251},{""stimulus"":""img/green_wl/6.jpg"",""time"":300},{""stimulus"":""img/green_wl/7.jpg"",""time"":350},{""stimulus"":""img/green_wl/8.jpg"",""time"":400},{""stimulus"":""img/green_wl/9.jpg"",""time"":451},{""stimulus"":""img/green_wl/10.jpg"",""time"":500},{""stimulus"":""img/green_wl/11.jpg"",""time"":550}]","[]"
"image-keyboard-response","84","134866","0.0-5.0-1.40","63f049c2d78b2bc822a16dac","bdp_lott","Sun Apr 02 2023 08:22:53 GMT-0500 (Central Daylight Time)","345315","green","red","","611","","","","choice","","img/green_wl/choose11.jpg","2","185","red","0.5","0.5","0.5","w","",""
"animation","85","135466","0.0-5.0-2.40","63f049c2d78b2bc822a16dac","bdp_lott","Sun Apr 02 2023 08:22:53 GMT-0500 (Central Daylight Time)","345315","green","red","","","","","","","","","","185","","","","","","[{""stimulus"":""img/red_ww/1.jpg"",""time"":51},{""stimulus"":""img/red_ww/2.jpg"",""time"":101},{""stimulus"":""img/red_ww/3.jpg"",""time"":151},{""stimulus"":""img/red_ww/4.jpg"",""time"":201},{""stimulus"":""img/red_ww/5.jpg"",""time"":251},{""stimulus"":""img/red_ww/6.jpg"",""time"":301},{""stimulus"":""img/red_ww/7.jpg"",""time"":351},{""stimulus"":""img/red_ww/8.jpg"",""time"":401},{""stimulus"":""img/red_ww/9.jpg"",""time"":451},{""stimulus"":""img/red_ww/10.jpg"",""time"":501},{""stimulus"":""img/red_ww/11.jpg"",""time"":551}]","[]"
"image-keyboard-response","86","136150","0.0-5.0-1.41","63f049c2d78b2bc822a16dac","bdp_lott","Sun Apr 02 2023 08:22:53 GMT-0500 (Central Daylight Time)","345315","green","red","","682","","","","choice","","img/red_ww/choose11.jpg","1","184","green","0.5","0.5","0.5","w","",""
"animation","87","136751","0.0-5.0-2.41","63f049c2d78b2bc822a16dac","bdp_lott","Sun Apr 02 2023 08:22:53 GMT-0500 (Central Daylight Time)","345315","green","red","","","","","","","","","","184","","","","","","[{""stimulus"":""img/green_ww/1.jpg"",""time"":51},{""stimulus"":""img/green_ww/2.jpg"",""time"":100},{""stimulus"":""img/green_ww/3.jpg"",""time"":150},{""stimulus"":""img/green_ww/4.jpg"",""time"":200},{""stimulus"":""img/green_ww/5.jpg"",""time"":250},{""stimulus"":""img/green_ww/6.jpg"",""time"":301},{""stimulus"":""img/green_ww/7.jpg"",""time"":351},{""stimulus"":""img/green_ww/8.jpg"",""time"":400},{""stimulus"":""img/green_ww/9.jpg"",""time"":451},{""stimulus"":""img/green_ww/10.jpg"",""time"":500},{""stimulus"":""img/green_ww/11.jpg"",""time"":550}]","[]"
"image-keyboard-response","88","137748","0.0-5.0-1.42","63f049c2d78b2bc822a16dac","bdp_lott","Sun Apr 02 2023 08:22:53 GMT-0500 (Central Daylight Time)","345315","green","red","","996","","","","choice","","img/green_ww/choose11.jpg","2","183","red","0.5","0.5","0.5","l","",""
"animation","89","138349","0.0-5.0-2.42","63f049c2d78b2bc822a16dac","bdp_lott","Sun Apr 02 2023 08:22:53 GMT-0500 (Central Daylight Time)","345315","green","red","","","","","","","","","","183","","","","","","[{""stimulus"":""img/red_wl/1.jpg"",""time"":50},{""stimulus"":""img/red_wl/2.jpg"",""time"":100},{""stimulus"":""img/red_wl/3.jpg"",""time"":151},{""stimulus"":""img/red_wl/4.jpg"",""time"":201},{""stimulus"":""img/red_wl/5.jpg"",""time"":250},{""stimulus"":""img/red_wl/6.jpg"",""time"":301},{""stimulus"":""img/red_wl/7.jpg"",""time"":350},{""stimulus"":""img/red_wl/8.jpg"",""time"":401},{""stimulus"":""img/red_wl/9.jpg"",""time"":451},{""stimulus"":""img/red_wl/10.jpg"",""time"":501},{""stimulus"":""img/red_wl/11.jpg"",""time"":550}]","[]"
"image-keyboard-response","90","138846","0.0-5.0-1.43","63f049c2d78b2bc822a16dac","bdp_lott","Sun Apr 02 2023 08:22:53 GMT-0500 (Central Daylight Time)","345315","green","red","","496","","","","choice","","img/red_wl/choose11.jpg","1","182","green","0.5","0.5","0.5","l","",""
"animation","91","139446","0.0-5.0-2.43","63f049c2d78b2bc822a16dac","bdp_lott","Sun Apr 02 2023 08:22:53 GMT-0500 (Central Daylight Time)","345315","green","red","","","","","","","","","","182","","","","","","[{""stimulus"":""img/green_ll/1.jpg"",""time"":50},{""stimulus"":""img/green_ll/2.jpg"",""time"":100},{""stimulus"":""img/green_ll/3.jpg"",""time"":150},{""stimulus"":""img/green_ll/4.jpg"",""time"":200},{""stimulus"":""img/green_ll/5.jpg"",""time"":250},{""stimulus"":""img/green_ll/6.jpg"",""time"":300},{""stimulus"":""img/green_ll/7.jpg"",""time"":350},{""stimulus"":""img/green_ll/8.jpg"",""time"":400},{""stimulus"":""img/green_ll/9.jpg"",""time"":450},{""stimulus"":""img/green_ll/10.jpg"",""time"":500},{""stimulus"":""img/green_ll/11.jpg"",""time"":550}]","[]"
"image-keyboard-response","92","140286","0.0-5.0-1.44","63f049c2d78b2bc822a16dac","bdp_lott","Sun Apr 02 2023 08:22:53 GMT-0500 (Central Daylight Time)","345315","green","red","","840","","","","choice","","img/green_ll/choose11.jpg","2","181","red","0.5","0.5","0.5","w","",""
"animation","93","140887","0.0-5.0-2.44","63f049c2d78b2bc822a16dac","bdp_lott","Sun Apr 02 2023 08:22:53 GMT-0500 (Central Daylight Time)","345315","green","red","","","","","","","","","","181","","","","","","[{""stimulus"":""img/red_lw/1.jpg"",""time"":51},{""stimulus"":""img/red_lw/2.jpg"",""time"":101},{""stimulus"":""img/red_lw/3.jpg"",""time"":150},{""stimulus"":""img/red_lw/4.jpg"",""time"":201},{""stimulus"":""img/red_lw/5.jpg"",""time"":251},{""stimulus"":""img/red_lw/6.jpg"",""time"":300},{""stimulus"":""img/red_lw/7.jpg"",""time"":351},{""stimulus"":""img/red_lw/8.jpg"",""time"":400},{""stimulus"":""img/red_lw/9.jpg"",""time"":451},{""stimulus"":""img/red_lw/10.jpg"",""time"":501},{""stimulus"":""img/red_lw/11.jpg"",""time"":550}]","[]"
"image-keyboard-response","94","141849","0.0-5.0-1.45","63f049c2d78b2bc822a16dac","bdp_lott","Sun Apr 02 2023 08:22:53 GMT-0500 (Central Daylight Time)","345315","green","red","","962","","","","choice","","img/red_lw/choose11.jpg","2","180","red","0.5","0.5","0.5","l","",""
"animation","95","142451","0.0-5.0-2.45","63f049c2d78b2bc822a16dac","bdp_lott","Sun Apr 02 2023 08:22:53 GMT-0500 (Central Daylight Time)","345315","green","red","","","","","","","","","","180","","","","","","[{""stimulus"":""img/red_ll/1.jpg"",""time"":50},{""stimulus"":""img/red_ll/2.jpg"",""time"":100},{""stimulus"":""img/red_ll/3.jpg"",""time"":151},{""stimulus"":""img/red_ll/4.jpg"",""time"":200},{""stimulus"":""img/red_ll/5.jpg"",""time"":250},{""stimulus"":""img/red_ll/6.jpg"",""time"":300},{""stimulus"":""img/red_ll/7.jpg"",""time"":350},{""stimulus"":""img/red_ll/8.jpg"",""time"":400},{""stimulus"":""img/red_ll/9.jpg"",""time"":450},{""stimulus"":""img/red_ll/10.jpg"",""time"":500},{""stimulus"":""img/red_ll/11.jpg"",""time"":550}]","[]"
"image-keyboard-response","96","143536","0.0-5.0-1.46","63f049c2d78b2bc822a16dac","bdp_lott","Sun Apr 02 2023 08:22:53 GMT-0500 (Central Daylight Time)","345315","green","red","","1084","","","","choice","","img/red_ll/choose11.jpg","2","179","red","0.5","0.5","0.5","l","",""
"animation","97","144136","0.0-5.0-2.46","63f049c2d78b2bc822a16dac","bdp_lott","Sun Apr 02 2023 08:22:53 GMT-0500 (Central Daylight Time)","345315","green","red","","","","","","","","","","179","","","","","","[{""stimulus"":""img/red_ll/1.jpg"",""time"":51},{""stimulus"":""img/red_ll/2.jpg"",""time"":101},{""stimulus"":""img/red_ll/3.jpg"",""time"":150},{""stimulus"":""img/red_ll/4.jpg"",""time"":200},{""stimulus"":""img/red_ll/5.jpg"",""time"":251},{""stimulus"":""img/red_ll/6.jpg"",""time"":300},{""stimulus"":""img/red_ll/7.jpg"",""time"":351},{""stimulus"":""img/red_ll/8.jpg"",""time"":400},{""stimulus"":""img/red_ll/9.jpg"",""time"":451},{""stimulus"":""img/red_ll/10.jpg"",""time"":500},{""stimulus"":""img/red_ll/11.jpg"",""time"":551}]","[]"
"image-keyboard-response","98","144605","0.0-5.0-1.47","63f049c2d78b2bc822a16dac","bdp_lott","Sun Apr 02 2023 08:22:53 GMT-0500 (Central Daylight Time)","345315","green","red","","468","","","","choice","","img/red_ll/choose11.jpg","1","178","green","0.5","0.5","0.5","w","",""
"animation","99","145207","0.0-5.0-2.47","63f049c2d78b2bc822a16dac","bdp_lott","Sun Apr 02 2023 08:22:53 GMT-0500 (Central Daylight Time)","345315","green","red","","","","","","","","","","178","","","","","","[{""stimulus"":""img/green_wl/1.jpg"",""time"":50},{""stimulus"":""img/green_wl/2.jpg"",""time"":100},{""stimulus"":""img/green_wl/3.jpg"",""time"":151},{""stimulus"":""img/green_wl/4.jpg"",""time"":201},{""stimulus"":""img/green_wl/5.jpg"",""time"":251},{""stimulus"":""img/green_wl/6.jpg"",""time"":300},{""stimulus"":""img/green_wl/7.jpg"",""time"":350},{""stimulus"":""img/green_wl/8.jpg"",""time"":401},{""stimulus"":""img/green_wl/9.jpg"",""time"":451},{""stimulus"":""img/green_wl/10.jpg"",""time"":500},{""stimulus"":""img/green_wl/11.jpg"",""time"":550}]","[]"
"image-keyboard-response","100","145822","0.0-5.0-1.48","63f049c2d78b2bc822a16dac","bdp_lott","Sun Apr 02 2023 08:22:53 GMT-0500 (Central Daylight Time)","345315","green","red","","614","","","","choice","","img/green_wl/choose11.jpg","1","177","green","0.5","0.5","0.5","w","",""
"animation","101","146422","0.0-5.0-2.48","63f049c2d78b2bc822a16dac","bdp_lott","Sun Apr 02 2023 08:22:53 GMT-0500 (Central Daylight Time)","345315","green","red","","","","","","","","","","177","","","","","","[{""stimulus"":""img/green_wl/1.jpg"",""time"":50},{""stimulus"":""img/green_wl/2.jpg"",""time"":101},{""stimulus"":""img/green_wl/3.jpg"",""time"":150},{""stimulus"":""img/green_wl/4.jpg"",""time"":201},{""stimulus"":""img/green_wl/5.jpg"",""time"":251},{""stimulus"":""img/green_wl/6.jpg"",""time"":301},{""stimulus"":""img/green_wl/7.jpg"",""time"":351},{""stimulus"":""img/green_wl/8.jpg"",""time"":401},{""stimulus"":""img/green_wl/9.jpg"",""time"":451},{""stimulus"":""img/green_wl/10.jpg"",""time"":500},{""stimulus"":""img/green_wl/11.jpg"",""time"":551}]","[]"
"image-keyboard-response","102","146997","0.0-5.0-1.49","63f049c2d78b2bc822a16dac","bdp_lott","Sun Apr 02 2023 08:22:53 GMT-0500 (Central Daylight Time)","345315","green","red","","574","","","","choice","","img/green_wl/choose11.jpg","1","176","green","0.5","0.5","0.5","l","",""
"animation","103","147598","0.0-5.0-2.49","63f049c2d78b2bc822a16dac","bdp_lott","Sun Apr 02 2023 08:22:53 GMT-0500 (Central Daylight Time)","345315","green","red","","","","","","","","","","176","","","","","","[{""stimulus"":""img/green_ll/1.jpg"",""time"":50},{""stimulus"":""img/green_ll/2.jpg"",""time"":101},{""stimulus"":""img/green_ll/3.jpg"",""time"":151},{""stimulus"":""img/green_ll/4.jpg"",""time"":201},{""stimulus"":""img/green_ll/5.jpg"",""time"":250},{""stimulus"":""img/green_ll/6.jpg"",""time"":301},{""stimulus"":""img/green_ll/7.jpg"",""time"":351},{""stimulus"":""img/green_ll/8.jpg"",""time"":401},{""stimulus"":""img/green_ll/9.jpg"",""time"":451},{""stimulus"":""img/green_ll/10.jpg"",""time"":500},{""stimulus"":""img/green_ll/11.jpg"",""time"":551}]","[]"
"image-keyboard-response","104","148226","0.0-5.0-1.50","63f049c2d78b2bc822a16dac","bdp_lott","Sun Apr 02 2023 08:22:53 GMT-0500 (Central Daylight Time)","345315","green","red","","627","","","","choice","","img/green_ll/choose11.jpg","1","175","green","0.5","0.5","0.5","w","",""
"animation","105","148826","0.0-5.0-2.50","63f049c2d78b2bc822a16dac","bdp_lott","Sun Apr 02 2023 08:22:53 GMT-0500 (Central Daylight Time)","345315","green","red","","","","","","","","","","175","","","","","","[{""stimulus"":""img/green_wl/1.jpg"",""time"":50},{""stimulus"":""img/green_wl/2.jpg"",""time"":100},{""stimulus"":""img/green_wl/3.jpg"",""time"":150},{""stimulus"":""img/green_wl/4.jpg"",""time"":200},{""stimulus"":""img/green_wl/5.jpg"",""time"":250},{""stimulus"":""img/green_wl/6.jpg"",""time"":300},{""stimulus"":""img/green_wl/7.jpg"",""time"":351},{""stimulus"":""img/green_wl/8.jpg"",""time"":401},{""stimulus"":""img/green_wl/9.jpg"",""time"":450},{""stimulus"":""img/green_wl/10.jpg"",""time"":500},{""stimulus"":""img/green_wl/11.jpg"",""time"":551}]","[]"
"image-keyboard-response","106","149358","0.0-5.0-1.51","63f049c2d78b2bc822a16dac","bdp_lott","Sun Apr 02 2023 08:22:53 GMT-0500 (Central Daylight Time)","345315","green","red","","531","","","","choice","","img/green_wl/choose11.jpg","1","174","green","0.5","0.5","0.5","l","",""
"animation","107","149958","0.0-5.0-2.51","63f049c2d78b2bc822a16dac","bdp_lott","Sun Apr 02 2023 08:22:53 GMT-0500 (Central Daylight Time)","345315","green","red","","","","","","","","","","174","","","","","","[{""stimulus"":""img/green_ll/1.jpg"",""time"":51},{""stimulus"":""img/green_ll/2.jpg"",""time"":101},{""stimulus"":""img/green_ll/3.jpg"",""time"":151},{""stimulus"":""img/green_ll/4.jpg"",""time"":201},{""stimulus"":""img/green_ll/5.jpg"",""time"":251},{""stimulus"":""img/green_ll/6.jpg"",""time"":301},{""stimulus"":""img/green_ll/7.jpg"",""time"":351},{""stimulus"":""img/green_ll/8.jpg"",""time"":401},{""stimulus"":""img/green_ll/9.jpg"",""time"":451},{""stimulus"":""img/green_ll/10.jpg"",""time"":501},{""stimulus"":""img/green_ll/11.jpg"",""time"":551}]","[]"
"image-keyboard-response","108","150795","0.0-5.0-1.52","63f049c2d78b2bc822a16dac","bdp_lott","Sun Apr 02 2023 08:22:53 GMT-0500 (Central Daylight Time)","345315","green","red","","836","","","","choice","","img/green_ll/choose11.jpg","1","173","green","0.5","0.5","0.5","w","",""
"animation","109","151396","0.0-5.0-2.52","63f049c2d78b2bc822a16dac","bdp_lott","Sun Apr 02 2023 08:22:53 GMT-0500 (Central Daylight Time)","345315","green","red","","","","","","","","","","173","","","","","","[{""stimulus"":""img/green_wl/1.jpg"",""time"":50},{""stimulus"":""img/green_wl/2.jpg"",""time"":101},{""stimulus"":""img/green_wl/3.jpg"",""time"":150},{""stimulus"":""img/green_wl/4.jpg"",""time"":201},{""stimulus"":""img/green_wl/5.jpg"",""time"":251},{""stimulus"":""img/green_wl/6.jpg"",""time"":300},{""stimulus"":""img/green_wl/7.jpg"",""time"":350},{""stimulus"":""img/green_wl/8.jpg"",""time"":400},{""stimulus"":""img/green_wl/9.jpg"",""time"":450},{""stimulus"":""img/green_wl/10.jpg"",""time"":501},{""stimulus"":""img/green_wl/11.jpg"",""time"":550}]","[]"
"image-keyboard-response","110","151988","0.0-5.0-1.53","63f049c2d78b2bc822a16dac","bdp_lott","Sun Apr 02 2023 08:22:53 GMT-0500 (Central Daylight Time)","345315","green","red","","591","","","","choice","","img/green_wl/choose11.jpg","1","172","green","0.5","0.5","0.5","w","",""
"animation","111","152588","0.0-5.0-2.53","63f049c2d78b2bc822a16dac","bdp_lott","Sun Apr 02 2023 08:22:53 GMT-0500 (Central Daylight Time)","345315","green","red","","","","","","","","","","172","","","","","","[{""stimulus"":""img/green_wl/1.jpg"",""time"":51},{""stimulus"":""img/green_wl/2.jpg"",""time"":100},{""stimulus"":""img/green_wl/3.jpg"",""time"":151},{""stimulus"":""img/green_wl/4.jpg"",""time"":201},{""stimulus"":""img/green_wl/5.jpg"",""time"":251},{""stimulus"":""img/green_wl/6.jpg"",""time"":301},{""stimulus"":""img/green_wl/7.jpg"",""time"":350},{""stimulus"":""img/green_wl/8.jpg"",""time"":400},{""stimulus"":""img/green_wl/9.jpg"",""time"":451},{""stimulus"":""img/green_wl/10.jpg"",""time"":501},{""stimulus"":""img/green_wl/11.jpg"",""time"":550}]","[]"
"image-keyboard-response","112","153052","0.0-5.0-1.54","63f049c2d78b2bc822a16dac","bdp_lott","Sun Apr 02 2023 08:22:53 GMT-0500 (Central Daylight Time)","345315","green","red","","463","","","","choice","","img/green_wl/choose11.jpg","1","171","green","0.5","0.5","0.5","w","",""
"animation","113","153653","0.0-5.0-2.54","63f049c2d78b2bc822a16dac","bdp_lott","Sun Apr 02 2023 08:22:53 GMT-0500 (Central Daylight Time)","345315","green","red","","","","","","","","","","171","","","","","","[{""stimulus"":""img/green_wl/1.jpg"",""time"":50},{""stimulus"":""img/green_wl/2.jpg"",""time"":100},{""stimulus"":""img/green_wl/3.jpg"",""time"":151},{""stimulus"":""img/green_wl/4.jpg"",""time"":201},{""stimulus"":""img/green_wl/5.jpg"",""time"":251},{""stimulus"":""img/green_wl/6.jpg"",""time"":301},{""stimulus"":""img/green_wl/7.jpg"",""time"":351},{""stimulus"":""img/green_wl/8.jpg"",""time"":401},{""stimulus"":""img/green_wl/9.jpg"",""time"":451},{""stimulus"":""img/green_wl/10.jpg"",""time"":500},{""stimulus"":""img/green_wl/11.jpg"",""time"":551}]","[]"
"image-keyboard-response","114","154082","0.0-5.0-1.55","63f049c2d78b2bc822a16dac","bdp_lott","Sun Apr 02 2023 08:22:53 GMT-0500 (Central Daylight Time)","345315","green","red","","428","","","","choice","","img/green_wl/choose11.jpg","1","170","green","0.5","0.5","0.5","w","",""
"animation","115","154682","0.0-5.0-2.55","63f049c2d78b2bc822a16dac","bdp_lott","Sun Apr 02 2023 08:22:53 GMT-0500 (Central Daylight Time)","345315","green","red","","","","","","","","","","170","","","","","","[{""stimulus"":""img/green_wl/1.jpg"",""time"":50},{""stimulus"":""img/green_wl/2.jpg"",""time"":100},{""stimulus"":""img/green_wl/3.jpg"",""time"":150},{""stimulus"":""img/green_wl/4.jpg"",""time"":201},{""stimulus"":""img/green_wl/5.jpg"",""time"":250},{""stimulus"":""img/green_wl/6.jpg"",""time"":300},{""stimulus"":""img/green_wl/7.jpg"",""time"":350},{""stimulus"":""img/green_wl/8.jpg"",""time"":400},{""stimulus"":""img/green_wl/9.jpg"",""time"":450},{""stimulus"":""img/green_wl/10.jpg"",""time"":500},{""stimulus"":""img/green_wl/11.jpg"",""time"":550}]","[]"
"image-keyboard-response","116","155099","0.0-5.0-1.56","63f049c2d78b2bc822a16dac","bdp_lott","Sun Apr 02 2023 08:22:53 GMT-0500 (Central Daylight Time)","345315","green","red","","417","","","","choice","","img/green_wl/choose11.jpg","1","169","green","0.5","0.5","0.5","l","",""
"animation","117","155701","0.0-5.0-2.56","63f049c2d78b2bc822a16dac","bdp_lott","Sun Apr 02 2023 08:22:53 GMT-0500 (Central Daylight Time)","345315","green","red","","","","","","","","","","169","","","","","","[{""stimulus"":""img/green_ll/1.jpg"",""time"":50},{""stimulus"":""img/green_ll/2.jpg"",""time"":100},{""stimulus"":""img/green_ll/3.jpg"",""time"":151},{""stimulus"":""img/green_ll/4.jpg"",""time"":201},{""stimulus"":""img/green_ll/5.jpg"",""time"":251},{""stimulus"":""img/green_ll/6.jpg"",""time"":301},{""stimulus"":""img/green_ll/7.jpg"",""time"":351},{""stimulus"":""img/green_ll/8.jpg"",""time"":401},{""stimulus"":""img/green_ll/9.jpg"",""time"":451},{""stimulus"":""img/green_ll/10.jpg"",""time"":501},{""stimulus"":""img/green_ll/11.jpg"",""time"":551}]","[]"
"image-keyboard-response","118","156350","0.0-5.0-1.57","63f049c2d78b2bc822a16dac","bdp_lott","Sun Apr 02 2023 08:22:53 GMT-0500 (Central Daylight Time)","345315","green","red","","649","","","","choice","","img/green_ll/choose11.jpg","1","168","green","0.5","0.5","0.5","l","",""
"animation","119","156951","0.0-5.0-2.57","63f049c2d78b2bc822a16dac","bdp_lott","Sun Apr 02 2023 08:22:53 GMT-0500 (Central Daylight Time)","345315","green","red","","","","","","","","","","168","","","","","","[{""stimulus"":""img/green_ll/1.jpg"",""time"":51},{""stimulus"":""img/green_ll/2.jpg"",""time"":101},{""stimulus"":""img/green_ll/3.jpg"",""time"":151},{""stimulus"":""img/green_ll/4.jpg"",""time"":201},{""stimulus"":""img/green_ll/5.jpg"",""time"":251},{""stimulus"":""img/green_ll/6.jpg"",""time"":301},{""stimulus"":""img/green_ll/7.jpg"",""time"":351},{""stimulus"":""img/green_ll/8.jpg"",""time"":401},{""stimulus"":""img/green_ll/9.jpg"",""time"":451},{""stimulus"":""img/green_ll/10.jpg"",""time"":501},{""stimulus"":""img/green_ll/11.jpg"",""time"":551}]","[]"
"image-keyboard-response","120","157550","0.0-5.0-1.58","63f049c2d78b2bc822a16dac","bdp_lott","Sun Apr 02 2023 08:22:53 GMT-0500 (Central Daylight Time)","345315","green","red","","598","","","","choice","","img/green_ll/choose11.jpg","1","167","green","0.5","0.5","0.5","w","",""
"animation","121","158151","0.0-5.0-2.58","63f049c2d78b2bc822a16dac","bdp_lott","Sun Apr 02 2023 08:22:53 GMT-0500 (Central Daylight Time)","345315","green","red","","","","","","","","","","167","","","","","","[{""stimulus"":""img/green_wl/1.jpg"",""time"":50},{""stimulus"":""img/green_wl/2.jpg"",""time"":101},{""stimulus"":""img/green_wl/3.jpg"",""time"":151},{""stimulus"":""img/green_wl/4.jpg"",""time"":201},{""stimulus"":""img/green_wl/5.jpg"",""time"":251},{""stimulus"":""img/green_wl/6.jpg"",""time"":301},{""stimulus"":""img/green_wl/7.jpg"",""time"":351},{""stimulus"":""img/green_wl/8.jpg"",""time"":401},{""stimulus"":""img/green_wl/9.jpg"",""time"":451},{""stimulus"":""img/green_wl/10.jpg"",""time"":501},{""stimulus"":""img/green_wl/11.jpg"",""time"":551}]","[]"
"image-keyboard-response","122","158737","0.0-5.0-1.59","63f049c2d78b2bc822a16dac","bdp_lott","Sun Apr 02 2023 08:22:53 GMT-0500 (Central Daylight Time)","345315","green","red","","586","","","","choice","","img/green_wl/choose11.jpg","1","166","green","0.5","0.5","0.5","w","",""
"animation","123","159338","0.0-5.0-2.59","63f049c2d78b2bc822a16dac","bdp_lott","Sun Apr 02 2023 08:22:53 GMT-0500 (Central Daylight Time)","345315","green","red","","","","","","","","","","166","","","","","","[{""stimulus"":""img/green_wl/1.jpg"",""time"":50},{""stimulus"":""img/green_wl/2.jpg"",""time"":100},{""stimulus"":""img/green_wl/3.jpg"",""time"":151},{""stimulus"":""img/green_wl/4.jpg"",""time"":201},{""stimulus"":""img/green_wl/5.jpg"",""time"":250},{""stimulus"":""img/green_wl/6.jpg"",""time"":300},{""stimulus"":""img/green_wl/7.jpg"",""time"":351},{""stimulus"":""img/green_wl/8.jpg"",""time"":401},{""stimulus"":""img/green_wl/9.jpg"",""time"":450},{""stimulus"":""img/green_wl/10.jpg"",""time"":501},{""stimulus"":""img/green_wl/11.jpg"",""time"":550}]","[]"
"image-keyboard-response","124","159796","0.0-5.0-1.60","63f049c2d78b2bc822a16dac","bdp_lott","Sun Apr 02 2023 08:22:53 GMT-0500 (Central Daylight Time)","345315","green","red","","457","","","","choice","","img/green_wl/choose11.jpg","1","165","green","0.5","0.5","0.5","w","",""
"animation","125","160397","0.0-5.0-2.60","63f049c2d78b2bc822a16dac","bdp_lott","Sun Apr 02 2023 08:22:53 GMT-0500 (Central Daylight Time)","345315","green","red","","","","","","","","","","165","","","","","","[{""stimulus"":""img/green_wl/1.jpg"",""time"":51},{""stimulus"":""img/green_wl/2.jpg"",""time"":100},{""stimulus"":""img/green_wl/3.jpg"",""time"":151},{""stimulus"":""img/green_wl/4.jpg"",""time"":201},{""stimulus"":""img/green_wl/5.jpg"",""time"":251},{""stimulus"":""img/green_wl/6.jpg"",""time"":301},{""stimulus"":""img/green_wl/7.jpg"",""time"":351},{""stimulus"":""img/green_wl/8.jpg"",""time"":401},{""stimulus"":""img/green_wl/9.jpg"",""time"":451},{""stimulus"":""img/green_wl/10.jpg"",""time"":501},{""stimulus"":""img/green_wl/11.jpg"",""time"":551}]","[]"
"image-keyboard-response","126","160860","0.0-5.0-1.61","63f049c2d78b2bc822a16dac","bdp_lott","Sun Apr 02 2023 08:22:53 GMT-0500 (Central Daylight Time)","345315","green","red","","463","","","","choice","","img/green_wl/choose11.jpg","1","164","green","0.5","0.5","0.5","l","",""
"animation","127","161461","0.0-5.0-2.61","63f049c2d78b2bc822a16dac","bdp_lott","Sun Apr 02 2023 08:22:53 GMT-0500 (Central Daylight Time)","345315","green","red","","","","","","","","","","164","","","","","","[{""stimulus"":""img/green_ll/1.jpg"",""time"":51},{""stimulus"":""img/green_ll/2.jpg"",""time"":101},{""stimulus"":""img/green_ll/3.jpg"",""time"":151},{""stimulus"":""img/green_ll/4.jpg"",""time"":201},{""stimulus"":""img/green_ll/5.jpg"",""time"":252},{""stimulus"":""img/green_ll/6.jpg"",""time"":301},{""stimulus"":""img/green_ll/7.jpg"",""time"":352},{""stimulus"":""img/green_ll/8.jpg"",""time"":401},{""stimulus"":""img/green_ll/9.jpg"",""time"":451},{""stimulus"":""img/green_ll/10.jpg"",""time"":501},{""stimulus"":""img/green_ll/11.jpg"",""time"":551}]","[]"
"image-keyboard-response","128","162036","0.0-5.0-1.62","63f049c2d78b2bc822a16dac","bdp_lott","Sun Apr 02 2023 08:22:53 GMT-0500 (Central Daylight Time)","345315","green","red","","574","","","","choice","","img/green_ll/choose11.jpg","1","163","green","0.5","0.5","0.5","w","",""
"animation","129","162637","0.0-5.0-2.62","63f049c2d78b2bc822a16dac","bdp_lott","Sun Apr 02 2023 08:22:53 GMT-0500 (Central Daylight Time)","345315","green","red","","","","","","","","","","163","","","","","","[{""stimulus"":""img/green_wl/1.jpg"",""time"":51},{""stimulus"":""img/green_wl/2.jpg"",""time"":100},{""stimulus"":""img/green_wl/3.jpg"",""time"":151},{""stimulus"":""img/green_wl/4.jpg"",""time"":201},{""stimulus"":""img/green_wl/5.jpg"",""time"":251},{""stimulus"":""img/green_wl/6.jpg"",""time"":301},{""stimulus"":""img/green_wl/7.jpg"",""time"":350},{""stimulus"":""img/green_wl/8.jpg"",""time"":401},{""stimulus"":""img/green_wl/9.jpg"",""time"":451},{""stimulus"":""img/green_wl/10.jpg"",""time"":501},{""stimulus"":""img/green_wl/11.jpg"",""time"":551}]","[]"
"image-keyboard-response","130","163085","0.0-5.0-1.63","63f049c2d78b2bc822a16dac","bdp_lott","Sun Apr 02 2023 08:22:53 GMT-0500 (Central Daylight Time)","345315","green","red","","447","","","","choice","","img/green_wl/choose11.jpg","1","162","green","0.5","0.5","0.5","l","",""
"animation","131","163687","0.0-5.0-2.63","63f049c2d78b2bc822a16dac","bdp_lott","Sun Apr 02 2023 08:22:53 GMT-0500 (Central Daylight Time)","345315","green","red","","","","","","","","","","162","","","","","","[{""stimulus"":""img/green_ll/1.jpg"",""time"":50},{""stimulus"":""img/green_ll/2.jpg"",""time"":100},{""stimulus"":""img/green_ll/3.jpg"",""time"":150},{""stimulus"":""img/green_ll/4.jpg"",""time"":200},{""stimulus"":""img/green_ll/5.jpg"",""time"":251},{""stimulus"":""img/green_ll/6.jpg"",""time"":301},{""stimulus"":""img/green_ll/7.jpg"",""time"":351},{""stimulus"":""img/green_ll/8.jpg"",""time"":401},{""stimulus"":""img/green_ll/9.jpg"",""time"":451},{""stimulus"":""img/green_ll/10.jpg"",""time"":500},{""stimulus"":""img/green_ll/11.jpg"",""time"":551}]","[]"
"image-keyboard-response","132","164126","0.0-5.0-1.64","63f049c2d78b2bc822a16dac","bdp_lott","Sun Apr 02 2023 08:22:53 GMT-0500 (Central Daylight Time)","345315","green","red","","438","","","","choice","","img/green_ll/choose11.jpg","1","161","green","0.5","0.5","0.5","w","",""
"animation","133","164727","0.0-5.0-2.64","63f049c2d78b2bc822a16dac","bdp_lott","Sun Apr 02 2023 08:22:53 GMT-0500 (Central Daylight Time)","345315","green","red","","","","","","","","","","161","","","","","","[{""stimulus"":""img/green_wl/1.jpg"",""time"":51},{""stimulus"":""img/green_wl/2.jpg"",""time"":101},{""stimulus"":""img/green_wl/3.jpg"",""time"":151},{""stimulus"":""img/green_wl/4.jpg"",""time"":201},{""stimulus"":""img/green_wl/5.jpg"",""time"":252},{""stimulus"":""img/green_wl/6.jpg"",""time"":301},{""stimulus"":""img/green_wl/7.jpg"",""time"":351},{""stimulus"":""img/green_wl/8.jpg"",""time"":402},{""stimulus"":""img/green_wl/9.jpg"",""time"":451},{""stimulus"":""img/green_wl/10.jpg"",""time"":501},{""stimulus"":""img/green_wl/11.jpg"",""time"":551}]","[]"
"image-keyboard-response","134","165582","0.0-5.0-1.65","63f049c2d78b2bc822a16dac","bdp_lott","Sun Apr 02 2023 08:22:53 GMT-0500 (Central Daylight Time)","345315","green","red","","854","","","","choice","","img/green_wl/choose11.jpg","2","160","red","0.5","0.5","0.5","l","",""
"animation","135","166183","0.0-5.0-2.65","63f049c2d78b2bc822a16dac","bdp_lott","Sun Apr 02 2023 08:22:53 GMT-0500 (Central Daylight Time)","345315","green","red","","","","","","","","","","160","","","","","","[{""stimulus"":""img/red_wl/1.jpg"",""time"":50},{""stimulus"":""img/red_wl/2.jpg"",""time"":100},{""stimulus"":""img/red_wl/3.jpg"",""time"":151},{""stimulus"":""img/red_wl/4.jpg"",""time"":201},{""stimulus"":""img/red_wl/5.jpg"",""time"":251},{""stimulus"":""img/red_wl/6.jpg"",""time"":301},{""stimulus"":""img/red_wl/7.jpg"",""time"":351},{""stimulus"":""img/red_wl/8.jpg"",""time"":401},{""stimulus"":""img/red_wl/9.jpg"",""time"":451},{""stimulus"":""img/red_wl/10.jpg"",""time"":500},{""stimulus"":""img/red_wl/11.jpg"",""time"":551}]","[]"
"image-keyboard-response","136","166454","0.0-5.0-1.66","63f049c2d78b2bc822a16dac","bdp_lott","Sun Apr 02 2023 08:22:53 GMT-0500 (Central Daylight Time)","345315","green","red","","270","","","","choice","","img/red_wl/choose11.jpg","2","159","red","0.5","0.5","0.5","l","",""
"animation","137","167054","0.0-5.0-2.66","63f049c2d78b2bc822a16dac","bdp_lott","Sun Apr 02 2023 08:22:53 GMT-0500 (Central Daylight Time)","345315","green","red","","","","","","","","","","159","","","","","","[{""stimulus"":""img/red_wl/1.jpg"",""time"":50},{""stimulus"":""img/red_wl/2.jpg"",""time"":100},{""stimulus"":""img/red_wl/3.jpg"",""time"":151},{""stimulus"":""img/red_wl/4.jpg"",""time"":201},{""stimulus"":""img/red_wl/5.jpg"",""time"":251},{""stimulus"":""img/red_wl/6.jpg"",""time"":300},{""stimulus"":""img/red_wl/7.jpg"",""time"":351},{""stimulus"":""img/red_wl/8.jpg"",""time"":401},{""stimulus"":""img/red_wl/9.jpg"",""time"":451},{""stimulus"":""img/red_wl/10.jpg"",""time"":500},{""stimulus"":""img/red_wl/11.jpg"",""time"":550}]","[]"
"image-keyboard-response","138","167318","0.0-5.0-1.67","63f049c2d78b2bc822a16dac","bdp_lott","Sun Apr 02 2023 08:22:53 GMT-0500 (Central Daylight Time)","345315","green","red","","263","","","","choice","","img/red_wl/choose11.jpg","2","158","red","0.5","0.5","0.5","l","",""
"animation","139","167918","0.0-5.0-2.67","63f049c2d78b2bc822a16dac","bdp_lott","Sun Apr 02 2023 08:22:53 GMT-0500 (Central Daylight Time)","345315","green","red","","","","","","","","","","158","","","","","","[{""stimulus"":""img/red_wl/1.jpg"",""time"":50},{""stimulus"":""img/red_wl/2.jpg"",""time"":101},{""stimulus"":""img/red_wl/3.jpg"",""time"":150},{""stimulus"":""img/red_wl/4.jpg"",""time"":200},{""stimulus"":""img/red_wl/5.jpg"",""time"":250},{""stimulus"":""img/red_wl/6.jpg"",""time"":300},{""stimulus"":""img/red_wl/7.jpg"",""time"":350},{""stimulus"":""img/red_wl/8.jpg"",""time"":400},{""stimulus"":""img/red_wl/9.jpg"",""time"":450},{""stimulus"":""img/red_wl/10.jpg"",""time"":501},{""stimulus"":""img/red_wl/11.jpg"",""time"":550}]","[]"
"image-keyboard-response","140","168216","0.0-5.0-1.68","63f049c2d78b2bc822a16dac","bdp_lott","Sun Apr 02 2023 08:22:53 GMT-0500 (Central Daylight Time)","345315","green","red","","297","","","","choice","","img/red_wl/choose11.jpg","2","157","red","0.5","0.5","0.5","l","",""
"animation","141","168816","0.0-5.0-2.68","63f049c2d78b2bc822a16dac","bdp_lott","Sun Apr 02 2023 08:22:53 GMT-0500 (Central Daylight Time)","345315","green","red","","","","","","","","","","157","","","","","","[{""stimulus"":""img/red_wl/1.jpg"",""time"":50},{""stimulus"":""img/red_wl/2.jpg"",""time"":100},{""stimulus"":""img/red_wl/3.jpg"",""time"":151},{""stimulus"":""img/red_wl/4.jpg"",""time"":200},{""stimulus"":""img/red_wl/5.jpg"",""time"":250},{""stimulus"":""img/red_wl/6.jpg"",""time"":300},{""stimulus"":""img/red_wl/7.jpg"",""time"":350},{""stimulus"":""img/red_wl/8.jpg"",""time"":400},{""stimulus"":""img/red_wl/9.jpg"",""time"":450},{""stimulus"":""img/red_wl/10.jpg"",""time"":500},{""stimulus"":""img/red_wl/11.jpg"",""time"":550}]","[]"
"image-keyboard-response","142","168956","0.0-5.0-1.69","63f049c2d78b2bc822a16dac","bdp_lott","Sun Apr 02 2023 08:22:53 GMT-0500 (Central Daylight Time)","345315","green","red","","140","","","","choice","","img/red_wl/choose11.jpg","1","156","green","0.5","0.5","0.5","w","",""
"animation","143","169556","0.0-5.0-2.69","63f049c2d78b2bc822a16dac","bdp_lott","Sun Apr 02 2023 08:22:53 GMT-0500 (Central Daylight Time)","345315","green","red","","","","","","","","","","156","","","","","","[{""stimulus"":""img/green_wl/1.jpg"",""time"":50},{""stimulus"":""img/green_wl/2.jpg"",""time"":101},{""stimulus"":""img/green_wl/3.jpg"",""time"":150},{""stimulus"":""img/green_wl/4.jpg"",""time"":201},{""stimulus"":""img/green_wl/5.jpg"",""time"":250},{""stimulus"":""img/green_wl/6.jpg"",""time"":300},{""stimulus"":""img/green_wl/7.jpg"",""time"":351},{""stimulus"":""img/green_wl/8.jpg"",""time"":400},{""stimulus"":""img/green_wl/9.jpg"",""time"":450},{""stimulus"":""img/green_wl/10.jpg"",""time"":501},{""stimulus"":""img/green_wl/11.jpg"",""time"":551}]","[]"
"image-keyboard-response","144","169962","0.0-5.0-1.70","63f049c2d78b2bc822a16dac","bdp_lott","Sun Apr 02 2023 08:22:53 GMT-0500 (Central Daylight Time)","345315","green","red","","405","","","","choice","","img/green_wl/choose11.jpg","1","155","green","0.5","0.5","0.5","w","",""
"animation","145","170562","0.0-5.0-2.70","63f049c2d78b2bc822a16dac","bdp_lott","Sun Apr 02 2023 08:22:53 GMT-0500 (Central Daylight Time)","345315","green","red","","","","","","","","","","155","","","","","","[{""stimulus"":""img/green_wl/1.jpg"",""time"":50},{""stimulus"":""img/green_wl/2.jpg"",""time"":101},{""stimulus"":""img/green_wl/3.jpg"",""time"":151},{""stimulus"":""img/green_wl/4.jpg"",""time"":200},{""stimulus"":""img/green_wl/5.jpg"",""time"":251},{""stimulus"":""img/green_wl/6.jpg"",""time"":300},{""stimulus"":""img/green_wl/7.jpg"",""time"":350},{""stimulus"":""img/green_wl/8.jpg"",""time"":400},{""stimulus"":""img/green_wl/9.jpg"",""time"":450},{""stimulus"":""img/green_wl/10.jpg"",""time"":501},{""stimulus"":""img/green_wl/11.jpg"",""time"":550}]","[]"
"image-keyboard-response","146","170930","0.0-5.0-1.71","63f049c2d78b2bc822a16dac","bdp_lott","Sun Apr 02 2023 08:22:53 GMT-0500 (Central Daylight Time)","345315","green","red","","367","","","","choice","","img/green_wl/choose11.jpg","1","154","green","0.5","0.5","0.5","w","",""
"animation","147","171531","0.0-5.0-2.71","63f049c2d78b2bc822a16dac","bdp_lott","Sun Apr 02 2023 08:22:53 GMT-0500 (Central Daylight Time)","345315","green","red","","","","","","","","","","154","","","","","","[{""stimulus"":""img/green_wl/1.jpg"",""time"":51},{""stimulus"":""img/green_wl/2.jpg"",""time"":101},{""stimulus"":""img/green_wl/3.jpg"",""time"":151},{""stimulus"":""img/green_wl/4.jpg"",""time"":200},{""stimulus"":""img/green_wl/5.jpg"",""time"":251},{""stimulus"":""img/green_wl/6.jpg"",""time"":300},{""stimulus"":""img/green_wl/7.jpg"",""time"":351},{""stimulus"":""img/green_wl/8.jpg"",""time"":401},{""stimulus"":""img/green_wl/9.jpg"",""time"":451},{""stimulus"":""img/green_wl/10.jpg"",""time"":501},{""stimulus"":""img/green_wl/11.jpg"",""time"":551}]","[]"
"image-keyboard-response","148","171964","0.0-5.0-1.72","63f049c2d78b2bc822a16dac","bdp_lott","Sun Apr 02 2023 08:22:53 GMT-0500 (Central Daylight Time)","345315","green","red","","432","","","","choice","","img/green_wl/choose11.jpg","1","153","green","0.5","0.5","0.5","l","",""
"animation","149","172565","0.0-5.0-2.72","63f049c2d78b2bc822a16dac","bdp_lott","Sun Apr 02 2023 08:22:53 GMT-0500 (Central Daylight Time)","345315","green","red","","","","","","","","","","153","","","","","","[{""stimulus"":""img/green_ll/1.jpg"",""time"":50},{""stimulus"":""img/green_ll/2.jpg"",""time"":100},{""stimulus"":""img/green_ll/3.jpg"",""time"":151},{""stimulus"":""img/green_ll/4.jpg"",""time"":200},{""stimulus"":""img/green_ll/5.jpg"",""time"":250},{""stimulus"":""img/green_ll/6.jpg"",""time"":300},{""stimulus"":""img/green_ll/7.jpg"",""time"":350},{""stimulus"":""img/green_ll/8.jpg"",""time"":400},{""stimulus"":""img/green_ll/9.jpg"",""time"":451},{""stimulus"":""img/green_ll/10.jpg"",""time"":500},{""stimulus"":""img/green_ll/11.jpg"",""time"":550}]","[]"
"image-keyboard-response","150","173079","0.0-5.0-1.73","63f049c2d78b2bc822a16dac","bdp_lott","Sun Apr 02 2023 08:22:53 GMT-0500 (Central Daylight Time)","345315","green","red","","514","","","","choice","","img/green_ll/choose11.jpg","1","152","green","0.5","0.5","0.5","l","",""
"animation","151","173680","0.0-5.0-2.73","63f049c2d78b2bc822a16dac","bdp_lott","Sun Apr 02 2023 08:22:53 GMT-0500 (Central Daylight Time)","345315","green","red","","","","","","","","","","152","","","","","","[{""stimulus"":""img/green_ll/1.jpg"",""time"":50},{""stimulus"":""img/green_ll/2.jpg"",""time"":100},{""stimulus"":""img/green_ll/3.jpg"",""time"":151},{""stimulus"":""img/green_ll/4.jpg"",""time"":201},{""stimulus"":""img/green_ll/5.jpg"",""time"":251},{""stimulus"":""img/green_ll/6.jpg"",""time"":300},{""stimulus"":""img/green_ll/7.jpg"",""time"":351},{""stimulus"":""img/green_ll/8.jpg"",""time"":400},{""stimulus"":""img/green_ll/9.jpg"",""time"":451},{""stimulus"":""img/green_ll/10.jpg"",""time"":500},{""stimulus"":""img/green_ll/11.jpg"",""time"":551}]","[]"
"image-keyboard-response","152","174256","0.0-5.0-1.74","63f049c2d78b2bc822a16dac","bdp_lott","Sun Apr 02 2023 08:22:53 GMT-0500 (Central Daylight Time)","345315","green","red","","574","","","","choice","","img/green_ll/choose11.jpg","1","151","green","0.5","0.5","0.5","l","",""
"animation","153","174856","0.0-5.0-2.74","63f049c2d78b2bc822a16dac","bdp_lott","Sun Apr 02 2023 08:22:53 GMT-0500 (Central Daylight Time)","345315","green","red","","","","","","","","","","151","","","","","","[{""stimulus"":""img/green_ll/1.jpg"",""time"":51},{""stimulus"":""img/green_ll/2.jpg"",""time"":100},{""stimulus"":""img/green_ll/3.jpg"",""time"":150},{""stimulus"":""img/green_ll/4.jpg"",""time"":201},{""stimulus"":""img/green_ll/5.jpg"",""time"":251},{""stimulus"":""img/green_ll/6.jpg"",""time"":301},{""stimulus"":""img/green_ll/7.jpg"",""time"":350},{""stimulus"":""img/green_ll/8.jpg"",""time"":400},{""stimulus"":""img/green_ll/9.jpg"",""time"":450},{""stimulus"":""img/green_ll/10.jpg"",""time"":500},{""stimulus"":""img/green_ll/11.jpg"",""time"":551}]","[]"
"image-keyboard-response","154","175392","0.0-5.0-1.75","63f049c2d78b2bc822a16dac","bdp_lott","Sun Apr 02 2023 08:22:53 GMT-0500 (Central Daylight Time)","345315","green","red","","536","","","","choice","","img/green_ll/choose11.jpg","1","150","green","0.5","0.5","0.5","w","",""
"animation","155","175992","0.0-5.0-2.75","63f049c2d78b2bc822a16dac","bdp_lott","Sun Apr 02 2023 08:22:53 GMT-0500 (Central Daylight Time)","345315","green","red","","","","","","","","","","150","","","","","","[{""stimulus"":""img/green_wl/1.jpg"",""time"":51},{""stimulus"":""img/green_wl/2.jpg"",""time"":101},{""stimulus"":""img/green_wl/3.jpg"",""time"":150},{""stimulus"":""img/green_wl/4.jpg"",""time"":200},{""stimulus"":""img/green_wl/5.jpg"",""time"":251},{""stimulus"":""img/green_wl/6.jpg"",""time"":301},{""stimulus"":""img/green_wl/7.jpg"",""time"":350},{""stimulus"":""img/green_wl/8.jpg"",""time"":401},{""stimulus"":""img/green_wl/9.jpg"",""time"":451},{""stimulus"":""img/green_wl/10.jpg"",""time"":500},{""stimulus"":""img/green_wl/11.jpg"",""time"":551}]","[]"
"image-keyboard-response","156","176490","0.0-5.0-1.76","63f049c2d78b2bc822a16dac","bdp_lott","Sun Apr 02 2023 08:22:53 GMT-0500 (Central Daylight Time)","345315","green","red","","497","","","","choice","","img/green_wl/choose11.jpg","2","149","red","0.5","0.1","0.1","l","",""
"animation","157","177091","0.0-5.0-2.76","63f049c2d78b2bc822a16dac","bdp_lott","Sun Apr 02 2023 08:22:53 GMT-0500 (Central Daylight Time)","345315","green","red","","","","","","","","","","149","","","","","","[{""stimulus"":""img/red_wl/1.jpg"",""time"":51},{""stimulus"":""img/red_wl/2.jpg"",""time"":101},{""stimulus"":""img/red_wl/3.jpg"",""time"":151},{""stimulus"":""img/red_wl/4.jpg"",""time"":201},{""stimulus"":""img/red_wl/5.jpg"",""time"":251},{""stimulus"":""img/red_wl/6.jpg"",""time"":301},{""stimulus"":""img/red_wl/7.jpg"",""time"":351},{""stimulus"":""img/red_wl/8.jpg"",""time"":400},{""stimulus"":""img/red_wl/9.jpg"",""time"":451},{""stimulus"":""img/red_wl/10.jpg"",""time"":501},{""stimulus"":""img/red_wl/11.jpg"",""time"":550}]","[]"
"image-keyboard-response","158","177485","0.0-5.0-1.77","63f049c2d78b2bc822a16dac","bdp_lott","Sun Apr 02 2023 08:22:53 GMT-0500 (Central Daylight Time)","345315","green","red","","394","","","","choice","","img/red_wl/choose11.jpg","1","148","green","0.5","0.1","0.5","w","",""
"animation","159","178086","0.0-5.0-2.77","63f049c2d78b2bc822a16dac","bdp_lott","Sun Apr 02 2023 08:22:53 GMT-0500 (Central Daylight Time)","345315","green","red","","","","","","","","","","148","","","","","","[{""stimulus"":""img/green_wl/1.jpg"",""time"":51},{""stimulus"":""img/green_wl/2.jpg"",""time"":101},{""stimulus"":""img/green_wl/3.jpg"",""time"":151},{""stimulus"":""img/green_wl/4.jpg"",""time"":201},{""stimulus"":""img/green_wl/5.jpg"",""time"":251},{""stimulus"":""img/green_wl/6.jpg"",""time"":301},{""stimulus"":""img/green_wl/7.jpg"",""time"":351},{""stimulus"":""img/green_wl/8.jpg"",""time"":401},{""stimulus"":""img/green_wl/9.jpg"",""time"":451},{""stimulus"":""img/green_wl/10.jpg"",""time"":501},{""stimulus"":""img/green_wl/11.jpg"",""time"":551}]","[]"
"image-keyboard-response","160","178721","0.0-5.0-1.78","63f049c2d78b2bc822a16dac","bdp_lott","Sun Apr 02 2023 08:22:53 GMT-0500 (Central Daylight Time)","345315","green","red","","635","","","","choice","","img/green_wl/choose11.jpg","2","147","red","0.5","0.1","0.1","l","",""
"animation","161","179323","0.0-5.0-2.78","63f049c2d78b2bc822a16dac","bdp_lott","Sun Apr 02 2023 08:22:53 GMT-0500 (Central Daylight Time)","345315","green","red","","","","","","","","","","147","","","","","","[{""stimulus"":""img/red_wl/1.jpg"",""time"":50},{""stimulus"":""img/red_wl/2.jpg"",""time"":100},{""stimulus"":""img/red_wl/3.jpg"",""time"":151},{""stimulus"":""img/red_wl/4.jpg"",""time"":201},{""stimulus"":""img/red_wl/5.jpg"",""time"":250},{""stimulus"":""img/red_wl/6.jpg"",""time"":301},{""stimulus"":""img/red_wl/7.jpg"",""time"":351},{""stimulus"":""img/red_wl/8.jpg"",""time"":400},{""stimulus"":""img/red_wl/9.jpg"",""time"":450},{""stimulus"":""img/red_wl/10.jpg"",""time"":500},{""stimulus"":""img/red_wl/11.jpg"",""time"":550}]","[]"
"image-keyboard-response","162","179687","0.0-5.0-1.79","63f049c2d78b2bc822a16dac","bdp_lott","Sun Apr 02 2023 08:22:53 GMT-0500 (Central Daylight Time)","345315","green","red","","364","","","","choice","","img/red_wl/choose11.jpg","1","146","green","0.5","0.1","0.5","w","",""
"animation","163","180288","0.0-5.0-2.79","63f049c2d78b2bc822a16dac","bdp_lott","Sun Apr 02 2023 08:22:53 GMT-0500 (Central Daylight Time)","345315","green","red","","","","","","","","","","146","","","","","","[{""stimulus"":""img/green_wl/1.jpg"",""time"":50},{""stimulus"":""img/green_wl/2.jpg"",""time"":101},{""stimulus"":""img/green_wl/3.jpg"",""time"":151},{""stimulus"":""img/green_wl/4.jpg"",""time"":201},{""stimulus"":""img/green_wl/5.jpg"",""time"":250},{""stimulus"":""img/green_wl/6.jpg"",""time"":301},{""stimulus"":""img/green_wl/7.jpg"",""time"":350},{""stimulus"":""img/green_wl/8.jpg"",""time"":400},{""stimulus"":""img/green_wl/9.jpg"",""time"":450},{""stimulus"":""img/green_wl/10.jpg"",""time"":500},{""stimulus"":""img/green_wl/11.jpg"",""time"":551}]","[]"
"image-keyboard-response","164","180910","0.0-5.0-1.80","63f049c2d78b2bc822a16dac","bdp_lott","Sun Apr 02 2023 08:22:53 GMT-0500 (Central Daylight Time)","345315","green","red","","620","","","","choice","","img/green_wl/choose11.jpg","1","145","green","0.5","0.1","0.5","l","",""
"animation","165","181510","0.0-5.0-2.80","63f049c2d78b2bc822a16dac","bdp_lott","Sun Apr 02 2023 08:22:53 GMT-0500 (Central Daylight Time)","345315","green","red","","","","","","","","","","145","","","","","","[{""stimulus"":""img/green_ll/1.jpg"",""time"":51},{""stimulus"":""img/green_ll/2.jpg"",""time"":101},{""stimulus"":""img/green_ll/3.jpg"",""time"":150},{""stimulus"":""img/green_ll/4.jpg"",""time"":200},{""stimulus"":""img/green_ll/5.jpg"",""time"":250},{""stimulus"":""img/green_ll/6.jpg"",""time"":300},{""stimulus"":""img/green_ll/7.jpg"",""time"":350},{""stimulus"":""img/green_ll/8.jpg"",""time"":400},{""stimulus"":""img/green_ll/9.jpg"",""time"":450},{""stimulus"":""img/green_ll/10.jpg"",""time"":500},{""stimulus"":""img/green_ll/11.jpg"",""time"":550}]","[]"
"image-keyboard-response","166","182164","0.0-5.0-1.81","63f049c2d78b2bc822a16dac","bdp_lott","Sun Apr 02 2023 08:22:53 GMT-0500 (Central Daylight Time)","345315","green","red","","654","","","","choice","","img/green_ll/choose11.jpg","2","144","red","0.5","0.1","0.1","w","",""
"animation","167","182765","0.0-5.0-2.81","63f049c2d78b2bc822a16dac","bdp_lott","Sun Apr 02 2023 08:22:53 GMT-0500 (Central Daylight Time)","345315","green","red","","","","","","","","","","144","","","","","","[{""stimulus"":""img/red_lw/1.jpg"",""time"":51},{""stimulus"":""img/red_lw/2.jpg"",""time"":101},{""stimulus"":""img/red_lw/3.jpg"",""time"":150},{""stimulus"":""img/red_lw/4.jpg"",""time"":201},{""stimulus"":""img/red_lw/5.jpg"",""time"":251},{""stimulus"":""img/red_lw/6.jpg"",""time"":301},{""stimulus"":""img/red_lw/7.jpg"",""time"":351},{""stimulus"":""img/red_lw/8.jpg"",""time"":401},{""stimulus"":""img/red_lw/9.jpg"",""time"":451},{""stimulus"":""img/red_lw/10.jpg"",""time"":501},{""stimulus"":""img/red_lw/11.jpg"",""time"":551}]","[]"
"image-keyboard-response","168","183573","0.0-5.0-1.82","63f049c2d78b2bc822a16dac","bdp_lott","Sun Apr 02 2023 08:22:53 GMT-0500 (Central Daylight Time)","345315","green","red","","807","","","","choice","","img/red_lw/choose11.jpg","2","143","red","0.5","0.1","0.1","l","",""
"animation","169","184174","0.0-5.0-2.82","63f049c2d78b2bc822a16dac","bdp_lott","Sun Apr 02 2023 08:22:53 GMT-0500 (Central Daylight Time)","345315","green","red","","","","","","","","","","143","","","","","","[{""stimulus"":""img/red_ll/1.jpg"",""time"":51},{""stimulus"":""img/red_ll/2.jpg"",""time"":100},{""stimulus"":""img/red_ll/3.jpg"",""time"":151},{""stimulus"":""img/red_ll/4.jpg"",""time"":201},{""stimulus"":""img/red_ll/5.jpg"",""time"":251},{""stimulus"":""img/red_ll/6.jpg"",""time"":301},{""stimulus"":""img/red_ll/7.jpg"",""time"":350},{""stimulus"":""img/red_ll/8.jpg"",""time"":401},{""stimulus"":""img/red_ll/9.jpg"",""time"":451},{""stimulus"":""img/red_ll/10.jpg"",""time"":501},{""stimulus"":""img/red_ll/11.jpg"",""time"":551}]","[]"
"image-keyboard-response","170","184866","0.0-5.0-1.83","63f049c2d78b2bc822a16dac","bdp_lott","Sun Apr 02 2023 08:22:53 GMT-0500 (Central Daylight Time)","345315","green","red","","691","","","","choice","","img/red_ll/choose11.jpg","2","142","red","0.5","0.1","0.1","l","",""
"animation","171","185467","0.0-5.0-2.83","63f049c2d78b2bc822a16dac","bdp_lott","Sun Apr 02 2023 08:22:53 GMT-0500 (Central Daylight Time)","345315","green","red","","","","","","","","","","142","","","","","","[{""stimulus"":""img/red_ll/1.jpg"",""time"":50},{""stimulus"":""img/red_ll/2.jpg"",""time"":101},{""stimulus"":""img/red_ll/3.jpg"",""time"":151},{""stimulus"":""img/red_ll/4.jpg"",""time"":201},{""stimulus"":""img/red_ll/5.jpg"",""time"":251},{""stimulus"":""img/red_ll/6.jpg"",""time"":301},{""stimulus"":""img/red_ll/7.jpg"",""time"":351},{""stimulus"":""img/red_ll/8.jpg"",""time"":401},{""stimulus"":""img/red_ll/9.jpg"",""time"":451},{""stimulus"":""img/red_ll/10.jpg"",""time"":500},{""stimulus"":""img/red_ll/11.jpg"",""time"":551}]","[]"
"image-keyboard-response","172","185959","0.0-5.0-1.84","63f049c2d78b2bc822a16dac","bdp_lott","Sun Apr 02 2023 08:22:53 GMT-0500 (Central Daylight Time)","345315","green","red","","492","","","","choice","","img/red_ll/choose11.jpg","1","141","green","0.5","0.1","0.5","w","",""
"animation","173","186560","0.0-5.0-2.84","63f049c2d78b2bc822a16dac","bdp_lott","Sun Apr 02 2023 08:22:53 GMT-0500 (Central Daylight Time)","345315","green","red","","","","","","","","","","141","","","","","","[{""stimulus"":""img/green_wl/1.jpg"",""time"":51},{""stimulus"":""img/green_wl/2.jpg"",""time"":100},{""stimulus"":""img/green_wl/3.jpg"",""time"":150},{""stimulus"":""img/green_wl/4.jpg"",""time"":200},{""stimulus"":""img/green_wl/5.jpg"",""time"":250},{""stimulus"":""img/green_wl/6.jpg"",""time"":300},{""stimulus"":""img/green_wl/7.jpg"",""time"":350},{""stimulus"":""img/green_wl/8.jpg"",""time"":400},{""stimulus"":""img/green_wl/9.jpg"",""time"":451},{""stimulus"":""img/green_wl/10.jpg"",""time"":500},{""stimulus"":""img/green_wl/11.jpg"",""time"":550}]","[]"
"image-keyboard-response","174","187158","0.0-5.0-1.85","63f049c2d78b2bc822a16dac","bdp_lott","Sun Apr 02 2023 08:22:53 GMT-0500 (Central Daylight Time)","345315","green","red","","597","","","","choice","","img/green_wl/choose11.jpg","1","140","green","0.5","0.1","0.5","l","",""
"animation","175","187759","0.0-5.0-2.85","63f049c2d78b2bc822a16dac","bdp_lott","Sun Apr 02 2023 08:22:53 GMT-0500 (Central Daylight Time)","345315","green","red","","","","","","","","","","140","","","","","","[{""stimulus"":""img/green_ll/1.jpg"",""time"":50},{""stimulus"":""img/green_ll/2.jpg"",""time"":100},{""stimulus"":""img/green_ll/3.jpg"",""time"":150},{""stimulus"":""img/green_ll/4.jpg"",""time"":200},{""stimulus"":""img/green_ll/5.jpg"",""time"":250},{""stimulus"":""img/green_ll/6.jpg"",""time"":301},{""stimulus"":""img/green_ll/7.jpg"",""time"":350},{""stimulus"":""img/green_ll/8.jpg"",""time"":400},{""stimulus"":""img/green_ll/9.jpg"",""time"":450},{""stimulus"":""img/green_ll/10.jpg"",""time"":500},{""stimulus"":""img/green_ll/11.jpg"",""time"":551}]","[]"
"image-keyboard-response","176","188529","0.0-5.0-1.86","63f049c2d78b2bc822a16dac","bdp_lott","Sun Apr 02 2023 08:22:53 GMT-0500 (Central Daylight Time)","345315","green","red","","770","","","","choice","","img/green_ll/choose11.jpg","2","139","red","0.5","0.1","0.1","l","",""
"animation","177","189130","0.0-5.0-2.86","63f049c2d78b2bc822a16dac","bdp_lott","Sun Apr 02 2023 08:22:53 GMT-0500 (Central Daylight Time)","345315","green","red","","","","","","","","","","139","","","","","","[{""stimulus"":""img/red_ll/1.jpg"",""time"":51},{""stimulus"":""img/red_ll/2.jpg"",""time"":101},{""stimulus"":""img/red_ll/3.jpg"",""time"":151},{""stimulus"":""img/red_ll/4.jpg"",""time"":202},{""stimulus"":""img/red_ll/5.jpg"",""time"":252},{""stimulus"":""img/red_ll/6.jpg"",""time"":301},{""stimulus"":""img/red_ll/7.jpg"",""time"":352},{""stimulus"":""img/red_ll/8.jpg"",""time"":401},{""stimulus"":""img/red_ll/9.jpg"",""time"":451},{""stimulus"":""img/red_ll/10.jpg"",""time"":501},{""stimulus"":""img/red_ll/11.jpg"",""time"":551}]","[]"
"image-keyboard-response","178","189786","0.0-5.0-1.87","63f049c2d78b2bc822a16dac","bdp_lott","Sun Apr 02 2023 08:22:53 GMT-0500 (Central Daylight Time)","345315","green","red","","655","","","","choice","","img/red_ll/choose11.jpg","1","138","green","0.5","0.1","0.5","w","",""
"animation","179","190387","0.0-5.0-2.87","63f049c2d78b2bc822a16dac","bdp_lott","Sun Apr 02 2023 08:22:53 GMT-0500 (Central Daylight Time)","345315","green","red","","","","","","","","","","138","","","","","","[{""stimulus"":""img/green_wl/1.jpg"",""time"":51},{""stimulus"":""img/green_wl/2.jpg"",""time"":101},{""stimulus"":""img/green_wl/3.jpg"",""time"":151},{""stimulus"":""img/green_wl/4.jpg"",""time"":201},{""stimulus"":""img/green_wl/5.jpg"",""time"":251},{""stimulus"":""img/green_wl/6.jpg"",""time"":301},{""stimulus"":""img/green_wl/7.jpg"",""time"":351},{""stimulus"":""img/green_wl/8.jpg"",""time"":400},{""stimulus"":""img/green_wl/9.jpg"",""time"":451},{""stimulus"":""img/green_wl/10.jpg"",""time"":501},{""stimulus"":""img/green_wl/11.jpg"",""time"":550}]","[]"
"image-keyboard-response","180","191087","0.0-5.0-1.88","63f049c2d78b2bc822a16dac","bdp_lott","Sun Apr 02 2023 08:22:53 GMT-0500 (Central Daylight Time)","345315","green","red","","700","","","","choice","","img/green_wl/choose11.jpg","2","137","red","0.5","0.1","0.1","l","",""
"animation","181","191688","0.0-5.0-2.88","63f049c2d78b2bc822a16dac","bdp_lott","Sun Apr 02 2023 08:22:53 GMT-0500 (Central Daylight Time)","345315","green","red","","","","","","","","","","137","","","","","","[{""stimulus"":""img/red_wl/1.jpg"",""time"":50},{""stimulus"":""img/red_wl/2.jpg"",""time"":101},{""stimulus"":""img/red_wl/3.jpg"",""time"":150},{""stimulus"":""img/red_wl/4.jpg"",""time"":201},{""stimulus"":""img/red_wl/5.jpg"",""time"":251},{""stimulus"":""img/red_wl/6.jpg"",""time"":300},{""stimulus"":""img/red_wl/7.jpg"",""time"":350},{""stimulus"":""img/red_wl/8.jpg"",""time"":400},{""stimulus"":""img/red_wl/9.jpg"",""time"":451},{""stimulus"":""img/red_wl/10.jpg"",""time"":500},{""stimulus"":""img/red_wl/11.jpg"",""time"":550}]","[]"
"image-keyboard-response","182","192068","0.0-5.0-1.89","63f049c2d78b2bc822a16dac","bdp_lott","Sun Apr 02 2023 08:22:53 GMT-0500 (Central Daylight Time)","345315","green","red","","378","","","","choice","","img/red_wl/choose11.jpg","1","136","green","0.5","0.1","0.5","w","",""
"animation","183","192669","0.0-5.0-2.89","63f049c2d78b2bc822a16dac","bdp_lott","Sun Apr 02 2023 08:22:53 GMT-0500 (Central Daylight Time)","345315","green","red","","","","","","","","","","136","","","","","","[{""stimulus"":""img/green_wl/1.jpg"",""time"":50},{""stimulus"":""img/green_wl/2.jpg"",""time"":101},{""stimulus"":""img/green_wl/3.jpg"",""time"":151},{""stimulus"":""img/green_wl/4.jpg"",""time"":201},{""stimulus"":""img/green_wl/5.jpg"",""time"":251},{""stimulus"":""img/green_wl/6.jpg"",""time"":301},{""stimulus"":""img/green_wl/7.jpg"",""time"":351},{""stimulus"":""img/green_wl/8.jpg"",""time"":401},{""stimulus"":""img/green_wl/9.jpg"",""time"":451},{""stimulus"":""img/green_wl/10.jpg"",""time"":500},{""stimulus"":""img/green_wl/11.jpg"",""time"":551}]","[]"
"image-keyboard-response","184","193302","0.0-5.0-1.90","63f049c2d78b2bc822a16dac","bdp_lott","Sun Apr 02 2023 08:22:53 GMT-0500 (Central Daylight Time)","345315","green","red","","633","","","","choice","","img/green_wl/choose11.jpg","1","135","green","0.5","0.1","0.5","l","",""
"animation","185","193903","0.0-5.0-2.90","63f049c2d78b2bc822a16dac","bdp_lott","Sun Apr 02 2023 08:22:53 GMT-0500 (Central Daylight Time)","345315","green","red","","","","","","","","","","135","","","","","","[{""stimulus"":""img/green_ll/1.jpg"",""time"":51},{""stimulus"":""img/green_ll/2.jpg"",""time"":100},{""stimulus"":""img/green_ll/3.jpg"",""time"":151},{""stimulus"":""img/green_ll/4.jpg"",""time"":201},{""stimulus"":""img/green_ll/5.jpg"",""time"":251},{""stimulus"":""img/green_ll/6.jpg"",""time"":301},{""stimulus"":""img/green_ll/7.jpg"",""time"":350},{""stimulus"":""img/green_ll/8.jpg"",""time"":402},{""stimulus"":""img/green_ll/9.jpg"",""time"":451},{""stimulus"":""img/green_ll/10.jpg"",""time"":501},{""stimulus"":""img/green_ll/11.jpg"",""time"":551}]","[]"
"image-keyboard-response","186","194550","0.0-5.0-1.91","63f049c2d78b2bc822a16dac","bdp_lott","Sun Apr 02 2023 08:22:53 GMT-0500 (Central Daylight Time)","345315","green","red","","646","","","","choice","","img/green_ll/choose11.jpg","2","134","red","0.5","0.1","0.1","l","",""
"animation","187","195150","0.0-5.0-2.91","63f049c2d78b2bc822a16dac","bdp_lott","Sun Apr 02 2023 08:22:53 GMT-0500 (Central Daylight Time)","345315","green","red","","","","","","","","","","134","","","","","","[{""stimulus"":""img/red_ll/1.jpg"",""time"":51},{""stimulus"":""img/red_ll/2.jpg"",""time"":100},{""stimulus"":""img/red_ll/3.jpg"",""time"":151},{""stimulus"":""img/red_ll/4.jpg"",""time"":200},{""stimulus"":""img/red_ll/5.jpg"",""time"":251},{""stimulus"":""img/red_ll/6.jpg"",""time"":300},{""stimulus"":""img/red_ll/7.jpg"",""time"":350},{""stimulus"":""img/red_ll/8.jpg"",""time"":401},{""stimulus"":""img/red_ll/9.jpg"",""time"":450},{""stimulus"":""img/red_ll/10.jpg"",""time"":501},{""stimulus"":""img/red_ll/11.jpg"",""time"":551}]","[]"
"image-keyboard-response","188","196039","0.0-5.0-1.92","63f049c2d78b2bc822a16dac","bdp_lott","Sun Apr 02 2023 08:22:53 GMT-0500 (Central Daylight Time)","345315","green","red","","889","","","","choice","","img/red_ll/choose11.jpg","2","133","red","0.5","0.1","0.1","l","",""
"animation","189","196640","0.0-5.0-2.92","63f049c2d78b2bc822a16dac","bdp_lott","Sun Apr 02 2023 08:22:53 GMT-0500 (Central Daylight Time)","345315","green","red","","","","","","","","","","133","","","","","","[{""stimulus"":""img/red_ll/1.jpg"",""time"":50},{""stimulus"":""img/red_ll/2.jpg"",""time"":100},{""stimulus"":""img/red_ll/3.jpg"",""time"":150},{""stimulus"":""img/red_ll/4.jpg"",""time"":200},{""stimulus"":""img/red_ll/5.jpg"",""time"":251},{""stimulus"":""img/red_ll/6.jpg"",""time"":300},{""stimulus"":""img/red_ll/7.jpg"",""time"":350},{""stimulus"":""img/red_ll/8.jpg"",""time"":401},{""stimulus"":""img/red_ll/9.jpg"",""time"":450},{""stimulus"":""img/red_ll/10.jpg"",""time"":500},{""stimulus"":""img/red_ll/11.jpg"",""time"":550}]","[]"
"image-keyboard-response","190","196963","0.0-5.0-1.93","63f049c2d78b2bc822a16dac","bdp_lott","Sun Apr 02 2023 08:22:53 GMT-0500 (Central Daylight Time)","345315","green","red","","323","","","","choice","","img/red_ll/choose11.jpg","1","132","green","0.5","0.1","0.5","l","",""
