"trial_type","trial_index","time_elapsed","internal_node_id","subject_id","task","startTime","totalTime","fairMachine","unfairMachine","view_history","rt","event","trial","time","trialtype","success","stimulus","key_press","roundsLeft","chosen","pFairMachWin","pUnfairMachWin","pTrialWin","outcome","animation_sequence","responses"
"pavlovia","0","7","0.0-0.0","6340d2fa46f2d707e146b63b","bdp_lott","Mon Mar 27 2023 23:05:40 GMT-0400 (Eastern Daylight Time)","317647","red","green","","","","","","","","","","","","","","","","",""
"instructions","1","3268","0.0-1.0","6340d2fa46f2d707e146b63b","bdp_lott","Mon Mar 27 2023 23:05:40 GMT-0400 (Eastern Daylight Time)","317647","red","green","[{""page_index"":0,""viewing_time"":3259}]","3259","","","","","","","","","","","","","","",""
"","","","","6340d2fa46f2d707e146b63b","bdp_lott","Mon Mar 27 2023 23:05:40 GMT-0400 (Eastern Daylight Time)","317647","red","green","","","fullscreenenter","2","5293","fullscreenenter","","","","","","","","","","",""
"fullscreen","2","6257","0.0-2.0","6340d2fa46f2d707e146b63b","bdp_lott","Mon Mar 27 2023 23:05:40 GMT-0400 (Eastern Daylight Time)","317647","red","green","","","","","","","true","","","","","","","","","",""
"instructions","3","30067","0.0-4.0","6340d2fa46f2d707e146b63b","bdp_lott","Mon Mar 27 2023 23:05:40 GMT-0400 (Eastern Daylight Time)","317647","red","green","[{""page_index"":0,""viewing_time"":23808}]","23808","","","","","","","","","","","","","","",""
"image-keyboard-response","4","31237","0.0-5.0-1.0","6340d2fa46f2d707e146b63b","bdp_lott","Mon Mar 27 2023 23:05:40 GMT-0400 (Eastern Daylight Time)","317647","red","green","","1168","","","","choice","","img/red_ll/initchoose11.jpg","1","225","green","0.5","0.5","0.5","w","",""
"animation","5","31845","0.0-5.0-2.0","6340d2fa46f2d707e146b63b","bdp_lott","Mon Mar 27 2023 23:05:40 GMT-0400 (Eastern Daylight Time)","317647","red","green","","","","","","","","","","225","","","","","","[{""stimulus"":""img/green_wl/1.jpg"",""time"":53},{""stimulus"":""img/green_wl/2.jpg"",""time"":108},{""stimulus"":""img/green_wl/3.jpg"",""time"":156},{""stimulus"":""img/green_wl/4.jpg"",""time"":204},{""stimulus"":""img/green_wl/5.jpg"",""time"":253},{""stimulus"":""img/green_wl/6.jpg"",""time"":303},{""stimulus"":""img/green_wl/7.jpg"",""time"":355},{""stimulus"":""img/green_wl/8.jpg"",""time"":405},{""stimulus"":""img/green_wl/9.jpg"",""time"":453},{""stimulus"":""img/green_wl/10.jpg"",""time"":502},{""stimulus"":""img/green_wl/11.jpg"",""time"":559}]","[]"
"image-keyboard-response","6","33319","0.0-5.0-1.1","6340d2fa46f2d707e146b63b","bdp_lott","Mon Mar 27 2023 23:05:40 GMT-0400 (Eastern Daylight Time)","317647","red","green","","1472","","","","choice","","img/green_wl/choose11.jpg","1","224","green","0.5","0.5","0.5","w","",""
"animation","7","33923","0.0-5.0-2.1","6340d2fa46f2d707e146b63b","bdp_lott","Mon Mar 27 2023 23:05:40 GMT-0400 (Eastern Daylight Time)","317647","red","green","","","","","","","","","","224","","","","","","[{""stimulus"":""img/green_wl/1.jpg"",""time"":52},{""stimulus"":""img/green_wl/2.jpg"",""time"":108},{""stimulus"":""img/green_wl/3.jpg"",""time"":156},{""stimulus"":""img/green_wl/4.jpg"",""time"":204},{""stimulus"":""img/green_wl/5.jpg"",""time"":252},{""stimulus"":""img/green_wl/6.jpg"",""time"":308},{""stimulus"":""img/green_wl/7.jpg"",""time"":356},{""stimulus"":""img/green_wl/8.jpg"",""time"":404},{""stimulus"":""img/green_wl/9.jpg"",""time"":452},{""stimulus"":""img/green_wl/10.jpg"",""time"":508},{""stimulus"":""img/green_wl/11.jpg"",""time"":556}]","[]"
"image-keyboard-response","8","35085","0.0-5.0-1.2","6340d2fa46f2d707e146b63b","bdp_lott","Mon Mar 27 2023 23:05:40 GMT-0400 (Eastern Daylight Time)","317647","red","green","","1160","","","","choice","","img/green_wl/choose11.jpg","1","223","green","0.5","0.5","0.5","w","",""
"animation","9","35691","0.0-5.0-2.2","6340d2fa46f2d707e146b63b","bdp_lott","Mon Mar 27 2023 23:05:40 GMT-0400 (Eastern Daylight Time)","317647","red","green","","","","","","","","","","223","","","","","","[{""stimulus"":""img/green_wl/1.jpg"",""time"":54},{""stimulus"":""img/green_wl/2.jpg"",""time"":102},{""stimulus"":""img/green_wl/3.jpg"",""time"":158},{""stimulus"":""img/green_wl/4.jpg"",""time"":206},{""stimulus"":""img/green_wl/5.jpg"",""time"":253},{""stimulus"":""img/green_wl/6.jpg"",""time"":310},{""stimulus"":""img/green_wl/7.jpg"",""time"":354},{""stimulus"":""img/green_wl/8.jpg"",""time"":406},{""stimulus"":""img/green_wl/9.jpg"",""time"":454},{""stimulus"":""img/green_wl/10.jpg"",""time"":502},{""stimulus"":""img/green_wl/11.jpg"",""time"":558}]","[]"
"image-keyboard-response","10","36294","0.0-5.0-1.3","6340d2fa46f2d707e146b63b","bdp_lott","Mon Mar 27 2023 23:05:40 GMT-0400 (Eastern Daylight Time)","317647","red","green","","602","","","","choice","","img/green_wl/choose11.jpg","1","222","green","0.5","0.5","0.5","l","",""
"animation","11","36898","0.0-5.0-2.3","6340d2fa46f2d707e146b63b","bdp_lott","Mon Mar 27 2023 23:05:40 GMT-0400 (Eastern Daylight Time)","317647","red","green","","","","","","","","","","222","","","","","","[{""stimulus"":""img/green_ll/1.jpg"",""time"":55},{""stimulus"":""img/green_ll/2.jpg"",""time"":104},{""stimulus"":""img/green_ll/3.jpg"",""time"":154},{""stimulus"":""img/green_ll/4.jpg"",""time"":202},{""stimulus"":""img/green_ll/5.jpg"",""time"":258},{""stimulus"":""img/green_ll/6.jpg"",""time"":306},{""stimulus"":""img/green_ll/7.jpg"",""time"":355},{""stimulus"":""img/green_ll/8.jpg"",""time"":403},{""stimulus"":""img/green_ll/9.jpg"",""time"":451},{""stimulus"":""img/green_ll/10.jpg"",""time"":507},{""stimulus"":""img/green_ll/11.jpg"",""time"":555}]","[]"
"image-keyboard-response","12","39109","0.0-5.0-1.4","6340d2fa46f2d707e146b63b","bdp_lott","Mon Mar 27 2023 23:05:40 GMT-0400 (Eastern Daylight Time)","317647","red","green","","2209","","","","choice","","img/green_ll/choose11.jpg","2","221","red","0.5","0.5","0.5","l","",""
"animation","13","39709","0.0-5.0-2.4","6340d2fa46f2d707e146b63b","bdp_lott","Mon Mar 27 2023 23:05:40 GMT-0400 (Eastern Daylight Time)","317647","red","green","","","","","","","","","","221","","","","","","[{""stimulus"":""img/red_ll/1.jpg"",""time"":57},{""stimulus"":""img/red_ll/2.jpg"",""time"":106},{""stimulus"":""img/red_ll/3.jpg"",""time"":153},{""stimulus"":""img/red_ll/4.jpg"",""time"":204},{""stimulus"":""img/red_ll/5.jpg"",""time"":255},{""stimulus"":""img/red_ll/6.jpg"",""time"":303},{""stimulus"":""img/red_ll/7.jpg"",""time"":351},{""stimulus"":""img/red_ll/8.jpg"",""time"":407},{""stimulus"":""img/red_ll/9.jpg"",""time"":456},{""stimulus"":""img/red_ll/10.jpg"",""time"":505},{""stimulus"":""img/red_ll/11.jpg"",""time"":553}]","[]"
"image-keyboard-response","14","40313","0.0-5.0-1.5","6340d2fa46f2d707e146b63b","bdp_lott","Mon Mar 27 2023 23:05:40 GMT-0400 (Eastern Daylight Time)","317647","red","green","","603","","","","choice","","img/red_ll/choose11.jpg","1","220","green","0.5","0.5","0.5","w","",""
"animation","15","40915","0.0-5.0-2.5","6340d2fa46f2d707e146b63b","bdp_lott","Mon Mar 27 2023 23:05:40 GMT-0400 (Eastern Daylight Time)","317647","red","green","","","","","","","","","","220","","","","","","[{""stimulus"":""img/green_wl/1.jpg"",""time"":53},{""stimulus"":""img/green_wl/2.jpg"",""time"":101},{""stimulus"":""img/green_wl/3.jpg"",""time"":157},{""stimulus"":""img/green_wl/4.jpg"",""time"":201},{""stimulus"":""img/green_wl/5.jpg"",""time"":257},{""stimulus"":""img/green_wl/6.jpg"",""time"":305},{""stimulus"":""img/green_wl/7.jpg"",""time"":353},{""stimulus"":""img/green_wl/8.jpg"",""time"":401},{""stimulus"":""img/green_wl/9.jpg"",""time"":457},{""stimulus"":""img/green_wl/10.jpg"",""time"":505},{""stimulus"":""img/green_wl/11.jpg"",""time"":553}]","[]"
"image-keyboard-response","16","42233","0.0-5.0-1.6","6340d2fa46f2d707e146b63b","bdp_lott","Mon Mar 27 2023 23:05:40 GMT-0400 (Eastern Daylight Time)","317647","red","green","","1317","","","","choice","","img/green_wl/choose11.jpg","1","219","green","0.5","0.5","0.5","w","",""
"animation","17","42834","0.0-5.0-2.6","6340d2fa46f2d707e146b63b","bdp_lott","Mon Mar 27 2023 23:05:40 GMT-0400 (Eastern Daylight Time)","317647","red","green","","","","","","","","","","219","","","","","","[{""stimulus"":""img/green_wl/1.jpg"",""time"":58},{""stimulus"":""img/green_wl/2.jpg"",""time"":106},{""stimulus"":""img/green_wl/3.jpg"",""time"":155},{""stimulus"":""img/green_wl/4.jpg"",""time"":203},{""stimulus"":""img/green_wl/5.jpg"",""time"":252},{""stimulus"":""img/green_wl/6.jpg"",""time"":308},{""stimulus"":""img/green_wl/7.jpg"",""time"":356},{""stimulus"":""img/green_wl/8.jpg"",""time"":404},{""stimulus"":""img/green_wl/9.jpg"",""time"":456},{""stimulus"":""img/green_wl/10.jpg"",""time"":504},{""stimulus"":""img/green_wl/11.jpg"",""time"":553}]","[]"
"image-keyboard-response","18","43777","0.0-5.0-1.7","6340d2fa46f2d707e146b63b","bdp_lott","Mon Mar 27 2023 23:05:40 GMT-0400 (Eastern Daylight Time)","317647","red","green","","941","","","","choice","","img/green_wl/choose11.jpg","1","218","green","0.5","0.5","0.5","w","",""
"animation","19","44385","0.0-5.0-2.7","6340d2fa46f2d707e146b63b","bdp_lott","Mon Mar 27 2023 23:05:40 GMT-0400 (Eastern Daylight Time)","317647","red","green","","","","","","","","","","218","","","","","","[{""stimulus"":""img/green_wl/1.jpg"",""time"":55},{""stimulus"":""img/green_wl/2.jpg"",""time"":103},{""stimulus"":""img/green_wl/3.jpg"",""time"":151},{""stimulus"":""img/green_wl/4.jpg"",""time"":207},{""stimulus"":""img/green_wl/5.jpg"",""time"":255},{""stimulus"":""img/green_wl/6.jpg"",""time"":303},{""stimulus"":""img/green_wl/7.jpg"",""time"":352},{""stimulus"":""img/green_wl/8.jpg"",""time"":408},{""stimulus"":""img/green_wl/9.jpg"",""time"":457},{""stimulus"":""img/green_wl/10.jpg"",""time"":505},{""stimulus"":""img/green_wl/11.jpg"",""time"":553}]","[]"
"image-keyboard-response","20","44886","0.0-5.0-1.8","6340d2fa46f2d707e146b63b","bdp_lott","Mon Mar 27 2023 23:05:40 GMT-0400 (Eastern Daylight Time)","317647","red","green","","500","","","","choice","","img/green_wl/choose11.jpg","1","217","green","0.5","0.5","0.5","w","",""
"animation","21","45490","0.0-5.0-2.8","6340d2fa46f2d707e146b63b","bdp_lott","Mon Mar 27 2023 23:05:40 GMT-0400 (Eastern Daylight Time)","317647","red","green","","","","","","","","","","217","","","","","","[{""stimulus"":""img/green_wl/1.jpg"",""time"":54},{""stimulus"":""img/green_wl/2.jpg"",""time"":106},{""stimulus"":""img/green_wl/3.jpg"",""time"":153},{""stimulus"":""img/green_wl/4.jpg"",""time"":201},{""stimulus"":""img/green_wl/5.jpg"",""time"":259},{""stimulus"":""img/green_wl/6.jpg"",""time"":306},{""stimulus"":""img/green_wl/7.jpg"",""time"":355},{""stimulus"":""img/green_wl/8.jpg"",""time"":403},{""stimulus"":""img/green_wl/9.jpg"",""time"":451},{""stimulus"":""img/green_wl/10.jpg"",""time"":507},{""stimulus"":""img/green_wl/11.jpg"",""time"":555}]","[]"
"image-keyboard-response","22","46114","0.0-5.0-1.9","6340d2fa46f2d707e146b63b","bdp_lott","Mon Mar 27 2023 23:05:40 GMT-0400 (Eastern Daylight Time)","317647","red","green","","623","","","","choice","","img/green_wl/choose11.jpg","1","216","green","0.5","0.5","0.5","w","",""
"animation","23","46721","0.0-5.0-2.9","6340d2fa46f2d707e146b63b","bdp_lott","Mon Mar 27 2023 23:05:40 GMT-0400 (Eastern Daylight Time)","317647","red","green","","","","","","","","","","216","","","","","","[{""stimulus"":""img/green_wl/1.jpg"",""time"":52},{""stimulus"":""img/green_wl/2.jpg"",""time"":108},{""stimulus"":""img/green_wl/3.jpg"",""time"":157},{""stimulus"":""img/green_wl/4.jpg"",""time"":207},{""stimulus"":""img/green_wl/5.jpg"",""time"":256},{""stimulus"":""img/green_wl/6.jpg"",""time"":304},{""stimulus"":""img/green_wl/7.jpg"",""time"":352},{""stimulus"":""img/green_wl/8.jpg"",""time"":401},{""stimulus"":""img/green_wl/9.jpg"",""time"":457},{""stimulus"":""img/green_wl/10.jpg"",""time"":503},{""stimulus"":""img/green_wl/11.jpg"",""time"":559}]","[]"
"image-keyboard-response","24","47090","0.0-5.0-1.10","6340d2fa46f2d707e146b63b","bdp_lott","Mon Mar 27 2023 23:05:40 GMT-0400 (Eastern Daylight Time)","317647","red","green","","368","","","","choice","","img/green_wl/choose11.jpg","1","215","green","0.5","0.5","0.5","w","",""
"animation","25","47694","0.0-5.0-2.10","6340d2fa46f2d707e146b63b","bdp_lott","Mon Mar 27 2023 23:05:40 GMT-0400 (Eastern Daylight Time)","317647","red","green","","","","","","","","","","215","","","","","","[{""stimulus"":""img/green_wl/1.jpg"",""time"":52},{""stimulus"":""img/green_wl/2.jpg"",""time"":108},{""stimulus"":""img/green_wl/3.jpg"",""time"":156},{""stimulus"":""img/green_wl/4.jpg"",""time"":204},{""stimulus"":""img/green_wl/5.jpg"",""time"":252},{""stimulus"":""img/green_wl/6.jpg"",""time"":316},{""stimulus"":""img/green_wl/7.jpg"",""time"":356},{""stimulus"":""img/green_wl/8.jpg"",""time"":404},{""stimulus"":""img/green_wl/9.jpg"",""time"":451},{""stimulus"":""img/green_wl/10.jpg"",""time"":508},{""stimulus"":""img/green_wl/11.jpg"",""time"":556}]","[]"
"image-keyboard-response","26","48095","0.0-5.0-1.11","6340d2fa46f2d707e146b63b","bdp_lott","Mon Mar 27 2023 23:05:40 GMT-0400 (Eastern Daylight Time)","317647","red","green","","399","","","","choice","","img/green_wl/choose11.jpg","1","214","green","0.5","0.5","0.5","l","",""
"animation","27","48704","0.0-5.0-2.11","6340d2fa46f2d707e146b63b","bdp_lott","Mon Mar 27 2023 23:05:40 GMT-0400 (Eastern Daylight Time)","317647","red","green","","","","","","","","","","214","","","","","","[{""stimulus"":""img/green_ll/1.jpg"",""time"":62},{""stimulus"":""img/green_ll/2.jpg"",""time"":103},{""stimulus"":""img/green_ll/3.jpg"",""time"":158},{""stimulus"":""img/green_ll/4.jpg"",""time"":206},{""stimulus"":""img/green_ll/5.jpg"",""time"":255},{""stimulus"":""img/green_ll/6.jpg"",""time"":304},{""stimulus"":""img/green_ll/7.jpg"",""time"":351},{""stimulus"":""img/green_ll/8.jpg"",""time"":407},{""stimulus"":""img/green_ll/9.jpg"",""time"":456},{""stimulus"":""img/green_ll/10.jpg"",""time"":504},{""stimulus"":""img/green_ll/11.jpg"",""time"":552}]","[]"
"image-keyboard-response","28","50937","0.0-5.0-1.12","6340d2fa46f2d707e146b63b","bdp_lott","Mon Mar 27 2023 23:05:40 GMT-0400 (Eastern Daylight Time)","317647","red","green","","2232","","","","choice","","img/green_ll/choose11.jpg","2","213","red","0.5","0.5","0.5","w","",""
"animation","29","51545","0.0-5.0-2.12","6340d2fa46f2d707e146b63b","bdp_lott","Mon Mar 27 2023 23:05:40 GMT-0400 (Eastern Daylight Time)","317647","red","green","","","","","","","","","","213","","","","","","[{""stimulus"":""img/red_lw/1.jpg"",""time"":56},{""stimulus"":""img/red_lw/2.jpg"",""time"":104},{""stimulus"":""img/red_lw/3.jpg"",""time"":152},{""stimulus"":""img/red_lw/4.jpg"",""time"":208},{""stimulus"":""img/red_lw/5.jpg"",""time"":253},{""stimulus"":""img/red_lw/6.jpg"",""time"":302},{""stimulus"":""img/red_lw/7.jpg"",""time"":352},{""stimulus"":""img/red_lw/8.jpg"",""time"":407},{""stimulus"":""img/red_lw/9.jpg"",""time"":456},{""stimulus"":""img/red_lw/10.jpg"",""time"":504},{""stimulus"":""img/red_lw/11.jpg"",""time"":552}]","[]"
"image-keyboard-response","30","52511","0.0-5.0-1.13","6340d2fa46f2d707e146b63b","bdp_lott","Mon Mar 27 2023 23:05:40 GMT-0400 (Eastern Daylight Time)","317647","red","green","","965","","","","choice","","img/red_lw/choose11.jpg","2","212","red","0.5","0.5","0.5","w","",""
"animation","31","53118","0.0-5.0-2.13","6340d2fa46f2d707e146b63b","bdp_lott","Mon Mar 27 2023 23:05:40 GMT-0400 (Eastern Daylight Time)","317647","red","green","","","","","","","","","","212","","","","","","[{""stimulus"":""img/red_lw/1.jpg"",""time"":53},{""stimulus"":""img/red_lw/2.jpg"",""time"":102},{""stimulus"":""img/red_lw/3.jpg"",""time"":157},{""stimulus"":""img/red_lw/4.jpg"",""time"":205},{""stimulus"":""img/red_lw/5.jpg"",""time"":253},{""stimulus"":""img/red_lw/6.jpg"",""time"":303},{""stimulus"":""img/red_lw/7.jpg"",""time"":358},{""stimulus"":""img/red_lw/8.jpg"",""time"":407},{""stimulus"":""img/red_lw/9.jpg"",""time"":455},{""stimulus"":""img/red_lw/10.jpg"",""time"":503},{""stimulus"":""img/red_lw/11.jpg"",""time"":551}]","[]"
"image-keyboard-response","32","53666","0.0-5.0-1.14","6340d2fa46f2d707e146b63b","bdp_lott","Mon Mar 27 2023 23:05:40 GMT-0400 (Eastern Daylight Time)","317647","red","green","","547","","","","choice","","img/red_lw/choose11.jpg","2","211","red","0.5","0.5","0.5","w","",""
"animation","33","54274","0.0-5.0-2.14","6340d2fa46f2d707e146b63b","bdp_lott","Mon Mar 27 2023 23:05:40 GMT-0400 (Eastern Daylight Time)","317647","red","green","","","","","","","","","","211","","","","","","[{""stimulus"":""img/red_lw/1.jpg"",""time"":53},{""stimulus"":""img/red_lw/2.jpg"",""time"":101},{""stimulus"":""img/red_lw/3.jpg"",""time"":154},{""stimulus"":""img/red_lw/4.jpg"",""time"":202},{""stimulus"":""img/red_lw/5.jpg"",""time"":251},{""stimulus"":""img/red_lw/6.jpg"",""time"":308},{""stimulus"":""img/red_lw/7.jpg"",""time"":355},{""stimulus"":""img/red_lw/8.jpg"",""time"":403},{""stimulus"":""img/red_lw/9.jpg"",""time"":454},{""stimulus"":""img/red_lw/10.jpg"",""time"":503},{""stimulus"":""img/red_lw/11.jpg"",""time"":552}]","[]"
"image-keyboard-response","34","54710","0.0-5.0-1.15","6340d2fa46f2d707e146b63b","bdp_lott","Mon Mar 27 2023 23:05:40 GMT-0400 (Eastern Daylight Time)","317647","red","green","","435","","","","choice","","img/red_lw/choose11.jpg","2","210","red","0.5","0.5","0.5","w","",""
"animation","35","55312","0.0-5.0-2.15","6340d2fa46f2d707e146b63b","bdp_lott","Mon Mar 27 2023 23:05:40 GMT-0400 (Eastern Daylight Time)","317647","red","green","","","","","","","","","","210","","","","","","[{""stimulus"":""img/red_lw/1.jpg"",""time"":57},{""stimulus"":""img/red_lw/2.jpg"",""time"":105},{""stimulus"":""img/red_lw/3.jpg"",""time"":153},{""stimulus"":""img/red_lw/4.jpg"",""time"":201},{""stimulus"":""img/red_lw/5.jpg"",""time"":257},{""stimulus"":""img/red_lw/6.jpg"",""time"":313},{""stimulus"":""img/red_lw/7.jpg"",""time"":353},{""stimulus"":""img/red_lw/8.jpg"",""time"":401},{""stimulus"":""img/red_lw/9.jpg"",""time"":457},{""stimulus"":""img/red_lw/10.jpg"",""time"":505},{""stimulus"":""img/red_lw/11.jpg"",""time"":553}]","[]"
"image-keyboard-response","36","55800","0.0-5.0-1.16","6340d2fa46f2d707e146b63b","bdp_lott","Mon Mar 27 2023 23:05:40 GMT-0400 (Eastern Daylight Time)","317647","red","green","","486","","","","choice","","img/red_lw/choose11.jpg","2","209","red","0.5","0.5","0.5","w","",""
"animation","37","56401","0.0-5.0-2.16","6340d2fa46f2d707e146b63b","bdp_lott","Mon Mar 27 2023 23:05:40 GMT-0400 (Eastern Daylight Time)","317647","red","green","","","","","","","","","","209","","","","","","[{""stimulus"":""img/red_lw/1.jpg"",""time"":51},{""stimulus"":""img/red_lw/2.jpg"",""time"":103},{""stimulus"":""img/red_lw/3.jpg"",""time"":154},{""stimulus"":""img/red_lw/4.jpg"",""time"":204},{""stimulus"":""img/red_lw/5.jpg"",""time"":253},{""stimulus"":""img/red_lw/6.jpg"",""time"":303},{""stimulus"":""img/red_lw/7.jpg"",""time"":353},{""stimulus"":""img/red_lw/8.jpg"",""time"":403},{""stimulus"":""img/red_lw/9.jpg"",""time"":453},{""stimulus"":""img/red_lw/10.jpg"",""time"":502},{""stimulus"":""img/red_lw/11.jpg"",""time"":553}]","[]"
"image-keyboard-response","38","56850","0.0-5.0-1.17","6340d2fa46f2d707e146b63b","bdp_lott","Mon Mar 27 2023 23:05:40 GMT-0400 (Eastern Daylight Time)","317647","red","green","","448","","","","choice","","img/red_lw/choose11.jpg","2","208","red","0.5","0.5","0.5","w","",""
"animation","39","57458","0.0-5.0-2.17","6340d2fa46f2d707e146b63b","bdp_lott","Mon Mar 27 2023 23:05:40 GMT-0400 (Eastern Daylight Time)","317647","red","green","","","","","","","","","","208","","","","","","[{""stimulus"":""img/red_lw/1.jpg"",""time"":55},{""stimulus"":""img/red_lw/2.jpg"",""time"":103},{""stimulus"":""img/red_lw/3.jpg"",""time"":152},{""stimulus"":""img/red_lw/4.jpg"",""time"":208},{""stimulus"":""img/red_lw/5.jpg"",""time"":256},{""stimulus"":""img/red_lw/6.jpg"",""time"":304},{""stimulus"":""img/red_lw/7.jpg"",""time"":352},{""stimulus"":""img/red_lw/8.jpg"",""time"":403},{""stimulus"":""img/red_lw/9.jpg"",""time"":451},{""stimulus"":""img/red_lw/10.jpg"",""time"":508},{""stimulus"":""img/red_lw/11.jpg"",""time"":558}]","[]"
"image-keyboard-response","40","57841","0.0-5.0-1.18","6340d2fa46f2d707e146b63b","bdp_lott","Mon Mar 27 2023 23:05:40 GMT-0400 (Eastern Daylight Time)","317647","red","green","","382","","","","choice","","img/red_lw/choose11.jpg","2","207","red","0.5","0.5","0.5","l","",""
"animation","41","58442","0.0-5.0-2.18","6340d2fa46f2d707e146b63b","bdp_lott","Mon Mar 27 2023 23:05:40 GMT-0400 (Eastern Daylight Time)","317647","red","green","","","","","","","","","","207","","","","","","[{""stimulus"":""img/red_ll/1.jpg"",""time"":65},{""stimulus"":""img/red_ll/2.jpg"",""time"":105},{""stimulus"":""img/red_ll/3.jpg"",""time"":153},{""stimulus"":""img/red_ll/4.jpg"",""time"":201},{""stimulus"":""img/red_ll/5.jpg"",""time"":257},{""stimulus"":""img/red_ll/6.jpg"",""time"":305},{""stimulus"":""img/red_ll/7.jpg"",""time"":353},{""stimulus"":""img/red_ll/8.jpg"",""time"":401},{""stimulus"":""img/red_ll/9.jpg"",""time"":457},{""stimulus"":""img/red_ll/10.jpg"",""time"":505},{""stimulus"":""img/red_ll/11.jpg"",""time"":561}]","[]"
"image-keyboard-response","42","59216","0.0-5.0-1.19","6340d2fa46f2d707e146b63b","bdp_lott","Mon Mar 27 2023 23:05:40 GMT-0400 (Eastern Daylight Time)","317647","red","green","","772","","","","choice","","img/red_ll/choose11.jpg","1","206","green","0.5","0.5","0.5","l","",""
"animation","43","59822","0.0-5.0-2.19","6340d2fa46f2d707e146b63b","bdp_lott","Mon Mar 27 2023 23:05:40 GMT-0400 (Eastern Daylight Time)","317647","red","green","","","","","","","","","","206","","","","","","[{""stimulus"":""img/green_ll/1.jpg"",""time"":55},{""stimulus"":""img/green_ll/2.jpg"",""time"":105},{""stimulus"":""img/green_ll/3.jpg"",""time"":155},{""stimulus"":""img/green_ll/4.jpg"",""time"":203},{""stimulus"":""img/green_ll/5.jpg"",""time"":251},{""stimulus"":""img/green_ll/6.jpg"",""time"":308},{""stimulus"":""img/green_ll/7.jpg"",""time"":356},{""stimulus"":""img/green_ll/8.jpg"",""time"":404},{""stimulus"":""img/green_ll/9.jpg"",""time"":454},{""stimulus"":""img/green_ll/10.jpg"",""time"":502},{""stimulus"":""img/green_ll/11.jpg"",""time"":551}]","[]"
"image-keyboard-response","44","60586","0.0-5.0-1.20","6340d2fa46f2d707e146b63b","bdp_lott","Mon Mar 27 2023 23:05:40 GMT-0400 (Eastern Daylight Time)","317647","red","green","","763","","","","choice","","img/green_ll/choose11.jpg","2","205","red","0.5","0.5","0.5","l","",""
"animation","45","61189","0.0-5.0-2.20","6340d2fa46f2d707e146b63b","bdp_lott","Mon Mar 27 2023 23:05:40 GMT-0400 (Eastern Daylight Time)","317647","red","green","","","","","","","","","","205","","","","","","[{""stimulus"":""img/red_ll/1.jpg"",""time"":57},{""stimulus"":""img/red_ll/2.jpg"",""time"":105},{""stimulus"":""img/red_ll/3.jpg"",""time"":153},{""stimulus"":""img/red_ll/4.jpg"",""time"":201},{""stimulus"":""img/red_ll/5.jpg"",""time"":257},{""stimulus"":""img/red_ll/6.jpg"",""time"":305},{""stimulus"":""img/red_ll/7.jpg"",""time"":355},{""stimulus"":""img/red_ll/8.jpg"",""time"":407},{""stimulus"":""img/red_ll/9.jpg"",""time"":455},{""stimulus"":""img/red_ll/10.jpg"",""time"":504},{""stimulus"":""img/red_ll/11.jpg"",""time"":554}]","[]"
"image-keyboard-response","46","62830","0.0-5.0-1.21","6340d2fa46f2d707e146b63b","bdp_lott","Mon Mar 27 2023 23:05:40 GMT-0400 (Eastern Daylight Time)","317647","red","green","","1640","","","","choice","","img/red_ll/choose11.jpg","1","204","green","0.5","0.5","0.5","w","",""
"animation","47","63435","0.0-5.0-2.21","6340d2fa46f2d707e146b63b","bdp_lott","Mon Mar 27 2023 23:05:40 GMT-0400 (Eastern Daylight Time)","317647","red","green","","","","","","","","","","204","","","","","","[{""stimulus"":""img/green_wl/1.jpg"",""time"":52},{""stimulus"":""img/green_wl/2.jpg"",""time"":101},{""stimulus"":""img/green_wl/3.jpg"",""time"":156},{""stimulus"":""img/green_wl/4.jpg"",""time"":205},{""stimulus"":""img/green_wl/5.jpg"",""time"":255},{""stimulus"":""img/green_wl/6.jpg"",""time"":303},{""stimulus"":""img/green_wl/7.jpg"",""time"":352},{""stimulus"":""img/green_wl/8.jpg"",""time"":401},{""stimulus"":""img/green_wl/9.jpg"",""time"":458},{""stimulus"":""img/green_wl/10.jpg"",""time"":507},{""stimulus"":""img/green_wl/11.jpg"",""time"":556}]","[]"
"image-keyboard-response","48","64059","0.0-5.0-1.22","6340d2fa46f2d707e146b63b","bdp_lott","Mon Mar 27 2023 23:05:40 GMT-0400 (Eastern Daylight Time)","317647","red","green","","624","","","","choice","","img/green_wl/choose11.jpg","1","203","green","0.5","0.5","0.5","l","",""
"animation","49","64660","0.0-5.0-2.22","6340d2fa46f2d707e146b63b","bdp_lott","Mon Mar 27 2023 23:05:40 GMT-0400 (Eastern Daylight Time)","317647","red","green","","","","","","","","","","203","","","","","","[{""stimulus"":""img/green_ll/1.jpg"",""time"":52},{""stimulus"":""img/green_ll/2.jpg"",""time"":107},{""stimulus"":""img/green_ll/3.jpg"",""time"":155},{""stimulus"":""img/green_ll/4.jpg"",""time"":204},{""stimulus"":""img/green_ll/5.jpg"",""time"":252},{""stimulus"":""img/green_ll/6.jpg"",""time"":314},{""stimulus"":""img/green_ll/7.jpg"",""time"":352},{""stimulus"":""img/green_ll/8.jpg"",""time"":402},{""stimulus"":""img/green_ll/9.jpg"",""time"":451},{""stimulus"":""img/green_ll/10.jpg"",""time"":502},{""stimulus"":""img/green_ll/11.jpg"",""time"":551}]","[]"
"image-keyboard-response","50","67331","0.0-5.0-1.23","6340d2fa46f2d707e146b63b","bdp_lott","Mon Mar 27 2023 23:05:40 GMT-0400 (Eastern Daylight Time)","317647","red","green","","2670","","","","choice","","img/green_ll/choose11.jpg","2","202","red","0.5","0.5","0.5","l","",""
"animation","51","67938","0.0-5.0-2.23","6340d2fa46f2d707e146b63b","bdp_lott","Mon Mar 27 2023 23:05:40 GMT-0400 (Eastern Daylight Time)","317647","red","green","","","","","","","","","","202","","","","","","[{""stimulus"":""img/red_ll/1.jpg"",""time"":54},{""stimulus"":""img/red_ll/2.jpg"",""time"":102},{""stimulus"":""img/red_ll/3.jpg"",""time"":158},{""stimulus"":""img/red_ll/4.jpg"",""time"":206},{""stimulus"":""img/red_ll/5.jpg"",""time"":254},{""stimulus"":""img/red_ll/6.jpg"",""time"":302},{""stimulus"":""img/red_ll/7.jpg"",""time"":358},{""stimulus"":""img/red_ll/8.jpg"",""time"":406},{""stimulus"":""img/red_ll/9.jpg"",""time"":454},{""stimulus"":""img/red_ll/10.jpg"",""time"":502},{""stimulus"":""img/red_ll/11.jpg"",""time"":558}]","[]"
"image-keyboard-response","52","68693","0.0-5.0-1.24","6340d2fa46f2d707e146b63b","bdp_lott","Mon Mar 27 2023 23:05:40 GMT-0400 (Eastern Daylight Time)","317647","red","green","","753","","","","choice","","img/red_ll/choose11.jpg","1","201","green","0.5","0.5","0.5","l","",""
"animation","53","69300","0.0-5.0-2.24","6340d2fa46f2d707e146b63b","bdp_lott","Mon Mar 27 2023 23:05:40 GMT-0400 (Eastern Daylight Time)","317647","red","green","","","","","","","","","","201","","","","","","[{""stimulus"":""img/green_ll/1.jpg"",""time"":52},{""stimulus"":""img/green_ll/2.jpg"",""time"":108},{""stimulus"":""img/green_ll/3.jpg"",""time"":156},{""stimulus"":""img/green_ll/4.jpg"",""time"":203},{""stimulus"":""img/green_ll/5.jpg"",""time"":251},{""stimulus"":""img/green_ll/6.jpg"",""time"":307},{""stimulus"":""img/green_ll/7.jpg"",""time"":351},{""stimulus"":""img/green_ll/8.jpg"",""time"":407},{""stimulus"":""img/green_ll/9.jpg"",""time"":455},{""stimulus"":""img/green_ll/10.jpg"",""time"":503},{""stimulus"":""img/green_ll/11.jpg"",""time"":551}]","[]"
"image-keyboard-response","54","70336","0.0-5.0-1.25","6340d2fa46f2d707e146b63b","bdp_lott","Mon Mar 27 2023 23:05:40 GMT-0400 (Eastern Daylight Time)","317647","red","green","","1034","","","","choice","","img/green_ll/choose11.jpg","1","200","green","0.5","0.5","0.5","w","",""
"animation","55","70939","0.0-5.0-2.25","6340d2fa46f2d707e146b63b","bdp_lott","Mon Mar 27 2023 23:05:40 GMT-0400 (Eastern Daylight Time)","317647","red","green","","","","","","","","","","200","","","","","","[{""stimulus"":""img/green_wl/1.jpg"",""time"":58},{""stimulus"":""img/green_wl/2.jpg"",""time"":107},{""stimulus"":""img/green_wl/3.jpg"",""time"":156},{""stimulus"":""img/green_wl/4.jpg"",""time"":204},{""stimulus"":""img/green_wl/5.jpg"",""time"":252},{""stimulus"":""img/green_wl/6.jpg"",""time"":308},{""stimulus"":""img/green_wl/7.jpg"",""time"":356},{""stimulus"":""img/green_wl/8.jpg"",""time"":404},{""stimulus"":""img/green_wl/9.jpg"",""time"":452},{""stimulus"":""img/green_wl/10.jpg"",""time"":508},{""stimulus"":""img/green_wl/11.jpg"",""time"":556}]","[]"
"image-keyboard-response","56","71741","0.0-5.0-1.26","6340d2fa46f2d707e146b63b","bdp_lott","Mon Mar 27 2023 23:05:40 GMT-0400 (Eastern Daylight Time)","317647","red","green","","800","","","","choice","","img/green_wl/choose11.jpg","1","199","green","0.5","0.5","0.5","w","",""
"animation","57","72350","0.0-5.0-2.26","6340d2fa46f2d707e146b63b","bdp_lott","Mon Mar 27 2023 23:05:40 GMT-0400 (Eastern Daylight Time)","317647","red","green","","","","","","","","","","199","","","","","","[{""stimulus"":""img/green_wl/1.jpg"",""time"":53},{""stimulus"":""img/green_wl/2.jpg"",""time"":101},{""stimulus"":""img/green_wl/3.jpg"",""time"":157},{""stimulus"":""img/green_wl/4.jpg"",""time"":205},{""stimulus"":""img/green_wl/5.jpg"",""time"":255},{""stimulus"":""img/green_wl/6.jpg"",""time"":303},{""stimulus"":""img/green_wl/7.jpg"",""time"":351},{""stimulus"":""img/green_wl/8.jpg"",""time"":401},{""stimulus"":""img/green_wl/9.jpg"",""time"":457},{""stimulus"":""img/green_wl/10.jpg"",""time"":505},{""stimulus"":""img/green_wl/11.jpg"",""time"":553}]","[]"
"image-keyboard-response","58","72827","0.0-5.0-1.27","6340d2fa46f2d707e146b63b","bdp_lott","Mon Mar 27 2023 23:05:40 GMT-0400 (Eastern Daylight Time)","317647","red","green","","476","","","","choice","","img/green_wl/choose11.jpg","1","198","green","0.5","0.5","0.5","l","",""
"animation","59","73431","0.0-5.0-2.27","6340d2fa46f2d707e146b63b","bdp_lott","Mon Mar 27 2023 23:05:40 GMT-0400 (Eastern Daylight Time)","317647","red","green","","","","","","","","","","198","","","","","","[{""stimulus"":""img/green_ll/1.jpg"",""time"":52},{""stimulus"":""img/green_ll/2.jpg"",""time"":108},{""stimulus"":""img/green_ll/3.jpg"",""time"":156},{""stimulus"":""img/green_ll/4.jpg"",""time"":204},{""stimulus"":""img/green_ll/5.jpg"",""time"":252},{""stimulus"":""img/green_ll/6.jpg"",""time"":307},{""stimulus"":""img/green_ll/7.jpg"",""time"":351},{""stimulus"":""img/green_ll/8.jpg"",""time"":407},{""stimulus"":""img/green_ll/9.jpg"",""time"":455},{""stimulus"":""img/green_ll/10.jpg"",""time"":501},{""stimulus"":""img/green_ll/11.jpg"",""time"":557}]","[]"
"image-keyboard-response","60","74834","0.0-5.0-1.28","6340d2fa46f2d707e146b63b","bdp_lott","Mon Mar 27 2023 23:05:40 GMT-0400 (Eastern Daylight Time)","317647","red","green","","1401","","","","choice","","img/green_ll/choose11.jpg","2","197","red","0.5","0.5","0.5","w","",""
"animation","61","75435","0.0-5.0-2.28","6340d2fa46f2d707e146b63b","bdp_lott","Mon Mar 27 2023 23:05:40 GMT-0400 (Eastern Daylight Time)","317647","red","green","","","","","","","","","","197","","","","","","[{""stimulus"":""img/red_lw/1.jpg"",""time"":58},{""stimulus"":""img/red_lw/2.jpg"",""time"":106},{""stimulus"":""img/red_lw/3.jpg"",""time"":154},{""stimulus"":""img/red_lw/4.jpg"",""time"":202},{""stimulus"":""img/red_lw/5.jpg"",""time"":258},{""stimulus"":""img/red_lw/6.jpg"",""time"":306},{""stimulus"":""img/red_lw/7.jpg"",""time"":352},{""stimulus"":""img/red_lw/8.jpg"",""time"":408},{""stimulus"":""img/red_lw/9.jpg"",""time"":456},{""stimulus"":""img/red_lw/10.jpg"",""time"":501},{""stimulus"":""img/red_lw/11.jpg"",""time"":558}]","[]"
"image-keyboard-response","62","76390","0.0-5.0-1.29","6340d2fa46f2d707e146b63b","bdp_lott","Mon Mar 27 2023 23:05:40 GMT-0400 (Eastern Daylight Time)","317647","red","green","","954","","","","choice","","img/red_lw/choose11.jpg","2","196","red","0.5","0.5","0.5","w","",""
"animation","63","76995","0.0-5.0-2.29","6340d2fa46f2d707e146b63b","bdp_lott","Mon Mar 27 2023 23:05:40 GMT-0400 (Eastern Daylight Time)","317647","red","green","","","","","","","","","","196","","","","","","[{""stimulus"":""img/red_lw/1.jpg"",""time"":62},{""stimulus"":""img/red_lw/2.jpg"",""time"":102},{""stimulus"":""img/red_lw/3.jpg"",""time"":152},{""stimulus"":""img/red_lw/4.jpg"",""time"":208},{""stimulus"":""img/red_lw/5.jpg"",""time"":252},{""stimulus"":""img/red_lw/6.jpg"",""time"":308},{""stimulus"":""img/red_lw/7.jpg"",""time"":356},{""stimulus"":""img/red_lw/8.jpg"",""time"":405},{""stimulus"":""img/red_lw/9.jpg"",""time"":453},{""stimulus"":""img/red_lw/10.jpg"",""time"":501},{""stimulus"":""img/red_lw/11.jpg"",""time"":557}]","[]"
"image-keyboard-response","64","77636","0.0-5.0-1.30","6340d2fa46f2d707e146b63b","bdp_lott","Mon Mar 27 2023 23:05:40 GMT-0400 (Eastern Daylight Time)","317647","red","green","","640","","","","choice","","img/red_lw/choose11.jpg","2","195","red","0.5","0.5","0.5","w","",""
"animation","65","78237","0.0-5.0-2.30","6340d2fa46f2d707e146b63b","bdp_lott","Mon Mar 27 2023 23:05:40 GMT-0400 (Eastern Daylight Time)","317647","red","green","","","","","","","","","","195","","","","","","[{""stimulus"":""img/red_lw/1.jpg"",""time"":57},{""stimulus"":""img/red_lw/2.jpg"",""time"":105},{""stimulus"":""img/red_lw/3.jpg"",""time"":154},{""stimulus"":""img/red_lw/4.jpg"",""time"":205},{""stimulus"":""img/red_lw/5.jpg"",""time"":255},{""stimulus"":""img/red_lw/6.jpg"",""time"":303},{""stimulus"":""img/red_lw/7.jpg"",""time"":359},{""stimulus"":""img/red_lw/8.jpg"",""time"":407},{""stimulus"":""img/red_lw/9.jpg"",""time"":456},{""stimulus"":""img/red_lw/10.jpg"",""time"":505},{""stimulus"":""img/red_lw/11.jpg"",""time"":553}]","[]"
"image-keyboard-response","66","78961","0.0-5.0-1.31","6340d2fa46f2d707e146b63b","bdp_lott","Mon Mar 27 2023 23:05:40 GMT-0400 (Eastern Daylight Time)","317647","red","green","","723","","","","choice","","img/red_lw/choose11.jpg","2","194","red","0.5","0.5","0.5","l","",""
"animation","67","79567","0.0-5.0-2.31","6340d2fa46f2d707e146b63b","bdp_lott","Mon Mar 27 2023 23:05:40 GMT-0400 (Eastern Daylight Time)","317647","red","green","","","","","","","","","","194","","","","","","[{""stimulus"":""img/red_ll/1.jpg"",""time"":54},{""stimulus"":""img/red_ll/2.jpg"",""time"":102},{""stimulus"":""img/red_ll/3.jpg"",""time"":158},{""stimulus"":""img/red_ll/4.jpg"",""time"":206},{""stimulus"":""img/red_ll/5.jpg"",""time"":254},{""stimulus"":""img/red_ll/6.jpg"",""time"":303},{""stimulus"":""img/red_ll/7.jpg"",""time"":365},{""stimulus"":""img/red_ll/8.jpg"",""time"":406},{""stimulus"":""img/red_ll/9.jpg"",""time"":454},{""stimulus"":""img/red_ll/10.jpg"",""time"":503},{""stimulus"":""img/red_ll/11.jpg"",""time"":551}]","[]"
"image-keyboard-response","68","80779","0.0-5.0-1.32","6340d2fa46f2d707e146b63b","bdp_lott","Mon Mar 27 2023 23:05:40 GMT-0400 (Eastern Daylight Time)","317647","red","green","","1211","","","","choice","","img/red_ll/choose11.jpg","1","193","green","0.5","0.5","0.5","w","",""
"animation","69","81384","0.0-5.0-2.32","6340d2fa46f2d707e146b63b","bdp_lott","Mon Mar 27 2023 23:05:40 GMT-0400 (Eastern Daylight Time)","317647","red","green","","","","","","","","","","193","","","","","","[{""stimulus"":""img/green_wl/1.jpg"",""time"":55},{""stimulus"":""img/green_wl/2.jpg"",""time"":103},{""stimulus"":""img/green_wl/3.jpg"",""time"":151},{""stimulus"":""img/green_wl/4.jpg"",""time"":208},{""stimulus"":""img/green_wl/5.jpg"",""time"":256},{""stimulus"":""img/green_wl/6.jpg"",""time"":304},{""stimulus"":""img/green_wl/7.jpg"",""time"":352},{""stimulus"":""img/green_wl/8.jpg"",""time"":402},{""stimulus"":""img/green_wl/9.jpg"",""time"":451},{""stimulus"":""img/green_wl/10.jpg"",""time"":500},{""stimulus"":""img/green_wl/11.jpg"",""time"":556}]","[]"
"image-keyboard-response","70","82268","0.0-5.0-1.33","6340d2fa46f2d707e146b63b","bdp_lott","Mon Mar 27 2023 23:05:40 GMT-0400 (Eastern Daylight Time)","317647","red","green","","883","","","","choice","","img/green_wl/choose11.jpg","1","192","green","0.5","0.5","0.5","w","",""
"animation","71","82876","0.0-5.0-2.33","6340d2fa46f2d707e146b63b","bdp_lott","Mon Mar 27 2023 23:05:40 GMT-0400 (Eastern Daylight Time)","317647","red","green","","","","","","","","","","192","","","","","","[{""stimulus"":""img/green_wl/1.jpg"",""time"":54},{""stimulus"":""img/green_wl/2.jpg"",""time"":102},{""stimulus"":""img/green_wl/3.jpg"",""time"":158},{""stimulus"":""img/green_wl/4.jpg"",""time"":206},{""stimulus"":""img/green_wl/5.jpg"",""time"":254},{""stimulus"":""img/green_wl/6.jpg"",""time"":303},{""stimulus"":""img/green_wl/7.jpg"",""time"":352},{""stimulus"":""img/green_wl/8.jpg"",""time"":408},{""stimulus"":""img/green_wl/9.jpg"",""time"":456},{""stimulus"":""img/green_wl/10.jpg"",""time"":504},{""stimulus"":""img/green_wl/11.jpg"",""time"":552}]","[]"
"image-keyboard-response","72","83507","0.0-5.0-1.34","6340d2fa46f2d707e146b63b","bdp_lott","Mon Mar 27 2023 23:05:40 GMT-0400 (Eastern Daylight Time)","317647","red","green","","630","","","","choice","","img/green_wl/choose11.jpg","1","191","green","0.5","0.5","0.5","l","",""
"animation","73","84111","0.0-5.0-2.34","6340d2fa46f2d707e146b63b","bdp_lott","Mon Mar 27 2023 23:05:40 GMT-0400 (Eastern Daylight Time)","317647","red","green","","","","","","","","","","191","","","","","","[{""stimulus"":""img/green_ll/1.jpg"",""time"":54},{""stimulus"":""img/green_ll/2.jpg"",""time"":103},{""stimulus"":""img/green_ll/3.jpg"",""time"":151},{""stimulus"":""img/green_ll/4.jpg"",""time"":215},{""stimulus"":""img/green_ll/5.jpg"",""time"":251},{""stimulus"":""img/green_ll/6.jpg"",""time"":307},{""stimulus"":""img/green_ll/7.jpg"",""time"":355},{""stimulus"":""img/green_ll/8.jpg"",""time"":404},{""stimulus"":""img/green_ll/9.jpg"",""time"":452},{""stimulus"":""img/green_ll/10.jpg"",""time"":508},{""stimulus"":""img/green_ll/11.jpg"",""time"":556}]","[]"
"image-keyboard-response","74","85607","0.0-5.0-1.35","6340d2fa46f2d707e146b63b","bdp_lott","Mon Mar 27 2023 23:05:40 GMT-0400 (Eastern Daylight Time)","317647","red","green","","1495","","","","choice","","img/green_ll/choose11.jpg","2","190","red","0.5","0.5","0.5","l","",""
"animation","75","86210","0.0-5.0-2.35","6340d2fa46f2d707e146b63b","bdp_lott","Mon Mar 27 2023 23:05:40 GMT-0400 (Eastern Daylight Time)","317647","red","green","","","","","","","","","","190","","","","","","[{""stimulus"":""img/red_ll/1.jpg"",""time"":57},{""stimulus"":""img/red_ll/2.jpg"",""time"":105},{""stimulus"":""img/red_ll/3.jpg"",""time"":154},{""stimulus"":""img/red_ll/4.jpg"",""time"":202},{""stimulus"":""img/red_ll/5.jpg"",""time"":258},{""stimulus"":""img/red_ll/6.jpg"",""time"":306},{""stimulus"":""img/red_ll/7.jpg"",""time"":354},{""stimulus"":""img/red_ll/8.jpg"",""time"":402},{""stimulus"":""img/red_ll/9.jpg"",""time"":451},{""stimulus"":""img/red_ll/10.jpg"",""time"":508},{""stimulus"":""img/red_ll/11.jpg"",""time"":556}]","[]"
"image-keyboard-response","76","87243","0.0-5.0-1.36","6340d2fa46f2d707e146b63b","bdp_lott","Mon Mar 27 2023 23:05:40 GMT-0400 (Eastern Daylight Time)","317647","red","green","","1032","","","","choice","","img/red_ll/choose11.jpg","2","189","red","0.5","0.5","0.5","w","",""
"animation","77","87848","0.0-5.0-2.36","6340d2fa46f2d707e146b63b","bdp_lott","Mon Mar 27 2023 23:05:40 GMT-0400 (Eastern Daylight Time)","317647","red","green","","","","","","","","","","189","","","","","","[{""stimulus"":""img/red_lw/1.jpg"",""time"":57},{""stimulus"":""img/red_lw/2.jpg"",""time"":107},{""stimulus"":""img/red_lw/3.jpg"",""time"":156},{""stimulus"":""img/red_lw/4.jpg"",""time"":204},{""stimulus"":""img/red_lw/5.jpg"",""time"":252},{""stimulus"":""img/red_lw/6.jpg"",""time"":308},{""stimulus"":""img/red_lw/7.jpg"",""time"":356},{""stimulus"":""img/red_lw/8.jpg"",""time"":406},{""stimulus"":""img/red_lw/9.jpg"",""time"":453},{""stimulus"":""img/red_lw/10.jpg"",""time"":502},{""stimulus"":""img/red_lw/11.jpg"",""time"":558}]","[]"
"image-keyboard-response","78","88592","0.0-5.0-1.37","6340d2fa46f2d707e146b63b","bdp_lott","Mon Mar 27 2023 23:05:40 GMT-0400 (Eastern Daylight Time)","317647","red","green","","742","","","","choice","","img/red_lw/choose11.jpg","2","188","red","0.5","0.5","0.5","w","",""
"animation","79","89198","0.0-5.0-2.37","6340d2fa46f2d707e146b63b","bdp_lott","Mon Mar 27 2023 23:05:40 GMT-0400 (Eastern Daylight Time)","317647","red","green","","","","","","","","","","188","","","","","","[{""stimulus"":""img/red_lw/1.jpg"",""time"":57},{""stimulus"":""img/red_lw/2.jpg"",""time"":107},{""stimulus"":""img/red_lw/3.jpg"",""time"":156},{""stimulus"":""img/red_lw/4.jpg"",""time"":204},{""stimulus"":""img/red_lw/5.jpg"",""time"":253},{""stimulus"":""img/red_lw/6.jpg"",""time"":301},{""stimulus"":""img/red_lw/7.jpg"",""time"":358},{""stimulus"":""img/red_lw/8.jpg"",""time"":406},{""stimulus"":""img/red_lw/9.jpg"",""time"":454},{""stimulus"":""img/red_lw/10.jpg"",""time"":502},{""stimulus"":""img/red_lw/11.jpg"",""time"":559}]","[]"
"image-keyboard-response","80","89941","0.0-5.0-1.38","6340d2fa46f2d707e146b63b","bdp_lott","Mon Mar 27 2023 23:05:40 GMT-0400 (Eastern Daylight Time)","317647","red","green","","741","","","","choice","","img/red_lw/choose11.jpg","2","187","red","0.5","0.5","0.5","w","",""
"animation","81","90549","0.0-5.0-2.38","6340d2fa46f2d707e146b63b","bdp_lott","Mon Mar 27 2023 23:05:40 GMT-0400 (Eastern Daylight Time)","317647","red","green","","","","","","","","","","187","","","","","","[{""stimulus"":""img/red_lw/1.jpg"",""time"":52},{""stimulus"":""img/red_lw/2.jpg"",""time"":100},{""stimulus"":""img/red_lw/3.jpg"",""time"":156},{""stimulus"":""img/red_lw/4.jpg"",""time"":213},{""stimulus"":""img/red_lw/5.jpg"",""time"":262},{""stimulus"":""img/red_lw/6.jpg"",""time"":310},{""stimulus"":""img/red_lw/7.jpg"",""time"":358},{""stimulus"":""img/red_lw/8.jpg"",""time"":407},{""stimulus"":""img/red_lw/9.jpg"",""time"":457},{""stimulus"":""img/red_lw/10.jpg"",""time"":513},{""stimulus"":""img/red_lw/11.jpg"",""time"":561}]","[]"
"image-keyboard-response","82","91446","0.0-5.0-1.39","6340d2fa46f2d707e146b63b","bdp_lott","Mon Mar 27 2023 23:05:40 GMT-0400 (Eastern Daylight Time)","317647","red","green","","896","","","","choice","","img/red_lw/choose11.jpg","2","186","red","0.5","0.5","0.5","l","",""
"animation","83","92051","0.0-5.0-2.39","6340d2fa46f2d707e146b63b","bdp_lott","Mon Mar 27 2023 23:05:40 GMT-0400 (Eastern Daylight Time)","317647","red","green","","","","","","","","","","186","","","","","","[{""stimulus"":""img/red_ll/1.jpg"",""time"":54},{""stimulus"":""img/red_ll/2.jpg"",""time"":106},{""stimulus"":""img/red_ll/3.jpg"",""time"":155},{""stimulus"":""img/red_ll/4.jpg"",""time"":203},{""stimulus"":""img/red_ll/5.jpg"",""time"":252},{""stimulus"":""img/red_ll/6.jpg"",""time"":308},{""stimulus"":""img/red_ll/7.jpg"",""time"":356},{""stimulus"":""img/red_ll/8.jpg"",""time"":404},{""stimulus"":""img/red_ll/9.jpg"",""time"":452},{""stimulus"":""img/red_ll/10.jpg"",""time"":502},{""stimulus"":""img/red_ll/11.jpg"",""time"":558}]","[]"
"image-keyboard-response","84","93459","0.0-5.0-1.40","6340d2fa46f2d707e146b63b","bdp_lott","Mon Mar 27 2023 23:05:40 GMT-0400 (Eastern Daylight Time)","317647","red","green","","1407","","","","choice","","img/red_ll/choose11.jpg","1","185","green","0.5","0.5","0.5","w","",""
"animation","85","94064","0.0-5.0-2.40","6340d2fa46f2d707e146b63b","bdp_lott","Mon Mar 27 2023 23:05:40 GMT-0400 (Eastern Daylight Time)","317647","red","green","","","","","","","","","","185","","","","","","[{""stimulus"":""img/green_wl/1.jpg"",""time"":56},{""stimulus"":""img/green_wl/2.jpg"",""time"":105},{""stimulus"":""img/green_wl/3.jpg"",""time"":155},{""stimulus"":""img/green_wl/4.jpg"",""time"":203},{""stimulus"":""img/green_wl/5.jpg"",""time"":251},{""stimulus"":""img/green_wl/6.jpg"",""time"":307},{""stimulus"":""img/green_wl/7.jpg"",""time"":355},{""stimulus"":""img/green_wl/8.jpg"",""time"":403},{""stimulus"":""img/green_wl/9.jpg"",""time"":459},{""stimulus"":""img/green_wl/10.jpg"",""time"":507},{""stimulus"":""img/green_wl/11.jpg"",""time"":555}]","[]"
"image-keyboard-response","86","94158","0.0-5.0-1.41","6340d2fa46f2d707e146b63b","bdp_lott","Mon Mar 27 2023 23:05:40 GMT-0400 (Eastern Daylight Time)","317647","red","green","","92","","","","choice","","img/green_wl/choose11.jpg","1","184","green","0.5","0.5","0.5","l","",""
"animation","87","94760","0.0-5.0-2.41","6340d2fa46f2d707e146b63b","bdp_lott","Mon Mar 27 2023 23:05:40 GMT-0400 (Eastern Daylight Time)","317647","red","green","","","","","","","","","","184","","","","","","[{""stimulus"":""img/green_ll/1.jpg"",""time"":52},{""stimulus"":""img/green_ll/2.jpg"",""time"":101},{""stimulus"":""img/green_ll/3.jpg"",""time"":157},{""stimulus"":""img/green_ll/4.jpg"",""time"":205},{""stimulus"":""img/green_ll/5.jpg"",""time"":255},{""stimulus"":""img/green_ll/6.jpg"",""time"":303},{""stimulus"":""img/green_ll/7.jpg"",""time"":351},{""stimulus"":""img/green_ll/8.jpg"",""time"":407},{""stimulus"":""img/green_ll/9.jpg"",""time"":455},{""stimulus"":""img/green_ll/10.jpg"",""time"":506},{""stimulus"":""img/green_ll/11.jpg"",""time"":562}]","[]"
"image-keyboard-response","88","95232","0.0-5.0-1.42","6340d2fa46f2d707e146b63b","bdp_lott","Mon Mar 27 2023 23:05:40 GMT-0400 (Eastern Daylight Time)","317647","red","green","","471","","","","choice","","img/green_ll/choose11.jpg","1","183","green","0.5","0.5","0.5","l","",""
"animation","89","95838","0.0-5.0-2.42","6340d2fa46f2d707e146b63b","bdp_lott","Mon Mar 27 2023 23:05:40 GMT-0400 (Eastern Daylight Time)","317647","red","green","","","","","","","","","","183","","","","","","[{""stimulus"":""img/green_ll/1.jpg"",""time"":58},{""stimulus"":""img/green_ll/2.jpg"",""time"":106},{""stimulus"":""img/green_ll/3.jpg"",""time"":157},{""stimulus"":""img/green_ll/4.jpg"",""time"":203},{""stimulus"":""img/green_ll/5.jpg"",""time"":254},{""stimulus"":""img/green_ll/6.jpg"",""time"":303},{""stimulus"":""img/green_ll/7.jpg"",""time"":352},{""stimulus"":""img/green_ll/8.jpg"",""time"":408},{""stimulus"":""img/green_ll/9.jpg"",""time"":461},{""stimulus"":""img/green_ll/10.jpg"",""time"":502},{""stimulus"":""img/green_ll/11.jpg"",""time"":557}]","[]"
"image-keyboard-response","90","96589","0.0-5.0-1.43","6340d2fa46f2d707e146b63b","bdp_lott","Mon Mar 27 2023 23:05:40 GMT-0400 (Eastern Daylight Time)","317647","red","green","","750","","","","choice","","img/green_ll/choose11.jpg","2","182","red","0.5","0.5","0.5","w","",""
"animation","91","97197","0.0-5.0-2.43","6340d2fa46f2d707e146b63b","bdp_lott","Mon Mar 27 2023 23:05:40 GMT-0400 (Eastern Daylight Time)","317647","red","green","","","","","","","","","","182","","","","","","[{""stimulus"":""img/red_lw/1.jpg"",""time"":55},{""stimulus"":""img/red_lw/2.jpg"",""time"":103},{""stimulus"":""img/red_lw/3.jpg"",""time"":152},{""stimulus"":""img/red_lw/4.jpg"",""time"":208},{""stimulus"":""img/red_lw/5.jpg"",""time"":256},{""stimulus"":""img/red_lw/6.jpg"",""time"":313},{""stimulus"":""img/red_lw/7.jpg"",""time"":353},{""stimulus"":""img/red_lw/8.jpg"",""time"":401},{""stimulus"":""img/red_lw/9.jpg"",""time"":457},{""stimulus"":""img/red_lw/10.jpg"",""time"":503},{""stimulus"":""img/red_lw/11.jpg"",""time"":551}]","[]"
"image-keyboard-response","92","97634","0.0-5.0-1.44","6340d2fa46f2d707e146b63b","bdp_lott","Mon Mar 27 2023 23:05:40 GMT-0400 (Eastern Daylight Time)","317647","red","green","","436","","","","choice","","img/red_lw/choose11.jpg","2","181","red","0.5","0.5","0.5","w","",""
"animation","93","98236","0.0-5.0-2.44","6340d2fa46f2d707e146b63b","bdp_lott","Mon Mar 27 2023 23:05:40 GMT-0400 (Eastern Daylight Time)","317647","red","green","","","","","","","","","","181","","","","","","[{""stimulus"":""img/red_lw/1.jpg"",""time"":55},{""stimulus"":""img/red_lw/2.jpg"",""time"":103},{""stimulus"":""img/red_lw/3.jpg"",""time"":151},{""stimulus"":""img/red_lw/4.jpg"",""time"":207},{""stimulus"":""img/red_lw/5.jpg"",""time"":255},{""stimulus"":""img/red_lw/6.jpg"",""time"":303},{""stimulus"":""img/red_lw/7.jpg"",""time"":351},{""stimulus"":""img/red_lw/8.jpg"",""time"":407},{""stimulus"":""img/red_lw/9.jpg"",""time"":455},{""stimulus"":""img/red_lw/10.jpg"",""time"":503},{""stimulus"":""img/red_lw/11.jpg"",""time"":551}]","[]"
"image-keyboard-response","94","99561","0.0-5.0-1.45","6340d2fa46f2d707e146b63b","bdp_lott","Mon Mar 27 2023 23:05:40 GMT-0400 (Eastern Daylight Time)","317647","red","green","","1324","","","","choice","","img/red_lw/choose11.jpg","2","180","red","0.5","0.5","0.5","l","",""
"animation","95","100166","0.0-5.0-2.45","6340d2fa46f2d707e146b63b","bdp_lott","Mon Mar 27 2023 23:05:40 GMT-0400 (Eastern Daylight Time)","317647","red","green","","","","","","","","","","180","","","","","","[{""stimulus"":""img/red_ll/1.jpg"",""time"":57},{""stimulus"":""img/red_ll/2.jpg"",""time"":106},{""stimulus"":""img/red_ll/3.jpg"",""time"":155},{""stimulus"":""img/red_ll/4.jpg"",""time"":205},{""stimulus"":""img/red_ll/5.jpg"",""time"":253},{""stimulus"":""img/red_ll/6.jpg"",""time"":309},{""stimulus"":""img/red_ll/7.jpg"",""time"":356},{""stimulus"":""img/red_ll/8.jpg"",""time"":404},{""stimulus"":""img/red_ll/9.jpg"",""time"":453},{""stimulus"":""img/red_ll/10.jpg"",""time"":501},{""stimulus"":""img/red_ll/11.jpg"",""time"":557}]","[]"
"image-keyboard-response","96","100790","0.0-5.0-1.46","6340d2fa46f2d707e146b63b","bdp_lott","Mon Mar 27 2023 23:05:40 GMT-0400 (Eastern Daylight Time)","317647","red","green","","623","","","","choice","","img/red_ll/choose11.jpg","1","179","green","0.5","0.5","0.5","w","",""
"animation","97","101392","0.0-5.0-2.46","6340d2fa46f2d707e146b63b","bdp_lott","Mon Mar 27 2023 23:05:40 GMT-0400 (Eastern Daylight Time)","317647","red","green","","","","","","","","","","179","","","","","","[{""stimulus"":""img/green_wl/1.jpg"",""time"":55},{""stimulus"":""img/green_wl/2.jpg"",""time"":103},{""stimulus"":""img/green_wl/3.jpg"",""time"":155},{""stimulus"":""img/green_wl/4.jpg"",""time"":203},{""stimulus"":""img/green_wl/5.jpg"",""time"":251},{""stimulus"":""img/green_wl/6.jpg"",""time"":308},{""stimulus"":""img/green_wl/7.jpg"",""time"":356},{""stimulus"":""img/green_wl/8.jpg"",""time"":405},{""stimulus"":""img/green_wl/9.jpg"",""time"":453},{""stimulus"":""img/green_wl/10.jpg"",""time"":503},{""stimulus"":""img/green_wl/11.jpg"",""time"":554}]","[]"
"image-keyboard-response","98","101834","0.0-5.0-1.47","6340d2fa46f2d707e146b63b","bdp_lott","Mon Mar 27 2023 23:05:40 GMT-0400 (Eastern Daylight Time)","317647","red","green","","440","","","","choice","","img/green_wl/choose11.jpg","1","178","green","0.5","0.5","0.5","l","",""
"animation","99","102440","0.0-5.0-2.47","6340d2fa46f2d707e146b63b","bdp_lott","Mon Mar 27 2023 23:05:40 GMT-0400 (Eastern Daylight Time)","317647","red","green","","","","","","","","","","178","","","","","","[{""stimulus"":""img/green_ll/1.jpg"",""time"":52},{""stimulus"":""img/green_ll/2.jpg"",""time"":101},{""stimulus"":""img/green_ll/3.jpg"",""time"":157},{""stimulus"":""img/green_ll/4.jpg"",""time"":205},{""stimulus"":""img/green_ll/5.jpg"",""time"":252},{""stimulus"":""img/green_ll/6.jpg"",""time"":305},{""stimulus"":""img/green_ll/7.jpg"",""time"":356},{""stimulus"":""img/green_ll/8.jpg"",""time"":405},{""stimulus"":""img/green_ll/9.jpg"",""time"":454},{""stimulus"":""img/green_ll/10.jpg"",""time"":502},{""stimulus"":""img/green_ll/11.jpg"",""time"":558}]","[]"
"image-keyboard-response","100","103486","0.0-5.0-1.48","6340d2fa46f2d707e146b63b","bdp_lott","Mon Mar 27 2023 23:05:40 GMT-0400 (Eastern Daylight Time)","317647","red","green","","1045","","","","choice","","img/green_ll/choose11.jpg","1","177","green","0.5","0.5","0.5","l","",""
"animation","101","104093","0.0-5.0-2.48","6340d2fa46f2d707e146b63b","bdp_lott","Mon Mar 27 2023 23:05:40 GMT-0400 (Eastern Daylight Time)","317647","red","green","","","","","","","","","","177","","","","","","[{""stimulus"":""img/green_ll/1.jpg"",""time"":53},{""stimulus"":""img/green_ll/2.jpg"",""time"":101},{""stimulus"":""img/green_ll/3.jpg"",""time"":157},{""stimulus"":""img/green_ll/4.jpg"",""time"":205},{""stimulus"":""img/green_ll/5.jpg"",""time"":253},{""stimulus"":""img/green_ll/6.jpg"",""time"":309},{""stimulus"":""img/green_ll/7.jpg"",""time"":358},{""stimulus"":""img/green_ll/8.jpg"",""time"":406},{""stimulus"":""img/green_ll/9.jpg"",""time"":454},{""stimulus"":""img/green_ll/10.jpg"",""time"":502},{""stimulus"":""img/green_ll/11.jpg"",""time"":551}]","[]"
"image-keyboard-response","102","104922","0.0-5.0-1.49","6340d2fa46f2d707e146b63b","bdp_lott","Mon Mar 27 2023 23:05:40 GMT-0400 (Eastern Daylight Time)","317647","red","green","","828","","","","choice","","img/green_ll/choose11.jpg","2","176","red","0.5","0.5","0.5","l","",""
"animation","103","105530","0.0-5.0-2.49","6340d2fa46f2d707e146b63b","bdp_lott","Mon Mar 27 2023 23:05:40 GMT-0400 (Eastern Daylight Time)","317647","red","green","","","","","","","","","","176","","","","","","[{""stimulus"":""img/red_ll/1.jpg"",""time"":57},{""stimulus"":""img/red_ll/2.jpg"",""time"":105},{""stimulus"":""img/red_ll/3.jpg"",""time"":153},{""stimulus"":""img/red_ll/4.jpg"",""time"":201},{""stimulus"":""img/red_ll/5.jpg"",""time"":257},{""stimulus"":""img/red_ll/6.jpg"",""time"":308},{""stimulus"":""img/red_ll/7.jpg"",""time"":356},{""stimulus"":""img/red_ll/8.jpg"",""time"":405},{""stimulus"":""img/red_ll/9.jpg"",""time"":454},{""stimulus"":""img/red_ll/10.jpg"",""time"":502},{""stimulus"":""img/red_ll/11.jpg"",""time"":558}]","[]"
"image-keyboard-response","104","105886","0.0-5.0-1.50","6340d2fa46f2d707e146b63b","bdp_lott","Mon Mar 27 2023 23:05:40 GMT-0400 (Eastern Daylight Time)","317647","red","green","","355","","","","choice","","img/red_ll/choose11.jpg","2","175","red","0.5","0.5","0.5","w","",""
"animation","105","106494","0.0-5.0-2.50","6340d2fa46f2d707e146b63b","bdp_lott","Mon Mar 27 2023 23:05:40 GMT-0400 (Eastern Daylight Time)","317647","red","green","","","","","","","","","","175","","","","","","[{""stimulus"":""img/red_lw/1.jpg"",""time"":53},{""stimulus"":""img/red_lw/2.jpg"",""time"":102},{""stimulus"":""img/red_lw/3.jpg"",""time"":151},{""stimulus"":""img/red_lw/4.jpg"",""time"":216},{""stimulus"":""img/red_lw/5.jpg"",""time"":256},{""stimulus"":""img/red_lw/6.jpg"",""time"":308},{""stimulus"":""img/red_lw/7.jpg"",""time"":357},{""stimulus"":""img/red_lw/8.jpg"",""time"":405},{""stimulus"":""img/red_lw/9.jpg"",""time"":454},{""stimulus"":""img/red_lw/10.jpg"",""time"":502},{""stimulus"":""img/red_lw/11.jpg"",""time"":551}]","[]"
"image-keyboard-response","106","107284","0.0-5.0-1.51","6340d2fa46f2d707e146b63b","bdp_lott","Mon Mar 27 2023 23:05:40 GMT-0400 (Eastern Daylight Time)","317647","red","green","","789","","","","choice","","img/red_lw/choose11.jpg","2","174","red","0.5","0.5","0.5","l","",""
"animation","107","107890","0.0-5.0-2.51","6340d2fa46f2d707e146b63b","bdp_lott","Mon Mar 27 2023 23:05:40 GMT-0400 (Eastern Daylight Time)","317647","red","green","","","","","","","","","","174","","","","","","[{""stimulus"":""img/red_ll/1.jpg"",""time"":57},{""stimulus"":""img/red_ll/2.jpg"",""time"":106},{""stimulus"":""img/red_ll/3.jpg"",""time"":154},{""stimulus"":""img/red_ll/4.jpg"",""time"":202},{""stimulus"":""img/red_ll/5.jpg"",""time"":258},{""stimulus"":""img/red_ll/6.jpg"",""time"":308},{""stimulus"":""img/red_ll/7.jpg"",""time"":356},{""stimulus"":""img/red_ll/8.jpg"",""time"":404},{""stimulus"":""img/red_ll/9.jpg"",""time"":452},{""stimulus"":""img/red_ll/10.jpg"",""time"":501},{""stimulus"":""img/red_ll/11.jpg"",""time"":557}]","[]"
"image-keyboard-response","108","108727","0.0-5.0-1.52","6340d2fa46f2d707e146b63b","bdp_lott","Mon Mar 27 2023 23:05:40 GMT-0400 (Eastern Daylight Time)","317647","red","green","","836","","","","choice","","img/red_ll/choose11.jpg","2","173","red","0.5","0.5","0.5","w","",""
"animation","109","109335","0.0-5.0-2.52","6340d2fa46f2d707e146b63b","bdp_lott","Mon Mar 27 2023 23:05:40 GMT-0400 (Eastern Daylight Time)","317647","red","green","","","","","","","","","","173","","","","","","[{""stimulus"":""img/red_lw/1.jpg"",""time"":57},{""stimulus"":""img/red_lw/2.jpg"",""time"":105},{""stimulus"":""img/red_lw/3.jpg"",""time"":153},{""stimulus"":""img/red_lw/4.jpg"",""time"":201},{""stimulus"":""img/red_lw/5.jpg"",""time"":258},{""stimulus"":""img/red_lw/6.jpg"",""time"":307},{""stimulus"":""img/red_lw/7.jpg"",""time"":358},{""stimulus"":""img/red_lw/8.jpg"",""time"":406},{""stimulus"":""img/red_lw/9.jpg"",""time"":456},{""stimulus"":""img/red_lw/10.jpg"",""time"":504},{""stimulus"":""img/red_lw/11.jpg"",""time"":552}]","[]"
"image-keyboard-response","110","109802","0.0-5.0-1.53","6340d2fa46f2d707e146b63b","bdp_lott","Mon Mar 27 2023 23:05:40 GMT-0400 (Eastern Daylight Time)","317647","red","green","","466","","","","choice","","img/red_lw/choose11.jpg","2","172","red","0.5","0.5","0.5","w","",""
"animation","111","110406","0.0-5.0-2.53","6340d2fa46f2d707e146b63b","bdp_lott","Mon Mar 27 2023 23:05:40 GMT-0400 (Eastern Daylight Time)","317647","red","green","","","","","","","","","","172","","","","","","[{""stimulus"":""img/red_lw/1.jpg"",""time"":52},{""stimulus"":""img/red_lw/2.jpg"",""time"":101},{""stimulus"":""img/red_lw/3.jpg"",""time"":157},{""stimulus"":""img/red_lw/4.jpg"",""time"":205},{""stimulus"":""img/red_lw/5.jpg"",""time"":253},{""stimulus"":""img/red_lw/6.jpg"",""time"":303},{""stimulus"":""img/red_lw/7.jpg"",""time"":351},{""stimulus"":""img/red_lw/8.jpg"",""time"":407},{""stimulus"":""img/red_lw/9.jpg"",""time"":455},{""stimulus"":""img/red_lw/10.jpg"",""time"":504},{""stimulus"":""img/red_lw/11.jpg"",""time"":556}]","[]"
"image-keyboard-response","112","110879","0.0-5.0-1.54","6340d2fa46f2d707e146b63b","bdp_lott","Mon Mar 27 2023 23:05:40 GMT-0400 (Eastern Daylight Time)","317647","red","green","","472","","","","choice","","img/red_lw/choose11.jpg","2","171","red","0.5","0.5","0.5","w","",""
"animation","113","111484","0.0-5.0-2.54","6340d2fa46f2d707e146b63b","bdp_lott","Mon Mar 27 2023 23:05:40 GMT-0400 (Eastern Daylight Time)","317647","red","green","","","","","","","","","","171","","","","","","[{""stimulus"":""img/red_lw/1.jpg"",""time"":57},{""stimulus"":""img/red_lw/2.jpg"",""time"":106},{""stimulus"":""img/red_lw/3.jpg"",""time"":154},{""stimulus"":""img/red_lw/4.jpg"",""time"":203},{""stimulus"":""img/red_lw/5.jpg"",""time"":251},{""stimulus"":""img/red_lw/6.jpg"",""time"":307},{""stimulus"":""img/red_lw/7.jpg"",""time"":355},{""stimulus"":""img/red_lw/8.jpg"",""time"":403},{""stimulus"":""img/red_lw/9.jpg"",""time"":451},{""stimulus"":""img/red_lw/10.jpg"",""time"":507},{""stimulus"":""img/red_lw/11.jpg"",""time"":555}]","[]"
"image-keyboard-response","114","111928","0.0-5.0-1.55","6340d2fa46f2d707e146b63b","bdp_lott","Mon Mar 27 2023 23:05:40 GMT-0400 (Eastern Daylight Time)","317647","red","green","","443","","","","choice","","img/red_lw/choose11.jpg","2","170","red","0.5","0.5","0.5","l","",""
"animation","115","112531","0.0-5.0-2.55","6340d2fa46f2d707e146b63b","bdp_lott","Mon Mar 27 2023 23:05:40 GMT-0400 (Eastern Daylight Time)","317647","red","green","","","","","","","","","","170","","","","","","[{""stimulus"":""img/red_ll/1.jpg"",""time"":51},{""stimulus"":""img/red_ll/2.jpg"",""time"":106},{""stimulus"":""img/red_ll/3.jpg"",""time"":152},{""stimulus"":""img/red_ll/4.jpg"",""time"":200},{""stimulus"":""img/red_ll/5.jpg"",""time"":257},{""stimulus"":""img/red_ll/6.jpg"",""time"":305},{""stimulus"":""img/red_ll/7.jpg"",""time"":353},{""stimulus"":""img/red_ll/8.jpg"",""time"":401},{""stimulus"":""img/red_ll/9.jpg"",""time"":457},{""stimulus"":""img/red_ll/10.jpg"",""time"":505},{""stimulus"":""img/red_ll/11.jpg"",""time"":555}]","[]"
"image-keyboard-response","116","113020","0.0-5.0-1.56","6340d2fa46f2d707e146b63b","bdp_lott","Mon Mar 27 2023 23:05:40 GMT-0400 (Eastern Daylight Time)","317647","red","green","","488","","","","choice","","img/red_ll/choose11.jpg","1","169","green","0.5","0.5","0.5","l","",""
"animation","117","113626","0.0-5.0-2.56","6340d2fa46f2d707e146b63b","bdp_lott","Mon Mar 27 2023 23:05:40 GMT-0400 (Eastern Daylight Time)","317647","red","green","","","","","","","","","","169","","","","","","[{""stimulus"":""img/green_ll/1.jpg"",""time"":53},{""stimulus"":""img/green_ll/2.jpg"",""time"":101},{""stimulus"":""img/green_ll/3.jpg"",""time"":157},{""stimulus"":""img/green_ll/4.jpg"",""time"":201},{""stimulus"":""img/green_ll/5.jpg"",""time"":253},{""stimulus"":""img/green_ll/6.jpg"",""time"":315},{""stimulus"":""img/green_ll/7.jpg"",""time"":355},{""stimulus"":""img/green_ll/8.jpg"",""time"":404},{""stimulus"":""img/green_ll/9.jpg"",""time"":452},{""stimulus"":""img/green_ll/10.jpg"",""time"":501},{""stimulus"":""img/green_ll/11.jpg"",""time"":557}]","[]"
"image-keyboard-response","118","114232","0.0-5.0-1.57","6340d2fa46f2d707e146b63b","bdp_lott","Mon Mar 27 2023 23:05:40 GMT-0400 (Eastern Daylight Time)","317647","red","green","","605","","","","choice","","img/green_ll/choose11.jpg","2","168","red","0.5","0.5","0.5","w","",""
"animation","119","114837","0.0-5.0-2.57","6340d2fa46f2d707e146b63b","bdp_lott","Mon Mar 27 2023 23:05:40 GMT-0400 (Eastern Daylight Time)","317647","red","green","","","","","","","","","","168","","","","","","[{""stimulus"":""img/red_lw/1.jpg"",""time"":59},{""stimulus"":""img/red_lw/2.jpg"",""time"":107},{""stimulus"":""img/red_lw/3.jpg"",""time"":155},{""stimulus"":""img/red_lw/4.jpg"",""time"":203},{""stimulus"":""img/red_lw/5.jpg"",""time"":253},{""stimulus"":""img/red_lw/6.jpg"",""time"":303},{""stimulus"":""img/red_lw/7.jpg"",""time"":351},{""stimulus"":""img/red_lw/8.jpg"",""time"":407},{""stimulus"":""img/red_lw/9.jpg"",""time"":455},{""stimulus"":""img/red_lw/10.jpg"",""time"":503},{""stimulus"":""img/red_lw/11.jpg"",""time"":556}]","[]"
"image-keyboard-response","120","115198","0.0-5.0-1.58","6340d2fa46f2d707e146b63b","bdp_lott","Mon Mar 27 2023 23:05:40 GMT-0400 (Eastern Daylight Time)","317647","red","green","","360","","","","choice","","img/red_lw/choose11.jpg","2","167","red","0.5","0.5","0.5","w","",""
"animation","121","115801","0.0-5.0-2.58","6340d2fa46f2d707e146b63b","bdp_lott","Mon Mar 27 2023 23:05:40 GMT-0400 (Eastern Daylight Time)","317647","red","green","","","","","","","","","","167","","","","","","[{""stimulus"":""img/red_lw/1.jpg"",""time"":54},{""stimulus"":""img/red_lw/2.jpg"",""time"":102},{""stimulus"":""img/red_lw/3.jpg"",""time"":158},{""stimulus"":""img/red_lw/4.jpg"",""time"":208},{""stimulus"":""img/red_lw/5.jpg"",""time"":256},{""stimulus"":""img/red_lw/6.jpg"",""time"":307},{""stimulus"":""img/red_lw/7.jpg"",""time"":355},{""stimulus"":""img/red_lw/8.jpg"",""time"":404},{""stimulus"":""img/red_lw/9.jpg"",""time"":451},{""stimulus"":""img/red_lw/10.jpg"",""time"":507},{""stimulus"":""img/red_lw/11.jpg"",""time"":555}]","[]"
"image-keyboard-response","122","116216","0.0-5.0-1.59","6340d2fa46f2d707e146b63b","bdp_lott","Mon Mar 27 2023 23:05:40 GMT-0400 (Eastern Daylight Time)","317647","red","green","","414","","","","choice","","img/red_lw/choose11.jpg","2","166","red","0.5","0.5","0.5","w","",""
"animation","123","116817","0.0-5.0-2.59","6340d2fa46f2d707e146b63b","bdp_lott","Mon Mar 27 2023 23:05:40 GMT-0400 (Eastern Daylight Time)","317647","red","green","","","","","","","","","","166","","","","","","[{""stimulus"":""img/red_lw/1.jpg"",""time"":56},{""stimulus"":""img/red_lw/2.jpg"",""time"":104},{""stimulus"":""img/red_lw/3.jpg"",""time"":153},{""stimulus"":""img/red_lw/4.jpg"",""time"":202},{""stimulus"":""img/red_lw/5.jpg"",""time"":258},{""stimulus"":""img/red_lw/6.jpg"",""time"":306},{""stimulus"":""img/red_lw/7.jpg"",""time"":354},{""stimulus"":""img/red_lw/8.jpg"",""time"":402},{""stimulus"":""img/red_lw/9.jpg"",""time"":452},{""stimulus"":""img/red_lw/10.jpg"",""time"":508},{""stimulus"":""img/red_lw/11.jpg"",""time"":553}]","[]"
"image-keyboard-response","124","117363","0.0-5.0-1.60","6340d2fa46f2d707e146b63b","bdp_lott","Mon Mar 27 2023 23:05:40 GMT-0400 (Eastern Daylight Time)","317647","red","green","","545","","","","choice","","img/red_lw/choose11.jpg","2","165","red","0.5","0.5","0.5","w","",""
"animation","125","117971","0.0-5.0-2.60","6340d2fa46f2d707e146b63b","bdp_lott","Mon Mar 27 2023 23:05:40 GMT-0400 (Eastern Daylight Time)","317647","red","green","","","","","","","","","","165","","","","","","[{""stimulus"":""img/red_lw/1.jpg"",""time"":58},{""stimulus"":""img/red_lw/2.jpg"",""time"":106},{""stimulus"":""img/red_lw/3.jpg"",""time"":154},{""stimulus"":""img/red_lw/4.jpg"",""time"":202},{""stimulus"":""img/red_lw/5.jpg"",""time"":258},{""stimulus"":""img/red_lw/6.jpg"",""time"":306},{""stimulus"":""img/red_lw/7.jpg"",""time"":354},{""stimulus"":""img/red_lw/8.jpg"",""time"":402},{""stimulus"":""img/red_lw/9.jpg"",""time"":453},{""stimulus"":""img/red_lw/10.jpg"",""time"":501},{""stimulus"":""img/red_lw/11.jpg"",""time"":558}]","[]"
"image-keyboard-response","126","118393","0.0-5.0-1.61","6340d2fa46f2d707e146b63b","bdp_lott","Mon Mar 27 2023 23:05:40 GMT-0400 (Eastern Daylight Time)","317647","red","green","","421","","","","choice","","img/red_lw/choose11.jpg","2","164","red","0.5","0.5","0.5","l","",""
"animation","127","118996","0.0-5.0-2.61","6340d2fa46f2d707e146b63b","bdp_lott","Mon Mar 27 2023 23:05:40 GMT-0400 (Eastern Daylight Time)","317647","red","green","","","","","","","","","","164","","","","","","[{""stimulus"":""img/red_ll/1.jpg"",""time"":51},{""stimulus"":""img/red_ll/2.jpg"",""time"":107},{""stimulus"":""img/red_ll/3.jpg"",""time"":156},{""stimulus"":""img/red_ll/4.jpg"",""time"":204},{""stimulus"":""img/red_ll/5.jpg"",""time"":257},{""stimulus"":""img/red_ll/6.jpg"",""time"":305},{""stimulus"":""img/red_ll/7.jpg"",""time"":355},{""stimulus"":""img/red_ll/8.jpg"",""time"":403},{""stimulus"":""img/red_ll/9.jpg"",""time"":451},{""stimulus"":""img/red_ll/10.jpg"",""time"":507},{""stimulus"":""img/red_ll/11.jpg"",""time"":555}]","[]"
"image-keyboard-response","128","119878","0.0-5.0-1.62","6340d2fa46f2d707e146b63b","bdp_lott","Mon Mar 27 2023 23:05:40 GMT-0400 (Eastern Daylight Time)","317647","red","green","","881","","","","choice","","img/red_ll/choose11.jpg","2","163","red","0.5","0.5","0.5","w","",""
"animation","129","120484","0.0-5.0-2.62","6340d2fa46f2d707e146b63b","bdp_lott","Mon Mar 27 2023 23:05:40 GMT-0400 (Eastern Daylight Time)","317647","red","green","","","","","","","","","","163","","","","","","[{""stimulus"":""img/red_lw/1.jpg"",""time"":52},{""stimulus"":""img/red_lw/2.jpg"",""time"":102},{""stimulus"":""img/red_lw/3.jpg"",""time"":157},{""stimulus"":""img/red_lw/4.jpg"",""time"":207},{""stimulus"":""img/red_lw/5.jpg"",""time"":256},{""stimulus"":""img/red_lw/6.jpg"",""time"":306},{""stimulus"":""img/red_lw/7.jpg"",""time"":354},{""stimulus"":""img/red_lw/8.jpg"",""time"":402},{""stimulus"":""img/red_lw/9.jpg"",""time"":459},{""stimulus"":""img/red_lw/10.jpg"",""time"":507},{""stimulus"":""img/red_lw/11.jpg"",""time"":556}]","[]"
"image-keyboard-response","130","120984","0.0-5.0-1.63","6340d2fa46f2d707e146b63b","bdp_lott","Mon Mar 27 2023 23:05:40 GMT-0400 (Eastern Daylight Time)","317647","red","green","","499","","","","choice","","img/red_lw/choose11.jpg","2","162","red","0.5","0.5","0.5","l","",""
"animation","131","121593","0.0-5.0-2.63","6340d2fa46f2d707e146b63b","bdp_lott","Mon Mar 27 2023 23:05:40 GMT-0400 (Eastern Daylight Time)","317647","red","green","","","","","","","","","","162","","","","","","[{""stimulus"":""img/red_ll/1.jpg"",""time"":54},{""stimulus"":""img/red_ll/2.jpg"",""time"":102},{""stimulus"":""img/red_ll/3.jpg"",""time"":151},{""stimulus"":""img/red_ll/4.jpg"",""time"":207},{""stimulus"":""img/red_ll/5.jpg"",""time"":251},{""stimulus"":""img/red_ll/6.jpg"",""time"":307},{""stimulus"":""img/red_ll/7.jpg"",""time"":352},{""stimulus"":""img/red_ll/8.jpg"",""time"":408},{""stimulus"":""img/red_ll/9.jpg"",""time"":456},{""stimulus"":""img/red_ll/10.jpg"",""time"":504},{""stimulus"":""img/red_ll/11.jpg"",""time"":552}]","[]"
"image-keyboard-response","132","121871","0.0-5.0-1.64","6340d2fa46f2d707e146b63b","bdp_lott","Mon Mar 27 2023 23:05:40 GMT-0400 (Eastern Daylight Time)","317647","red","green","","277","","","","choice","","img/red_ll/choose11.jpg","2","161","red","0.5","0.5","0.5","l","",""
"animation","133","122476","0.0-5.0-2.64","6340d2fa46f2d707e146b63b","bdp_lott","Mon Mar 27 2023 23:05:40 GMT-0400 (Eastern Daylight Time)","317647","red","green","","","","","","","","","","161","","","","","","[{""stimulus"":""img/red_ll/1.jpg"",""time"":57},{""stimulus"":""img/red_ll/2.jpg"",""time"":106},{""stimulus"":""img/red_ll/3.jpg"",""time"":154},{""stimulus"":""img/red_ll/4.jpg"",""time"":203},{""stimulus"":""img/red_ll/5.jpg"",""time"":258},{""stimulus"":""img/red_ll/6.jpg"",""time"":306},{""stimulus"":""img/red_ll/7.jpg"",""time"":354},{""stimulus"":""img/red_ll/8.jpg"",""time"":402},{""stimulus"":""img/red_ll/9.jpg"",""time"":458},{""stimulus"":""img/red_ll/10.jpg"",""time"":507},{""stimulus"":""img/red_ll/11.jpg"",""time"":555}]","[]"
"image-keyboard-response","134","122819","0.0-5.0-1.65","6340d2fa46f2d707e146b63b","bdp_lott","Mon Mar 27 2023 23:05:40 GMT-0400 (Eastern Daylight Time)","317647","red","green","","342","","","","choice","","img/red_ll/choose11.jpg","1","160","green","0.5","0.5","0.5","l","",""
"animation","135","123420","0.0-5.0-2.65","6340d2fa46f2d707e146b63b","bdp_lott","Mon Mar 27 2023 23:05:40 GMT-0400 (Eastern Daylight Time)","317647","red","green","","","","","","","","","","160","","","","","","[{""stimulus"":""img/green_ll/1.jpg"",""time"":60},{""stimulus"":""img/green_ll/2.jpg"",""time"":102},{""stimulus"":""img/green_ll/3.jpg"",""time"":150},{""stimulus"":""img/green_ll/4.jpg"",""time"":207},{""stimulus"":""img/green_ll/5.jpg"",""time"":255},{""stimulus"":""img/green_ll/6.jpg"",""time"":303},{""stimulus"":""img/green_ll/7.jpg"",""time"":351},{""stimulus"":""img/green_ll/8.jpg"",""time"":407},{""stimulus"":""img/green_ll/9.jpg"",""time"":463},{""stimulus"":""img/green_ll/10.jpg"",""time"":505},{""stimulus"":""img/green_ll/11.jpg"",""time"":553}]","[]"
"image-keyboard-response","136","123885","0.0-5.0-1.66","6340d2fa46f2d707e146b63b","bdp_lott","Mon Mar 27 2023 23:05:40 GMT-0400 (Eastern Daylight Time)","317647","red","green","","464","","","","choice","","img/green_ll/choose11.jpg","1","159","green","0.5","0.5","0.5","w","",""
"animation","137","124486","0.0-5.0-2.66","6340d2fa46f2d707e146b63b","bdp_lott","Mon Mar 27 2023 23:05:40 GMT-0400 (Eastern Daylight Time)","317647","red","green","","","","","","","","","","159","","","","","","[{""stimulus"":""img/green_wl/1.jpg"",""time"":51},{""stimulus"":""img/green_wl/2.jpg"",""time"":115},{""stimulus"":""img/green_wl/3.jpg"",""time"":155},{""stimulus"":""img/green_wl/4.jpg"",""time"":203},{""stimulus"":""img/green_wl/5.jpg"",""time"":251},{""stimulus"":""img/green_wl/6.jpg"",""time"":307},{""stimulus"":""img/green_wl/7.jpg"",""time"":356},{""stimulus"":""img/green_wl/8.jpg"",""time"":405},{""stimulus"":""img/green_wl/9.jpg"",""time"":453},{""stimulus"":""img/green_wl/10.jpg"",""time"":505},{""stimulus"":""img/green_wl/11.jpg"",""time"":553}]","[]"
"image-keyboard-response","138","124911","0.0-5.0-1.67","6340d2fa46f2d707e146b63b","bdp_lott","Mon Mar 27 2023 23:05:40 GMT-0400 (Eastern Daylight Time)","317647","red","green","","423","","","","choice","","img/green_wl/choose11.jpg","1","158","green","0.5","0.5","0.5","l","",""
"animation","139","125516","0.0-5.0-2.67","6340d2fa46f2d707e146b63b","bdp_lott","Mon Mar 27 2023 23:05:40 GMT-0400 (Eastern Daylight Time)","317647","red","green","","","","","","","","","","158","","","","","","[{""stimulus"":""img/green_ll/1.jpg"",""time"":57},{""stimulus"":""img/green_ll/2.jpg"",""time"":105},{""stimulus"":""img/green_ll/3.jpg"",""time"":152},{""stimulus"":""img/green_ll/4.jpg"",""time"":209},{""stimulus"":""img/green_ll/5.jpg"",""time"":257},{""stimulus"":""img/green_ll/6.jpg"",""time"":305},{""stimulus"":""img/green_ll/7.jpg"",""time"":352},{""stimulus"":""img/green_ll/8.jpg"",""time"":408},{""stimulus"":""img/green_ll/9.jpg"",""time"":462},{""stimulus"":""img/green_ll/10.jpg"",""time"":511},{""stimulus"":""img/green_ll/11.jpg"",""time"":556}]","[]"
"image-keyboard-response","140","126416","0.0-5.0-1.68","6340d2fa46f2d707e146b63b","bdp_lott","Mon Mar 27 2023 23:05:40 GMT-0400 (Eastern Daylight Time)","317647","red","green","","896","","","","choice","","img/green_ll/choose11.jpg","2","157","red","0.5","0.5","0.5","l","",""
"animation","141","127020","0.0-5.0-2.68","6340d2fa46f2d707e146b63b","bdp_lott","Mon Mar 27 2023 23:05:40 GMT-0400 (Eastern Daylight Time)","317647","red","green","","","","","","","","","","157","","","","","","[{""stimulus"":""img/red_ll/1.jpg"",""time"":57},{""stimulus"":""img/red_ll/2.jpg"",""time"":106},{""stimulus"":""img/red_ll/3.jpg"",""time"":154},{""stimulus"":""img/red_ll/4.jpg"",""time"":202},{""stimulus"":""img/red_ll/5.jpg"",""time"":258},{""stimulus"":""img/red_ll/6.jpg"",""time"":307},{""stimulus"":""img/red_ll/7.jpg"",""time"":355},{""stimulus"":""img/red_ll/8.jpg"",""time"":403},{""stimulus"":""img/red_ll/9.jpg"",""time"":465},{""stimulus"":""img/red_ll/10.jpg"",""time"":505},{""stimulus"":""img/red_ll/11.jpg"",""time"":555}]","[]"
"image-keyboard-response","142","127209","0.0-5.0-1.69","6340d2fa46f2d707e146b63b","bdp_lott","Mon Mar 27 2023 23:05:40 GMT-0400 (Eastern Daylight Time)","317647","red","green","","188","","","","choice","","img/red_ll/choose11.jpg","2","156","red","0.5","0.5","0.5","l","",""
"animation","143","127814","0.0-5.0-2.69","6340d2fa46f2d707e146b63b","bdp_lott","Mon Mar 27 2023 23:05:40 GMT-0400 (Eastern Daylight Time)","317647","red","green","","","","","","","","","","156","","","","","","[{""stimulus"":""img/red_ll/1.jpg"",""time"":54},{""stimulus"":""img/red_ll/2.jpg"",""time"":107},{""stimulus"":""img/red_ll/3.jpg"",""time"":156},{""stimulus"":""img/red_ll/4.jpg"",""time"":207},{""stimulus"":""img/red_ll/5.jpg"",""time"":255},{""stimulus"":""img/red_ll/6.jpg"",""time"":303},{""stimulus"":""img/red_ll/7.jpg"",""time"":351},{""stimulus"":""img/red_ll/8.jpg"",""time"":407},{""stimulus"":""img/red_ll/9.jpg"",""time"":455},{""stimulus"":""img/red_ll/10.jpg"",""time"":504},{""stimulus"":""img/red_ll/11.jpg"",""time"":554}]","[]"
"image-keyboard-response","144","128309","0.0-5.0-1.70","6340d2fa46f2d707e146b63b","bdp_lott","Mon Mar 27 2023 23:05:40 GMT-0400 (Eastern Daylight Time)","317647","red","green","","494","","","","choice","","img/red_ll/choose11.jpg","1","155","green","0.5","0.5","0.5","l","",""
"animation","145","128917","0.0-5.0-2.70","6340d2fa46f2d707e146b63b","bdp_lott","Mon Mar 27 2023 23:05:40 GMT-0400 (Eastern Daylight Time)","317647","red","green","","","","","","","","","","155","","","","","","[{""stimulus"":""img/green_ll/1.jpg"",""time"":54},{""stimulus"":""img/green_ll/2.jpg"",""time"":106},{""stimulus"":""img/green_ll/3.jpg"",""time"":155},{""stimulus"":""img/green_ll/4.jpg"",""time"":205},{""stimulus"":""img/green_ll/5.jpg"",""time"":255},{""stimulus"":""img/green_ll/6.jpg"",""time"":303},{""stimulus"":""img/green_ll/7.jpg"",""time"":356},{""stimulus"":""img/green_ll/8.jpg"",""time"":404},{""stimulus"":""img/green_ll/9.jpg"",""time"":452},{""stimulus"":""img/green_ll/10.jpg"",""time"":509},{""stimulus"":""img/green_ll/11.jpg"",""time"":557}]","[]"
"image-keyboard-response","146","129346","0.0-5.0-1.71","6340d2fa46f2d707e146b63b","bdp_lott","Mon Mar 27 2023 23:05:40 GMT-0400 (Eastern Daylight Time)","317647","red","green","","428","","","","choice","","img/green_ll/choose11.jpg","1","154","green","0.5","0.5","0.5","w","",""
"animation","147","129952","0.0-5.0-2.71","6340d2fa46f2d707e146b63b","bdp_lott","Mon Mar 27 2023 23:05:40 GMT-0400 (Eastern Daylight Time)","317647","red","green","","","","","","","","","","154","","","","","","[{""stimulus"":""img/green_wl/1.jpg"",""time"":54},{""stimulus"":""img/green_wl/2.jpg"",""time"":102},{""stimulus"":""img/green_wl/3.jpg"",""time"":158},{""stimulus"":""img/green_wl/4.jpg"",""time"":206},{""stimulus"":""img/green_wl/5.jpg"",""time"":254},{""stimulus"":""img/green_wl/6.jpg"",""time"":302},{""stimulus"":""img/green_wl/7.jpg"",""time"":358},{""stimulus"":""img/green_wl/8.jpg"",""time"":406},{""stimulus"":""img/green_wl/9.jpg"",""time"":453},{""stimulus"":""img/green_wl/10.jpg"",""time"":508},{""stimulus"":""img/green_wl/11.jpg"",""time"":551}]","[]"
"image-keyboard-response","148","130438","0.0-5.0-1.72","6340d2fa46f2d707e146b63b","bdp_lott","Mon Mar 27 2023 23:05:40 GMT-0400 (Eastern Daylight Time)","317647","red","green","","485","","","","choice","","img/green_wl/choose11.jpg","1","153","green","0.5","0.5","0.5","l","",""
"animation","149","131044","0.0-5.0-2.72","6340d2fa46f2d707e146b63b","bdp_lott","Mon Mar 27 2023 23:05:40 GMT-0400 (Eastern Daylight Time)","317647","red","green","","","","","","","","","","153","","","","","","[{""stimulus"":""img/green_ll/1.jpg"",""time"":53},{""stimulus"":""img/green_ll/2.jpg"",""time"":101},{""stimulus"":""img/green_ll/3.jpg"",""time"":158},{""stimulus"":""img/green_ll/4.jpg"",""time"":206},{""stimulus"":""img/green_ll/5.jpg"",""time"":254},{""stimulus"":""img/green_ll/6.jpg"",""time"":302},{""stimulus"":""img/green_ll/7.jpg"",""time"":358},{""stimulus"":""img/green_ll/8.jpg"",""time"":406},{""stimulus"":""img/green_ll/9.jpg"",""time"":458},{""stimulus"":""img/green_ll/10.jpg"",""time"":506},{""stimulus"":""img/green_ll/11.jpg"",""time"":559}]","[]"
"image-keyboard-response","150","131607","0.0-5.0-1.73","6340d2fa46f2d707e146b63b","bdp_lott","Mon Mar 27 2023 23:05:40 GMT-0400 (Eastern Daylight Time)","317647","red","green","","562","","","","choice","","img/green_ll/choose11.jpg","1","152","green","0.5","0.5","0.5","w","",""
"animation","151","132214","0.0-5.0-2.73","6340d2fa46f2d707e146b63b","bdp_lott","Mon Mar 27 2023 23:05:40 GMT-0400 (Eastern Daylight Time)","317647","red","green","","","","","","","","","","152","","","","","","[{""stimulus"":""img/green_wl/1.jpg"",""time"":55},{""stimulus"":""img/green_wl/2.jpg"",""time"":103},{""stimulus"":""img/green_wl/3.jpg"",""time"":151},{""stimulus"":""img/green_wl/4.jpg"",""time"":207},{""stimulus"":""img/green_wl/5.jpg"",""time"":255},{""stimulus"":""img/green_wl/6.jpg"",""time"":301},{""stimulus"":""img/green_wl/7.jpg"",""time"":358},{""stimulus"":""img/green_wl/8.jpg"",""time"":405},{""stimulus"":""img/green_wl/9.jpg"",""time"":454},{""stimulus"":""img/green_wl/10.jpg"",""time"":502},{""stimulus"":""img/green_wl/11.jpg"",""time"":551}]","[]"
"image-keyboard-response","152","132657","0.0-5.0-1.74","6340d2fa46f2d707e146b63b","bdp_lott","Mon Mar 27 2023 23:05:40 GMT-0400 (Eastern Daylight Time)","317647","red","green","","442","","","","choice","","img/green_wl/choose11.jpg","1","151","green","0.5","0.5","0.5","w","",""
"animation","153","133265","0.0-5.0-2.74","6340d2fa46f2d707e146b63b","bdp_lott","Mon Mar 27 2023 23:05:40 GMT-0400 (Eastern Daylight Time)","317647","red","green","","","","","","","","","","151","","","","","","[{""stimulus"":""img/green_wl/1.jpg"",""time"":56},{""stimulus"":""img/green_wl/2.jpg"",""time"":104},{""stimulus"":""img/green_wl/3.jpg"",""time"":152},{""stimulus"":""img/green_wl/4.jpg"",""time"":207},{""stimulus"":""img/green_wl/5.jpg"",""time"":263},{""stimulus"":""img/green_wl/6.jpg"",""time"":303},{""stimulus"":""img/green_wl/7.jpg"",""time"":351},{""stimulus"":""img/green_wl/8.jpg"",""time"":415},{""stimulus"":""img/green_wl/9.jpg"",""time"":455},{""stimulus"":""img/green_wl/10.jpg"",""time"":503},{""stimulus"":""img/green_wl/11.jpg"",""time"":551}]","[]"
"image-keyboard-response","154","133673","0.0-5.0-1.75","6340d2fa46f2d707e146b63b","bdp_lott","Mon Mar 27 2023 23:05:40 GMT-0400 (Eastern Daylight Time)","317647","red","green","","406","","","","choice","","img/green_wl/choose11.jpg","1","150","green","0.5","0.5","0.5","l","",""
"animation","155","134274","0.0-5.0-2.75","6340d2fa46f2d707e146b63b","bdp_lott","Mon Mar 27 2023 23:05:40 GMT-0400 (Eastern Daylight Time)","317647","red","green","","","","","","","","","","150","","","","","","[{""stimulus"":""img/green_ll/1.jpg"",""time"":53},{""stimulus"":""img/green_ll/2.jpg"",""time"":101},{""stimulus"":""img/green_ll/3.jpg"",""time"":157},{""stimulus"":""img/green_ll/4.jpg"",""time"":205},{""stimulus"":""img/green_ll/5.jpg"",""time"":254},{""stimulus"":""img/green_ll/6.jpg"",""time"":304},{""stimulus"":""img/green_ll/7.jpg"",""time"":352},{""stimulus"":""img/green_ll/8.jpg"",""time"":401},{""stimulus"":""img/green_ll/9.jpg"",""time"":457},{""stimulus"":""img/green_ll/10.jpg"",""time"":505},{""stimulus"":""img/green_ll/11.jpg"",""time"":553}]","[]"
"image-keyboard-response","156","134792","0.0-5.0-1.76","6340d2fa46f2d707e146b63b","bdp_lott","Mon Mar 27 2023 23:05:40 GMT-0400 (Eastern Daylight Time)","317647","red","green","","517","","","","choice","","img/green_ll/choose11.jpg","1","149","green","0.5","0.1","0.1","l","",""
"animation","157","135401","0.0-5.0-2.76","6340d2fa46f2d707e146b63b","bdp_lott","Mon Mar 27 2023 23:05:40 GMT-0400 (Eastern Daylight Time)","317647","red","green","","","","","","","","","","149","","","","","","[{""stimulus"":""img/green_ll/1.jpg"",""time"":58},{""stimulus"":""img/green_ll/2.jpg"",""time"":106},{""stimulus"":""img/green_ll/3.jpg"",""time"":153},{""stimulus"":""img/green_ll/4.jpg"",""time"":205},{""stimulus"":""img/green_ll/5.jpg"",""time"":253},{""stimulus"":""img/green_ll/6.jpg"",""time"":303},{""stimulus"":""img/green_ll/7.jpg"",""time"":351},{""stimulus"":""img/green_ll/8.jpg"",""time"":407},{""stimulus"":""img/green_ll/9.jpg"",""time"":456},{""stimulus"":""img/green_ll/10.jpg"",""time"":504},{""stimulus"":""img/green_ll/11.jpg"",""time"":552}]","[]"
"image-keyboard-response","158","136449","0.0-5.0-1.77","6340d2fa46f2d707e146b63b","bdp_lott","Mon Mar 27 2023 23:05:40 GMT-0400 (Eastern Daylight Time)","317647","red","green","","1047","","","","choice","","img/green_ll/choose11.jpg","2","148","red","0.5","0.1","0.5","w","",""
"animation","159","137052","0.0-5.0-2.77","6340d2fa46f2d707e146b63b","bdp_lott","Mon Mar 27 2023 23:05:40 GMT-0400 (Eastern Daylight Time)","317647","red","green","","","","","","","","","","148","","","","","","[{""stimulus"":""img/red_lw/1.jpg"",""time"":55},{""stimulus"":""img/red_lw/2.jpg"",""time"":107},{""stimulus"":""img/red_lw/3.jpg"",""time"":155},{""stimulus"":""img/red_lw/4.jpg"",""time"":207},{""stimulus"":""img/red_lw/5.jpg"",""time"":255},{""stimulus"":""img/red_lw/6.jpg"",""time"":303},{""stimulus"":""img/red_lw/7.jpg"",""time"":352},{""stimulus"":""img/red_lw/8.jpg"",""time"":404},{""stimulus"":""img/red_lw/9.jpg"",""time"":452},{""stimulus"":""img/red_lw/10.jpg"",""time"":506},{""stimulus"":""img/red_lw/11.jpg"",""time"":554}]","[]"
"image-keyboard-response","160","137550","0.0-5.0-1.78","6340d2fa46f2d707e146b63b","bdp_lott","Mon Mar 27 2023 23:05:40 GMT-0400 (Eastern Daylight Time)","317647","red","green","","497","","","","choice","","img/red_lw/choose11.jpg","2","147","red","0.5","0.1","0.5","w","",""
"animation","161","138155","0.0-5.0-2.78","6340d2fa46f2d707e146b63b","bdp_lott","Mon Mar 27 2023 23:05:40 GMT-0400 (Eastern Daylight Time)","317647","red","green","","","","","","","","","","147","","","","","","[{""stimulus"":""img/red_lw/1.jpg"",""time"":51},{""stimulus"":""img/red_lw/2.jpg"",""time"":107},{""stimulus"":""img/red_lw/3.jpg"",""time"":155},{""stimulus"":""img/red_lw/4.jpg"",""time"":205},{""stimulus"":""img/red_lw/5.jpg"",""time"":253},{""stimulus"":""img/red_lw/6.jpg"",""time"":301},{""stimulus"":""img/red_lw/7.jpg"",""time"":356},{""stimulus"":""img/red_lw/8.jpg"",""time"":404},{""stimulus"":""img/red_lw/9.jpg"",""time"":453},{""stimulus"":""img/red_lw/10.jpg"",""time"":500},{""stimulus"":""img/red_lw/11.jpg"",""time"":557}]","[]"
"image-keyboard-response","162","138558","0.0-5.0-1.79","6340d2fa46f2d707e146b63b","bdp_lott","Mon Mar 27 2023 23:05:40 GMT-0400 (Eastern Daylight Time)","317647","red","green","","402","","","","choice","","img/red_lw/choose11.jpg","2","146","red","0.5","0.1","0.5","w","",""
"animation","163","139162","0.0-5.0-2.79","6340d2fa46f2d707e146b63b","bdp_lott","Mon Mar 27 2023 23:05:40 GMT-0400 (Eastern Daylight Time)","317647","red","green","","","","","","","","","","146","","","","","","[{""stimulus"":""img/red_lw/1.jpg"",""time"":54},{""stimulus"":""img/red_lw/2.jpg"",""time"":102},{""stimulus"":""img/red_lw/3.jpg"",""time"":158},{""stimulus"":""img/red_lw/4.jpg"",""time"":206},{""stimulus"":""img/red_lw/5.jpg"",""time"":255},{""stimulus"":""img/red_lw/6.jpg"",""time"":303},{""stimulus"":""img/red_lw/7.jpg"",""time"":351},{""stimulus"":""img/red_lw/8.jpg"",""time"":407},{""stimulus"":""img/red_lw/9.jpg"",""time"":455},{""stimulus"":""img/red_lw/10.jpg"",""time"":507},{""stimulus"":""img/red_lw/11.jpg"",""time"":555}]","[]"
"image-keyboard-response","164","139513","0.0-5.0-1.80","6340d2fa46f2d707e146b63b","bdp_lott","Mon Mar 27 2023 23:05:40 GMT-0400 (Eastern Daylight Time)","317647","red","green","","350","","","","choice","","img/red_lw/choose11.jpg","2","145","red","0.5","0.1","0.5","w","",""
"animation","165","140115","0.0-5.0-2.80","6340d2fa46f2d707e146b63b","bdp_lott","Mon Mar 27 2023 23:05:40 GMT-0400 (Eastern Daylight Time)","317647","red","green","","","","","","","","","","145","","","","","","[{""stimulus"":""img/red_lw/1.jpg"",""time"":58},{""stimulus"":""img/red_lw/2.jpg"",""time"":102},{""stimulus"":""img/red_lw/3.jpg"",""time"":158},{""stimulus"":""img/red_lw/4.jpg"",""time"":206},{""stimulus"":""img/red_lw/5.jpg"",""time"":254},{""stimulus"":""img/red_lw/6.jpg"",""time"":305},{""stimulus"":""img/red_lw/7.jpg"",""time"":353},{""stimulus"":""img/red_lw/8.jpg"",""time"":401},{""stimulus"":""img/red_lw/9.jpg"",""time"":457},{""stimulus"":""img/red_lw/10.jpg"",""time"":505},{""stimulus"":""img/red_lw/11.jpg"",""time"":554}]","[]"
"image-keyboard-response","166","140478","0.0-5.0-1.81","6340d2fa46f2d707e146b63b","bdp_lott","Mon Mar 27 2023 23:05:40 GMT-0400 (Eastern Daylight Time)","317647","red","green","","361","","","","choice","","img/red_lw/choose11.jpg","2","144","red","0.5","0.1","0.5","l","",""
"animation","167","141085","0.0-5.0-2.81","6340d2fa46f2d707e146b63b","bdp_lott","Mon Mar 27 2023 23:05:40 GMT-0400 (Eastern Daylight Time)","317647","red","green","","","","","","","","","","144","","","","","","[{""stimulus"":""img/red_ll/1.jpg"",""time"":55},{""stimulus"":""img/red_ll/2.jpg"",""time"":103},{""stimulus"":""img/red_ll/3.jpg"",""time"":151},{""stimulus"":""img/red_ll/4.jpg"",""time"":208},{""stimulus"":""img/red_ll/5.jpg"",""time"":255},{""stimulus"":""img/red_ll/6.jpg"",""time"":303},{""stimulus"":""img/red_ll/7.jpg"",""time"":351},{""stimulus"":""img/red_ll/8.jpg"",""time"":402},{""stimulus"":""img/red_ll/9.jpg"",""time"":461},{""stimulus"":""img/red_ll/10.jpg"",""time"":501},{""stimulus"":""img/red_ll/11.jpg"",""time"":556}]","[]"
"image-keyboard-response","168","142083","0.0-5.0-1.82","6340d2fa46f2d707e146b63b","bdp_lott","Mon Mar 27 2023 23:05:40 GMT-0400 (Eastern Daylight Time)","317647","red","green","","997","","","","choice","","img/red_ll/choose11.jpg","2","143","red","0.5","0.1","0.5","w","",""
"animation","169","142690","0.0-5.0-2.82","6340d2fa46f2d707e146b63b","bdp_lott","Mon Mar 27 2023 23:05:40 GMT-0400 (Eastern Daylight Time)","317647","red","green","","","","","","","","","","143","","","","","","[{""stimulus"":""img/red_lw/1.jpg"",""time"":53},{""stimulus"":""img/red_lw/2.jpg"",""time"":102},{""stimulus"":""img/red_lw/3.jpg"",""time"":157},{""stimulus"":""img/red_lw/4.jpg"",""time"":206},{""stimulus"":""img/red_lw/5.jpg"",""time"":254},{""stimulus"":""img/red_lw/6.jpg"",""time"":302},{""stimulus"":""img/red_lw/7.jpg"",""time"":358},{""stimulus"":""img/red_lw/8.jpg"",""time"":406},{""stimulus"":""img/red_lw/9.jpg"",""time"":454},{""stimulus"":""img/red_lw/10.jpg"",""time"":503},{""stimulus"":""img/red_lw/11.jpg"",""time"":552}]","[]"
"image-keyboard-response","170","143346","0.0-5.0-1.83","6340d2fa46f2d707e146b63b","bdp_lott","Mon Mar 27 2023 23:05:40 GMT-0400 (Eastern Daylight Time)","317647","red","green","","655","","","","choice","","img/red_lw/choose11.jpg","2","142","red","0.5","0.1","0.5","w","",""
"animation","171","143949","0.0-5.0-2.83","6340d2fa46f2d707e146b63b","bdp_lott","Mon Mar 27 2023 23:05:40 GMT-0400 (Eastern Daylight Time)","317647","red","green","","","","","","","","","","142","","","","","","[{""stimulus"":""img/red_lw/1.jpg"",""time"":56},{""stimulus"":""img/red_lw/2.jpg"",""time"":104},{""stimulus"":""img/red_lw/3.jpg"",""time"":153},{""stimulus"":""img/red_lw/4.jpg"",""time"":202},{""stimulus"":""img/red_lw/5.jpg"",""time"":257},{""stimulus"":""img/red_lw/6.jpg"",""time"":307},{""stimulus"":""img/red_lw/7.jpg"",""time"":353},{""stimulus"":""img/red_lw/8.jpg"",""time"":401},{""stimulus"":""img/red_lw/9.jpg"",""time"":458},{""stimulus"":""img/red_lw/10.jpg"",""time"":507},{""stimulus"":""img/red_lw/11.jpg"",""time"":555}]","[]"
"image-keyboard-response","172","144515","0.0-5.0-1.84","6340d2fa46f2d707e146b63b","bdp_lott","Mon Mar 27 2023 23:05:40 GMT-0400 (Eastern Daylight Time)","317647","red","green","","565","","","","choice","","img/red_lw/choose11.jpg","2","141","red","0.5","0.1","0.5","l","",""
"animation","173","145117","0.0-5.0-2.84","6340d2fa46f2d707e146b63b","bdp_lott","Mon Mar 27 2023 23:05:40 GMT-0400 (Eastern Daylight Time)","317647","red","green","","","","","","","","","","141","","","","","","[{""stimulus"":""img/red_ll/1.jpg"",""time"":54},{""stimulus"":""img/red_ll/2.jpg"",""time"":102},{""stimulus"":""img/red_ll/3.jpg"",""time"":158},{""stimulus"":""img/red_ll/4.jpg"",""time"":202},{""stimulus"":""img/red_ll/5.jpg"",""time"":256},{""stimulus"":""img/red_ll/6.jpg"",""time"":304},{""stimulus"":""img/red_ll/7.jpg"",""time"":352},{""stimulus"":""img/red_ll/8.jpg"",""time"":401},{""stimulus"":""img/red_ll/9.jpg"",""time"":457},{""stimulus"":""img/red_ll/10.jpg"",""time"":505},{""stimulus"":""img/red_ll/11.jpg"",""time"":553}]","[]"
"image-keyboard-response","174","146089","0.0-5.0-1.85","6340d2fa46f2d707e146b63b","bdp_lott","Mon Mar 27 2023 23:05:40 GMT-0400 (Eastern Daylight Time)","317647","red","green","","971","","","","choice","","img/red_ll/choose11.jpg","1","140","green","0.5","0.1","0.1","l","",""
"animation","175","146691","0.0-5.0-2.85","6340d2fa46f2d707e146b63b","bdp_lott","Mon Mar 27 2023 23:05:40 GMT-0400 (Eastern Daylight Time)","317647","red","green","","","","","","","","","","140","","","","","","[{""stimulus"":""img/green_ll/1.jpg"",""time"":59},{""stimulus"":""img/green_ll/2.jpg"",""time"":105},{""stimulus"":""img/green_ll/3.jpg"",""time"":156},{""stimulus"":""img/green_ll/4.jpg"",""time"":204},{""stimulus"":""img/green_ll/5.jpg"",""time"":252},{""stimulus"":""img/green_ll/6.jpg"",""time"":302},{""stimulus"":""img/green_ll/7.jpg"",""time"":351},{""stimulus"":""img/green_ll/8.jpg"",""time"":402},{""stimulus"":""img/green_ll/9.jpg"",""time"":458},{""stimulus"":""img/green_ll/10.jpg"",""time"":506},{""stimulus"":""img/green_ll/11.jpg"",""time"":554}]","[]"
"image-keyboard-response","176","147167","0.0-5.0-1.86","6340d2fa46f2d707e146b63b","bdp_lott","Mon Mar 27 2023 23:05:40 GMT-0400 (Eastern Daylight Time)","317647","red","green","","475","","","","choice","","img/green_ll/choose11.jpg","1","139","green","0.5","0.1","0.1","l","",""
"animation","177","147769","0.0-5.0-2.86","6340d2fa46f2d707e146b63b","bdp_lott","Mon Mar 27 2023 23:05:40 GMT-0400 (Eastern Daylight Time)","317647","red","green","","","","","","","","","","139","","","","","","[{""stimulus"":""img/green_ll/1.jpg"",""time"":56},{""stimulus"":""img/green_ll/2.jpg"",""time"":104},{""stimulus"":""img/green_ll/3.jpg"",""time"":152},{""stimulus"":""img/green_ll/4.jpg"",""time"":209},{""stimulus"":""img/green_ll/5.jpg"",""time"":257},{""stimulus"":""img/green_ll/6.jpg"",""time"":305},{""stimulus"":""img/green_ll/7.jpg"",""time"":353},{""stimulus"":""img/green_ll/8.jpg"",""time"":401},{""stimulus"":""img/green_ll/9.jpg"",""time"":457},{""stimulus"":""img/green_ll/10.jpg"",""time"":505},{""stimulus"":""img/green_ll/11.jpg"",""time"":554}]","[]"
"image-keyboard-response","178","148543","0.0-5.0-1.87","6340d2fa46f2d707e146b63b","bdp_lott","Mon Mar 27 2023 23:05:40 GMT-0400 (Eastern Daylight Time)","317647","red","green","","773","","","","choice","","img/green_ll/choose11.jpg","2","138","red","0.5","0.1","0.5","l","",""
"animation","179","149144","0.0-5.0-2.87","6340d2fa46f2d707e146b63b","bdp_lott","Mon Mar 27 2023 23:05:40 GMT-0400 (Eastern Daylight Time)","317647","red","green","","","","","","","","","","138","","","","","","[{""stimulus"":""img/red_ll/1.jpg"",""time"":52},{""stimulus"":""img/red_ll/2.jpg"",""time"":108},{""stimulus"":""img/red_ll/3.jpg"",""time"":156},{""stimulus"":""img/red_ll/4.jpg"",""time"":204},{""stimulus"":""img/red_ll/5.jpg"",""time"":252},{""stimulus"":""img/red_ll/6.jpg"",""time"":304},{""stimulus"":""img/red_ll/7.jpg"",""time"":352},{""stimulus"":""img/red_ll/8.jpg"",""time"":400},{""stimulus"":""img/red_ll/9.jpg"",""time"":456},{""stimulus"":""img/red_ll/10.jpg"",""time"":504},{""stimulus"":""img/red_ll/11.jpg"",""time"":552}]","[]"
"image-keyboard-response","180","149449","0.0-5.0-1.88","6340d2fa46f2d707e146b63b","bdp_lott","Mon Mar 27 2023 23:05:40 GMT-0400 (Eastern Daylight Time)","317647","red","green","","304","","","","choice","","img/red_ll/choose11.jpg","2","137","red","0.5","0.1","0.5","l","",""
"animation","181","150051","0.0-5.0-2.88","6340d2fa46f2d707e146b63b","bdp_lott","Mon Mar 27 2023 23:05:40 GMT-0400 (Eastern Daylight Time)","317647","red","green","","","","","","","","","","137","","","","","","[{""stimulus"":""img/red_ll/1.jpg"",""time"":59},{""stimulus"":""img/red_ll/2.jpg"",""time"":107},{""stimulus"":""img/red_ll/3.jpg"",""time"":155},{""stimulus"":""img/red_ll/4.jpg"",""time"":208},{""stimulus"":""img/red_ll/5.jpg"",""time"":256},{""stimulus"":""img/red_ll/6.jpg"",""time"":304},{""stimulus"":""img/red_ll/7.jpg"",""time"":351},{""stimulus"":""img/red_ll/8.jpg"",""time"":408},{""stimulus"":""img/red_ll/9.jpg"",""time"":456},{""stimulus"":""img/red_ll/10.jpg"",""time"":505},{""stimulus"":""img/red_ll/11.jpg"",""time"":555}]","[]"
"image-keyboard-response","182","150594","0.0-5.0-1.89","6340d2fa46f2d707e146b63b","bdp_lott","Mon Mar 27 2023 23:05:40 GMT-0400 (Eastern Daylight Time)","317647","red","green","","541","","","","choice","","img/red_ll/choose11.jpg","2","136","red","0.5","0.1","0.5","w","",""
"animation","183","151198","0.0-5.0-2.89","6340d2fa46f2d707e146b63b","bdp_lott","Mon Mar 27 2023 23:05:40 GMT-0400 (Eastern Daylight Time)","317647","red","green","","","","","","","","","","136","","","","","","[{""stimulus"":""img/red_lw/1.jpg"",""time"":53},{""stimulus"":""img/red_lw/2.jpg"",""time"":102},{""stimulus"":""img/red_lw/3.jpg"",""time"":158},{""stimulus"":""img/red_lw/4.jpg"",""time"":207},{""stimulus"":""img/red_lw/5.jpg"",""time"":256},{""stimulus"":""img/red_lw/6.jpg"",""time"":302},{""stimulus"":""img/red_lw/7.jpg"",""time"":358},{""stimulus"":""img/red_lw/8.jpg"",""time"":408},{""stimulus"":""img/red_lw/9.jpg"",""time"":456},{""stimulus"":""img/red_lw/10.jpg"",""time"":505},{""stimulus"":""img/red_lw/11.jpg"",""time"":554}]","[]"
"image-keyboard-response","184","151815","0.0-5.0-1.90","6340d2fa46f2d707e146b63b","bdp_lott","Mon Mar 27 2023 23:05:40 GMT-0400 (Eastern Daylight Time)","317647","red","green","","616","","","","choice","","img/red_lw/choose11.jpg","2","135","red","0.5","0.1","0.5","l","",""
"animation","185","152423","0.0-5.0-2.90","6340d2fa46f2d707e146b63b","bdp_lott","Mon Mar 27 2023 23:05:40 GMT-0400 (Eastern Daylight Time)","317647","red","green","","","","","","","","","","135","","","","","","[{""stimulus"":""img/red_ll/1.jpg"",""time"":52},{""stimulus"":""img/red_ll/2.jpg"",""time"":109},{""stimulus"":""img/red_ll/3.jpg"",""time"":157},{""stimulus"":""img/red_ll/4.jpg"",""time"":205},{""stimulus"":""img/red_ll/5.jpg"",""time"":252},{""stimulus"":""img/red_ll/6.jpg"",""time"":307},{""stimulus"":""img/red_ll/7.jpg"",""time"":355},{""stimulus"":""img/red_ll/8.jpg"",""time"":407},{""stimulus"":""img/red_ll/9.jpg"",""time"":456},{""stimulus"":""img/red_ll/10.jpg"",""time"":504},{""stimulus"":""img/red_ll/11.jpg"",""time"":552}]","[]"
"image-keyboard-response","186","153090","0.0-5.0-1.91","6340d2fa46f2d707e146b63b","bdp_lott","Mon Mar 27 2023 23:05:40 GMT-0400 (Eastern Daylight Time)","317647","red","green","","666","","","","choice","","img/red_ll/choose11.jpg","1","134","green","0.5","0.1","0.1","l","",""
"animation","187","153691","0.0-5.0-2.91","6340d2fa46f2d707e146b63b","bdp_lott","Mon Mar 27 2023 23:05:40 GMT-0400 (Eastern Daylight Time)","317647","red","green","","","","","","","","","","134","","","","","","[{""stimulus"":""img/green_ll/1.jpg"",""time"":57},{""stimulus"":""img/green_ll/2.jpg"",""time"":105},{""stimulus"":""img/green_ll/3.jpg"",""time"":153},{""stimulus"":""img/green_ll/4.jpg"",""time"":203},{""stimulus"":""img/green_ll/5.jpg"",""time"":259},{""stimulus"":""img/green_ll/6.jpg"",""time"":308},{""stimulus"":""img/green_ll/7.jpg"",""time"":356},{""stimulus"":""img/green_ll/8.jpg"",""time"":404},{""stimulus"":""img/green_ll/9.jpg"",""time"":452},{""stimulus"":""img/green_ll/10.jpg"",""time"":516},{""stimulus"":""img/green_ll/11.jpg"",""time"":550}]","[]"
"image-keyboard-response","188","154166","0.0-5.0-1.92","6340d2fa46f2d707e146b63b","bdp_lott","Mon Mar 27 2023 23:05:40 GMT-0400 (Eastern Daylight Time)","317647","red","green","","474","","","","choice","","img/green_ll/choose11.jpg","1","133","green","0.5","0.1","0.1","l","",""
"animation","189","154774","0.0-5.0-2.92","6340d2fa46f2d707e146b63b","bdp_lott","Mon Mar 27 2023 23:05:40 GMT-0400 (Eastern Daylight Time)","317647","red","green","","","","","","","","","","133","","","","","","[{""stimulus"":""img/green_ll/1.jpg"",""time"":52},{""stimulus"":""img/green_ll/2.jpg"",""time"":108},{""stimulus"":""img/green_ll/3.jpg"",""time"":156},{""stimulus"":""img/green_ll/4.jpg"",""time"":204},{""stimulus"":""img/green_ll/5.jpg"",""time"":254},{""stimulus"":""img/green_ll/6.jpg"",""time"":302},{""stimulus"":""img/green_ll/7.jpg"",""time"":357},{""stimulus"":""img/green_ll/8.jpg"",""time"":405},{""stimulus"":""img/green_ll/9.jpg"",""time"":455},{""stimulus"":""img/green_ll/10.jpg"",""time"":503},{""stimulus"":""img/green_ll/11.jpg"",""time"":551}]","[]"
"image-keyboard-response","190","155204","0.0-5.0-1.93","6340d2fa46f2d707e146b63b","bdp_lott","Mon Mar 27 2023 23:05:40 GMT-0400 (Eastern Daylight Time)","317647","red","green","","428","","","","choice","","img/green_ll/choose11.jpg","1","132","green","0.5","0.1","0.1","l","",""
"animation","191","155806","0.0-5.0-2.93","6340d2fa46f2d707e146b63b","bdp_lott","Mon Mar 27 2023 23:05:40 GMT-0400 (Eastern Daylight Time)","317647","red","green","","","","","","","","","","132","","","","","","[{""stimulus"":""img/green_ll/1.jpg"",""time"":54},{""stimulus"":""img/green_ll/2.jpg"",""time"":106},{""stimulus"":""img/green_ll/3.jpg"",""time"":154},{""stimulus"":""img/green_ll/4.jpg"",""time"":206},{""stimulus"":""img/green_ll/5.jpg"",""time"":256},{""stimulus"":""img/green_ll/6.jpg"",""time"":302},{""stimulus"":""img/green_ll/7.jpg"",""time"":358},{""stimulus"":""img/green_ll/8.jpg"",""time"":406},{""stimulus"":""img/green_ll/9.jpg"",""time"":454},{""stimulus"":""img/green_ll/10.jpg"",""time"":504},{""stimulus"":""img/green_ll/11.jpg"",""time"":554}]","[]"
