"trial_type","trial_index","time_elapsed","internal_node_id","subject_id","task","startTime","totalTime","fairMachine","unfairMachine","view_history","rt","event","trial","time","trialtype","success","stimulus","key_press","roundsLeft","chosen","pFairMachWin","pUnfairMachWin","pTrialWin","outcome","animation_sequence","responses"
"pavlovia","0","6","0.0-0.0","631e8c52a408a788b7e62e11","bdp_lott","Sun Apr 09 2023 18:34:12 GMT-0500 (Central Daylight Time)","205656","red","green","","","","","","","","","","","","","","","","",""
"instructions","1","3484","0.0-1.0","631e8c52a408a788b7e62e11","bdp_lott","Sun Apr 09 2023 18:34:12 GMT-0500 (Central Daylight Time)","205656","red","green","[{""page_index"":0,""viewing_time"":3476}]","3476","","","","","","","","","","","","","","",""
"","","","","631e8c52a408a788b7e62e11","bdp_lott","Sun Apr 09 2023 18:34:12 GMT-0500 (Central Daylight Time)","205656","red","green","","","fullscreenenter","2","8529","fullscreenenter","","","","","","","","","","",""
"fullscreen","2","9534","0.0-2.0","631e8c52a408a788b7e62e11","bdp_lott","Sun Apr 09 2023 18:34:12 GMT-0500 (Central Daylight Time)","205656","red","green","","","","","","","true","","","","","","","","","",""
"instructions","3","13473","0.0-4.0","631e8c52a408a788b7e62e11","bdp_lott","Sun Apr 09 2023 18:34:12 GMT-0500 (Central Daylight Time)","205656","red","green","[{""page_index"":0,""viewing_time"":3938}]","3938","","","","","","","","","","","","","","",""
"image-keyboard-response","4","16912","0.0-5.0-1.0","631e8c52a408a788b7e62e11","bdp_lott","Sun Apr 09 2023 18:34:12 GMT-0500 (Central Daylight Time)","205656","red","green","","3436","","","","choice","","img/red_ll/initchoose11.jpg","2","225","red","0.5","0.5","0.5","w","",""
"animation","5","17513","0.0-5.0-2.0","631e8c52a408a788b7e62e11","bdp_lott","Sun Apr 09 2023 18:34:12 GMT-0500 (Central Daylight Time)","205656","red","green","","","","","","","","","","225","","","","","","[{""stimulus"":""img/red_lw/1.jpg"",""time"":51},{""stimulus"":""img/red_lw/2.jpg"",""time"":103},{""stimulus"":""img/red_lw/3.jpg"",""time"":152},{""stimulus"":""img/red_lw/4.jpg"",""time"":201},{""stimulus"":""img/red_lw/5.jpg"",""time"":251},{""stimulus"":""img/red_lw/6.jpg"",""time"":302},{""stimulus"":""img/red_lw/7.jpg"",""time"":351},{""stimulus"":""img/red_lw/8.jpg"",""time"":401},{""stimulus"":""img/red_lw/9.jpg"",""time"":451},{""stimulus"":""img/red_lw/10.jpg"",""time"":506},{""stimulus"":""img/red_lw/11.jpg"",""time"":552}]","[]"
"image-keyboard-response","6","19312","0.0-5.0-1.1","631e8c52a408a788b7e62e11","bdp_lott","Sun Apr 09 2023 18:34:12 GMT-0500 (Central Daylight Time)","205656","red","green","","1798","","","","choice","","img/red_lw/choose11.jpg","1","224","green","0.5","0.5","0.5","w","",""
"animation","7","19913","0.0-5.0-2.1","631e8c52a408a788b7e62e11","bdp_lott","Sun Apr 09 2023 18:34:12 GMT-0500 (Central Daylight Time)","205656","red","green","","","","","","","","","","224","","","","","","[{""stimulus"":""img/green_ww/1.jpg"",""time"":57},{""stimulus"":""img/green_ww/2.jpg"",""time"":104},{""stimulus"":""img/green_ww/3.jpg"",""time"":165},{""stimulus"":""img/green_ww/4.jpg"",""time"":207},{""stimulus"":""img/green_ww/5.jpg"",""time"":251},{""stimulus"":""img/green_ww/6.jpg"",""time"":302},{""stimulus"":""img/green_ww/7.jpg"",""time"":351},{""stimulus"":""img/green_ww/8.jpg"",""time"":415},{""stimulus"":""img/green_ww/9.jpg"",""time"":452},{""stimulus"":""img/green_ww/10.jpg"",""time"":501},{""stimulus"":""img/green_ww/11.jpg"",""time"":551}]","[]"
"image-keyboard-response","8","20760","0.0-5.0-1.2","631e8c52a408a788b7e62e11","bdp_lott","Sun Apr 09 2023 18:34:12 GMT-0500 (Central Daylight Time)","205656","red","green","","846","","","","choice","","img/green_ww/choose11.jpg","2","223","red","0.5","0.5","0.5","l","",""
"animation","9","21361","0.0-5.0-2.2","631e8c52a408a788b7e62e11","bdp_lott","Sun Apr 09 2023 18:34:12 GMT-0500 (Central Daylight Time)","205656","red","green","","","","","","","","","","223","","","","","","[{""stimulus"":""img/red_wl/1.jpg"",""time"":63},{""stimulus"":""img/red_wl/2.jpg"",""time"":110},{""stimulus"":""img/red_wl/3.jpg"",""time"":157},{""stimulus"":""img/red_wl/4.jpg"",""time"":204},{""stimulus"":""img/red_wl/5.jpg"",""time"":266},{""stimulus"":""img/red_wl/6.jpg"",""time"":309},{""stimulus"":""img/red_wl/7.jpg"",""time"":362},{""stimulus"":""img/red_wl/8.jpg"",""time"":408},{""stimulus"":""img/red_wl/9.jpg"",""time"":455},{""stimulus"":""img/red_wl/10.jpg"",""time"":500},{""stimulus"":""img/red_wl/11.jpg"",""time"":564}]","[]"
"image-keyboard-response","10","21908","0.0-5.0-1.3","631e8c52a408a788b7e62e11","bdp_lott","Sun Apr 09 2023 18:34:12 GMT-0500 (Central Daylight Time)","205656","red","green","","546","","","","choice","","img/red_wl/choose11.jpg","1","222","green","0.5","0.5","0.5","l","",""
"animation","11","22518","0.0-5.0-2.3","631e8c52a408a788b7e62e11","bdp_lott","Sun Apr 09 2023 18:34:12 GMT-0500 (Central Daylight Time)","205656","red","green","","","","","","","","","","222","","","","","","[{""stimulus"":""img/green_ll/1.jpg"",""time"":51},{""stimulus"":""img/green_ll/2.jpg"",""time"":113},{""stimulus"":""img/green_ll/3.jpg"",""time"":160},{""stimulus"":""img/green_ll/4.jpg"",""time"":207},{""stimulus"":""img/green_ll/5.jpg"",""time"":254},{""stimulus"":""img/green_ll/6.jpg"",""time"":301},{""stimulus"":""img/green_ll/7.jpg"",""time"":357},{""stimulus"":""img/green_ll/8.jpg"",""time"":410},{""stimulus"":""img/green_ll/9.jpg"",""time"":456},{""stimulus"":""img/green_ll/10.jpg"",""time"":501},{""stimulus"":""img/green_ll/11.jpg"",""time"":551}]","[]"
"image-keyboard-response","12","23112","0.0-5.0-1.4","631e8c52a408a788b7e62e11","bdp_lott","Sun Apr 09 2023 18:34:12 GMT-0500 (Central Daylight Time)","205656","red","green","","593","","","","choice","","img/green_ll/choose11.jpg","1","221","green","0.5","0.5","0.5","w","",""
"animation","13","23763","0.0-5.0-2.4","631e8c52a408a788b7e62e11","bdp_lott","Sun Apr 09 2023 18:34:12 GMT-0500 (Central Daylight Time)","205656","red","green","","","","","","","","","","221","","","","","","[{""stimulus"":""img/green_wl/1.jpg"",""time"":53},{""stimulus"":""img/green_wl/2.jpg"",""time"":116},{""stimulus"":""img/green_wl/3.jpg"",""time"":155},{""stimulus"":""img/green_wl/4.jpg"",""time"":206},{""stimulus"":""img/green_wl/5.jpg"",""time"":254},{""stimulus"":""img/green_wl/6.jpg"",""time"":381},{""stimulus"":""img/green_wl/7.jpg"",""time"":403},{""stimulus"":""img/green_wl/8.jpg"",""time"":451},{""stimulus"":""img/green_wl/9.jpg"",""time"":506},{""stimulus"":""img/green_wl/10.jpg"",""time"":554},{""stimulus"":""img/green_wl/11.jpg"",""time"":601}]","[]"
"image-keyboard-response","14","24668","0.0-5.0-1.5","631e8c52a408a788b7e62e11","bdp_lott","Sun Apr 09 2023 18:34:12 GMT-0500 (Central Daylight Time)","205656","red","green","","904","","","","choice","","img/green_wl/choose11.jpg","2","220","red","0.5","0.5","0.5","w","",""
"animation","15","25270","0.0-5.0-2.5","631e8c52a408a788b7e62e11","bdp_lott","Sun Apr 09 2023 18:34:12 GMT-0500 (Central Daylight Time)","205656","red","green","","","","","","","","","","220","","","","","","[{""stimulus"":""img/red_ww/1.jpg"",""time"":65},{""stimulus"":""img/red_ww/2.jpg"",""time"":111},{""stimulus"":""img/red_ww/3.jpg"",""time"":152},{""stimulus"":""img/red_ww/4.jpg"",""time"":201},{""stimulus"":""img/red_ww/5.jpg"",""time"":266},{""stimulus"":""img/red_ww/6.jpg"",""time"":300},{""stimulus"":""img/red_ww/7.jpg"",""time"":351},{""stimulus"":""img/red_ww/8.jpg"",""time"":401},{""stimulus"":""img/red_ww/9.jpg"",""time"":451},{""stimulus"":""img/red_ww/10.jpg"",""time"":513},{""stimulus"":""img/red_ww/11.jpg"",""time"":551}]","[]"
"image-keyboard-response","16","26358","0.0-5.0-1.6","631e8c52a408a788b7e62e11","bdp_lott","Sun Apr 09 2023 18:34:12 GMT-0500 (Central Daylight Time)","205656","red","green","","1088","","","","choice","","img/red_ww/choose11.jpg","2","219","red","0.5","0.5","0.5","l","",""
"animation","17","26961","0.0-5.0-2.6","631e8c52a408a788b7e62e11","bdp_lott","Sun Apr 09 2023 18:34:12 GMT-0500 (Central Daylight Time)","205656","red","green","","","","","","","","","","219","","","","","","[{""stimulus"":""img/red_wl/1.jpg"",""time"":62},{""stimulus"":""img/red_wl/2.jpg"",""time"":109},{""stimulus"":""img/red_wl/3.jpg"",""time"":156},{""stimulus"":""img/red_wl/4.jpg"",""time"":202},{""stimulus"":""img/red_wl/5.jpg"",""time"":263},{""stimulus"":""img/red_wl/6.jpg"",""time"":310},{""stimulus"":""img/red_wl/7.jpg"",""time"":356},{""stimulus"":""img/red_wl/8.jpg"",""time"":403},{""stimulus"":""img/red_wl/9.jpg"",""time"":464},{""stimulus"":""img/red_wl/10.jpg"",""time"":525},{""stimulus"":""img/red_wl/11.jpg"",""time"":557}]","[]"
"image-keyboard-response","18","27384","0.0-5.0-1.7","631e8c52a408a788b7e62e11","bdp_lott","Sun Apr 09 2023 18:34:12 GMT-0500 (Central Daylight Time)","205656","red","green","","421","","","","choice","","img/red_wl/choose11.jpg","2","218","red","0.5","0.5","0.5","w","",""
"animation","19","28110","0.0-5.0-2.7","631e8c52a408a788b7e62e11","bdp_lott","Sun Apr 09 2023 18:34:12 GMT-0500 (Central Daylight Time)","205656","red","green","","","","","","","","","","218","","","","","","[{""stimulus"":""img/red_ww/1.jpg"",""time"":55},{""stimulus"":""img/red_ww/2.jpg"",""time"":102},{""stimulus"":""img/red_ww/3.jpg"",""time"":164},{""stimulus"":""img/red_ww/4.jpg"",""time"":200},{""stimulus"":""img/red_ww/5.jpg"",""time"":257},{""stimulus"":""img/red_ww/6.jpg"",""time"":304},{""stimulus"":""img/red_ww/7.jpg"",""time"":365},{""stimulus"":""img/red_ww/8.jpg"",""time"":412},{""stimulus"":""img/red_ww/9.jpg"",""time"":459},{""stimulus"":""img/red_ww/10.jpg"",""time"":505},{""stimulus"":""img/red_ww/11.jpg"",""time"":552}]","[]"
"image-keyboard-response","20","28588","0.0-5.0-1.8","631e8c52a408a788b7e62e11","bdp_lott","Sun Apr 09 2023 18:34:12 GMT-0500 (Central Daylight Time)","205656","red","green","","472","","","","choice","","img/red_ww/choose11.jpg","1","217","green","0.5","0.5","0.5","l","",""
"animation","21","29189","0.0-5.0-2.8","631e8c52a408a788b7e62e11","bdp_lott","Sun Apr 09 2023 18:34:12 GMT-0500 (Central Daylight Time)","205656","red","green","","","","","","","","","","217","","","","","","[{""stimulus"":""img/green_lw/1.jpg"",""time"":60},{""stimulus"":""img/green_lw/2.jpg"",""time"":106},{""stimulus"":""img/green_lw/3.jpg"",""time"":165},{""stimulus"":""img/green_lw/4.jpg"",""time"":210},{""stimulus"":""img/green_lw/5.jpg"",""time"":261},{""stimulus"":""img/green_lw/6.jpg"",""time"":310},{""stimulus"":""img/green_lw/7.jpg"",""time"":357},{""stimulus"":""img/green_lw/8.jpg"",""time"":401},{""stimulus"":""img/green_lw/9.jpg"",""time"":452},{""stimulus"":""img/green_lw/10.jpg"",""time"":502},{""stimulus"":""img/green_lw/11.jpg"",""time"":562}]","[]"
"image-keyboard-response","22","29585","0.0-5.0-1.9","631e8c52a408a788b7e62e11","bdp_lott","Sun Apr 09 2023 18:34:12 GMT-0500 (Central Daylight Time)","205656","red","green","","395","","","","choice","","img/green_lw/choose11.jpg","1","216","green","0.5","0.5","0.5","l","",""
"animation","23","30186","0.0-5.0-2.9","631e8c52a408a788b7e62e11","bdp_lott","Sun Apr 09 2023 18:34:12 GMT-0500 (Central Daylight Time)","205656","red","green","","","","","","","","","","216","","","","","","[{""stimulus"":""img/green_lw/1.jpg"",""time"":66},{""stimulus"":""img/green_lw/2.jpg"",""time"":102},{""stimulus"":""img/green_lw/3.jpg"",""time"":151},{""stimulus"":""img/green_lw/4.jpg"",""time"":207},{""stimulus"":""img/green_lw/5.jpg"",""time"":251},{""stimulus"":""img/green_lw/6.jpg"",""time"":301},{""stimulus"":""img/green_lw/7.jpg"",""time"":351},{""stimulus"":""img/green_lw/8.jpg"",""time"":410},{""stimulus"":""img/green_lw/9.jpg"",""time"":451},{""stimulus"":""img/green_lw/10.jpg"",""time"":501},{""stimulus"":""img/green_lw/11.jpg"",""time"":551}]","[]"
"image-keyboard-response","24","30845","0.0-5.0-1.10","631e8c52a408a788b7e62e11","bdp_lott","Sun Apr 09 2023 18:34:12 GMT-0500 (Central Daylight Time)","205656","red","green","","658","","","","choice","","img/green_lw/choose11.jpg","2","215","red","0.5","0.5","0.5","w","",""
"animation","25","31446","0.0-5.0-2.10","631e8c52a408a788b7e62e11","bdp_lott","Sun Apr 09 2023 18:34:12 GMT-0500 (Central Daylight Time)","205656","red","green","","","","","","","","","","215","","","","","","[{""stimulus"":""img/red_lw/1.jpg"",""time"":59},{""stimulus"":""img/red_lw/2.jpg"",""time"":104},{""stimulus"":""img/red_lw/3.jpg"",""time"":165},{""stimulus"":""img/red_lw/4.jpg"",""time"":201},{""stimulus"":""img/red_lw/5.jpg"",""time"":251},{""stimulus"":""img/red_lw/6.jpg"",""time"":301},{""stimulus"":""img/red_lw/7.jpg"",""time"":351},{""stimulus"":""img/red_lw/8.jpg"",""time"":401},{""stimulus"":""img/red_lw/9.jpg"",""time"":451},{""stimulus"":""img/red_lw/10.jpg"",""time"":501},{""stimulus"":""img/red_lw/11.jpg"",""time"":552}]","[]"
"image-keyboard-response","26","32077","0.0-5.0-1.11","631e8c52a408a788b7e62e11","bdp_lott","Sun Apr 09 2023 18:34:12 GMT-0500 (Central Daylight Time)","205656","red","green","","630","","","","choice","","img/red_lw/choose11.jpg","2","214","red","0.5","0.5","0.5","w","",""
"animation","27","32679","0.0-5.0-2.11","631e8c52a408a788b7e62e11","bdp_lott","Sun Apr 09 2023 18:34:12 GMT-0500 (Central Daylight Time)","205656","red","green","","","","","","","","","","214","","","","","","[{""stimulus"":""img/red_lw/1.jpg"",""time"":63},{""stimulus"":""img/red_lw/2.jpg"",""time"":103},{""stimulus"":""img/red_lw/3.jpg"",""time"":153},{""stimulus"":""img/red_lw/4.jpg"",""time"":201},{""stimulus"":""img/red_lw/5.jpg"",""time"":264},{""stimulus"":""img/red_lw/6.jpg"",""time"":302},{""stimulus"":""img/red_lw/7.jpg"",""time"":352},{""stimulus"":""img/red_lw/8.jpg"",""time"":402},{""stimulus"":""img/red_lw/9.jpg"",""time"":452},{""stimulus"":""img/red_lw/10.jpg"",""time"":502},{""stimulus"":""img/red_lw/11.jpg"",""time"":552}]","[]"
"image-keyboard-response","28","33037","0.0-5.0-1.12","631e8c52a408a788b7e62e11","bdp_lott","Sun Apr 09 2023 18:34:12 GMT-0500 (Central Daylight Time)","205656","red","green","","358","","","","choice","","img/red_lw/choose11.jpg","2","213","red","0.5","0.5","0.5","l","",""
"animation","29","33644","0.0-5.0-2.12","631e8c52a408a788b7e62e11","bdp_lott","Sun Apr 09 2023 18:34:12 GMT-0500 (Central Daylight Time)","205656","red","green","","","","","","","","","","213","","","","","","[{""stimulus"":""img/red_ll/1.jpg"",""time"":62},{""stimulus"":""img/red_ll/2.jpg"",""time"":109},{""stimulus"":""img/red_ll/3.jpg"",""time"":155},{""stimulus"":""img/red_ll/4.jpg"",""time"":201},{""stimulus"":""img/red_ll/5.jpg"",""time"":263},{""stimulus"":""img/red_ll/6.jpg"",""time"":310},{""stimulus"":""img/red_ll/7.jpg"",""time"":357},{""stimulus"":""img/red_ll/8.jpg"",""time"":403},{""stimulus"":""img/red_ll/9.jpg"",""time"":452},{""stimulus"":""img/red_ll/10.jpg"",""time"":513},{""stimulus"":""img/red_ll/11.jpg"",""time"":560}]","[]"
"image-keyboard-response","30","34089","0.0-5.0-1.13","631e8c52a408a788b7e62e11","bdp_lott","Sun Apr 09 2023 18:34:12 GMT-0500 (Central Daylight Time)","205656","red","green","","443","","","","choice","","img/red_ll/choose11.jpg","2","212","red","0.5","0.5","0.5","w","",""
"animation","31","34691","0.0-5.0-2.13","631e8c52a408a788b7e62e11","bdp_lott","Sun Apr 09 2023 18:34:12 GMT-0500 (Central Daylight Time)","205656","red","green","","","","","","","","","","212","","","","","","[{""stimulus"":""img/red_lw/1.jpg"",""time"":63},{""stimulus"":""img/red_lw/2.jpg"",""time"":110},{""stimulus"":""img/red_lw/3.jpg"",""time"":156},{""stimulus"":""img/red_lw/4.jpg"",""time"":202},{""stimulus"":""img/red_lw/5.jpg"",""time"":263},{""stimulus"":""img/red_lw/6.jpg"",""time"":309},{""stimulus"":""img/red_lw/7.jpg"",""time"":355},{""stimulus"":""img/red_lw/8.jpg"",""time"":402},{""stimulus"":""img/red_lw/9.jpg"",""time"":463},{""stimulus"":""img/red_lw/10.jpg"",""time"":509},{""stimulus"":""img/red_lw/11.jpg"",""time"":555}]","[]"
"image-keyboard-response","32","35437","0.0-5.0-1.14","631e8c52a408a788b7e62e11","bdp_lott","Sun Apr 09 2023 18:34:12 GMT-0500 (Central Daylight Time)","205656","red","green","","745","","","","choice","","img/red_lw/choose11.jpg","2","211","red","0.5","0.5","0.5","w","",""
"animation","33","36046","0.0-5.0-2.14","631e8c52a408a788b7e62e11","bdp_lott","Sun Apr 09 2023 18:34:12 GMT-0500 (Central Daylight Time)","205656","red","green","","","","","","","","","","211","","","","","","[{""stimulus"":""img/red_lw/1.jpg"",""time"":62},{""stimulus"":""img/red_lw/2.jpg"",""time"":108},{""stimulus"":""img/red_lw/3.jpg"",""time"":156},{""stimulus"":""img/red_lw/4.jpg"",""time"":203},{""stimulus"":""img/red_lw/5.jpg"",""time"":250},{""stimulus"":""img/red_lw/6.jpg"",""time"":311},{""stimulus"":""img/red_lw/7.jpg"",""time"":356},{""stimulus"":""img/red_lw/8.jpg"",""time"":404},{""stimulus"":""img/red_lw/9.jpg"",""time"":466},{""stimulus"":""img/red_lw/10.jpg"",""time"":522},{""stimulus"":""img/red_lw/11.jpg"",""time"":551}]","[]"
"image-keyboard-response","34","36556","0.0-5.0-1.15","631e8c52a408a788b7e62e11","bdp_lott","Sun Apr 09 2023 18:34:12 GMT-0500 (Central Daylight Time)","205656","red","green","","510","","","","choice","","img/red_lw/choose11.jpg","2","210","red","0.5","0.5","0.5","l","",""
"animation","35","37257","0.0-5.0-2.15","631e8c52a408a788b7e62e11","bdp_lott","Sun Apr 09 2023 18:34:12 GMT-0500 (Central Daylight Time)","205656","red","green","","","","","","","","","","210","","","","","","[{""stimulus"":""img/red_ll/1.jpg"",""time"":62},{""stimulus"":""img/red_ll/2.jpg"",""time"":109},{""stimulus"":""img/red_ll/3.jpg"",""time"":156},{""stimulus"":""img/red_ll/4.jpg"",""time"":203},{""stimulus"":""img/red_ll/5.jpg"",""time"":264},{""stimulus"":""img/red_ll/6.jpg"",""time"":311},{""stimulus"":""img/red_ll/7.jpg"",""time"":357},{""stimulus"":""img/red_ll/8.jpg"",""time"":404},{""stimulus"":""img/red_ll/9.jpg"",""time"":452},{""stimulus"":""img/red_ll/10.jpg"",""time"":603},{""stimulus"":""img/red_ll/11.jpg"",""time"":666}]","[]"
"image-keyboard-response","36","37647","0.0-5.0-1.16","631e8c52a408a788b7e62e11","bdp_lott","Sun Apr 09 2023 18:34:12 GMT-0500 (Central Daylight Time)","205656","red","green","","389","","","","choice","","img/red_ll/choose11.jpg","2","209","red","0.5","0.5","0.5","l","",""
"animation","37","38307","0.0-5.0-2.16","631e8c52a408a788b7e62e11","bdp_lott","Sun Apr 09 2023 18:34:12 GMT-0500 (Central Daylight Time)","205656","red","green","","","","","","","","","","209","","","","","","[{""stimulus"":""img/red_ll/1.jpg"",""time"":55},{""stimulus"":""img/red_ll/2.jpg"",""time"":101},{""stimulus"":""img/red_ll/3.jpg"",""time"":163},{""stimulus"":""img/red_ll/4.jpg"",""time"":213},{""stimulus"":""img/red_ll/5.jpg"",""time"":258},{""stimulus"":""img/red_ll/6.jpg"",""time"":304},{""stimulus"":""img/red_ll/7.jpg"",""time"":365},{""stimulus"":""img/red_ll/8.jpg"",""time"":413},{""stimulus"":""img/red_ll/9.jpg"",""time"":461},{""stimulus"":""img/red_ll/10.jpg"",""time"":506},{""stimulus"":""img/red_ll/11.jpg"",""time"":572}]","[]"
"image-keyboard-response","38","38560","0.0-5.0-1.17","631e8c52a408a788b7e62e11","bdp_lott","Sun Apr 09 2023 18:34:12 GMT-0500 (Central Daylight Time)","205656","red","green","","251","","","","choice","","img/red_ll/choose11.jpg","1","208","green","0.5","0.5","0.5","l","",""
"animation","39","39161","0.0-5.0-2.17","631e8c52a408a788b7e62e11","bdp_lott","Sun Apr 09 2023 18:34:12 GMT-0500 (Central Daylight Time)","205656","red","green","","","","","","","","","","208","","","","","","[{""stimulus"":""img/green_ll/1.jpg"",""time"":57},{""stimulus"":""img/green_ll/2.jpg"",""time"":103},{""stimulus"":""img/green_ll/3.jpg"",""time"":151},{""stimulus"":""img/green_ll/4.jpg"",""time"":201},{""stimulus"":""img/green_ll/5.jpg"",""time"":259},{""stimulus"":""img/green_ll/6.jpg"",""time"":301},{""stimulus"":""img/green_ll/7.jpg"",""time"":351},{""stimulus"":""img/green_ll/8.jpg"",""time"":401},{""stimulus"":""img/green_ll/9.jpg"",""time"":451},{""stimulus"":""img/green_ll/10.jpg"",""time"":501},{""stimulus"":""img/green_ll/11.jpg"",""time"":551}]","[]"
"image-keyboard-response","40","39537","0.0-5.0-1.18","631e8c52a408a788b7e62e11","bdp_lott","Sun Apr 09 2023 18:34:12 GMT-0500 (Central Daylight Time)","205656","red","green","","375","","","","choice","","img/green_ll/choose11.jpg","1","207","green","0.5","0.5","0.5","l","",""
"animation","41","40142","0.0-5.0-2.18","631e8c52a408a788b7e62e11","bdp_lott","Sun Apr 09 2023 18:34:12 GMT-0500 (Central Daylight Time)","205656","red","green","","","","","","","","","","207","","","","","","[{""stimulus"":""img/green_ll/1.jpg"",""time"":55},{""stimulus"":""img/green_ll/2.jpg"",""time"":101},{""stimulus"":""img/green_ll/3.jpg"",""time"":151},{""stimulus"":""img/green_ll/4.jpg"",""time"":201},{""stimulus"":""img/green_ll/5.jpg"",""time"":251},{""stimulus"":""img/green_ll/6.jpg"",""time"":301},{""stimulus"":""img/green_ll/7.jpg"",""time"":351},{""stimulus"":""img/green_ll/8.jpg"",""time"":412},{""stimulus"":""img/green_ll/9.jpg"",""time"":451},{""stimulus"":""img/green_ll/10.jpg"",""time"":505},{""stimulus"":""img/green_ll/11.jpg"",""time"":566}]","[]"
"image-keyboard-response","42","40460","0.0-5.0-1.19","631e8c52a408a788b7e62e11","bdp_lott","Sun Apr 09 2023 18:34:12 GMT-0500 (Central Daylight Time)","205656","red","green","","318","","","","choice","","img/green_ll/choose11.jpg","2","206","red","0.5","0.5","0.5","w","",""
"animation","43","41061","0.0-5.0-2.19","631e8c52a408a788b7e62e11","bdp_lott","Sun Apr 09 2023 18:34:12 GMT-0500 (Central Daylight Time)","205656","red","green","","","","","","","","","","206","","","","","","[{""stimulus"":""img/red_lw/1.jpg"",""time"":64},{""stimulus"":""img/red_lw/2.jpg"",""time"":110},{""stimulus"":""img/red_lw/3.jpg"",""time"":157},{""stimulus"":""img/red_lw/4.jpg"",""time"":201},{""stimulus"":""img/red_lw/5.jpg"",""time"":250},{""stimulus"":""img/red_lw/6.jpg"",""time"":312},{""stimulus"":""img/red_lw/7.jpg"",""time"":360},{""stimulus"":""img/red_lw/8.jpg"",""time"":400},{""stimulus"":""img/red_lw/9.jpg"",""time"":451},{""stimulus"":""img/red_lw/10.jpg"",""time"":500},{""stimulus"":""img/red_lw/11.jpg"",""time"":551}]","[]"
"image-keyboard-response","44","41542","0.0-5.0-1.20","631e8c52a408a788b7e62e11","bdp_lott","Sun Apr 09 2023 18:34:12 GMT-0500 (Central Daylight Time)","205656","red","green","","480","","","","choice","","img/red_lw/choose11.jpg","2","205","red","0.5","0.5","0.5","w","",""
"animation","45","42144","0.0-5.0-2.20","631e8c52a408a788b7e62e11","bdp_lott","Sun Apr 09 2023 18:34:12 GMT-0500 (Central Daylight Time)","205656","red","green","","","","","","","","","","205","","","","","","[{""stimulus"":""img/red_lw/1.jpg"",""time"":71},{""stimulus"":""img/red_lw/2.jpg"",""time"":101},{""stimulus"":""img/red_lw/3.jpg"",""time"":156},{""stimulus"":""img/red_lw/4.jpg"",""time"":203},{""stimulus"":""img/red_lw/5.jpg"",""time"":251},{""stimulus"":""img/red_lw/6.jpg"",""time"":301},{""stimulus"":""img/red_lw/7.jpg"",""time"":351},{""stimulus"":""img/red_lw/8.jpg"",""time"":401},{""stimulus"":""img/red_lw/9.jpg"",""time"":451},{""stimulus"":""img/red_lw/10.jpg"",""time"":501},{""stimulus"":""img/red_lw/11.jpg"",""time"":551}]","[]"
"image-keyboard-response","46","42671","0.0-5.0-1.21","631e8c52a408a788b7e62e11","bdp_lott","Sun Apr 09 2023 18:34:12 GMT-0500 (Central Daylight Time)","205656","red","green","","526","","","","choice","","img/red_lw/choose11.jpg","2","204","red","0.5","0.5","0.5","w","",""
"animation","47","43272","0.0-5.0-2.21","631e8c52a408a788b7e62e11","bdp_lott","Sun Apr 09 2023 18:34:12 GMT-0500 (Central Daylight Time)","205656","red","green","","","","","","","","","","204","","","","","","[{""stimulus"":""img/red_lw/1.jpg"",""time"":63},{""stimulus"":""img/red_lw/2.jpg"",""time"":109},{""stimulus"":""img/red_lw/3.jpg"",""time"":154},{""stimulus"":""img/red_lw/4.jpg"",""time"":227},{""stimulus"":""img/red_lw/5.jpg"",""time"":252},{""stimulus"":""img/red_lw/6.jpg"",""time"":307},{""stimulus"":""img/red_lw/7.jpg"",""time"":351},{""stimulus"":""img/red_lw/8.jpg"",""time"":402},{""stimulus"":""img/red_lw/9.jpg"",""time"":451},{""stimulus"":""img/red_lw/10.jpg"",""time"":511},{""stimulus"":""img/red_lw/11.jpg"",""time"":550}]","[]"
"image-keyboard-response","48","43629","0.0-5.0-1.22","631e8c52a408a788b7e62e11","bdp_lott","Sun Apr 09 2023 18:34:12 GMT-0500 (Central Daylight Time)","205656","red","green","","355","","","","choice","","img/red_lw/choose11.jpg","2","203","red","0.5","0.5","0.5","l","",""
"animation","49","44231","0.0-5.0-2.22","631e8c52a408a788b7e62e11","bdp_lott","Sun Apr 09 2023 18:34:12 GMT-0500 (Central Daylight Time)","205656","red","green","","","","","","","","","","203","","","","","","[{""stimulus"":""img/red_ll/1.jpg"",""time"":64},{""stimulus"":""img/red_ll/2.jpg"",""time"":112},{""stimulus"":""img/red_ll/3.jpg"",""time"":152},{""stimulus"":""img/red_ll/4.jpg"",""time"":202},{""stimulus"":""img/red_ll/5.jpg"",""time"":251},{""stimulus"":""img/red_ll/6.jpg"",""time"":300},{""stimulus"":""img/red_ll/7.jpg"",""time"":362},{""stimulus"":""img/red_ll/8.jpg"",""time"":410},{""stimulus"":""img/red_ll/9.jpg"",""time"":450},{""stimulus"":""img/red_ll/10.jpg"",""time"":500},{""stimulus"":""img/red_ll/11.jpg"",""time"":553}]","[]"
"image-keyboard-response","50","44730","0.0-5.0-1.23","631e8c52a408a788b7e62e11","bdp_lott","Sun Apr 09 2023 18:34:12 GMT-0500 (Central Daylight Time)","205656","red","green","","499","","","","choice","","img/red_ll/choose11.jpg","2","202","red","0.5","0.5","0.5","w","",""
"animation","51","45332","0.0-5.0-2.23","631e8c52a408a788b7e62e11","bdp_lott","Sun Apr 09 2023 18:34:12 GMT-0500 (Central Daylight Time)","205656","red","green","","","","","","","","","","202","","","","","","[{""stimulus"":""img/red_lw/1.jpg"",""time"":62},{""stimulus"":""img/red_lw/2.jpg"",""time"":101},{""stimulus"":""img/red_lw/3.jpg"",""time"":157},{""stimulus"":""img/red_lw/4.jpg"",""time"":201},{""stimulus"":""img/red_lw/5.jpg"",""time"":250},{""stimulus"":""img/red_lw/6.jpg"",""time"":316},{""stimulus"":""img/red_lw/7.jpg"",""time"":364},{""stimulus"":""img/red_lw/8.jpg"",""time"":411},{""stimulus"":""img/red_lw/9.jpg"",""time"":457},{""stimulus"":""img/red_lw/10.jpg"",""time"":505},{""stimulus"":""img/red_lw/11.jpg"",""time"":552}]","[]"
"image-keyboard-response","52","45774","0.0-5.0-1.24","631e8c52a408a788b7e62e11","bdp_lott","Sun Apr 09 2023 18:34:12 GMT-0500 (Central Daylight Time)","205656","red","green","","441","","","","choice","","img/red_lw/choose11.jpg","2","201","red","0.5","0.5","0.5","l","",""
"animation","53","46375","0.0-5.0-2.24","631e8c52a408a788b7e62e11","bdp_lott","Sun Apr 09 2023 18:34:12 GMT-0500 (Central Daylight Time)","205656","red","green","","","","","","","","","","201","","","","","","[{""stimulus"":""img/red_ll/1.jpg"",""time"":56},{""stimulus"":""img/red_ll/2.jpg"",""time"":104},{""stimulus"":""img/red_ll/3.jpg"",""time"":151},{""stimulus"":""img/red_ll/4.jpg"",""time"":200},{""stimulus"":""img/red_ll/5.jpg"",""time"":261},{""stimulus"":""img/red_ll/6.jpg"",""time"":308},{""stimulus"":""img/red_ll/7.jpg"",""time"":355},{""stimulus"":""img/red_ll/8.jpg"",""time"":403},{""stimulus"":""img/red_ll/9.jpg"",""time"":451},{""stimulus"":""img/red_ll/10.jpg"",""time"":501},{""stimulus"":""img/red_ll/11.jpg"",""time"":561}]","[]"
"image-keyboard-response","54","46687","0.0-5.0-1.25","631e8c52a408a788b7e62e11","bdp_lott","Sun Apr 09 2023 18:34:12 GMT-0500 (Central Daylight Time)","205656","red","green","","310","","","","choice","","img/red_ll/choose11.jpg","2","200","red","0.5","0.5","0.5","w","",""
"animation","55","47288","0.0-5.0-2.25","631e8c52a408a788b7e62e11","bdp_lott","Sun Apr 09 2023 18:34:12 GMT-0500 (Central Daylight Time)","205656","red","green","","","","","","","","","","200","","","","","","[{""stimulus"":""img/red_lw/1.jpg"",""time"":57},{""stimulus"":""img/red_lw/2.jpg"",""time"":104},{""stimulus"":""img/red_lw/3.jpg"",""time"":151},{""stimulus"":""img/red_lw/4.jpg"",""time"":201},{""stimulus"":""img/red_lw/5.jpg"",""time"":251},{""stimulus"":""img/red_lw/6.jpg"",""time"":301},{""stimulus"":""img/red_lw/7.jpg"",""time"":351},{""stimulus"":""img/red_lw/8.jpg"",""time"":401},{""stimulus"":""img/red_lw/9.jpg"",""time"":452},{""stimulus"":""img/red_lw/10.jpg"",""time"":501},{""stimulus"":""img/red_lw/11.jpg"",""time"":564}]","[]"
"image-keyboard-response","56","47750","0.0-5.0-1.26","631e8c52a408a788b7e62e11","bdp_lott","Sun Apr 09 2023 18:34:12 GMT-0500 (Central Daylight Time)","205656","red","green","","461","","","","choice","","img/red_lw/choose11.jpg","2","199","red","0.5","0.5","0.5","w","",""
"animation","57","48351","0.0-5.0-2.26","631e8c52a408a788b7e62e11","bdp_lott","Sun Apr 09 2023 18:34:12 GMT-0500 (Central Daylight Time)","205656","red","green","","","","","","","","","","199","","","","","","[{""stimulus"":""img/red_lw/1.jpg"",""time"":64},{""stimulus"":""img/red_lw/2.jpg"",""time"":111},{""stimulus"":""img/red_lw/3.jpg"",""time"":151},{""stimulus"":""img/red_lw/4.jpg"",""time"":207},{""stimulus"":""img/red_lw/5.jpg"",""time"":254},{""stimulus"":""img/red_lw/6.jpg"",""time"":302},{""stimulus"":""img/red_lw/7.jpg"",""time"":352},{""stimulus"":""img/red_lw/8.jpg"",""time"":401},{""stimulus"":""img/red_lw/9.jpg"",""time"":452},{""stimulus"":""img/red_lw/10.jpg"",""time"":507},{""stimulus"":""img/red_lw/11.jpg"",""time"":552}]","[]"
"image-keyboard-response","58","48653","0.0-5.0-1.27","631e8c52a408a788b7e62e11","bdp_lott","Sun Apr 09 2023 18:34:12 GMT-0500 (Central Daylight Time)","205656","red","green","","302","","","","choice","","img/red_lw/choose11.jpg","2","198","red","0.5","0.5","0.5","w","",""
"animation","59","49255","0.0-5.0-2.27","631e8c52a408a788b7e62e11","bdp_lott","Sun Apr 09 2023 18:34:12 GMT-0500 (Central Daylight Time)","205656","red","green","","","","","","","","","","198","","","","","","[{""stimulus"":""img/red_lw/1.jpg"",""time"":63},{""stimulus"":""img/red_lw/2.jpg"",""time"":100},{""stimulus"":""img/red_lw/3.jpg"",""time"":150},{""stimulus"":""img/red_lw/4.jpg"",""time"":200},{""stimulus"":""img/red_lw/5.jpg"",""time"":250},{""stimulus"":""img/red_lw/6.jpg"",""time"":300},{""stimulus"":""img/red_lw/7.jpg"",""time"":352},{""stimulus"":""img/red_lw/8.jpg"",""time"":402},{""stimulus"":""img/red_lw/9.jpg"",""time"":451},{""stimulus"":""img/red_lw/10.jpg"",""time"":506},{""stimulus"":""img/red_lw/11.jpg"",""time"":553}]","[]"
"image-keyboard-response","60","49436","0.0-5.0-1.28","631e8c52a408a788b7e62e11","bdp_lott","Sun Apr 09 2023 18:34:12 GMT-0500 (Central Daylight Time)","205656","red","green","","181","","","","choice","","img/red_lw/choose11.jpg","2","197","red","0.5","0.5","0.5","l","",""
"animation","61","50045","0.0-5.0-2.28","631e8c52a408a788b7e62e11","bdp_lott","Sun Apr 09 2023 18:34:12 GMT-0500 (Central Daylight Time)","205656","red","green","","","","","","","","","","197","","","","","","[{""stimulus"":""img/red_ll/1.jpg"",""time"":51},{""stimulus"":""img/red_ll/2.jpg"",""time"":101},{""stimulus"":""img/red_ll/3.jpg"",""time"":151},{""stimulus"":""img/red_ll/4.jpg"",""time"":201},{""stimulus"":""img/red_ll/5.jpg"",""time"":251},{""stimulus"":""img/red_ll/6.jpg"",""time"":310},{""stimulus"":""img/red_ll/7.jpg"",""time"":351},{""stimulus"":""img/red_ll/8.jpg"",""time"":402},{""stimulus"":""img/red_ll/9.jpg"",""time"":451},{""stimulus"":""img/red_ll/10.jpg"",""time"":516},{""stimulus"":""img/red_ll/11.jpg"",""time"":562}]","[]"
"image-keyboard-response","62","50808","0.0-5.0-1.29","631e8c52a408a788b7e62e11","bdp_lott","Sun Apr 09 2023 18:34:12 GMT-0500 (Central Daylight Time)","205656","red","green","","762","","","","choice","","img/red_ll/choose11.jpg","2","196","red","0.5","0.5","0.5","l","",""
"animation","63","51408","0.0-5.0-2.29","631e8c52a408a788b7e62e11","bdp_lott","Sun Apr 09 2023 18:34:12 GMT-0500 (Central Daylight Time)","205656","red","green","","","","","","","","","","196","","","","","","[{""stimulus"":""img/red_ll/1.jpg"",""time"":61},{""stimulus"":""img/red_ll/2.jpg"",""time"":106},{""stimulus"":""img/red_ll/3.jpg"",""time"":152},{""stimulus"":""img/red_ll/4.jpg"",""time"":201},{""stimulus"":""img/red_ll/5.jpg"",""time"":261},{""stimulus"":""img/red_ll/6.jpg"",""time"":301},{""stimulus"":""img/red_ll/7.jpg"",""time"":351},{""stimulus"":""img/red_ll/8.jpg"",""time"":401},{""stimulus"":""img/red_ll/9.jpg"",""time"":462},{""stimulus"":""img/red_ll/10.jpg"",""time"":501},{""stimulus"":""img/red_ll/11.jpg"",""time"":554}]","[]"
"image-keyboard-response","64","51938","0.0-5.0-1.30","631e8c52a408a788b7e62e11","bdp_lott","Sun Apr 09 2023 18:34:12 GMT-0500 (Central Daylight Time)","205656","red","green","","529","","","","choice","","img/red_ll/choose11.jpg","2","195","red","0.5","0.5","0.5","l","",""
"animation","65","52552","0.0-5.0-2.30","631e8c52a408a788b7e62e11","bdp_lott","Sun Apr 09 2023 18:34:12 GMT-0500 (Central Daylight Time)","205656","red","green","","","","","","","","","","195","","","","","","[{""stimulus"":""img/red_ll/1.jpg"",""time"":59},{""stimulus"":""img/red_ll/2.jpg"",""time"":107},{""stimulus"":""img/red_ll/3.jpg"",""time"":151},{""stimulus"":""img/red_ll/4.jpg"",""time"":201},{""stimulus"":""img/red_ll/5.jpg"",""time"":251},{""stimulus"":""img/red_ll/6.jpg"",""time"":301},{""stimulus"":""img/red_ll/7.jpg"",""time"":351},{""stimulus"":""img/red_ll/8.jpg"",""time"":401},{""stimulus"":""img/red_ll/9.jpg"",""time"":462},{""stimulus"":""img/red_ll/10.jpg"",""time"":508},{""stimulus"":""img/red_ll/11.jpg"",""time"":554}]","[]"
"image-keyboard-response","66","52793","0.0-5.0-1.31","631e8c52a408a788b7e62e11","bdp_lott","Sun Apr 09 2023 18:34:12 GMT-0500 (Central Daylight Time)","205656","red","green","","240","","","","choice","","img/red_ll/choose11.jpg","2","194","red","0.5","0.5","0.5","w","",""
"animation","67","53394","0.0-5.0-2.31","631e8c52a408a788b7e62e11","bdp_lott","Sun Apr 09 2023 18:34:12 GMT-0500 (Central Daylight Time)","205656","red","green","","","","","","","","","","194","","","","","","[{""stimulus"":""img/red_lw/1.jpg"",""time"":54},{""stimulus"":""img/red_lw/2.jpg"",""time"":113},{""stimulus"":""img/red_lw/3.jpg"",""time"":162},{""stimulus"":""img/red_lw/4.jpg"",""time"":209},{""stimulus"":""img/red_lw/5.jpg"",""time"":255},{""stimulus"":""img/red_lw/6.jpg"",""time"":301},{""stimulus"":""img/red_lw/7.jpg"",""time"":365},{""stimulus"":""img/red_lw/8.jpg"",""time"":401},{""stimulus"":""img/red_lw/9.jpg"",""time"":451},{""stimulus"":""img/red_lw/10.jpg"",""time"":504},{""stimulus"":""img/red_lw/11.jpg"",""time"":551}]","[]"
"image-keyboard-response","68","53753","0.0-5.0-1.32","631e8c52a408a788b7e62e11","bdp_lott","Sun Apr 09 2023 18:34:12 GMT-0500 (Central Daylight Time)","205656","red","green","","359","","","","choice","","img/red_lw/choose11.jpg","2","193","red","0.5","0.5","0.5","l","",""
"animation","69","54354","0.0-5.0-2.32","631e8c52a408a788b7e62e11","bdp_lott","Sun Apr 09 2023 18:34:12 GMT-0500 (Central Daylight Time)","205656","red","green","","","","","","","","","","193","","","","","","[{""stimulus"":""img/red_ll/1.jpg"",""time"":52},{""stimulus"":""img/red_ll/2.jpg"",""time"":114},{""stimulus"":""img/red_ll/3.jpg"",""time"":160},{""stimulus"":""img/red_ll/4.jpg"",""time"":207},{""stimulus"":""img/red_ll/5.jpg"",""time"":254},{""stimulus"":""img/red_ll/6.jpg"",""time"":315},{""stimulus"":""img/red_ll/7.jpg"",""time"":350},{""stimulus"":""img/red_ll/8.jpg"",""time"":408},{""stimulus"":""img/red_ll/9.jpg"",""time"":455},{""stimulus"":""img/red_ll/10.jpg"",""time"":501},{""stimulus"":""img/red_ll/11.jpg"",""time"":562}]","[]"
"image-keyboard-response","70","54731","0.0-5.0-1.33","631e8c52a408a788b7e62e11","bdp_lott","Sun Apr 09 2023 18:34:12 GMT-0500 (Central Daylight Time)","205656","red","green","","377","","","","choice","","img/red_ll/choose11.jpg","1","192","green","0.5","0.5","0.5","w","",""
"animation","71","55359","0.0-5.0-2.33","631e8c52a408a788b7e62e11","bdp_lott","Sun Apr 09 2023 18:34:12 GMT-0500 (Central Daylight Time)","205656","red","green","","","","","","","","","","192","","","","","","[{""stimulus"":""img/green_wl/1.jpg"",""time"":64},{""stimulus"":""img/green_wl/2.jpg"",""time"":110},{""stimulus"":""img/green_wl/3.jpg"",""time"":151},{""stimulus"":""img/green_wl/4.jpg"",""time"":204},{""stimulus"":""img/green_wl/5.jpg"",""time"":251},{""stimulus"":""img/green_wl/6.jpg"",""time"":315},{""stimulus"":""img/green_wl/7.jpg"",""time"":353},{""stimulus"":""img/green_wl/8.jpg"",""time"":404},{""stimulus"":""img/green_wl/9.jpg"",""time"":454},{""stimulus"":""img/green_wl/10.jpg"",""time"":502},{""stimulus"":""img/green_wl/11.jpg"",""time"":566}]","[]"
"image-keyboard-response","72","55529","0.0-5.0-1.34","631e8c52a408a788b7e62e11","bdp_lott","Sun Apr 09 2023 18:34:12 GMT-0500 (Central Daylight Time)","205656","red","green","","169","","","","choice","","img/green_wl/choose11.jpg","1","191","green","0.5","0.5","0.5","w","",""
"animation","73","56130","0.0-5.0-2.34","631e8c52a408a788b7e62e11","bdp_lott","Sun Apr 09 2023 18:34:12 GMT-0500 (Central Daylight Time)","205656","red","green","","","","","","","","","","191","","","","","","[{""stimulus"":""img/green_wl/1.jpg"",""time"":60},{""stimulus"":""img/green_wl/2.jpg"",""time"":101},{""stimulus"":""img/green_wl/3.jpg"",""time"":153},{""stimulus"":""img/green_wl/4.jpg"",""time"":201},{""stimulus"":""img/green_wl/5.jpg"",""time"":251},{""stimulus"":""img/green_wl/6.jpg"",""time"":301},{""stimulus"":""img/green_wl/7.jpg"",""time"":351},{""stimulus"":""img/green_wl/8.jpg"",""time"":414},{""stimulus"":""img/green_wl/9.jpg"",""time"":451},{""stimulus"":""img/green_wl/10.jpg"",""time"":501},{""stimulus"":""img/green_wl/11.jpg"",""time"":551}]","[]"
"image-keyboard-response","74","56434","0.0-5.0-1.35","631e8c52a408a788b7e62e11","bdp_lott","Sun Apr 09 2023 18:34:12 GMT-0500 (Central Daylight Time)","205656","red","green","","304","","","","choice","","img/green_wl/choose11.jpg","1","190","green","0.5","0.5","0.5","l","",""
"animation","75","57035","0.0-5.0-2.35","631e8c52a408a788b7e62e11","bdp_lott","Sun Apr 09 2023 18:34:12 GMT-0500 (Central Daylight Time)","205656","red","green","","","","","","","","","","190","","","","","","[{""stimulus"":""img/green_ll/1.jpg"",""time"":76},{""stimulus"":""img/green_ll/2.jpg"",""time"":102},{""stimulus"":""img/green_ll/3.jpg"",""time"":165},{""stimulus"":""img/green_ll/4.jpg"",""time"":201},{""stimulus"":""img/green_ll/5.jpg"",""time"":251},{""stimulus"":""img/green_ll/6.jpg"",""time"":301},{""stimulus"":""img/green_ll/7.jpg"",""time"":352},{""stimulus"":""img/green_ll/8.jpg"",""time"":401},{""stimulus"":""img/green_ll/9.jpg"",""time"":451},{""stimulus"":""img/green_ll/10.jpg"",""time"":505},{""stimulus"":""img/green_ll/11.jpg"",""time"":552}]","[]"
"image-keyboard-response","76","57355","0.0-5.0-1.36","631e8c52a408a788b7e62e11","bdp_lott","Sun Apr 09 2023 18:34:12 GMT-0500 (Central Daylight Time)","205656","red","green","","319","","","","choice","","img/green_ll/choose11.jpg","1","189","green","0.5","0.5","0.5","l","",""
"animation","77","57955","0.0-5.0-2.36","631e8c52a408a788b7e62e11","bdp_lott","Sun Apr 09 2023 18:34:12 GMT-0500 (Central Daylight Time)","205656","red","green","","","","","","","","","","189","","","","","","[{""stimulus"":""img/green_ll/1.jpg"",""time"":52},{""stimulus"":""img/green_ll/2.jpg"",""time"":101},{""stimulus"":""img/green_ll/3.jpg"",""time"":161},{""stimulus"":""img/green_ll/4.jpg"",""time"":208},{""stimulus"":""img/green_ll/5.jpg"",""time"":255},{""stimulus"":""img/green_ll/6.jpg"",""time"":301},{""stimulus"":""img/green_ll/7.jpg"",""time"":351},{""stimulus"":""img/green_ll/8.jpg"",""time"":401},{""stimulus"":""img/green_ll/9.jpg"",""time"":460},{""stimulus"":""img/green_ll/10.jpg"",""time"":506},{""stimulus"":""img/green_ll/11.jpg"",""time"":551}]","[]"
"image-keyboard-response","78","58418","0.0-5.0-1.37","631e8c52a408a788b7e62e11","bdp_lott","Sun Apr 09 2023 18:34:12 GMT-0500 (Central Daylight Time)","205656","red","green","","462","","","","choice","","img/green_ll/choose11.jpg","2","188","red","0.5","0.5","0.5","w","",""
"animation","79","59019","0.0-5.0-2.37","631e8c52a408a788b7e62e11","bdp_lott","Sun Apr 09 2023 18:34:12 GMT-0500 (Central Daylight Time)","205656","red","green","","","","","","","","","","188","","","","","","[{""stimulus"":""img/red_lw/1.jpg"",""time"":60},{""stimulus"":""img/red_lw/2.jpg"",""time"":106},{""stimulus"":""img/red_lw/3.jpg"",""time"":154},{""stimulus"":""img/red_lw/4.jpg"",""time"":201},{""stimulus"":""img/red_lw/5.jpg"",""time"":263},{""stimulus"":""img/red_lw/6.jpg"",""time"":310},{""stimulus"":""img/red_lw/7.jpg"",""time"":351},{""stimulus"":""img/red_lw/8.jpg"",""time"":401},{""stimulus"":""img/red_lw/9.jpg"",""time"":451},{""stimulus"":""img/red_lw/10.jpg"",""time"":514},{""stimulus"":""img/red_lw/11.jpg"",""time"":550}]","[]"
"image-keyboard-response","80","59557","0.0-5.0-1.38","631e8c52a408a788b7e62e11","bdp_lott","Sun Apr 09 2023 18:34:12 GMT-0500 (Central Daylight Time)","205656","red","green","","538","","","","choice","","img/red_lw/choose11.jpg","2","187","red","0.5","0.5","0.5","w","",""
"animation","81","60158","0.0-5.0-2.38","631e8c52a408a788b7e62e11","bdp_lott","Sun Apr 09 2023 18:34:12 GMT-0500 (Central Daylight Time)","205656","red","green","","","","","","","","","","187","","","","","","[{""stimulus"":""img/red_lw/1.jpg"",""time"":51},{""stimulus"":""img/red_lw/2.jpg"",""time"":102},{""stimulus"":""img/red_lw/3.jpg"",""time"":151},{""stimulus"":""img/red_lw/4.jpg"",""time"":205},{""stimulus"":""img/red_lw/5.jpg"",""time"":252},{""stimulus"":""img/red_lw/6.jpg"",""time"":311},{""stimulus"":""img/red_lw/7.jpg"",""time"":361},{""stimulus"":""img/red_lw/8.jpg"",""time"":407},{""stimulus"":""img/red_lw/9.jpg"",""time"":451},{""stimulus"":""img/red_lw/10.jpg"",""time"":514},{""stimulus"":""img/red_lw/11.jpg"",""time"":551}]","[]"
"image-keyboard-response","82","60544","0.0-5.0-1.39","631e8c52a408a788b7e62e11","bdp_lott","Sun Apr 09 2023 18:34:12 GMT-0500 (Central Daylight Time)","205656","red","green","","386","","","","choice","","img/red_lw/choose11.jpg","2","186","red","0.5","0.5","0.5","w","",""
"animation","83","61149","0.0-5.0-2.39","631e8c52a408a788b7e62e11","bdp_lott","Sun Apr 09 2023 18:34:12 GMT-0500 (Central Daylight Time)","205656","red","green","","","","","","","","","","186","","","","","","[{""stimulus"":""img/red_lw/1.jpg"",""time"":54},{""stimulus"":""img/red_lw/2.jpg"",""time"":117},{""stimulus"":""img/red_lw/3.jpg"",""time"":155},{""stimulus"":""img/red_lw/4.jpg"",""time"":205},{""stimulus"":""img/red_lw/5.jpg"",""time"":255},{""stimulus"":""img/red_lw/6.jpg"",""time"":302},{""stimulus"":""img/red_lw/7.jpg"",""time"":364},{""stimulus"":""img/red_lw/8.jpg"",""time"":411},{""stimulus"":""img/red_lw/9.jpg"",""time"":462},{""stimulus"":""img/red_lw/10.jpg"",""time"":506},{""stimulus"":""img/red_lw/11.jpg"",""time"":555}]","[]"
"image-keyboard-response","84","61579","0.0-5.0-1.40","631e8c52a408a788b7e62e11","bdp_lott","Sun Apr 09 2023 18:34:12 GMT-0500 (Central Daylight Time)","205656","red","green","","430","","","","choice","","img/red_lw/choose11.jpg","2","185","red","0.5","0.5","0.5","w","",""
"animation","85","62181","0.0-5.0-2.40","631e8c52a408a788b7e62e11","bdp_lott","Sun Apr 09 2023 18:34:12 GMT-0500 (Central Daylight Time)","205656","red","green","","","","","","","","","","185","","","","","","[{""stimulus"":""img/red_lw/1.jpg"",""time"":53},{""stimulus"":""img/red_lw/2.jpg"",""time"":114},{""stimulus"":""img/red_lw/3.jpg"",""time"":153},{""stimulus"":""img/red_lw/4.jpg"",""time"":203},{""stimulus"":""img/red_lw/5.jpg"",""time"":253},{""stimulus"":""img/red_lw/6.jpg"",""time"":303},{""stimulus"":""img/red_lw/7.jpg"",""time"":353},{""stimulus"":""img/red_lw/8.jpg"",""time"":402},{""stimulus"":""img/red_lw/9.jpg"",""time"":452},{""stimulus"":""img/red_lw/10.jpg"",""time"":502},{""stimulus"":""img/red_lw/11.jpg"",""time"":552}]","[]"
"image-keyboard-response","86","62565","0.0-5.0-1.41","631e8c52a408a788b7e62e11","bdp_lott","Sun Apr 09 2023 18:34:12 GMT-0500 (Central Daylight Time)","205656","red","green","","383","","","","choice","","img/red_lw/choose11.jpg","2","184","red","0.5","0.5","0.5","l","",""
"animation","87","63166","0.0-5.0-2.41","631e8c52a408a788b7e62e11","bdp_lott","Sun Apr 09 2023 18:34:12 GMT-0500 (Central Daylight Time)","205656","red","green","","","","","","","","","","184","","","","","","[{""stimulus"":""img/red_ll/1.jpg"",""time"":56},{""stimulus"":""img/red_ll/2.jpg"",""time"":101},{""stimulus"":""img/red_ll/3.jpg"",""time"":163},{""stimulus"":""img/red_ll/4.jpg"",""time"":210},{""stimulus"":""img/red_ll/5.jpg"",""time"":256},{""stimulus"":""img/red_ll/6.jpg"",""time"":301},{""stimulus"":""img/red_ll/7.jpg"",""time"":351},{""stimulus"":""img/red_ll/8.jpg"",""time"":401},{""stimulus"":""img/red_ll/9.jpg"",""time"":451},{""stimulus"":""img/red_ll/10.jpg"",""time"":501},{""stimulus"":""img/red_ll/11.jpg"",""time"":551}]","[]"
"image-keyboard-response","88","63467","0.0-5.0-1.42","631e8c52a408a788b7e62e11","bdp_lott","Sun Apr 09 2023 18:34:12 GMT-0500 (Central Daylight Time)","205656","red","green","","300","","","","choice","","img/red_ll/choose11.jpg","2","183","red","0.5","0.5","0.5","l","",""
"animation","89","64071","0.0-5.0-2.42","631e8c52a408a788b7e62e11","bdp_lott","Sun Apr 09 2023 18:34:12 GMT-0500 (Central Daylight Time)","205656","red","green","","","","","","","","","","183","","","","","","[{""stimulus"":""img/red_ll/1.jpg"",""time"":64},{""stimulus"":""img/red_ll/2.jpg"",""time"":110},{""stimulus"":""img/red_ll/3.jpg"",""time"":151},{""stimulus"":""img/red_ll/4.jpg"",""time"":202},{""stimulus"":""img/red_ll/5.jpg"",""time"":264},{""stimulus"":""img/red_ll/6.jpg"",""time"":312},{""stimulus"":""img/red_ll/7.jpg"",""time"":358},{""stimulus"":""img/red_ll/8.jpg"",""time"":404},{""stimulus"":""img/red_ll/9.jpg"",""time"":451},{""stimulus"":""img/red_ll/10.jpg"",""time"":511},{""stimulus"":""img/red_ll/11.jpg"",""time"":558}]","[]"
"image-keyboard-response","90","64417","0.0-5.0-1.43","631e8c52a408a788b7e62e11","bdp_lott","Sun Apr 09 2023 18:34:12 GMT-0500 (Central Daylight Time)","205656","red","green","","344","","","","choice","","img/red_ll/choose11.jpg","1","182","green","0.5","0.5","0.5","l","",""
"animation","91","65019","0.0-5.0-2.43","631e8c52a408a788b7e62e11","bdp_lott","Sun Apr 09 2023 18:34:12 GMT-0500 (Central Daylight Time)","205656","red","green","","","","","","","","","","182","","","","","","[{""stimulus"":""img/green_ll/1.jpg"",""time"":58},{""stimulus"":""img/green_ll/2.jpg"",""time"":105},{""stimulus"":""img/green_ll/3.jpg"",""time"":150},{""stimulus"":""img/green_ll/4.jpg"",""time"":200},{""stimulus"":""img/green_ll/5.jpg"",""time"":261},{""stimulus"":""img/green_ll/6.jpg"",""time"":300},{""stimulus"":""img/green_ll/7.jpg"",""time"":350},{""stimulus"":""img/green_ll/8.jpg"",""time"":400},{""stimulus"":""img/green_ll/9.jpg"",""time"":450},{""stimulus"":""img/green_ll/10.jpg"",""time"":509},{""stimulus"":""img/green_ll/11.jpg"",""time"":551}]","[]"
"image-keyboard-response","92","65357","0.0-5.0-1.44","631e8c52a408a788b7e62e11","bdp_lott","Sun Apr 09 2023 18:34:12 GMT-0500 (Central Daylight Time)","205656","red","green","","337","","","","choice","","img/green_ll/choose11.jpg","1","181","green","0.5","0.5","0.5","w","",""
"animation","93","65958","0.0-5.0-2.44","631e8c52a408a788b7e62e11","bdp_lott","Sun Apr 09 2023 18:34:12 GMT-0500 (Central Daylight Time)","205656","red","green","","","","","","","","","","181","","","","","","[{""stimulus"":""img/green_wl/1.jpg"",""time"":51},{""stimulus"":""img/green_wl/2.jpg"",""time"":112},{""stimulus"":""img/green_wl/3.jpg"",""time"":159},{""stimulus"":""img/green_wl/4.jpg"",""time"":204},{""stimulus"":""img/green_wl/5.jpg"",""time"":251},{""stimulus"":""img/green_wl/6.jpg"",""time"":301},{""stimulus"":""img/green_wl/7.jpg"",""time"":351},{""stimulus"":""img/green_wl/8.jpg"",""time"":405},{""stimulus"":""img/green_wl/9.jpg"",""time"":451},{""stimulus"":""img/green_wl/10.jpg"",""time"":514},{""stimulus"":""img/green_wl/11.jpg"",""time"":551}]","[]"
"image-keyboard-response","94","66400","0.0-5.0-1.45","631e8c52a408a788b7e62e11","bdp_lott","Sun Apr 09 2023 18:34:12 GMT-0500 (Central Daylight Time)","205656","red","green","","441","","","","choice","","img/green_wl/choose11.jpg","1","180","green","0.5","0.5","0.5","l","",""
"animation","95","67015","0.0-5.0-2.45","631e8c52a408a788b7e62e11","bdp_lott","Sun Apr 09 2023 18:34:12 GMT-0500 (Central Daylight Time)","205656","red","green","","","","","","","","","","180","","","","","","[{""stimulus"":""img/green_ll/1.jpg"",""time"":57},{""stimulus"":""img/green_ll/2.jpg"",""time"":104},{""stimulus"":""img/green_ll/3.jpg"",""time"":166},{""stimulus"":""img/green_ll/4.jpg"",""time"":207},{""stimulus"":""img/green_ll/5.jpg"",""time"":274},{""stimulus"":""img/green_ll/6.jpg"",""time"":305},{""stimulus"":""img/green_ll/7.jpg"",""time"":351},{""stimulus"":""img/green_ll/8.jpg"",""time"":402},{""stimulus"":""img/green_ll/9.jpg"",""time"":462},{""stimulus"":""img/green_ll/10.jpg"",""time"":509},{""stimulus"":""img/green_ll/11.jpg"",""time"":551}]","[]"
"image-keyboard-response","96","67304","0.0-5.0-1.46","631e8c52a408a788b7e62e11","bdp_lott","Sun Apr 09 2023 18:34:12 GMT-0500 (Central Daylight Time)","205656","red","green","","288","","","","choice","","img/green_ll/choose11.jpg","1","179","green","0.5","0.5","0.5","l","",""
"animation","97","67904","0.0-5.0-2.46","631e8c52a408a788b7e62e11","bdp_lott","Sun Apr 09 2023 18:34:12 GMT-0500 (Central Daylight Time)","205656","red","green","","","","","","","","","","179","","","","","","[{""stimulus"":""img/green_ll/1.jpg"",""time"":52},{""stimulus"":""img/green_ll/2.jpg"",""time"":101},{""stimulus"":""img/green_ll/3.jpg"",""time"":159},{""stimulus"":""img/green_ll/4.jpg"",""time"":201},{""stimulus"":""img/green_ll/5.jpg"",""time"":251},{""stimulus"":""img/green_ll/6.jpg"",""time"":301},{""stimulus"":""img/green_ll/7.jpg"",""time"":351},{""stimulus"":""img/green_ll/8.jpg"",""time"":401},{""stimulus"":""img/green_ll/9.jpg"",""time"":452},{""stimulus"":""img/green_ll/10.jpg"",""time"":516},{""stimulus"":""img/green_ll/11.jpg"",""time"":562}]","[]"
"image-keyboard-response","98","68215","0.0-5.0-1.47","631e8c52a408a788b7e62e11","bdp_lott","Sun Apr 09 2023 18:34:12 GMT-0500 (Central Daylight Time)","205656","red","green","","310","","","","choice","","img/green_ll/choose11.jpg","1","178","green","0.5","0.5","0.5","w","",""
"animation","99","68819","0.0-5.0-2.47","631e8c52a408a788b7e62e11","bdp_lott","Sun Apr 09 2023 18:34:12 GMT-0500 (Central Daylight Time)","205656","red","green","","","","","","","","","","178","","","","","","[{""stimulus"":""img/green_wl/1.jpg"",""time"":55},{""stimulus"":""img/green_wl/2.jpg"",""time"":115},{""stimulus"":""img/green_wl/3.jpg"",""time"":160},{""stimulus"":""img/green_wl/4.jpg"",""time"":208},{""stimulus"":""img/green_wl/5.jpg"",""time"":253},{""stimulus"":""img/green_wl/6.jpg"",""time"":315},{""stimulus"":""img/green_wl/7.jpg"",""time"":360},{""stimulus"":""img/green_wl/8.jpg"",""time"":406},{""stimulus"":""img/green_wl/9.jpg"",""time"":452},{""stimulus"":""img/green_wl/10.jpg"",""time"":514},{""stimulus"":""img/green_wl/11.jpg"",""time"":551}]","[]"
"image-keyboard-response","100","69240","0.0-5.0-1.48","631e8c52a408a788b7e62e11","bdp_lott","Sun Apr 09 2023 18:34:12 GMT-0500 (Central Daylight Time)","205656","red","green","","420","","","","choice","","img/green_wl/choose11.jpg","1","177","green","0.5","0.5","0.5","w","",""
"animation","101","69843","0.0-5.0-2.48","631e8c52a408a788b7e62e11","bdp_lott","Sun Apr 09 2023 18:34:12 GMT-0500 (Central Daylight Time)","205656","red","green","","","","","","","","","","177","","","","","","[{""stimulus"":""img/green_wl/1.jpg"",""time"":60},{""stimulus"":""img/green_wl/2.jpg"",""time"":106},{""stimulus"":""img/green_wl/3.jpg"",""time"":153},{""stimulus"":""img/green_wl/4.jpg"",""time"":206},{""stimulus"":""img/green_wl/5.jpg"",""time"":261},{""stimulus"":""img/green_wl/6.jpg"",""time"":300},{""stimulus"":""img/green_wl/7.jpg"",""time"":355},{""stimulus"":""img/green_wl/8.jpg"",""time"":403},{""stimulus"":""img/green_wl/9.jpg"",""time"":464},{""stimulus"":""img/green_wl/10.jpg"",""time"":512},{""stimulus"":""img/green_wl/11.jpg"",""time"":558}]","[]"
"image-keyboard-response","102","70086","0.0-5.0-1.49","631e8c52a408a788b7e62e11","bdp_lott","Sun Apr 09 2023 18:34:12 GMT-0500 (Central Daylight Time)","205656","red","green","","242","","","","choice","","img/green_wl/choose11.jpg","1","176","green","0.5","0.5","0.5","l","",""
"animation","103","70695","0.0-5.0-2.49","631e8c52a408a788b7e62e11","bdp_lott","Sun Apr 09 2023 18:34:12 GMT-0500 (Central Daylight Time)","205656","red","green","","","","","","","","","","176","","","","","","[{""stimulus"":""img/green_ll/1.jpg"",""time"":53},{""stimulus"":""img/green_ll/2.jpg"",""time"":114},{""stimulus"":""img/green_ll/3.jpg"",""time"":151},{""stimulus"":""img/green_ll/4.jpg"",""time"":207},{""stimulus"":""img/green_ll/5.jpg"",""time"":251},{""stimulus"":""img/green_ll/6.jpg"",""time"":301},{""stimulus"":""img/green_ll/7.jpg"",""time"":352},{""stimulus"":""img/green_ll/8.jpg"",""time"":401},{""stimulus"":""img/green_ll/9.jpg"",""time"":451},{""stimulus"":""img/green_ll/10.jpg"",""time"":502},{""stimulus"":""img/green_ll/11.jpg"",""time"":551}]","[]"
"image-keyboard-response","104","70932","0.0-5.0-1.50","631e8c52a408a788b7e62e11","bdp_lott","Sun Apr 09 2023 18:34:12 GMT-0500 (Central Daylight Time)","205656","red","green","","237","","","","choice","","img/green_ll/choose11.jpg","1","175","green","0.5","0.5","0.5","l","",""
"animation","105","71533","0.0-5.0-2.50","631e8c52a408a788b7e62e11","bdp_lott","Sun Apr 09 2023 18:34:12 GMT-0500 (Central Daylight Time)","205656","red","green","","","","","","","","","","175","","","","","","[{""stimulus"":""img/green_ll/1.jpg"",""time"":55},{""stimulus"":""img/green_ll/2.jpg"",""time"":100},{""stimulus"":""img/green_ll/3.jpg"",""time"":163},{""stimulus"":""img/green_ll/4.jpg"",""time"":211},{""stimulus"":""img/green_ll/5.jpg"",""time"":263},{""stimulus"":""img/green_ll/6.jpg"",""time"":305},{""stimulus"":""img/green_ll/7.jpg"",""time"":351},{""stimulus"":""img/green_ll/8.jpg"",""time"":411},{""stimulus"":""img/green_ll/9.jpg"",""time"":459},{""stimulus"":""img/green_ll/10.jpg"",""time"":504},{""stimulus"":""img/green_ll/11.jpg"",""time"":551}]","[]"
"image-keyboard-response","106","71807","0.0-5.0-1.51","631e8c52a408a788b7e62e11","bdp_lott","Sun Apr 09 2023 18:34:12 GMT-0500 (Central Daylight Time)","205656","red","green","","273","","","","choice","","img/green_ll/choose11.jpg","1","174","green","0.5","0.5","0.5","l","",""
"animation","107","72463","0.0-5.0-2.51","631e8c52a408a788b7e62e11","bdp_lott","Sun Apr 09 2023 18:34:12 GMT-0500 (Central Daylight Time)","205656","red","green","","","","","","","","","","174","","","","","","[{""stimulus"":""img/green_ll/1.jpg"",""time"":66},{""stimulus"":""img/green_ll/2.jpg"",""time"":103},{""stimulus"":""img/green_ll/3.jpg"",""time"":153},{""stimulus"":""img/green_ll/4.jpg"",""time"":202},{""stimulus"":""img/green_ll/5.jpg"",""time"":252},{""stimulus"":""img/green_ll/6.jpg"",""time"":312},{""stimulus"":""img/green_ll/7.jpg"",""time"":359},{""stimulus"":""img/green_ll/8.jpg"",""time"":404},{""stimulus"":""img/green_ll/9.jpg"",""time"":452},{""stimulus"":""img/green_ll/10.jpg"",""time"":554},{""stimulus"":""img/green_ll/11.jpg"",""time"":609}]","[]"
"image-keyboard-response","108","72605","0.0-5.0-1.52","631e8c52a408a788b7e62e11","bdp_lott","Sun Apr 09 2023 18:34:12 GMT-0500 (Central Daylight Time)","205656","red","green","","141","","","","choice","","img/green_ll/choose11.jpg","2","173","red","0.5","0.5","0.5","l","",""
"animation","109","73221","0.0-5.0-2.52","631e8c52a408a788b7e62e11","bdp_lott","Sun Apr 09 2023 18:34:12 GMT-0500 (Central Daylight Time)","205656","red","green","","","","","","","","","","173","","","","","","[{""stimulus"":""img/red_ll/1.jpg"",""time"":59},{""stimulus"":""img/red_ll/2.jpg"",""time"":104},{""stimulus"":""img/red_ll/3.jpg"",""time"":151},{""stimulus"":""img/red_ll/4.jpg"",""time"":212},{""stimulus"":""img/red_ll/5.jpg"",""time"":259},{""stimulus"":""img/red_ll/6.jpg"",""time"":300},{""stimulus"":""img/red_ll/7.jpg"",""time"":351},{""stimulus"":""img/red_ll/8.jpg"",""time"":400},{""stimulus"":""img/red_ll/9.jpg"",""time"":451},{""stimulus"":""img/red_ll/10.jpg"",""time"":506},{""stimulus"":""img/red_ll/11.jpg"",""time"":551}]","[]"
"image-keyboard-response","110","73358","0.0-5.0-1.53","631e8c52a408a788b7e62e11","bdp_lott","Sun Apr 09 2023 18:34:12 GMT-0500 (Central Daylight Time)","205656","red","green","","136","","","","choice","","img/red_ll/choose11.jpg","2","172","red","0.5","0.5","0.5","l","",""
"animation","111","73958","0.0-5.0-2.53","631e8c52a408a788b7e62e11","bdp_lott","Sun Apr 09 2023 18:34:12 GMT-0500 (Central Daylight Time)","205656","red","green","","","","","","","","","","172","","","","","","[{""stimulus"":""img/red_ll/1.jpg"",""time"":65},{""stimulus"":""img/red_ll/2.jpg"",""time"":101},{""stimulus"":""img/red_ll/3.jpg"",""time"":151},{""stimulus"":""img/red_ll/4.jpg"",""time"":201},{""stimulus"":""img/red_ll/5.jpg"",""time"":251},{""stimulus"":""img/red_ll/6.jpg"",""time"":301},{""stimulus"":""img/red_ll/7.jpg"",""time"":351},{""stimulus"":""img/red_ll/8.jpg"",""time"":401},{""stimulus"":""img/red_ll/9.jpg"",""time"":451},{""stimulus"":""img/red_ll/10.jpg"",""time"":501},{""stimulus"":""img/red_ll/11.jpg"",""time"":551}]","[]"
"image-keyboard-response","112","74213","0.0-5.0-1.54","631e8c52a408a788b7e62e11","bdp_lott","Sun Apr 09 2023 18:34:12 GMT-0500 (Central Daylight Time)","205656","red","green","","254","","","","choice","","img/red_ll/choose11.jpg","2","171","red","0.5","0.5","0.5","w","",""
"animation","113","74816","0.0-5.0-2.54","631e8c52a408a788b7e62e11","bdp_lott","Sun Apr 09 2023 18:34:12 GMT-0500 (Central Daylight Time)","205656","red","green","","","","","","","","","","171","","","","","","[{""stimulus"":""img/red_lw/1.jpg"",""time"":59},{""stimulus"":""img/red_lw/2.jpg"",""time"":105},{""stimulus"":""img/red_lw/3.jpg"",""time"":160},{""stimulus"":""img/red_lw/4.jpg"",""time"":213},{""stimulus"":""img/red_lw/5.jpg"",""time"":260},{""stimulus"":""img/red_lw/6.jpg"",""time"":307},{""stimulus"":""img/red_lw/7.jpg"",""time"":352},{""stimulus"":""img/red_lw/8.jpg"",""time"":426},{""stimulus"":""img/red_lw/9.jpg"",""time"":453},{""stimulus"":""img/red_lw/10.jpg"",""time"":509},{""stimulus"":""img/red_lw/11.jpg"",""time"":556}]","[]"
"image-keyboard-response","114","75050","0.0-5.0-1.55","631e8c52a408a788b7e62e11","bdp_lott","Sun Apr 09 2023 18:34:12 GMT-0500 (Central Daylight Time)","205656","red","green","","233","","","","choice","","img/red_lw/choose11.jpg","2","170","red","0.5","0.5","0.5","l","",""
"animation","115","75664","0.0-5.0-2.55","631e8c52a408a788b7e62e11","bdp_lott","Sun Apr 09 2023 18:34:12 GMT-0500 (Central Daylight Time)","205656","red","green","","","","","","","","","","170","","","","","","[{""stimulus"":""img/red_ll/1.jpg"",""time"":55},{""stimulus"":""img/red_ll/2.jpg"",""time"":106},{""stimulus"":""img/red_ll/3.jpg"",""time"":151},{""stimulus"":""img/red_ll/4.jpg"",""time"":201},{""stimulus"":""img/red_ll/5.jpg"",""time"":251},{""stimulus"":""img/red_ll/6.jpg"",""time"":301},{""stimulus"":""img/red_ll/7.jpg"",""time"":351},{""stimulus"":""img/red_ll/8.jpg"",""time"":401},{""stimulus"":""img/red_ll/9.jpg"",""time"":459},{""stimulus"":""img/red_ll/10.jpg"",""time"":505},{""stimulus"":""img/red_ll/11.jpg"",""time"":551}]","[]"
"image-keyboard-response","116","75999","0.0-5.0-1.56","631e8c52a408a788b7e62e11","bdp_lott","Sun Apr 09 2023 18:34:12 GMT-0500 (Central Daylight Time)","205656","red","green","","334","","","","choice","","img/red_ll/choose11.jpg","2","169","red","0.5","0.5","0.5","l","",""
"animation","117","76606","0.0-5.0-2.56","631e8c52a408a788b7e62e11","bdp_lott","Sun Apr 09 2023 18:34:12 GMT-0500 (Central Daylight Time)","205656","red","green","","","","","","","","","","169","","","","","","[{""stimulus"":""img/red_ll/1.jpg"",""time"":54},{""stimulus"":""img/red_ll/2.jpg"",""time"":115},{""stimulus"":""img/red_ll/3.jpg"",""time"":151},{""stimulus"":""img/red_ll/4.jpg"",""time"":201},{""stimulus"":""img/red_ll/5.jpg"",""time"":251},{""stimulus"":""img/red_ll/6.jpg"",""time"":301},{""stimulus"":""img/red_ll/7.jpg"",""time"":351},{""stimulus"":""img/red_ll/8.jpg"",""time"":401},{""stimulus"":""img/red_ll/9.jpg"",""time"":453},{""stimulus"":""img/red_ll/10.jpg"",""time"":501},{""stimulus"":""img/red_ll/11.jpg"",""time"":551}]","[]"
"image-keyboard-response","118","76952","0.0-5.0-1.57","631e8c52a408a788b7e62e11","bdp_lott","Sun Apr 09 2023 18:34:12 GMT-0500 (Central Daylight Time)","205656","red","green","","345","","","","choice","","img/red_ll/choose11.jpg","2","168","red","0.5","0.5","0.5","l","",""
"animation","119","77553","0.0-5.0-2.57","631e8c52a408a788b7e62e11","bdp_lott","Sun Apr 09 2023 18:34:12 GMT-0500 (Central Daylight Time)","205656","red","green","","","","","","","","","","168","","","","","","[{""stimulus"":""img/red_ll/1.jpg"",""time"":57},{""stimulus"":""img/red_ll/2.jpg"",""time"":104},{""stimulus"":""img/red_ll/3.jpg"",""time"":151},{""stimulus"":""img/red_ll/4.jpg"",""time"":201},{""stimulus"":""img/red_ll/5.jpg"",""time"":251},{""stimulus"":""img/red_ll/6.jpg"",""time"":301},{""stimulus"":""img/red_ll/7.jpg"",""time"":351},{""stimulus"":""img/red_ll/8.jpg"",""time"":401},{""stimulus"":""img/red_ll/9.jpg"",""time"":451},{""stimulus"":""img/red_ll/10.jpg"",""time"":504},{""stimulus"":""img/red_ll/11.jpg"",""time"":551}]","[]"
"image-keyboard-response","120","77880","0.0-5.0-1.58","631e8c52a408a788b7e62e11","bdp_lott","Sun Apr 09 2023 18:34:12 GMT-0500 (Central Daylight Time)","205656","red","green","","327","","","","choice","","img/red_ll/choose11.jpg","2","167","red","0.5","0.5","0.5","w","",""
"animation","121","78481","0.0-5.0-2.58","631e8c52a408a788b7e62e11","bdp_lott","Sun Apr 09 2023 18:34:12 GMT-0500 (Central Daylight Time)","205656","red","green","","","","","","","","","","167","","","","","","[{""stimulus"":""img/red_lw/1.jpg"",""time"":53},{""stimulus"":""img/red_lw/2.jpg"",""time"":101},{""stimulus"":""img/red_lw/3.jpg"",""time"":158},{""stimulus"":""img/red_lw/4.jpg"",""time"":204},{""stimulus"":""img/red_lw/5.jpg"",""time"":253},{""stimulus"":""img/red_lw/6.jpg"",""time"":302},{""stimulus"":""img/red_lw/7.jpg"",""time"":351},{""stimulus"":""img/red_lw/8.jpg"",""time"":402},{""stimulus"":""img/red_lw/9.jpg"",""time"":452},{""stimulus"":""img/red_lw/10.jpg"",""time"":515},{""stimulus"":""img/red_lw/11.jpg"",""time"":561}]","[]"
"image-keyboard-response","122","78660","0.0-5.0-1.59","631e8c52a408a788b7e62e11","bdp_lott","Sun Apr 09 2023 18:34:12 GMT-0500 (Central Daylight Time)","205656","red","green","","179","","","","choice","","img/red_lw/choose11.jpg","2","166","red","0.5","0.5","0.5","l","",""
"animation","123","79321","0.0-5.0-2.59","631e8c52a408a788b7e62e11","bdp_lott","Sun Apr 09 2023 18:34:12 GMT-0500 (Central Daylight Time)","205656","red","green","","","","","","","","","","166","","","","","","[{""stimulus"":""img/red_ll/1.jpg"",""time"":61},{""stimulus"":""img/red_ll/2.jpg"",""time"":107},{""stimulus"":""img/red_ll/3.jpg"",""time"":153},{""stimulus"":""img/red_ll/4.jpg"",""time"":214},{""stimulus"":""img/red_ll/5.jpg"",""time"":261},{""stimulus"":""img/red_ll/6.jpg"",""time"":301},{""stimulus"":""img/red_ll/7.jpg"",""time"":354},{""stimulus"":""img/red_ll/8.jpg"",""time"":415},{""stimulus"":""img/red_ll/9.jpg"",""time"":451},{""stimulus"":""img/red_ll/10.jpg"",""time"":509},{""stimulus"":""img/red_ll/11.jpg"",""time"":602}]","[]"
"image-keyboard-response","124","79563","0.0-5.0-1.60","631e8c52a408a788b7e62e11","bdp_lott","Sun Apr 09 2023 18:34:12 GMT-0500 (Central Daylight Time)","205656","red","green","","241","","","","choice","","img/red_ll/choose11.jpg","2","165","red","0.5","0.5","0.5","l","",""
"animation","125","80164","0.0-5.0-2.60","631e8c52a408a788b7e62e11","bdp_lott","Sun Apr 09 2023 18:34:12 GMT-0500 (Central Daylight Time)","205656","red","green","","","","","","","","","","165","","","","","","[{""stimulus"":""img/red_ll/1.jpg"",""time"":65},{""stimulus"":""img/red_ll/2.jpg"",""time"":101},{""stimulus"":""img/red_ll/3.jpg"",""time"":151},{""stimulus"":""img/red_ll/4.jpg"",""time"":201},{""stimulus"":""img/red_ll/5.jpg"",""time"":264},{""stimulus"":""img/red_ll/6.jpg"",""time"":310},{""stimulus"":""img/red_ll/7.jpg"",""time"":356},{""stimulus"":""img/red_ll/8.jpg"",""time"":402},{""stimulus"":""img/red_ll/9.jpg"",""time"":464},{""stimulus"":""img/red_ll/10.jpg"",""time"":510},{""stimulus"":""img/red_ll/11.jpg"",""time"":556}]","[]"
"image-keyboard-response","126","80320","0.0-5.0-1.61","631e8c52a408a788b7e62e11","bdp_lott","Sun Apr 09 2023 18:34:12 GMT-0500 (Central Daylight Time)","205656","red","green","","155","","","","choice","","img/red_ll/choose11.jpg","1","164","green","0.5","0.5","0.5","w","",""
"animation","127","80921","0.0-5.0-2.61","631e8c52a408a788b7e62e11","bdp_lott","Sun Apr 09 2023 18:34:12 GMT-0500 (Central Daylight Time)","205656","red","green","","","","","","","","","","164","","","","","","[{""stimulus"":""img/green_wl/1.jpg"",""time"":64},{""stimulus"":""img/green_wl/2.jpg"",""time"":102},{""stimulus"":""img/green_wl/3.jpg"",""time"":151},{""stimulus"":""img/green_wl/4.jpg"",""time"":202},{""stimulus"":""img/green_wl/5.jpg"",""time"":265},{""stimulus"":""img/green_wl/6.jpg"",""time"":302},{""stimulus"":""img/green_wl/7.jpg"",""time"":352},{""stimulus"":""img/green_wl/8.jpg"",""time"":402},{""stimulus"":""img/green_wl/9.jpg"",""time"":452},{""stimulus"":""img/green_wl/10.jpg"",""time"":502},{""stimulus"":""img/green_wl/11.jpg"",""time"":552}]","[]"
"image-keyboard-response","128","81162","0.0-5.0-1.62","631e8c52a408a788b7e62e11","bdp_lott","Sun Apr 09 2023 18:34:12 GMT-0500 (Central Daylight Time)","205656","red","green","","240","","","","choice","","img/green_wl/choose11.jpg","1","163","green","0.5","0.5","0.5","w","",""
"animation","129","81763","0.0-5.0-2.62","631e8c52a408a788b7e62e11","bdp_lott","Sun Apr 09 2023 18:34:12 GMT-0500 (Central Daylight Time)","205656","red","green","","","","","","","","","","163","","","","","","[{""stimulus"":""img/green_wl/1.jpg"",""time"":56},{""stimulus"":""img/green_wl/2.jpg"",""time"":102},{""stimulus"":""img/green_wl/3.jpg"",""time"":164},{""stimulus"":""img/green_wl/4.jpg"",""time"":211},{""stimulus"":""img/green_wl/5.jpg"",""time"":259},{""stimulus"":""img/green_wl/6.jpg"",""time"":306},{""stimulus"":""img/green_wl/7.jpg"",""time"":355},{""stimulus"":""img/green_wl/8.jpg"",""time"":402},{""stimulus"":""img/green_wl/9.jpg"",""time"":452},{""stimulus"":""img/green_wl/10.jpg"",""time"":501},{""stimulus"":""img/green_wl/11.jpg"",""time"":551}]","[]"
"image-keyboard-response","130","81963","0.0-5.0-1.63","631e8c52a408a788b7e62e11","bdp_lott","Sun Apr 09 2023 18:34:12 GMT-0500 (Central Daylight Time)","205656","red","green","","199","","","","choice","","img/green_wl/choose11.jpg","1","162","green","0.5","0.5","0.5","w","",""
"animation","131","82570","0.0-5.0-2.63","631e8c52a408a788b7e62e11","bdp_lott","Sun Apr 09 2023 18:34:12 GMT-0500 (Central Daylight Time)","205656","red","green","","","","","","","","","","162","","","","","","[{""stimulus"":""img/green_wl/1.jpg"",""time"":52},{""stimulus"":""img/green_wl/2.jpg"",""time"":113},{""stimulus"":""img/green_wl/3.jpg"",""time"":160},{""stimulus"":""img/green_wl/4.jpg"",""time"":205},{""stimulus"":""img/green_wl/5.jpg"",""time"":254},{""stimulus"":""img/green_wl/6.jpg"",""time"":301},{""stimulus"":""img/green_wl/7.jpg"",""time"":358},{""stimulus"":""img/green_wl/8.jpg"",""time"":406},{""stimulus"":""img/green_wl/9.jpg"",""time"":452},{""stimulus"":""img/green_wl/10.jpg"",""time"":515},{""stimulus"":""img/green_wl/11.jpg"",""time"":560}]","[]"
"image-keyboard-response","132","82697","0.0-5.0-1.64","631e8c52a408a788b7e62e11","bdp_lott","Sun Apr 09 2023 18:34:12 GMT-0500 (Central Daylight Time)","205656","red","green","","126","","","","choice","","img/green_wl/choose11.jpg","1","161","green","0.5","0.5","0.5","w","",""
"animation","133","83298","0.0-5.0-2.64","631e8c52a408a788b7e62e11","bdp_lott","Sun Apr 09 2023 18:34:12 GMT-0500 (Central Daylight Time)","205656","red","green","","","","","","","","","","161","","","","","","[{""stimulus"":""img/green_wl/1.jpg"",""time"":60},{""stimulus"":""img/green_wl/2.jpg"",""time"":100},{""stimulus"":""img/green_wl/3.jpg"",""time"":155},{""stimulus"":""img/green_wl/4.jpg"",""time"":200},{""stimulus"":""img/green_wl/5.jpg"",""time"":250},{""stimulus"":""img/green_wl/6.jpg"",""time"":310},{""stimulus"":""img/green_wl/7.jpg"",""time"":356},{""stimulus"":""img/green_wl/8.jpg"",""time"":400},{""stimulus"":""img/green_wl/9.jpg"",""time"":451},{""stimulus"":""img/green_wl/10.jpg"",""time"":500},{""stimulus"":""img/green_wl/11.jpg"",""time"":556}]","[]"
"image-keyboard-response","134","83457","0.0-5.0-1.65","631e8c52a408a788b7e62e11","bdp_lott","Sun Apr 09 2023 18:34:12 GMT-0500 (Central Daylight Time)","205656","red","green","","158","","","","choice","","img/green_wl/choose11.jpg","1","160","green","0.5","0.5","0.5","w","",""
"animation","135","84057","0.0-5.0-2.65","631e8c52a408a788b7e62e11","bdp_lott","Sun Apr 09 2023 18:34:12 GMT-0500 (Central Daylight Time)","205656","red","green","","","","","","","","","","160","","","","","","[{""stimulus"":""img/green_wl/1.jpg"",""time"":61},{""stimulus"":""img/green_wl/2.jpg"",""time"":108},{""stimulus"":""img/green_wl/3.jpg"",""time"":153},{""stimulus"":""img/green_wl/4.jpg"",""time"":215},{""stimulus"":""img/green_wl/5.jpg"",""time"":262},{""stimulus"":""img/green_wl/6.jpg"",""time"":301},{""stimulus"":""img/green_wl/7.jpg"",""time"":351},{""stimulus"":""img/green_wl/8.jpg"",""time"":401},{""stimulus"":""img/green_wl/9.jpg"",""time"":450},{""stimulus"":""img/green_wl/10.jpg"",""time"":500},{""stimulus"":""img/green_wl/11.jpg"",""time"":555}]","[]"
"image-keyboard-response","136","84296","0.0-5.0-1.66","631e8c52a408a788b7e62e11","bdp_lott","Sun Apr 09 2023 18:34:12 GMT-0500 (Central Daylight Time)","205656","red","green","","238","","","","choice","","img/green_wl/choose11.jpg","1","159","green","0.5","0.5","0.5","w","",""
"animation","137","84898","0.0-5.0-2.66","631e8c52a408a788b7e62e11","bdp_lott","Sun Apr 09 2023 18:34:12 GMT-0500 (Central Daylight Time)","205656","red","green","","","","","","","","","","159","","","","","","[{""stimulus"":""img/green_wl/1.jpg"",""time"":51},{""stimulus"":""img/green_wl/2.jpg"",""time"":106},{""stimulus"":""img/green_wl/3.jpg"",""time"":151},{""stimulus"":""img/green_wl/4.jpg"",""time"":213},{""stimulus"":""img/green_wl/5.jpg"",""time"":251},{""stimulus"":""img/green_wl/6.jpg"",""time"":302},{""stimulus"":""img/green_wl/7.jpg"",""time"":352},{""stimulus"":""img/green_wl/8.jpg"",""time"":401},{""stimulus"":""img/green_wl/9.jpg"",""time"":451},{""stimulus"":""img/green_wl/10.jpg"",""time"":506},{""stimulus"":""img/green_wl/11.jpg"",""time"":551}]","[]"
"image-keyboard-response","138","85085","0.0-5.0-1.67","631e8c52a408a788b7e62e11","bdp_lott","Sun Apr 09 2023 18:34:12 GMT-0500 (Central Daylight Time)","205656","red","green","","186","","","","choice","","img/green_wl/choose11.jpg","1","158","green","0.5","0.5","0.5","w","",""
"animation","139","85686","0.0-5.0-2.67","631e8c52a408a788b7e62e11","bdp_lott","Sun Apr 09 2023 18:34:12 GMT-0500 (Central Daylight Time)","205656","red","green","","","","","","","","","","158","","","","","","[{""stimulus"":""img/green_wl/1.jpg"",""time"":60},{""stimulus"":""img/green_wl/2.jpg"",""time"":106},{""stimulus"":""img/green_wl/3.jpg"",""time"":150},{""stimulus"":""img/green_wl/4.jpg"",""time"":200},{""stimulus"":""img/green_wl/5.jpg"",""time"":251},{""stimulus"":""img/green_wl/6.jpg"",""time"":300},{""stimulus"":""img/green_wl/7.jpg"",""time"":351},{""stimulus"":""img/green_wl/8.jpg"",""time"":413},{""stimulus"":""img/green_wl/9.jpg"",""time"":451},{""stimulus"":""img/green_wl/10.jpg"",""time"":501},{""stimulus"":""img/green_wl/11.jpg"",""time"":551}]","[]"
"image-keyboard-response","140","85790","0.0-5.0-1.68","631e8c52a408a788b7e62e11","bdp_lott","Sun Apr 09 2023 18:34:12 GMT-0500 (Central Daylight Time)","205656","red","green","","104","","","","choice","","img/green_wl/choose11.jpg","1","157","green","0.5","0.5","0.5","l","",""
"animation","141","86401","0.0-5.0-2.68","631e8c52a408a788b7e62e11","bdp_lott","Sun Apr 09 2023 18:34:12 GMT-0500 (Central Daylight Time)","205656","red","green","","","","","","","","","","157","","","","","","[{""stimulus"":""img/green_ll/1.jpg"",""time"":64},{""stimulus"":""img/green_ll/2.jpg"",""time"":111},{""stimulus"":""img/green_ll/3.jpg"",""time"":151},{""stimulus"":""img/green_ll/4.jpg"",""time"":203},{""stimulus"":""img/green_ll/5.jpg"",""time"":266},{""stimulus"":""img/green_ll/6.jpg"",""time"":314},{""stimulus"":""img/green_ll/7.jpg"",""time"":351},{""stimulus"":""img/green_ll/8.jpg"",""time"":401},{""stimulus"":""img/green_ll/9.jpg"",""time"":451},{""stimulus"":""img/green_ll/10.jpg"",""time"":500},{""stimulus"":""img/green_ll/11.jpg"",""time"":551}]","[]"
"image-keyboard-response","142","86543","0.0-5.0-1.69","631e8c52a408a788b7e62e11","bdp_lott","Sun Apr 09 2023 18:34:12 GMT-0500 (Central Daylight Time)","205656","red","green","","141","","","","choice","","img/green_ll/choose11.jpg","1","156","green","0.5","0.5","0.5","l","",""
"animation","143","87147","0.0-5.0-2.69","631e8c52a408a788b7e62e11","bdp_lott","Sun Apr 09 2023 18:34:12 GMT-0500 (Central Daylight Time)","205656","red","green","","","","","","","","","","156","","","","","","[{""stimulus"":""img/green_ll/1.jpg"",""time"":59},{""stimulus"":""img/green_ll/2.jpg"",""time"":101},{""stimulus"":""img/green_ll/3.jpg"",""time"":153},{""stimulus"":""img/green_ll/4.jpg"",""time"":200},{""stimulus"":""img/green_ll/5.jpg"",""time"":251},{""stimulus"":""img/green_ll/6.jpg"",""time"":306},{""stimulus"":""img/green_ll/7.jpg"",""time"":352},{""stimulus"":""img/green_ll/8.jpg"",""time"":412},{""stimulus"":""img/green_ll/9.jpg"",""time"":459},{""stimulus"":""img/green_ll/10.jpg"",""time"":505},{""stimulus"":""img/green_ll/11.jpg"",""time"":576}]","[]"
"image-keyboard-response","144","87332","0.0-5.0-1.70","631e8c52a408a788b7e62e11","bdp_lott","Sun Apr 09 2023 18:34:12 GMT-0500 (Central Daylight Time)","205656","red","green","","184","","","","choice","","img/green_ll/choose11.jpg","1","155","green","0.5","0.5","0.5","w","",""
"animation","145","87933","0.0-5.0-2.70","631e8c52a408a788b7e62e11","bdp_lott","Sun Apr 09 2023 18:34:12 GMT-0500 (Central Daylight Time)","205656","red","green","","","","","","","","","","155","","","","","","[{""stimulus"":""img/green_wl/1.jpg"",""time"":62},{""stimulus"":""img/green_wl/2.jpg"",""time"":109},{""stimulus"":""img/green_wl/3.jpg"",""time"":155},{""stimulus"":""img/green_wl/4.jpg"",""time"":200},{""stimulus"":""img/green_wl/5.jpg"",""time"":262},{""stimulus"":""img/green_wl/6.jpg"",""time"":309},{""stimulus"":""img/green_wl/7.jpg"",""time"":355},{""stimulus"":""img/green_wl/8.jpg"",""time"":400},{""stimulus"":""img/green_wl/9.jpg"",""time"":451},{""stimulus"":""img/green_wl/10.jpg"",""time"":509},{""stimulus"":""img/green_wl/11.jpg"",""time"":551}]","[]"
"image-keyboard-response","146","88151","0.0-5.0-1.71","631e8c52a408a788b7e62e11","bdp_lott","Sun Apr 09 2023 18:34:12 GMT-0500 (Central Daylight Time)","205656","red","green","","217","","","","choice","","img/green_wl/choose11.jpg","2","154","red","0.5","0.5","0.5","w","",""
"animation","147","88752","0.0-5.0-2.71","631e8c52a408a788b7e62e11","bdp_lott","Sun Apr 09 2023 18:34:12 GMT-0500 (Central Daylight Time)","205656","red","green","","","","","","","","","","154","","","","","","[{""stimulus"":""img/red_ww/1.jpg"",""time"":59},{""stimulus"":""img/red_ww/2.jpg"",""time"":105},{""stimulus"":""img/red_ww/3.jpg"",""time"":150},{""stimulus"":""img/red_ww/4.jpg"",""time"":200},{""stimulus"":""img/red_ww/5.jpg"",""time"":251},{""stimulus"":""img/red_ww/6.jpg"",""time"":301},{""stimulus"":""img/red_ww/7.jpg"",""time"":351},{""stimulus"":""img/red_ww/8.jpg"",""time"":401},{""stimulus"":""img/red_ww/9.jpg"",""time"":458},{""stimulus"":""img/red_ww/10.jpg"",""time"":505},{""stimulus"":""img/red_ww/11.jpg"",""time"":552}]","[]"
"image-keyboard-response","148","88885","0.0-5.0-1.72","631e8c52a408a788b7e62e11","bdp_lott","Sun Apr 09 2023 18:34:12 GMT-0500 (Central Daylight Time)","205656","red","green","","132","","","","choice","","img/red_ww/choose11.jpg","2","153","red","0.5","0.5","0.5","l","",""
"animation","149","89496","0.0-5.0-2.72","631e8c52a408a788b7e62e11","bdp_lott","Sun Apr 09 2023 18:34:12 GMT-0500 (Central Daylight Time)","205656","red","green","","","","","","","","","","153","","","","","","[{""stimulus"":""img/red_wl/1.jpg"",""time"":52},{""stimulus"":""img/red_wl/2.jpg"",""time"":114},{""stimulus"":""img/red_wl/3.jpg"",""time"":161},{""stimulus"":""img/red_wl/4.jpg"",""time"":207},{""stimulus"":""img/red_wl/5.jpg"",""time"":253},{""stimulus"":""img/red_wl/6.jpg"",""time"":316},{""stimulus"":""img/red_wl/7.jpg"",""time"":364},{""stimulus"":""img/red_wl/8.jpg"",""time"":410},{""stimulus"":""img/red_wl/9.jpg"",""time"":462},{""stimulus"":""img/red_wl/10.jpg"",""time"":503},{""stimulus"":""img/red_wl/11.jpg"",""time"":551}]","[]"
"image-keyboard-response","150","89872","0.0-5.0-1.73","631e8c52a408a788b7e62e11","bdp_lott","Sun Apr 09 2023 18:34:12 GMT-0500 (Central Daylight Time)","205656","red","green","","375","","","","choice","","img/red_wl/choose11.jpg","1","152","green","0.5","0.5","0.5","l","",""
"animation","151","90486","0.0-5.0-2.73","631e8c52a408a788b7e62e11","bdp_lott","Sun Apr 09 2023 18:34:12 GMT-0500 (Central Daylight Time)","205656","red","green","","","","","","","","","","152","","","","","","[{""stimulus"":""img/green_ll/1.jpg"",""time"":55},{""stimulus"":""img/green_ll/2.jpg"",""time"":101},{""stimulus"":""img/green_ll/3.jpg"",""time"":162},{""stimulus"":""img/green_ll/4.jpg"",""time"":208},{""stimulus"":""img/green_ll/5.jpg"",""time"":255},{""stimulus"":""img/green_ll/6.jpg"",""time"":301},{""stimulus"":""img/green_ll/7.jpg"",""time"":362},{""stimulus"":""img/green_ll/8.jpg"",""time"":410},{""stimulus"":""img/green_ll/9.jpg"",""time"":454},{""stimulus"":""img/green_ll/10.jpg"",""time"":515},{""stimulus"":""img/green_ll/11.jpg"",""time"":560}]","[]"
"image-keyboard-response","152","90624","0.0-5.0-1.74","631e8c52a408a788b7e62e11","bdp_lott","Sun Apr 09 2023 18:34:12 GMT-0500 (Central Daylight Time)","205656","red","green","","137","","","","choice","","img/green_ll/choose11.jpg","1","151","green","0.5","0.5","0.5","l","",""
"animation","153","91224","0.0-5.0-2.74","631e8c52a408a788b7e62e11","bdp_lott","Sun Apr 09 2023 18:34:12 GMT-0500 (Central Daylight Time)","205656","red","green","","","","","","","","","","151","","","","","","[{""stimulus"":""img/green_ll/1.jpg"",""time"":55},{""stimulus"":""img/green_ll/2.jpg"",""time"":101},{""stimulus"":""img/green_ll/3.jpg"",""time"":151},{""stimulus"":""img/green_ll/4.jpg"",""time"":209},{""stimulus"":""img/green_ll/5.jpg"",""time"":255},{""stimulus"":""img/green_ll/6.jpg"",""time"":302},{""stimulus"":""img/green_ll/7.jpg"",""time"":351},{""stimulus"":""img/green_ll/8.jpg"",""time"":401},{""stimulus"":""img/green_ll/9.jpg"",""time"":459},{""stimulus"":""img/green_ll/10.jpg"",""time"":501},{""stimulus"":""img/green_ll/11.jpg"",""time"":551}]","[]"
"image-keyboard-response","154","91301","0.0-5.0-1.75","631e8c52a408a788b7e62e11","bdp_lott","Sun Apr 09 2023 18:34:12 GMT-0500 (Central Daylight Time)","205656","red","green","","76","","","","choice","","img/green_ll/choose11.jpg","2","150","red","0.5","0.5","0.5","w","",""
"animation","155","91902","0.0-5.0-2.75","631e8c52a408a788b7e62e11","bdp_lott","Sun Apr 09 2023 18:34:12 GMT-0500 (Central Daylight Time)","205656","red","green","","","","","","","","","","150","","","","","","[{""stimulus"":""img/red_lw/1.jpg"",""time"":61},{""stimulus"":""img/red_lw/2.jpg"",""time"":106},{""stimulus"":""img/red_lw/3.jpg"",""time"":151},{""stimulus"":""img/red_lw/4.jpg"",""time"":201},{""stimulus"":""img/red_lw/5.jpg"",""time"":251},{""stimulus"":""img/red_lw/6.jpg"",""time"":306},{""stimulus"":""img/red_lw/7.jpg"",""time"":351},{""stimulus"":""img/red_lw/8.jpg"",""time"":401},{""stimulus"":""img/red_lw/9.jpg"",""time"":451},{""stimulus"":""img/red_lw/10.jpg"",""time"":510},{""stimulus"":""img/red_lw/11.jpg"",""time"":551}]","[]"
"image-keyboard-response","156","92044","0.0-5.0-1.76","631e8c52a408a788b7e62e11","bdp_lott","Sun Apr 09 2023 18:34:12 GMT-0500 (Central Daylight Time)","205656","red","green","","141","","","","choice","","img/red_lw/choose11.jpg","1","149","green","0.5","0.1","0.1","l","",""
"animation","157","92645","0.0-5.0-2.76","631e8c52a408a788b7e62e11","bdp_lott","Sun Apr 09 2023 18:34:12 GMT-0500 (Central Daylight Time)","205656","red","green","","","","","","","","","","149","","","","","","[{""stimulus"":""img/green_lw/1.jpg"",""time"":59},{""stimulus"":""img/green_lw/2.jpg"",""time"":106},{""stimulus"":""img/green_lw/3.jpg"",""time"":150},{""stimulus"":""img/green_lw/4.jpg"",""time"":216},{""stimulus"":""img/green_lw/5.jpg"",""time"":251},{""stimulus"":""img/green_lw/6.jpg"",""time"":308},{""stimulus"":""img/green_lw/7.jpg"",""time"":350},{""stimulus"":""img/green_lw/8.jpg"",""time"":401},{""stimulus"":""img/green_lw/9.jpg"",""time"":451},{""stimulus"":""img/green_lw/10.jpg"",""time"":501},{""stimulus"":""img/green_lw/11.jpg"",""time"":550}]","[]"
"image-keyboard-response","158","92731","0.0-5.0-1.77","631e8c52a408a788b7e62e11","bdp_lott","Sun Apr 09 2023 18:34:12 GMT-0500 (Central Daylight Time)","205656","red","green","","85","","","","choice","","img/green_lw/choose11.jpg","1","148","green","0.5","0.1","0.1","l","",""
"animation","159","93332","0.0-5.0-2.77","631e8c52a408a788b7e62e11","bdp_lott","Sun Apr 09 2023 18:34:12 GMT-0500 (Central Daylight Time)","205656","red","green","","","","","","","","","","148","","","","","","[{""stimulus"":""img/green_lw/1.jpg"",""time"":55},{""stimulus"":""img/green_lw/2.jpg"",""time"":102},{""stimulus"":""img/green_lw/3.jpg"",""time"":151},{""stimulus"":""img/green_lw/4.jpg"",""time"":202},{""stimulus"":""img/green_lw/5.jpg"",""time"":252},{""stimulus"":""img/green_lw/6.jpg"",""time"":302},{""stimulus"":""img/green_lw/7.jpg"",""time"":351},{""stimulus"":""img/green_lw/8.jpg"",""time"":401},{""stimulus"":""img/green_lw/9.jpg"",""time"":452},{""stimulus"":""img/green_lw/10.jpg"",""time"":506},{""stimulus"":""img/green_lw/11.jpg"",""time"":552}]","[]"
"image-keyboard-response","160","93519","0.0-5.0-1.78","631e8c52a408a788b7e62e11","bdp_lott","Sun Apr 09 2023 18:34:12 GMT-0500 (Central Daylight Time)","205656","red","green","","186","","","","choice","","img/green_lw/choose11.jpg","2","147","red","0.5","0.1","0.5","w","",""
"animation","161","94120","0.0-5.0-2.78","631e8c52a408a788b7e62e11","bdp_lott","Sun Apr 09 2023 18:34:12 GMT-0500 (Central Daylight Time)","205656","red","green","","","","","","","","","","147","","","","","","[{""stimulus"":""img/red_lw/1.jpg"",""time"":57},{""stimulus"":""img/red_lw/2.jpg"",""time"":103},{""stimulus"":""img/red_lw/3.jpg"",""time"":164},{""stimulus"":""img/red_lw/4.jpg"",""time"":212},{""stimulus"":""img/red_lw/5.jpg"",""time"":258},{""stimulus"":""img/red_lw/6.jpg"",""time"":325},{""stimulus"":""img/red_lw/7.jpg"",""time"":359},{""stimulus"":""img/red_lw/8.jpg"",""time"":413},{""stimulus"":""img/red_lw/9.jpg"",""time"":460},{""stimulus"":""img/red_lw/10.jpg"",""time"":506},{""stimulus"":""img/red_lw/11.jpg"",""time"":551}]","[]"
"image-keyboard-response","162","94253","0.0-5.0-1.79","631e8c52a408a788b7e62e11","bdp_lott","Sun Apr 09 2023 18:34:12 GMT-0500 (Central Daylight Time)","205656","red","green","","132","","","","choice","","img/red_lw/choose11.jpg","1","146","green","0.5","0.1","0.1","l","",""
"animation","163","94869","0.0-5.0-2.79","631e8c52a408a788b7e62e11","bdp_lott","Sun Apr 09 2023 18:34:12 GMT-0500 (Central Daylight Time)","205656","red","green","","","","","","","","","","146","","","","","","[{""stimulus"":""img/green_lw/1.jpg"",""time"":64},{""stimulus"":""img/green_lw/2.jpg"",""time"":101},{""stimulus"":""img/green_lw/3.jpg"",""time"":156},{""stimulus"":""img/green_lw/4.jpg"",""time"":202},{""stimulus"":""img/green_lw/5.jpg"",""time"":264},{""stimulus"":""img/green_lw/6.jpg"",""time"":310},{""stimulus"":""img/green_lw/7.jpg"",""time"":356},{""stimulus"":""img/green_lw/8.jpg"",""time"":401},{""stimulus"":""img/green_lw/9.jpg"",""time"":463},{""stimulus"":""img/green_lw/10.jpg"",""time"":509},{""stimulus"":""img/green_lw/11.jpg"",""time"":554}]","[]"
"image-keyboard-response","164","94940","0.0-5.0-1.80","631e8c52a408a788b7e62e11","bdp_lott","Sun Apr 09 2023 18:34:12 GMT-0500 (Central Daylight Time)","205656","red","green","","70","","","","choice","","img/green_lw/choose11.jpg","2","145","red","0.5","0.1","0.5","l","",""
"animation","165","95591","0.0-5.0-2.80","631e8c52a408a788b7e62e11","bdp_lott","Sun Apr 09 2023 18:34:12 GMT-0500 (Central Daylight Time)","205656","red","green","","","","","","","","","","145","","","","","","[{""stimulus"":""img/red_ll/1.jpg"",""time"":125},{""stimulus"":""img/red_ll/2.jpg"",""time"":153},{""stimulus"":""img/red_ll/3.jpg"",""time"":209},{""stimulus"":""img/red_ll/4.jpg"",""time"":251},{""stimulus"":""img/red_ll/5.jpg"",""time"":301},{""stimulus"":""img/red_ll/6.jpg"",""time"":351},{""stimulus"":""img/red_ll/7.jpg"",""time"":401},{""stimulus"":""img/red_ll/8.jpg"",""time"":458},{""stimulus"":""img/red_ll/9.jpg"",""time"":505},{""stimulus"":""img/red_ll/10.jpg"",""time"":551},{""stimulus"":""img/red_ll/11.jpg"",""time"":614}]","[]"
"image-keyboard-response","166","95710","0.0-5.0-1.81","631e8c52a408a788b7e62e11","bdp_lott","Sun Apr 09 2023 18:34:12 GMT-0500 (Central Daylight Time)","205656","red","green","","119","","","","choice","","img/red_ll/choose11.jpg","1","144","green","0.5","0.1","0.1","l","",""
"animation","167","96311","0.0-5.0-2.81","631e8c52a408a788b7e62e11","bdp_lott","Sun Apr 09 2023 18:34:12 GMT-0500 (Central Daylight Time)","205656","red","green","","","","","","","","","","144","","","","","","[{""stimulus"":""img/green_ll/1.jpg"",""time"":63},{""stimulus"":""img/green_ll/2.jpg"",""time"":109},{""stimulus"":""img/green_ll/3.jpg"",""time"":156},{""stimulus"":""img/green_ll/4.jpg"",""time"":200},{""stimulus"":""img/green_ll/5.jpg"",""time"":251},{""stimulus"":""img/green_ll/6.jpg"",""time"":300},{""stimulus"":""img/green_ll/7.jpg"",""time"":350},{""stimulus"":""img/green_ll/8.jpg"",""time"":400},{""stimulus"":""img/green_ll/9.jpg"",""time"":452},{""stimulus"":""img/green_ll/10.jpg"",""time"":514},{""stimulus"":""img/green_ll/11.jpg"",""time"":551}]","[]"
"image-keyboard-response","168","96359","0.0-5.0-1.82","631e8c52a408a788b7e62e11","bdp_lott","Sun Apr 09 2023 18:34:12 GMT-0500 (Central Daylight Time)","205656","red","green","","47","","","","choice","","img/green_ll/choose11.jpg","2","143","red","0.5","0.1","0.5","w","",""
"animation","169","96965","0.0-5.0-2.82","631e8c52a408a788b7e62e11","bdp_lott","Sun Apr 09 2023 18:34:12 GMT-0500 (Central Daylight Time)","205656","red","green","","","","","","","","","","143","","","","","","[{""stimulus"":""img/red_lw/1.jpg"",""time"":65},{""stimulus"":""img/red_lw/2.jpg"",""time"":111},{""stimulus"":""img/red_lw/3.jpg"",""time"":151},{""stimulus"":""img/red_lw/4.jpg"",""time"":205},{""stimulus"":""img/red_lw/5.jpg"",""time"":251},{""stimulus"":""img/red_lw/6.jpg"",""time"":313},{""stimulus"":""img/red_lw/7.jpg"",""time"":358},{""stimulus"":""img/red_lw/8.jpg"",""time"":405},{""stimulus"":""img/red_lw/9.jpg"",""time"":453},{""stimulus"":""img/red_lw/10.jpg"",""time"":514},{""stimulus"":""img/red_lw/11.jpg"",""time"":560}]","[]"
"image-keyboard-response","170","97111","0.0-5.0-1.83","631e8c52a408a788b7e62e11","bdp_lott","Sun Apr 09 2023 18:34:12 GMT-0500 (Central Daylight Time)","205656","red","green","","145","","","","choice","","img/red_lw/choose11.jpg","1","142","green","0.5","0.1","0.1","l","",""
"animation","171","97713","0.0-5.0-2.83","631e8c52a408a788b7e62e11","bdp_lott","Sun Apr 09 2023 18:34:12 GMT-0500 (Central Daylight Time)","205656","red","green","","","","","","","","","","142","","","","","","[{""stimulus"":""img/green_lw/1.jpg"",""time"":56},{""stimulus"":""img/green_lw/2.jpg"",""time"":104},{""stimulus"":""img/green_lw/3.jpg"",""time"":151},{""stimulus"":""img/green_lw/4.jpg"",""time"":210},{""stimulus"":""img/green_lw/5.jpg"",""time"":254},{""stimulus"":""img/green_lw/6.jpg"",""time"":301},{""stimulus"":""img/green_lw/7.jpg"",""time"":352},{""stimulus"":""img/green_lw/8.jpg"",""time"":401},{""stimulus"":""img/green_lw/9.jpg"",""time"":451},{""stimulus"":""img/green_lw/10.jpg"",""time"":501},{""stimulus"":""img/green_lw/11.jpg"",""time"":551}]","[]"
"image-keyboard-response","172","97920","0.0-5.0-1.84","631e8c52a408a788b7e62e11","bdp_lott","Sun Apr 09 2023 18:34:12 GMT-0500 (Central Daylight Time)","205656","red","green","","206","","","","choice","","img/green_lw/choose11.jpg","1","141","green","0.5","0.1","0.1","l","",""
"animation","173","98525","0.0-5.0-2.84","631e8c52a408a788b7e62e11","bdp_lott","Sun Apr 09 2023 18:34:12 GMT-0500 (Central Daylight Time)","205656","red","green","","","","","","","","","","141","","","","","","[{""stimulus"":""img/green_lw/1.jpg"",""time"":66},{""stimulus"":""img/green_lw/2.jpg"",""time"":111},{""stimulus"":""img/green_lw/3.jpg"",""time"":157},{""stimulus"":""img/green_lw/4.jpg"",""time"":201},{""stimulus"":""img/green_lw/5.jpg"",""time"":251},{""stimulus"":""img/green_lw/6.jpg"",""time"":301},{""stimulus"":""img/green_lw/7.jpg"",""time"":358},{""stimulus"":""img/green_lw/8.jpg"",""time"":401},{""stimulus"":""img/green_lw/9.jpg"",""time"":451},{""stimulus"":""img/green_lw/10.jpg"",""time"":512},{""stimulus"":""img/green_lw/11.jpg"",""time"":559}]","[]"
"image-keyboard-response","174","98671","0.0-5.0-1.85","631e8c52a408a788b7e62e11","bdp_lott","Sun Apr 09 2023 18:34:12 GMT-0500 (Central Daylight Time)","205656","red","green","","145","","","","choice","","img/green_lw/choose11.jpg","2","140","red","0.5","0.1","0.5","w","",""
"animation","175","99280","0.0-5.0-2.85","631e8c52a408a788b7e62e11","bdp_lott","Sun Apr 09 2023 18:34:12 GMT-0500 (Central Daylight Time)","205656","red","green","","","","","","","","","","140","","","","","","[{""stimulus"":""img/red_lw/1.jpg"",""time"":55},{""stimulus"":""img/red_lw/2.jpg"",""time"":116},{""stimulus"":""img/red_lw/3.jpg"",""time"":162},{""stimulus"":""img/red_lw/4.jpg"",""time"":201},{""stimulus"":""img/red_lw/5.jpg"",""time"":256},{""stimulus"":""img/red_lw/6.jpg"",""time"":302},{""stimulus"":""img/red_lw/7.jpg"",""time"":364},{""stimulus"":""img/red_lw/8.jpg"",""time"":411},{""stimulus"":""img/red_lw/9.jpg"",""time"":451},{""stimulus"":""img/red_lw/10.jpg"",""time"":502},{""stimulus"":""img/red_lw/11.jpg"",""time"":563}]","[]"
"image-keyboard-response","176","99433","0.0-5.0-1.86","631e8c52a408a788b7e62e11","bdp_lott","Sun Apr 09 2023 18:34:12 GMT-0500 (Central Daylight Time)","205656","red","green","","152","","","","choice","","img/red_lw/choose11.jpg","2","139","red","0.5","0.1","0.5","l","",""
"animation","177","100034","0.0-5.0-2.86","631e8c52a408a788b7e62e11","bdp_lott","Sun Apr 09 2023 18:34:12 GMT-0500 (Central Daylight Time)","205656","red","green","","","","","","","","","","139","","","","","","[{""stimulus"":""img/red_ll/1.jpg"",""time"":63},{""stimulus"":""img/red_ll/2.jpg"",""time"":123},{""stimulus"":""img/red_ll/3.jpg"",""time"":152},{""stimulus"":""img/red_ll/4.jpg"",""time"":204},{""stimulus"":""img/red_ll/5.jpg"",""time"":251},{""stimulus"":""img/red_ll/6.jpg"",""time"":301},{""stimulus"":""img/red_ll/7.jpg"",""time"":361},{""stimulus"":""img/red_ll/8.jpg"",""time"":402},{""stimulus"":""img/red_ll/9.jpg"",""time"":453},{""stimulus"":""img/red_ll/10.jpg"",""time"":501},{""stimulus"":""img/red_ll/11.jpg"",""time"":552}]","[]"
"image-keyboard-response","178","100202","0.0-5.0-1.87","631e8c52a408a788b7e62e11","bdp_lott","Sun Apr 09 2023 18:34:12 GMT-0500 (Central Daylight Time)","205656","red","green","","168","","","","choice","","img/red_ll/choose11.jpg","2","138","red","0.5","0.1","0.5","l","",""
"animation","179","100802","0.0-5.0-2.87","631e8c52a408a788b7e62e11","bdp_lott","Sun Apr 09 2023 18:34:12 GMT-0500 (Central Daylight Time)","205656","red","green","","","","","","","","","","138","","","","","","[{""stimulus"":""img/red_ll/1.jpg"",""time"":58},{""stimulus"":""img/red_ll/2.jpg"",""time"":103},{""stimulus"":""img/red_ll/3.jpg"",""time"":151},{""stimulus"":""img/red_ll/4.jpg"",""time"":201},{""stimulus"":""img/red_ll/5.jpg"",""time"":252},{""stimulus"":""img/red_ll/6.jpg"",""time"":305},{""stimulus"":""img/red_ll/7.jpg"",""time"":351},{""stimulus"":""img/red_ll/8.jpg"",""time"":401},{""stimulus"":""img/red_ll/9.jpg"",""time"":461},{""stimulus"":""img/red_ll/10.jpg"",""time"":507},{""stimulus"":""img/red_ll/11.jpg"",""time"":551}]","[]"
"image-keyboard-response","180","101077","0.0-5.0-1.88","631e8c52a408a788b7e62e11","bdp_lott","Sun Apr 09 2023 18:34:12 GMT-0500 (Central Daylight Time)","205656","red","green","","274","","","","choice","","img/red_ll/choose11.jpg","1","137","green","0.5","0.1","0.1","l","",""
"animation","181","101678","0.0-5.0-2.88","631e8c52a408a788b7e62e11","bdp_lott","Sun Apr 09 2023 18:34:12 GMT-0500 (Central Daylight Time)","205656","red","green","","","","","","","","","","137","","","","","","[{""stimulus"":""img/green_ll/1.jpg"",""time"":65},{""stimulus"":""img/green_ll/2.jpg"",""time"":101},{""stimulus"":""img/green_ll/3.jpg"",""time"":151},{""stimulus"":""img/green_ll/4.jpg"",""time"":200},{""stimulus"":""img/green_ll/5.jpg"",""time"":251},{""stimulus"":""img/green_ll/6.jpg"",""time"":300},{""stimulus"":""img/green_ll/7.jpg"",""time"":361},{""stimulus"":""img/green_ll/8.jpg"",""time"":406},{""stimulus"":""img/green_ll/9.jpg"",""time"":452},{""stimulus"":""img/green_ll/10.jpg"",""time"":516},{""stimulus"":""img/green_ll/11.jpg"",""time"":562}]","[]"
"image-keyboard-response","182","101801","0.0-5.0-1.89","631e8c52a408a788b7e62e11","bdp_lott","Sun Apr 09 2023 18:34:12 GMT-0500 (Central Daylight Time)","205656","red","green","","122","","","","choice","","img/green_ll/choose11.jpg","1","136","green","0.5","0.1","0.1","l","",""
"animation","183","102417","0.0-5.0-2.89","631e8c52a408a788b7e62e11","bdp_lott","Sun Apr 09 2023 18:34:12 GMT-0500 (Central Daylight Time)","205656","red","green","","","","","","","","","","136","","","","","","[{""stimulus"":""img/green_ll/1.jpg"",""time"":59},{""stimulus"":""img/green_ll/2.jpg"",""time"":105},{""stimulus"":""img/green_ll/3.jpg"",""time"":150},{""stimulus"":""img/green_ll/4.jpg"",""time"":200},{""stimulus"":""img/green_ll/5.jpg"",""time"":250},{""stimulus"":""img/green_ll/6.jpg"",""time"":308},{""stimulus"":""img/green_ll/7.jpg"",""time"":350},{""stimulus"":""img/green_ll/8.jpg"",""time"":400},{""stimulus"":""img/green_ll/9.jpg"",""time"":450},{""stimulus"":""img/green_ll/10.jpg"",""time"":500},{""stimulus"":""img/green_ll/11.jpg"",""time"":554}]","[]"
"image-keyboard-response","184","102647","0.0-5.0-1.90","631e8c52a408a788b7e62e11","bdp_lott","Sun Apr 09 2023 18:34:12 GMT-0500 (Central Daylight Time)","205656","red","green","","229","","","","choice","","img/green_ll/choose11.jpg","1","135","green","0.5","0.1","0.1","l","",""
"animation","185","103248","0.0-5.0-2.90","631e8c52a408a788b7e62e11","bdp_lott","Sun Apr 09 2023 18:34:12 GMT-0500 (Central Daylight Time)","205656","red","green","","","","","","","","","","135","","","","","","[{""stimulus"":""img/green_ll/1.jpg"",""time"":62},{""stimulus"":""img/green_ll/2.jpg"",""time"":101},{""stimulus"":""img/green_ll/3.jpg"",""time"":155},{""stimulus"":""img/green_ll/4.jpg"",""time"":203},{""stimulus"":""img/green_ll/5.jpg"",""time"":266},{""stimulus"":""img/green_ll/6.jpg"",""time"":301},{""stimulus"":""img/green_ll/7.jpg"",""time"":360},{""stimulus"":""img/green_ll/8.jpg"",""time"":402},{""stimulus"":""img/green_ll/9.jpg"",""time"":451},{""stimulus"":""img/green_ll/10.jpg"",""time"":515},{""stimulus"":""img/green_ll/11.jpg"",""time"":552}]","[]"
"image-keyboard-response","186","103360","0.0-5.0-1.91","631e8c52a408a788b7e62e11","bdp_lott","Sun Apr 09 2023 18:34:12 GMT-0500 (Central Daylight Time)","205656","red","green","","111","","","","choice","","img/green_ll/choose11.jpg","2","134","red","0.5","0.1","0.5","w","",""
"animation","187","103968","0.0-5.0-2.91","631e8c52a408a788b7e62e11","bdp_lott","Sun Apr 09 2023 18:34:12 GMT-0500 (Central Daylight Time)","205656","red","green","","","","","","","","","","134","","","","","","[{""stimulus"":""img/red_lw/1.jpg"",""time"":65},{""stimulus"":""img/red_lw/2.jpg"",""time"":101},{""stimulus"":""img/red_lw/3.jpg"",""time"":151},{""stimulus"":""img/red_lw/4.jpg"",""time"":201},{""stimulus"":""img/red_lw/5.jpg"",""time"":251},{""stimulus"":""img/red_lw/6.jpg"",""time"":301},{""stimulus"":""img/red_lw/7.jpg"",""time"":351},{""stimulus"":""img/red_lw/8.jpg"",""time"":401},{""stimulus"":""img/red_lw/9.jpg"",""time"":451},{""stimulus"":""img/red_lw/10.jpg"",""time"":502},{""stimulus"":""img/red_lw/11.jpg"",""time"":551}]","[]"
"image-keyboard-response","188","104103","0.0-5.0-1.92","631e8c52a408a788b7e62e11","bdp_lott","Sun Apr 09 2023 18:34:12 GMT-0500 (Central Daylight Time)","205656","red","green","","134","","","","choice","","img/red_lw/choose11.jpg","2","133","red","0.5","0.1","0.5","l","",""
"animation","189","104703","0.0-5.0-2.92","631e8c52a408a788b7e62e11","bdp_lott","Sun Apr 09 2023 18:34:12 GMT-0500 (Central Daylight Time)","205656","red","green","","","","","","","","","","133","","","","","","[{""stimulus"":""img/red_ll/1.jpg"",""time"":52},{""stimulus"":""img/red_ll/2.jpg"",""time"":115},{""stimulus"":""img/red_ll/3.jpg"",""time"":151},{""stimulus"":""img/red_ll/4.jpg"",""time"":201},{""stimulus"":""img/red_ll/5.jpg"",""time"":251},{""stimulus"":""img/red_ll/6.jpg"",""time"":301},{""stimulus"":""img/red_ll/7.jpg"",""time"":351},{""stimulus"":""img/red_ll/8.jpg"",""time"":401},{""stimulus"":""img/red_ll/9.jpg"",""time"":452},{""stimulus"":""img/red_ll/10.jpg"",""time"":501},{""stimulus"":""img/red_ll/11.jpg"",""time"":551}]","[]"
"image-keyboard-response","190","104977","0.0-5.0-1.93","631e8c52a408a788b7e62e11","bdp_lott","Sun Apr 09 2023 18:34:12 GMT-0500 (Central Daylight Time)","205656","red","green","","273","","","","choice","","img/red_ll/choose11.jpg","2","132","red","0.5","0.1","0.5","w","",""
"animation","191","105580","0.0-5.0-2.93","631e8c52a408a788b7e62e11","bdp_lott","Sun Apr 09 2023 18:34:12 GMT-0500 (Central Daylight Time)","205656","red","green","","","","","","","","","","132","","","","","","[{""stimulus"":""img/red_lw/1.jpg"",""time"":61},{""stimulus"":""img/red_lw/2.jpg"",""time"":107},{""stimulus"":""img/red_lw/3.jpg"",""time"":151},{""stimulus"":""img/red_lw/4.jpg"",""time"":201},{""stimulus"":""img/red_lw/5.jpg"",""time"":264},{""stimulus"":""img/red_lw/6.jpg"",""time"":301},{""stimulus"":""img/red_lw/7.jpg"",""time"":351},{""stimulus"":""img/red_lw/8.jpg"",""time"":401},{""stimulus"":""img/red_lw/9.jpg"",""time"":451},{""stimulus"":""img/red_lw/10.jpg"",""time"":501},{""stimulus"":""img/red_lw/11.jpg"",""time"":551}]","[]"
