"trial_type","trial_index","time_elapsed","internal_node_id","subject_id","task","startTime","totalTime","fairMachine","unfairMachine","view_history","rt","event","trial","time","trialtype","success","stimulus","key_press","roundsLeft","chosen","pFairMachWin","pUnfairMachWin","pTrialWin","outcome","animation_sequence","responses"
"pavlovia","0","3","0.0-0.0","640415971520c41606ca4389","bdp_lott","Sat Mar 25 2023 22:27:03 GMT-0400 (Eastern Daylight Time)","358941","red","green","","","","","","","","","","","","","","","","",""
"instructions","1","6862","0.0-1.0","640415971520c41606ca4389","bdp_lott","Sat Mar 25 2023 22:27:03 GMT-0400 (Eastern Daylight Time)","358941","red","green","[{""page_index"":0,""viewing_time"":6859}]","6859","","","","","","","","","","","","","","",""
"","","","","640415971520c41606ca4389","bdp_lott","Sat Mar 25 2023 22:27:03 GMT-0400 (Eastern Daylight Time)","358941","red","green","","","fullscreenenter","2","47793","fullscreenenter","","","","","","","","","","",""
"fullscreen","2","48782","0.0-2.0","640415971520c41606ca4389","bdp_lott","Sat Mar 25 2023 22:27:03 GMT-0400 (Eastern Daylight Time)","358941","red","green","","","","","","","true","","","","","","","","","",""
"instructions","3","110180","0.0-4.0","640415971520c41606ca4389","bdp_lott","Sat Mar 25 2023 22:27:03 GMT-0400 (Eastern Daylight Time)","358941","red","green","[{""page_index"":0,""viewing_time"":61397}]","61397","","","","","","","","","","","","","","",""
"image-keyboard-response","4","111974","0.0-5.0-1.0","640415971520c41606ca4389","bdp_lott","Sat Mar 25 2023 22:27:03 GMT-0400 (Eastern Daylight Time)","358941","red","green","","1793","","","","choice","","img/red_ll/initchoose11.jpg","1","225","green","0.5","0.5","0.5","w","",""
"animation","5","112578","0.0-5.0-2.0","640415971520c41606ca4389","bdp_lott","Sat Mar 25 2023 22:27:03 GMT-0400 (Eastern Daylight Time)","358941","red","green","","","","","","","","","","225","","","","","","[{""stimulus"":""img/green_wl/1.jpg"",""time"":58},{""stimulus"":""img/green_wl/2.jpg"",""time"":105},{""stimulus"":""img/green_wl/3.jpg"",""time"":151},{""stimulus"":""img/green_wl/4.jpg"",""time"":200},{""stimulus"":""img/green_wl/5.jpg"",""time"":251},{""stimulus"":""img/green_wl/6.jpg"",""time"":301},{""stimulus"":""img/green_wl/7.jpg"",""time"":350},{""stimulus"":""img/green_wl/8.jpg"",""time"":401},{""stimulus"":""img/green_wl/9.jpg"",""time"":450},{""stimulus"":""img/green_wl/10.jpg"",""time"":500},{""stimulus"":""img/green_wl/11.jpg"",""time"":551}]","[]"
"image-keyboard-response","6","114649","0.0-5.0-1.1","640415971520c41606ca4389","bdp_lott","Sat Mar 25 2023 22:27:03 GMT-0400 (Eastern Daylight Time)","358941","red","green","","2070","","","","choice","","img/green_wl/choose11.jpg","1","224","green","0.5","0.5","0.5","l","",""
"animation","7","115249","0.0-5.0-2.1","640415971520c41606ca4389","bdp_lott","Sat Mar 25 2023 22:27:03 GMT-0400 (Eastern Daylight Time)","358941","red","green","","","","","","","","","","224","","","","","","[{""stimulus"":""img/green_ll/1.jpg"",""time"":56},{""stimulus"":""img/green_ll/2.jpg"",""time"":101},{""stimulus"":""img/green_ll/3.jpg"",""time"":163},{""stimulus"":""img/green_ll/4.jpg"",""time"":201},{""stimulus"":""img/green_ll/5.jpg"",""time"":251},{""stimulus"":""img/green_ll/6.jpg"",""time"":305},{""stimulus"":""img/green_ll/7.jpg"",""time"":352},{""stimulus"":""img/green_ll/8.jpg"",""time"":401},{""stimulus"":""img/green_ll/9.jpg"",""time"":463},{""stimulus"":""img/green_ll/10.jpg"",""time"":500},{""stimulus"":""img/green_ll/11.jpg"",""time"":557}]","[]"
"image-keyboard-response","8","116788","0.0-5.0-1.2","640415971520c41606ca4389","bdp_lott","Sat Mar 25 2023 22:27:03 GMT-0400 (Eastern Daylight Time)","358941","red","green","","1538","","","","choice","","img/green_ll/choose11.jpg","1","223","green","0.5","0.5","0.5","w","",""
"animation","9","117401","0.0-5.0-2.2","640415971520c41606ca4389","bdp_lott","Sat Mar 25 2023 22:27:03 GMT-0400 (Eastern Daylight Time)","358941","red","green","","","","","","","","","","223","","","","","","[{""stimulus"":""img/green_wl/1.jpg"",""time"":50},{""stimulus"":""img/green_wl/2.jpg"",""time"":112},{""stimulus"":""img/green_wl/3.jpg"",""time"":150},{""stimulus"":""img/green_wl/4.jpg"",""time"":206},{""stimulus"":""img/green_wl/5.jpg"",""time"":250},{""stimulus"":""img/green_wl/6.jpg"",""time"":315},{""stimulus"":""img/green_wl/7.jpg"",""time"":361},{""stimulus"":""img/green_wl/8.jpg"",""time"":409},{""stimulus"":""img/green_wl/9.jpg"",""time"":451},{""stimulus"":""img/green_wl/10.jpg"",""time"":502},{""stimulus"":""img/green_wl/11.jpg"",""time"":551}]","[]"
"image-keyboard-response","10","118618","0.0-5.0-1.3","640415971520c41606ca4389","bdp_lott","Sat Mar 25 2023 22:27:03 GMT-0400 (Eastern Daylight Time)","358941","red","green","","1217","","","","choice","","img/green_wl/choose11.jpg","2","222","red","0.5","0.5","0.5","w","",""
"animation","11","119218","0.0-5.0-2.3","640415971520c41606ca4389","bdp_lott","Sat Mar 25 2023 22:27:03 GMT-0400 (Eastern Daylight Time)","358941","red","green","","","","","","","","","","222","","","","","","[{""stimulus"":""img/red_ww/1.jpg"",""time"":55},{""stimulus"":""img/red_ww/2.jpg"",""time"":101},{""stimulus"":""img/red_ww/3.jpg"",""time"":163},{""stimulus"":""img/red_ww/4.jpg"",""time"":211},{""stimulus"":""img/red_ww/5.jpg"",""time"":258},{""stimulus"":""img/red_ww/6.jpg"",""time"":301},{""stimulus"":""img/red_ww/7.jpg"",""time"":353},{""stimulus"":""img/red_ww/8.jpg"",""time"":401},{""stimulus"":""img/red_ww/9.jpg"",""time"":463},{""stimulus"":""img/red_ww/10.jpg"",""time"":501},{""stimulus"":""img/red_ww/11.jpg"",""time"":551}]","[]"
"image-keyboard-response","12","120297","0.0-5.0-1.4","640415971520c41606ca4389","bdp_lott","Sat Mar 25 2023 22:27:03 GMT-0400 (Eastern Daylight Time)","358941","red","green","","1078","","","","choice","","img/red_ww/choose11.jpg","2","221","red","0.5","0.5","0.5","l","",""
"animation","13","120898","0.0-5.0-2.4","640415971520c41606ca4389","bdp_lott","Sat Mar 25 2023 22:27:03 GMT-0400 (Eastern Daylight Time)","358941","red","green","","","","","","","","","","221","","","","","","[{""stimulus"":""img/red_wl/1.jpg"",""time"":51},{""stimulus"":""img/red_wl/2.jpg"",""time"":101},{""stimulus"":""img/red_wl/3.jpg"",""time"":151},{""stimulus"":""img/red_wl/4.jpg"",""time"":211},{""stimulus"":""img/red_wl/5.jpg"",""time"":258},{""stimulus"":""img/red_wl/6.jpg"",""time"":306},{""stimulus"":""img/red_wl/7.jpg"",""time"":352},{""stimulus"":""img/red_wl/8.jpg"",""time"":415},{""stimulus"":""img/red_wl/9.jpg"",""time"":452},{""stimulus"":""img/red_wl/10.jpg"",""time"":502},{""stimulus"":""img/red_wl/11.jpg"",""time"":552}]","[]"
"image-keyboard-response","14","121357","0.0-5.0-1.5","640415971520c41606ca4389","bdp_lott","Sat Mar 25 2023 22:27:03 GMT-0400 (Eastern Daylight Time)","358941","red","green","","457","","","","choice","","img/red_wl/choose11.jpg","2","220","red","0.5","0.5","0.5","w","",""
"animation","15","121957","0.0-5.0-2.5","640415971520c41606ca4389","bdp_lott","Sat Mar 25 2023 22:27:03 GMT-0400 (Eastern Daylight Time)","358941","red","green","","","","","","","","","","220","","","","","","[{""stimulus"":""img/red_ww/1.jpg"",""time"":51},{""stimulus"":""img/red_ww/2.jpg"",""time"":112},{""stimulus"":""img/red_ww/3.jpg"",""time"":150},{""stimulus"":""img/red_ww/4.jpg"",""time"":200},{""stimulus"":""img/red_ww/5.jpg"",""time"":251},{""stimulus"":""img/red_ww/6.jpg"",""time"":301},{""stimulus"":""img/red_ww/7.jpg"",""time"":364},{""stimulus"":""img/red_ww/8.jpg"",""time"":412},{""stimulus"":""img/red_ww/9.jpg"",""time"":459},{""stimulus"":""img/red_ww/10.jpg"",""time"":506},{""stimulus"":""img/red_ww/11.jpg"",""time"":553}]","[]"
"image-keyboard-response","16","123266","0.0-5.0-1.6","640415971520c41606ca4389","bdp_lott","Sat Mar 25 2023 22:27:03 GMT-0400 (Eastern Daylight Time)","358941","red","green","","1308","","","","choice","","img/red_ww/choose11.jpg","1","219","green","0.5","0.5","0.5","w","",""
"animation","17","123871","0.0-5.0-2.6","640415971520c41606ca4389","bdp_lott","Sat Mar 25 2023 22:27:03 GMT-0400 (Eastern Daylight Time)","358941","red","green","","","","","","","","","","219","","","","","","[{""stimulus"":""img/green_ww/1.jpg"",""time"":51},{""stimulus"":""img/green_ww/2.jpg"",""time"":100},{""stimulus"":""img/green_ww/3.jpg"",""time"":151},{""stimulus"":""img/green_ww/4.jpg"",""time"":201},{""stimulus"":""img/green_ww/5.jpg"",""time"":250},{""stimulus"":""img/green_ww/6.jpg"",""time"":309},{""stimulus"":""img/green_ww/7.jpg"",""time"":356},{""stimulus"":""img/green_ww/8.jpg"",""time"":404},{""stimulus"":""img/green_ww/9.jpg"",""time"":466},{""stimulus"":""img/green_ww/10.jpg"",""time"":512},{""stimulus"":""img/green_ww/11.jpg"",""time"":550}]","[]"
"image-keyboard-response","18","124707","0.0-5.0-1.7","640415971520c41606ca4389","bdp_lott","Sat Mar 25 2023 22:27:03 GMT-0400 (Eastern Daylight Time)","358941","red","green","","834","","","","choice","","img/green_ww/choose11.jpg","2","218","red","0.5","0.5","0.5","l","",""
"animation","19","125308","0.0-5.0-2.7","640415971520c41606ca4389","bdp_lott","Sat Mar 25 2023 22:27:03 GMT-0400 (Eastern Daylight Time)","358941","red","green","","","","","","","","","","218","","","","","","[{""stimulus"":""img/red_wl/1.jpg"",""time"":50},{""stimulus"":""img/red_wl/2.jpg"",""time"":111},{""stimulus"":""img/red_wl/3.jpg"",""time"":157},{""stimulus"":""img/red_wl/4.jpg"",""time"":201},{""stimulus"":""img/red_wl/5.jpg"",""time"":250},{""stimulus"":""img/red_wl/6.jpg"",""time"":301},{""stimulus"":""img/red_wl/7.jpg"",""time"":351},{""stimulus"":""img/red_wl/8.jpg"",""time"":409},{""stimulus"":""img/red_wl/9.jpg"",""time"":451},{""stimulus"":""img/red_wl/10.jpg"",""time"":502},{""stimulus"":""img/red_wl/11.jpg"",""time"":565}]","[]"
"image-keyboard-response","20","125860","0.0-5.0-1.8","640415971520c41606ca4389","bdp_lott","Sat Mar 25 2023 22:27:03 GMT-0400 (Eastern Daylight Time)","358941","red","green","","551","","","","choice","","img/red_wl/choose11.jpg","2","217","red","0.5","0.5","0.5","w","",""
"animation","21","126461","0.0-5.0-2.8","640415971520c41606ca4389","bdp_lott","Sat Mar 25 2023 22:27:03 GMT-0400 (Eastern Daylight Time)","358941","red","green","","","","","","","","","","217","","","","","","[{""stimulus"":""img/red_ww/1.jpg"",""time"":59},{""stimulus"":""img/red_ww/2.jpg"",""time"":106},{""stimulus"":""img/red_ww/3.jpg"",""time"":151},{""stimulus"":""img/red_ww/4.jpg"",""time"":201},{""stimulus"":""img/red_ww/5.jpg"",""time"":251},{""stimulus"":""img/red_ww/6.jpg"",""time"":301},{""stimulus"":""img/red_ww/7.jpg"",""time"":361},{""stimulus"":""img/red_ww/8.jpg"",""time"":407},{""stimulus"":""img/red_ww/9.jpg"",""time"":455},{""stimulus"":""img/red_ww/10.jpg"",""time"":501},{""stimulus"":""img/red_ww/11.jpg"",""time"":565}]","[]"
"image-keyboard-response","22","127244","0.0-5.0-1.9","640415971520c41606ca4389","bdp_lott","Sat Mar 25 2023 22:27:03 GMT-0400 (Eastern Daylight Time)","358941","red","green","","783","","","","choice","","img/red_ww/choose11.jpg","1","216","green","0.5","0.5","0.5","w","",""
"animation","23","127845","0.0-5.0-2.9","640415971520c41606ca4389","bdp_lott","Sat Mar 25 2023 22:27:03 GMT-0400 (Eastern Daylight Time)","358941","red","green","","","","","","","","","","216","","","","","","[{""stimulus"":""img/green_ww/1.jpg"",""time"":56},{""stimulus"":""img/green_ww/2.jpg"",""time"":100},{""stimulus"":""img/green_ww/3.jpg"",""time"":165},{""stimulus"":""img/green_ww/4.jpg"",""time"":211},{""stimulus"":""img/green_ww/5.jpg"",""time"":259},{""stimulus"":""img/green_ww/6.jpg"",""time"":305},{""stimulus"":""img/green_ww/7.jpg"",""time"":351},{""stimulus"":""img/green_ww/8.jpg"",""time"":416},{""stimulus"":""img/green_ww/9.jpg"",""time"":463},{""stimulus"":""img/green_ww/10.jpg"",""time"":500},{""stimulus"":""img/green_ww/11.jpg"",""time"":555}]","[]"
"image-keyboard-response","24","129164","0.0-5.0-1.10","640415971520c41606ca4389","bdp_lott","Sat Mar 25 2023 22:27:03 GMT-0400 (Eastern Daylight Time)","358941","red","green","","1319","","","","choice","","img/green_ww/choose11.jpg","1","215","green","0.5","0.5","0.5","w","",""
"animation","25","129765","0.0-5.0-2.10","640415971520c41606ca4389","bdp_lott","Sat Mar 25 2023 22:27:03 GMT-0400 (Eastern Daylight Time)","358941","red","green","","","","","","","","","","215","","","","","","[{""stimulus"":""img/green_ww/1.jpg"",""time"":52},{""stimulus"":""img/green_ww/2.jpg"",""time"":101},{""stimulus"":""img/green_ww/3.jpg"",""time"":161},{""stimulus"":""img/green_ww/4.jpg"",""time"":201},{""stimulus"":""img/green_ww/5.jpg"",""time"":256},{""stimulus"":""img/green_ww/6.jpg"",""time"":301},{""stimulus"":""img/green_ww/7.jpg"",""time"":365},{""stimulus"":""img/green_ww/8.jpg"",""time"":401},{""stimulus"":""img/green_ww/9.jpg"",""time"":452},{""stimulus"":""img/green_ww/10.jpg"",""time"":501},{""stimulus"":""img/green_ww/11.jpg"",""time"":552}]","[]"
"image-keyboard-response","26","131385","0.0-5.0-1.11","640415971520c41606ca4389","bdp_lott","Sat Mar 25 2023 22:27:03 GMT-0400 (Eastern Daylight Time)","358941","red","green","","1619","","","","choice","","img/green_ww/choose11.jpg","2","214","red","0.5","0.5","0.5","l","",""
"animation","27","131998","0.0-5.0-2.11","640415971520c41606ca4389","bdp_lott","Sat Mar 25 2023 22:27:03 GMT-0400 (Eastern Daylight Time)","358941","red","green","","","","","","","","","","214","","","","","","[{""stimulus"":""img/red_wl/1.jpg"",""time"":51},{""stimulus"":""img/red_wl/2.jpg"",""time"":115},{""stimulus"":""img/red_wl/3.jpg"",""time"":152},{""stimulus"":""img/red_wl/4.jpg"",""time"":202},{""stimulus"":""img/red_wl/5.jpg"",""time"":251},{""stimulus"":""img/red_wl/6.jpg"",""time"":301},{""stimulus"":""img/red_wl/7.jpg"",""time"":352},{""stimulus"":""img/red_wl/8.jpg"",""time"":400},{""stimulus"":""img/red_wl/9.jpg"",""time"":457},{""stimulus"":""img/red_wl/10.jpg"",""time"":504},{""stimulus"":""img/red_wl/11.jpg"",""time"":550}]","[]"
"image-keyboard-response","28","132335","0.0-5.0-1.12","640415971520c41606ca4389","bdp_lott","Sat Mar 25 2023 22:27:03 GMT-0400 (Eastern Daylight Time)","358941","red","green","","336","","","","choice","","img/red_wl/choose11.jpg","2","213","red","0.5","0.5","0.5","w","",""
"animation","29","132936","0.0-5.0-2.12","640415971520c41606ca4389","bdp_lott","Sat Mar 25 2023 22:27:03 GMT-0400 (Eastern Daylight Time)","358941","red","green","","","","","","","","","","213","","","","","","[{""stimulus"":""img/red_ww/1.jpg"",""time"":56},{""stimulus"":""img/red_ww/2.jpg"",""time"":104},{""stimulus"":""img/red_ww/3.jpg"",""time"":151},{""stimulus"":""img/red_ww/4.jpg"",""time"":200},{""stimulus"":""img/red_ww/5.jpg"",""time"":259},{""stimulus"":""img/red_ww/6.jpg"",""time"":306},{""stimulus"":""img/red_ww/7.jpg"",""time"":353},{""stimulus"":""img/red_ww/8.jpg"",""time"":401},{""stimulus"":""img/red_ww/9.jpg"",""time"":463},{""stimulus"":""img/red_ww/10.jpg"",""time"":510},{""stimulus"":""img/red_ww/11.jpg"",""time"":556}]","[]"
"image-keyboard-response","30","133688","0.0-5.0-1.13","640415971520c41606ca4389","bdp_lott","Sat Mar 25 2023 22:27:03 GMT-0400 (Eastern Daylight Time)","358941","red","green","","750","","","","choice","","img/red_ww/choose11.jpg","1","212","green","0.5","0.5","0.5","l","",""
"animation","31","134290","0.0-5.0-2.13","640415971520c41606ca4389","bdp_lott","Sat Mar 25 2023 22:27:03 GMT-0400 (Eastern Daylight Time)","358941","red","green","","","","","","","","","","212","","","","","","[{""stimulus"":""img/green_lw/1.jpg"",""time"":50},{""stimulus"":""img/green_lw/2.jpg"",""time"":101},{""stimulus"":""img/green_lw/3.jpg"",""time"":151},{""stimulus"":""img/green_lw/4.jpg"",""time"":208},{""stimulus"":""img/green_lw/5.jpg"",""time"":261},{""stimulus"":""img/green_lw/6.jpg"",""time"":308},{""stimulus"":""img/green_lw/7.jpg"",""time"":351},{""stimulus"":""img/green_lw/8.jpg"",""time"":401},{""stimulus"":""img/green_lw/9.jpg"",""time"":463},{""stimulus"":""img/green_lw/10.jpg"",""time"":509},{""stimulus"":""img/green_lw/11.jpg"",""time"":551}]","[]"
"image-keyboard-response","32","135034","0.0-5.0-1.14","640415971520c41606ca4389","bdp_lott","Sat Mar 25 2023 22:27:03 GMT-0400 (Eastern Daylight Time)","358941","red","green","","743","","","","choice","","img/green_lw/choose11.jpg","1","211","green","0.5","0.5","0.5","w","",""
"animation","33","135635","0.0-5.0-2.14","640415971520c41606ca4389","bdp_lott","Sat Mar 25 2023 22:27:03 GMT-0400 (Eastern Daylight Time)","358941","red","green","","","","","","","","","","211","","","","","","[{""stimulus"":""img/green_ww/1.jpg"",""time"":60},{""stimulus"":""img/green_ww/2.jpg"",""time"":101},{""stimulus"":""img/green_ww/3.jpg"",""time"":155},{""stimulus"":""img/green_ww/4.jpg"",""time"":200},{""stimulus"":""img/green_ww/5.jpg"",""time"":265},{""stimulus"":""img/green_ww/6.jpg"",""time"":301},{""stimulus"":""img/green_ww/7.jpg"",""time"":357},{""stimulus"":""img/green_ww/8.jpg"",""time"":401},{""stimulus"":""img/green_ww/9.jpg"",""time"":466},{""stimulus"":""img/green_ww/10.jpg"",""time"":501},{""stimulus"":""img/green_ww/11.jpg"",""time"":561}]","[]"
"image-keyboard-response","34","136887","0.0-5.0-1.15","640415971520c41606ca4389","bdp_lott","Sat Mar 25 2023 22:27:03 GMT-0400 (Eastern Daylight Time)","358941","red","green","","1252","","","","choice","","img/green_ww/choose11.jpg","2","210","red","0.5","0.5","0.5","w","",""
"animation","35","137497","0.0-5.0-2.15","640415971520c41606ca4389","bdp_lott","Sat Mar 25 2023 22:27:03 GMT-0400 (Eastern Daylight Time)","358941","red","green","","","","","","","","","","210","","","","","","[{""stimulus"":""img/red_ww/1.jpg"",""time"":51},{""stimulus"":""img/red_ww/2.jpg"",""time"":107},{""stimulus"":""img/red_ww/3.jpg"",""time"":150},{""stimulus"":""img/red_ww/4.jpg"",""time"":200},{""stimulus"":""img/red_ww/5.jpg"",""time"":251},{""stimulus"":""img/red_ww/6.jpg"",""time"":312},{""stimulus"":""img/red_ww/7.jpg"",""time"":360},{""stimulus"":""img/red_ww/8.jpg"",""time"":406},{""stimulus"":""img/red_ww/9.jpg"",""time"":450},{""stimulus"":""img/red_ww/10.jpg"",""time"":514},{""stimulus"":""img/red_ww/11.jpg"",""time"":550}]","[]"
"image-keyboard-response","36","138401","0.0-5.0-1.16","640415971520c41606ca4389","bdp_lott","Sat Mar 25 2023 22:27:03 GMT-0400 (Eastern Daylight Time)","358941","red","green","","904","","","","choice","","img/red_ww/choose11.jpg","1","209","green","0.5","0.5","0.5","l","",""
"animation","37","139005","0.0-5.0-2.16","640415971520c41606ca4389","bdp_lott","Sat Mar 25 2023 22:27:03 GMT-0400 (Eastern Daylight Time)","358941","red","green","","","","","","","","","","209","","","","","","[{""stimulus"":""img/green_lw/1.jpg"",""time"":50},{""stimulus"":""img/green_lw/2.jpg"",""time"":116},{""stimulus"":""img/green_lw/3.jpg"",""time"":164},{""stimulus"":""img/green_lw/4.jpg"",""time"":211},{""stimulus"":""img/green_lw/5.jpg"",""time"":258},{""stimulus"":""img/green_lw/6.jpg"",""time"":300},{""stimulus"":""img/green_lw/7.jpg"",""time"":353},{""stimulus"":""img/green_lw/8.jpg"",""time"":400},{""stimulus"":""img/green_lw/9.jpg"",""time"":462},{""stimulus"":""img/green_lw/10.jpg"",""time"":508},{""stimulus"":""img/green_lw/11.jpg"",""time"":550}]","[]"
"image-keyboard-response","38","139571","0.0-5.0-1.17","640415971520c41606ca4389","bdp_lott","Sat Mar 25 2023 22:27:03 GMT-0400 (Eastern Daylight Time)","358941","red","green","","565","","","","choice","","img/green_lw/choose11.jpg","1","208","green","0.5","0.5","0.5","l","",""
"animation","39","140172","0.0-5.0-2.17","640415971520c41606ca4389","bdp_lott","Sat Mar 25 2023 22:27:03 GMT-0400 (Eastern Daylight Time)","358941","red","green","","","","","","","","","","208","","","","","","[{""stimulus"":""img/green_lw/1.jpg"",""time"":51},{""stimulus"":""img/green_lw/2.jpg"",""time"":105},{""stimulus"":""img/green_lw/3.jpg"",""time"":152},{""stimulus"":""img/green_lw/4.jpg"",""time"":201},{""stimulus"":""img/green_lw/5.jpg"",""time"":263},{""stimulus"":""img/green_lw/6.jpg"",""time"":301},{""stimulus"":""img/green_lw/7.jpg"",""time"":357},{""stimulus"":""img/green_lw/8.jpg"",""time"":404},{""stimulus"":""img/green_lw/9.jpg"",""time"":451},{""stimulus"":""img/green_lw/10.jpg"",""time"":501},{""stimulus"":""img/green_lw/11.jpg"",""time"":551}]","[]"
"image-keyboard-response","40","140778","0.0-5.0-1.18","640415971520c41606ca4389","bdp_lott","Sat Mar 25 2023 22:27:03 GMT-0400 (Eastern Daylight Time)","358941","red","green","","606","","","","choice","","img/green_lw/choose11.jpg","2","207","red","0.5","0.5","0.5","l","",""
"animation","41","141390","0.0-5.0-2.18","640415971520c41606ca4389","bdp_lott","Sat Mar 25 2023 22:27:03 GMT-0400 (Eastern Daylight Time)","358941","red","green","","","","","","","","","","207","","","","","","[{""stimulus"":""img/red_ll/1.jpg"",""time"":51},{""stimulus"":""img/red_ll/2.jpg"",""time"":106},{""stimulus"":""img/red_ll/3.jpg"",""time"":151},{""stimulus"":""img/red_ll/4.jpg"",""time"":201},{""stimulus"":""img/red_ll/5.jpg"",""time"":263},{""stimulus"":""img/red_ll/6.jpg"",""time"":309},{""stimulus"":""img/red_ll/7.jpg"",""time"":356},{""stimulus"":""img/red_ll/8.jpg"",""time"":403},{""stimulus"":""img/red_ll/9.jpg"",""time"":465},{""stimulus"":""img/red_ll/10.jpg"",""time"":512},{""stimulus"":""img/red_ll/11.jpg"",""time"":564}]","[]"
"image-keyboard-response","42","141736","0.0-5.0-1.19","640415971520c41606ca4389","bdp_lott","Sat Mar 25 2023 22:27:03 GMT-0400 (Eastern Daylight Time)","358941","red","green","","345","","","","choice","","img/red_ll/choose11.jpg","2","206","red","0.5","0.5","0.5","l","",""
"animation","43","142337","0.0-5.0-2.19","640415971520c41606ca4389","bdp_lott","Sat Mar 25 2023 22:27:03 GMT-0400 (Eastern Daylight Time)","358941","red","green","","","","","","","","","","206","","","","","","[{""stimulus"":""img/red_ll/1.jpg"",""time"":65},{""stimulus"":""img/red_ll/2.jpg"",""time"":102},{""stimulus"":""img/red_ll/3.jpg"",""time"":159},{""stimulus"":""img/red_ll/4.jpg"",""time"":201},{""stimulus"":""img/red_ll/5.jpg"",""time"":256},{""stimulus"":""img/red_ll/6.jpg"",""time"":303},{""stimulus"":""img/red_ll/7.jpg"",""time"":351},{""stimulus"":""img/red_ll/8.jpg"",""time"":401},{""stimulus"":""img/red_ll/9.jpg"",""time"":459},{""stimulus"":""img/red_ll/10.jpg"",""time"":507},{""stimulus"":""img/red_ll/11.jpg"",""time"":554}]","[]"
"image-keyboard-response","44","143145","0.0-5.0-1.20","640415971520c41606ca4389","bdp_lott","Sat Mar 25 2023 22:27:03 GMT-0400 (Eastern Daylight Time)","358941","red","green","","808","","","","choice","","img/red_ll/choose11.jpg","2","205","red","0.5","0.5","0.5","w","",""
"animation","45","143746","0.0-5.0-2.20","640415971520c41606ca4389","bdp_lott","Sat Mar 25 2023 22:27:03 GMT-0400 (Eastern Daylight Time)","358941","red","green","","","","","","","","","","205","","","","","","[{""stimulus"":""img/red_lw/1.jpg"",""time"":57},{""stimulus"":""img/red_lw/2.jpg"",""time"":102},{""stimulus"":""img/red_lw/3.jpg"",""time"":152},{""stimulus"":""img/red_lw/4.jpg"",""time"":201},{""stimulus"":""img/red_lw/5.jpg"",""time"":258},{""stimulus"":""img/red_lw/6.jpg"",""time"":304},{""stimulus"":""img/red_lw/7.jpg"",""time"":365},{""stimulus"":""img/red_lw/8.jpg"",""time"":412},{""stimulus"":""img/red_lw/9.jpg"",""time"":451},{""stimulus"":""img/red_lw/10.jpg"",""time"":507},{""stimulus"":""img/red_lw/11.jpg"",""time"":551}]","[]"
"image-keyboard-response","46","145294","0.0-5.0-1.21","640415971520c41606ca4389","bdp_lott","Sat Mar 25 2023 22:27:03 GMT-0400 (Eastern Daylight Time)","358941","red","green","","1547","","","","choice","","img/red_lw/choose11.jpg","2","204","red","0.5","0.5","0.5","w","",""
"animation","47","145896","0.0-5.0-2.21","640415971520c41606ca4389","bdp_lott","Sat Mar 25 2023 22:27:03 GMT-0400 (Eastern Daylight Time)","358941","red","green","","","","","","","","","","204","","","","","","[{""stimulus"":""img/red_lw/1.jpg"",""time"":51},{""stimulus"":""img/red_lw/2.jpg"",""time"":116},{""stimulus"":""img/red_lw/3.jpg"",""time"":165},{""stimulus"":""img/red_lw/4.jpg"",""time"":211},{""stimulus"":""img/red_lw/5.jpg"",""time"":258},{""stimulus"":""img/red_lw/6.jpg"",""time"":300},{""stimulus"":""img/red_lw/7.jpg"",""time"":351},{""stimulus"":""img/red_lw/8.jpg"",""time"":416},{""stimulus"":""img/red_lw/9.jpg"",""time"":451},{""stimulus"":""img/red_lw/10.jpg"",""time"":500},{""stimulus"":""img/red_lw/11.jpg"",""time"":551}]","[]"
"image-keyboard-response","48","147179","0.0-5.0-1.22","640415971520c41606ca4389","bdp_lott","Sat Mar 25 2023 22:27:03 GMT-0400 (Eastern Daylight Time)","358941","red","green","","1283","","","","choice","","img/red_lw/choose11.jpg","2","203","red","0.5","0.5","0.5","w","",""
"animation","49","147780","0.0-5.0-2.22","640415971520c41606ca4389","bdp_lott","Sat Mar 25 2023 22:27:03 GMT-0400 (Eastern Daylight Time)","358941","red","green","","","","","","","","","","203","","","","","","[{""stimulus"":""img/red_lw/1.jpg"",""time"":51},{""stimulus"":""img/red_lw/2.jpg"",""time"":101},{""stimulus"":""img/red_lw/3.jpg"",""time"":158},{""stimulus"":""img/red_lw/4.jpg"",""time"":202},{""stimulus"":""img/red_lw/5.jpg"",""time"":251},{""stimulus"":""img/red_lw/6.jpg"",""time"":301},{""stimulus"":""img/red_lw/7.jpg"",""time"":360},{""stimulus"":""img/red_lw/8.jpg"",""time"":407},{""stimulus"":""img/red_lw/9.jpg"",""time"":455},{""stimulus"":""img/red_lw/10.jpg"",""time"":502},{""stimulus"":""img/red_lw/11.jpg"",""time"":551}]","[]"
"image-keyboard-response","50","148954","0.0-5.0-1.23","640415971520c41606ca4389","bdp_lott","Sat Mar 25 2023 22:27:03 GMT-0400 (Eastern Daylight Time)","358941","red","green","","1174","","","","choice","","img/red_lw/choose11.jpg","2","202","red","0.5","0.5","0.5","w","",""
"animation","51","149560","0.0-5.0-2.23","640415971520c41606ca4389","bdp_lott","Sat Mar 25 2023 22:27:03 GMT-0400 (Eastern Daylight Time)","358941","red","green","","","","","","","","","","202","","","","","","[{""stimulus"":""img/red_lw/1.jpg"",""time"":51},{""stimulus"":""img/red_lw/2.jpg"",""time"":101},{""stimulus"":""img/red_lw/3.jpg"",""time"":155},{""stimulus"":""img/red_lw/4.jpg"",""time"":201},{""stimulus"":""img/red_lw/5.jpg"",""time"":264},{""stimulus"":""img/red_lw/6.jpg"",""time"":311},{""stimulus"":""img/red_lw/7.jpg"",""time"":350},{""stimulus"":""img/red_lw/8.jpg"",""time"":404},{""stimulus"":""img/red_lw/9.jpg"",""time"":451},{""stimulus"":""img/red_lw/10.jpg"",""time"":501},{""stimulus"":""img/red_lw/11.jpg"",""time"":560}]","[]"
"image-keyboard-response","52","150543","0.0-5.0-1.24","640415971520c41606ca4389","bdp_lott","Sat Mar 25 2023 22:27:03 GMT-0400 (Eastern Daylight Time)","358941","red","green","","982","","","","choice","","img/red_lw/choose11.jpg","2","201","red","0.5","0.5","0.5","l","",""
"animation","53","151144","0.0-5.0-2.24","640415971520c41606ca4389","bdp_lott","Sat Mar 25 2023 22:27:03 GMT-0400 (Eastern Daylight Time)","358941","red","green","","","","","","","","","","201","","","","","","[{""stimulus"":""img/red_ll/1.jpg"",""time"":55},{""stimulus"":""img/red_ll/2.jpg"",""time"":103},{""stimulus"":""img/red_ll/3.jpg"",""time"":151},{""stimulus"":""img/red_ll/4.jpg"",""time"":211},{""stimulus"":""img/red_ll/5.jpg"",""time"":258},{""stimulus"":""img/red_ll/6.jpg"",""time"":307},{""stimulus"":""img/red_ll/7.jpg"",""time"":355},{""stimulus"":""img/red_ll/8.jpg"",""time"":402},{""stimulus"":""img/red_ll/9.jpg"",""time"":452},{""stimulus"":""img/red_ll/10.jpg"",""time"":512},{""stimulus"":""img/red_ll/11.jpg"",""time"":558}]","[]"
"image-keyboard-response","54","151540","0.0-5.0-1.25","640415971520c41606ca4389","bdp_lott","Sat Mar 25 2023 22:27:03 GMT-0400 (Eastern Daylight Time)","358941","red","green","","395","","","","choice","","img/red_ll/choose11.jpg","2","200","red","0.5","0.5","0.5","w","",""
"animation","55","152148","0.0-5.0-2.25","640415971520c41606ca4389","bdp_lott","Sat Mar 25 2023 22:27:03 GMT-0400 (Eastern Daylight Time)","358941","red","green","","","","","","","","","","200","","","","","","[{""stimulus"":""img/red_lw/1.jpg"",""time"":61},{""stimulus"":""img/red_lw/2.jpg"",""time"":101},{""stimulus"":""img/red_lw/3.jpg"",""time"":155},{""stimulus"":""img/red_lw/4.jpg"",""time"":202},{""stimulus"":""img/red_lw/5.jpg"",""time"":265},{""stimulus"":""img/red_lw/6.jpg"",""time"":310},{""stimulus"":""img/red_lw/7.jpg"",""time"":357},{""stimulus"":""img/red_lw/8.jpg"",""time"":404},{""stimulus"":""img/red_lw/9.jpg"",""time"":452},{""stimulus"":""img/red_lw/10.jpg"",""time"":515},{""stimulus"":""img/red_lw/11.jpg"",""time"":562}]","[]"
"image-keyboard-response","56","153148","0.0-5.0-1.26","640415971520c41606ca4389","bdp_lott","Sat Mar 25 2023 22:27:03 GMT-0400 (Eastern Daylight Time)","358941","red","green","","998","","","","choice","","img/red_lw/choose11.jpg","2","199","red","0.5","0.5","0.5","w","",""
"animation","57","153748","0.0-5.0-2.26","640415971520c41606ca4389","bdp_lott","Sat Mar 25 2023 22:27:03 GMT-0400 (Eastern Daylight Time)","358941","red","green","","","","","","","","","","199","","","","","","[{""stimulus"":""img/red_lw/1.jpg"",""time"":53},{""stimulus"":""img/red_lw/2.jpg"",""time"":100},{""stimulus"":""img/red_lw/3.jpg"",""time"":164},{""stimulus"":""img/red_lw/4.jpg"",""time"":201},{""stimulus"":""img/red_lw/5.jpg"",""time"":250},{""stimulus"":""img/red_lw/6.jpg"",""time"":301},{""stimulus"":""img/red_lw/7.jpg"",""time"":351},{""stimulus"":""img/red_lw/8.jpg"",""time"":400},{""stimulus"":""img/red_lw/9.jpg"",""time"":460},{""stimulus"":""img/red_lw/10.jpg"",""time"":500},{""stimulus"":""img/red_lw/11.jpg"",""time"":550}]","[]"
"image-keyboard-response","58","154627","0.0-5.0-1.27","640415971520c41606ca4389","bdp_lott","Sat Mar 25 2023 22:27:03 GMT-0400 (Eastern Daylight Time)","358941","red","green","","879","","","","choice","","img/red_lw/choose11.jpg","2","198","red","0.5","0.5","0.5","l","",""
"animation","59","155228","0.0-5.0-2.27","640415971520c41606ca4389","bdp_lott","Sat Mar 25 2023 22:27:03 GMT-0400 (Eastern Daylight Time)","358941","red","green","","","","","","","","","","198","","","","","","[{""stimulus"":""img/red_ll/1.jpg"",""time"":50},{""stimulus"":""img/red_ll/2.jpg"",""time"":114},{""stimulus"":""img/red_ll/3.jpg"",""time"":152},{""stimulus"":""img/red_ll/4.jpg"",""time"":201},{""stimulus"":""img/red_ll/5.jpg"",""time"":251},{""stimulus"":""img/red_ll/6.jpg"",""time"":301},{""stimulus"":""img/red_ll/7.jpg"",""time"":366},{""stimulus"":""img/red_ll/8.jpg"",""time"":401},{""stimulus"":""img/red_ll/9.jpg"",""time"":459},{""stimulus"":""img/red_ll/10.jpg"",""time"":507},{""stimulus"":""img/red_ll/11.jpg"",""time"":554}]","[]"
"image-keyboard-response","60","155636","0.0-5.0-1.28","640415971520c41606ca4389","bdp_lott","Sat Mar 25 2023 22:27:03 GMT-0400 (Eastern Daylight Time)","358941","red","green","","408","","","","choice","","img/red_ll/choose11.jpg","2","197","red","0.5","0.5","0.5","w","",""
"animation","61","156242","0.0-5.0-2.28","640415971520c41606ca4389","bdp_lott","Sat Mar 25 2023 22:27:03 GMT-0400 (Eastern Daylight Time)","358941","red","green","","","","","","","","","","197","","","","","","[{""stimulus"":""img/red_lw/1.jpg"",""time"":59},{""stimulus"":""img/red_lw/2.jpg"",""time"":106},{""stimulus"":""img/red_lw/3.jpg"",""time"":152},{""stimulus"":""img/red_lw/4.jpg"",""time"":201},{""stimulus"":""img/red_lw/5.jpg"",""time"":262},{""stimulus"":""img/red_lw/6.jpg"",""time"":309},{""stimulus"":""img/red_lw/7.jpg"",""time"":356},{""stimulus"":""img/red_lw/8.jpg"",""time"":402},{""stimulus"":""img/red_lw/9.jpg"",""time"":466},{""stimulus"":""img/red_lw/10.jpg"",""time"":501},{""stimulus"":""img/red_lw/11.jpg"",""time"":560}]","[]"
"image-keyboard-response","62","156672","0.0-5.0-1.29","640415971520c41606ca4389","bdp_lott","Sat Mar 25 2023 22:27:03 GMT-0400 (Eastern Daylight Time)","358941","red","green","","429","","","","choice","","img/red_lw/choose11.jpg","2","196","red","0.5","0.5","0.5","w","",""
"animation","63","157274","0.0-5.0-2.29","640415971520c41606ca4389","bdp_lott","Sat Mar 25 2023 22:27:03 GMT-0400 (Eastern Daylight Time)","358941","red","green","","","","","","","","","","196","","","","","","[{""stimulus"":""img/red_lw/1.jpg"",""time"":52},{""stimulus"":""img/red_lw/2.jpg"",""time"":117},{""stimulus"":""img/red_lw/3.jpg"",""time"":163},{""stimulus"":""img/red_lw/4.jpg"",""time"":211},{""stimulus"":""img/red_lw/5.jpg"",""time"":251},{""stimulus"":""img/red_lw/6.jpg"",""time"":304},{""stimulus"":""img/red_lw/7.jpg"",""time"":352},{""stimulus"":""img/red_lw/8.jpg"",""time"":402},{""stimulus"":""img/red_lw/9.jpg"",""time"":451},{""stimulus"":""img/red_lw/10.jpg"",""time"":501},{""stimulus"":""img/red_lw/11.jpg"",""time"":554}]","[]"
"image-keyboard-response","64","157506","0.0-5.0-1.30","640415971520c41606ca4389","bdp_lott","Sat Mar 25 2023 22:27:03 GMT-0400 (Eastern Daylight Time)","358941","red","green","","232","","","","choice","","img/red_lw/choose11.jpg","2","195","red","0.5","0.5","0.5","l","",""
"animation","65","158120","0.0-5.0-2.30","640415971520c41606ca4389","bdp_lott","Sat Mar 25 2023 22:27:03 GMT-0400 (Eastern Daylight Time)","358941","red","green","","","","","","","","","","195","","","","","","[{""stimulus"":""img/red_ll/1.jpg"",""time"":51},{""stimulus"":""img/red_ll/2.jpg"",""time"":101},{""stimulus"":""img/red_ll/3.jpg"",""time"":161},{""stimulus"":""img/red_ll/4.jpg"",""time"":207},{""stimulus"":""img/red_ll/5.jpg"",""time"":254},{""stimulus"":""img/red_ll/6.jpg"",""time"":301},{""stimulus"":""img/red_ll/7.jpg"",""time"":364},{""stimulus"":""img/red_ll/8.jpg"",""time"":412},{""stimulus"":""img/red_ll/9.jpg"",""time"":459},{""stimulus"":""img/red_ll/10.jpg"",""time"":505},{""stimulus"":""img/red_ll/11.jpg"",""time"":551}]","[]"
"image-keyboard-response","66","158376","0.0-5.0-1.31","640415971520c41606ca4389","bdp_lott","Sat Mar 25 2023 22:27:03 GMT-0400 (Eastern Daylight Time)","358941","red","green","","256","","","","choice","","img/red_ll/choose11.jpg","2","194","red","0.5","0.5","0.5","l","",""
"animation","67","158978","0.0-5.0-2.31","640415971520c41606ca4389","bdp_lott","Sat Mar 25 2023 22:27:03 GMT-0400 (Eastern Daylight Time)","358941","red","green","","","","","","","","","","194","","","","","","[{""stimulus"":""img/red_ll/1.jpg"",""time"":52},{""stimulus"":""img/red_ll/2.jpg"",""time"":103},{""stimulus"":""img/red_ll/3.jpg"",""time"":151},{""stimulus"":""img/red_ll/4.jpg"",""time"":212},{""stimulus"":""img/red_ll/5.jpg"",""time"":259},{""stimulus"":""img/red_ll/6.jpg"",""time"":301},{""stimulus"":""img/red_ll/7.jpg"",""time"":351},{""stimulus"":""img/red_ll/8.jpg"",""time"":401},{""stimulus"":""img/red_ll/9.jpg"",""time"":450},{""stimulus"":""img/red_ll/10.jpg"",""time"":500},{""stimulus"":""img/red_ll/11.jpg"",""time"":551}]","[]"
"image-keyboard-response","68","159251","0.0-5.0-1.32","640415971520c41606ca4389","bdp_lott","Sat Mar 25 2023 22:27:03 GMT-0400 (Eastern Daylight Time)","358941","red","green","","272","","","","choice","","img/red_ll/choose11.jpg","2","193","red","0.5","0.5","0.5","l","",""
"animation","69","159853","0.0-5.0-2.32","640415971520c41606ca4389","bdp_lott","Sat Mar 25 2023 22:27:03 GMT-0400 (Eastern Daylight Time)","358941","red","green","","","","","","","","","","193","","","","","","[{""stimulus"":""img/red_ll/1.jpg"",""time"":55},{""stimulus"":""img/red_ll/2.jpg"",""time"":101},{""stimulus"":""img/red_ll/3.jpg"",""time"":153},{""stimulus"":""img/red_ll/4.jpg"",""time"":210},{""stimulus"":""img/red_ll/5.jpg"",""time"":258},{""stimulus"":""img/red_ll/6.jpg"",""time"":305},{""stimulus"":""img/red_ll/7.jpg"",""time"":352},{""stimulus"":""img/red_ll/8.jpg"",""time"":414},{""stimulus"":""img/red_ll/9.jpg"",""time"":462},{""stimulus"":""img/red_ll/10.jpg"",""time"":509},{""stimulus"":""img/red_ll/11.jpg"",""time"":555}]","[]"
"image-keyboard-response","70","160256","0.0-5.0-1.33","640415971520c41606ca4389","bdp_lott","Sat Mar 25 2023 22:27:03 GMT-0400 (Eastern Daylight Time)","358941","red","green","","403","","","","choice","","img/red_ll/choose11.jpg","1","192","green","0.5","0.5","0.5","l","",""
"animation","71","160857","0.0-5.0-2.33","640415971520c41606ca4389","bdp_lott","Sat Mar 25 2023 22:27:03 GMT-0400 (Eastern Daylight Time)","358941","red","green","","","","","","","","","","192","","","","","","[{""stimulus"":""img/green_ll/1.jpg"",""time"":52},{""stimulus"":""img/green_ll/2.jpg"",""time"":102},{""stimulus"":""img/green_ll/3.jpg"",""time"":160},{""stimulus"":""img/green_ll/4.jpg"",""time"":202},{""stimulus"":""img/green_ll/5.jpg"",""time"":251},{""stimulus"":""img/green_ll/6.jpg"",""time"":302},{""stimulus"":""img/green_ll/7.jpg"",""time"":351},{""stimulus"":""img/green_ll/8.jpg"",""time"":412},{""stimulus"":""img/green_ll/9.jpg"",""time"":460},{""stimulus"":""img/green_ll/10.jpg"",""time"":507},{""stimulus"":""img/green_ll/11.jpg"",""time"":551}]","[]"
"image-keyboard-response","72","161350","0.0-5.0-1.34","640415971520c41606ca4389","bdp_lott","Sat Mar 25 2023 22:27:03 GMT-0400 (Eastern Daylight Time)","358941","red","green","","492","","","","choice","","img/green_ll/choose11.jpg","1","191","green","0.5","0.5","0.5","w","",""
"animation","73","161951","0.0-5.0-2.34","640415971520c41606ca4389","bdp_lott","Sat Mar 25 2023 22:27:03 GMT-0400 (Eastern Daylight Time)","358941","red","green","","","","","","","","","","191","","","","","","[{""stimulus"":""img/green_wl/1.jpg"",""time"":50},{""stimulus"":""img/green_wl/2.jpg"",""time"":106},{""stimulus"":""img/green_wl/3.jpg"",""time"":154},{""stimulus"":""img/green_wl/4.jpg"",""time"":216},{""stimulus"":""img/green_wl/5.jpg"",""time"":264},{""stimulus"":""img/green_wl/6.jpg"",""time"":301},{""stimulus"":""img/green_wl/7.jpg"",""time"":356},{""stimulus"":""img/green_wl/8.jpg"",""time"":403},{""stimulus"":""img/green_wl/9.jpg"",""time"":464},{""stimulus"":""img/green_wl/10.jpg"",""time"":502},{""stimulus"":""img/green_wl/11.jpg"",""time"":551}]","[]"
"image-keyboard-response","74","162656","0.0-5.0-1.35","640415971520c41606ca4389","bdp_lott","Sat Mar 25 2023 22:27:03 GMT-0400 (Eastern Daylight Time)","358941","red","green","","705","","","","choice","","img/green_wl/choose11.jpg","1","190","green","0.5","0.5","0.5","l","",""
"animation","75","163261","0.0-5.0-2.35","640415971520c41606ca4389","bdp_lott","Sat Mar 25 2023 22:27:03 GMT-0400 (Eastern Daylight Time)","358941","red","green","","","","","","","","","","190","","","","","","[{""stimulus"":""img/green_ll/1.jpg"",""time"":51},{""stimulus"":""img/green_ll/2.jpg"",""time"":105},{""stimulus"":""img/green_ll/3.jpg"",""time"":151},{""stimulus"":""img/green_ll/4.jpg"",""time"":215},{""stimulus"":""img/green_ll/5.jpg"",""time"":252},{""stimulus"":""img/green_ll/6.jpg"",""time"":308},{""stimulus"":""img/green_ll/7.jpg"",""time"":355},{""stimulus"":""img/green_ll/8.jpg"",""time"":401},{""stimulus"":""img/green_ll/9.jpg"",""time"":451},{""stimulus"":""img/green_ll/10.jpg"",""time"":501},{""stimulus"":""img/green_ll/11.jpg"",""time"":551}]","[]"
"image-keyboard-response","76","163539","0.0-5.0-1.36","640415971520c41606ca4389","bdp_lott","Sat Mar 25 2023 22:27:03 GMT-0400 (Eastern Daylight Time)","358941","red","green","","277","","","","choice","","img/green_ll/choose11.jpg","1","189","green","0.5","0.5","0.5","w","",""
"animation","77","164140","0.0-5.0-2.36","640415971520c41606ca4389","bdp_lott","Sat Mar 25 2023 22:27:03 GMT-0400 (Eastern Daylight Time)","358941","red","green","","","","","","","","","","189","","","","","","[{""stimulus"":""img/green_wl/1.jpg"",""time"":51},{""stimulus"":""img/green_wl/2.jpg"",""time"":114},{""stimulus"":""img/green_wl/3.jpg"",""time"":161},{""stimulus"":""img/green_wl/4.jpg"",""time"":201},{""stimulus"":""img/green_wl/5.jpg"",""time"":253},{""stimulus"":""img/green_wl/6.jpg"",""time"":300},{""stimulus"":""img/green_wl/7.jpg"",""time"":364},{""stimulus"":""img/green_wl/8.jpg"",""time"":401},{""stimulus"":""img/green_wl/9.jpg"",""time"":456},{""stimulus"":""img/green_wl/10.jpg"",""time"":501},{""stimulus"":""img/green_wl/11.jpg"",""time"":551}]","[]"
"image-keyboard-response","78","164699","0.0-5.0-1.37","640415971520c41606ca4389","bdp_lott","Sat Mar 25 2023 22:27:03 GMT-0400 (Eastern Daylight Time)","358941","red","green","","558","","","","choice","","img/green_wl/choose11.jpg","1","188","green","0.5","0.5","0.5","l","",""
"animation","79","165299","0.0-5.0-2.37","640415971520c41606ca4389","bdp_lott","Sat Mar 25 2023 22:27:03 GMT-0400 (Eastern Daylight Time)","358941","red","green","","","","","","","","","","188","","","","","","[{""stimulus"":""img/green_ll/1.jpg"",""time"":50},{""stimulus"":""img/green_ll/2.jpg"",""time"":113},{""stimulus"":""img/green_ll/3.jpg"",""time"":152},{""stimulus"":""img/green_ll/4.jpg"",""time"":208},{""stimulus"":""img/green_ll/5.jpg"",""time"":251},{""stimulus"":""img/green_ll/6.jpg"",""time"":301},{""stimulus"":""img/green_ll/7.jpg"",""time"":364},{""stimulus"":""img/green_ll/8.jpg"",""time"":401},{""stimulus"":""img/green_ll/9.jpg"",""time"":451},{""stimulus"":""img/green_ll/10.jpg"",""time"":500},{""stimulus"":""img/green_ll/11.jpg"",""time"":554}]","[]"
"image-keyboard-response","80","165688","0.0-5.0-1.38","640415971520c41606ca4389","bdp_lott","Sat Mar 25 2023 22:27:03 GMT-0400 (Eastern Daylight Time)","358941","red","green","","388","","","","choice","","img/green_ll/choose11.jpg","1","187","green","0.5","0.5","0.5","w","",""
"animation","81","166303","0.0-5.0-2.38","640415971520c41606ca4389","bdp_lott","Sat Mar 25 2023 22:27:03 GMT-0400 (Eastern Daylight Time)","358941","red","green","","","","","","","","","","187","","","","","","[{""stimulus"":""img/green_wl/1.jpg"",""time"":51},{""stimulus"":""img/green_wl/2.jpg"",""time"":114},{""stimulus"":""img/green_wl/3.jpg"",""time"":151},{""stimulus"":""img/green_wl/4.jpg"",""time"":207},{""stimulus"":""img/green_wl/5.jpg"",""time"":251},{""stimulus"":""img/green_wl/6.jpg"",""time"":301},{""stimulus"":""img/green_wl/7.jpg"",""time"":364},{""stimulus"":""img/green_wl/8.jpg"",""time"":412},{""stimulus"":""img/green_wl/9.jpg"",""time"":460},{""stimulus"":""img/green_wl/10.jpg"",""time"":507},{""stimulus"":""img/green_wl/11.jpg"",""time"":551}]","[]"
"image-keyboard-response","82","166913","0.0-5.0-1.39","640415971520c41606ca4389","bdp_lott","Sat Mar 25 2023 22:27:03 GMT-0400 (Eastern Daylight Time)","358941","red","green","","609","","","","choice","","img/green_wl/choose11.jpg","1","186","green","0.5","0.5","0.5","l","",""
"animation","83","167526","0.0-5.0-2.39","640415971520c41606ca4389","bdp_lott","Sat Mar 25 2023 22:27:03 GMT-0400 (Eastern Daylight Time)","358941","red","green","","","","","","","","","","186","","","","","","[{""stimulus"":""img/green_ll/1.jpg"",""time"":51},{""stimulus"":""img/green_ll/2.jpg"",""time"":113},{""stimulus"":""img/green_ll/3.jpg"",""time"":159},{""stimulus"":""img/green_ll/4.jpg"",""time"":206},{""stimulus"":""img/green_ll/5.jpg"",""time"":253},{""stimulus"":""img/green_ll/6.jpg"",""time"":302},{""stimulus"":""img/green_ll/7.jpg"",""time"":364},{""stimulus"":""img/green_ll/8.jpg"",""time"":401},{""stimulus"":""img/green_ll/9.jpg"",""time"":452},{""stimulus"":""img/green_ll/10.jpg"",""time"":504},{""stimulus"":""img/green_ll/11.jpg"",""time"":551}]","[]"
"image-keyboard-response","84","167807","0.0-5.0-1.40","640415971520c41606ca4389","bdp_lott","Sat Mar 25 2023 22:27:03 GMT-0400 (Eastern Daylight Time)","358941","red","green","","280","","","","choice","","img/green_ll/choose11.jpg","1","185","green","0.5","0.5","0.5","w","",""
"animation","85","168417","0.0-5.0-2.40","640415971520c41606ca4389","bdp_lott","Sat Mar 25 2023 22:27:03 GMT-0400 (Eastern Daylight Time)","358941","red","green","","","","","","","","","","185","","","","","","[{""stimulus"":""img/green_wl/1.jpg"",""time"":51},{""stimulus"":""img/green_wl/2.jpg"",""time"":109},{""stimulus"":""img/green_wl/3.jpg"",""time"":157},{""stimulus"":""img/green_wl/4.jpg"",""time"":204},{""stimulus"":""img/green_wl/5.jpg"",""time"":251},{""stimulus"":""img/green_wl/6.jpg"",""time"":300},{""stimulus"":""img/green_wl/7.jpg"",""time"":350},{""stimulus"":""img/green_wl/8.jpg"",""time"":406},{""stimulus"":""img/green_wl/9.jpg"",""time"":450},{""stimulus"":""img/green_wl/10.jpg"",""time"":500},{""stimulus"":""img/green_wl/11.jpg"",""time"":562}]","[]"
"image-keyboard-response","86","168837","0.0-5.0-1.41","640415971520c41606ca4389","bdp_lott","Sat Mar 25 2023 22:27:03 GMT-0400 (Eastern Daylight Time)","358941","red","green","","420","","","","choice","","img/green_wl/choose11.jpg","1","184","green","0.5","0.5","0.5","l","",""
"animation","87","169438","0.0-5.0-2.41","640415971520c41606ca4389","bdp_lott","Sat Mar 25 2023 22:27:03 GMT-0400 (Eastern Daylight Time)","358941","red","green","","","","","","","","","","184","","","","","","[{""stimulus"":""img/green_ll/1.jpg"",""time"":53},{""stimulus"":""img/green_ll/2.jpg"",""time"":116},{""stimulus"":""img/green_ll/3.jpg"",""time"":163},{""stimulus"":""img/green_ll/4.jpg"",""time"":210},{""stimulus"":""img/green_ll/5.jpg"",""time"":258},{""stimulus"":""img/green_ll/6.jpg"",""time"":305},{""stimulus"":""img/green_ll/7.jpg"",""time"":367},{""stimulus"":""img/green_ll/8.jpg"",""time"":401},{""stimulus"":""img/green_ll/9.jpg"",""time"":461},{""stimulus"":""img/green_ll/10.jpg"",""time"":508},{""stimulus"":""img/green_ll/11.jpg"",""time"":555}]","[]"
"image-keyboard-response","88","169812","0.0-5.0-1.42","640415971520c41606ca4389","bdp_lott","Sat Mar 25 2023 22:27:03 GMT-0400 (Eastern Daylight Time)","358941","red","green","","374","","","","choice","","img/green_ll/choose11.jpg","1","183","green","0.5","0.5","0.5","w","",""
"animation","89","170413","0.0-5.0-2.42","640415971520c41606ca4389","bdp_lott","Sat Mar 25 2023 22:27:03 GMT-0400 (Eastern Daylight Time)","358941","red","green","","","","","","","","","","183","","","","","","[{""stimulus"":""img/green_wl/1.jpg"",""time"":51},{""stimulus"":""img/green_wl/2.jpg"",""time"":114},{""stimulus"":""img/green_wl/3.jpg"",""time"":161},{""stimulus"":""img/green_wl/4.jpg"",""time"":207},{""stimulus"":""img/green_wl/5.jpg"",""time"":254},{""stimulus"":""img/green_wl/6.jpg"",""time"":302},{""stimulus"":""img/green_wl/7.jpg"",""time"":351},{""stimulus"":""img/green_wl/8.jpg"",""time"":412},{""stimulus"":""img/green_wl/9.jpg"",""time"":459},{""stimulus"":""img/green_wl/10.jpg"",""time"":506},{""stimulus"":""img/green_wl/11.jpg"",""time"":551}]","[]"
"image-keyboard-response","90","170868","0.0-5.0-1.43","640415971520c41606ca4389","bdp_lott","Sat Mar 25 2023 22:27:03 GMT-0400 (Eastern Daylight Time)","358941","red","green","","454","","","","choice","","img/green_wl/choose11.jpg","1","182","green","0.5","0.5","0.5","w","",""
"animation","91","171468","0.0-5.0-2.43","640415971520c41606ca4389","bdp_lott","Sat Mar 25 2023 22:27:03 GMT-0400 (Eastern Daylight Time)","358941","red","green","","","","","","","","","","182","","","","","","[{""stimulus"":""img/green_wl/1.jpg"",""time"":51},{""stimulus"":""img/green_wl/2.jpg"",""time"":103},{""stimulus"":""img/green_wl/3.jpg"",""time"":165},{""stimulus"":""img/green_wl/4.jpg"",""time"":201},{""stimulus"":""img/green_wl/5.jpg"",""time"":251},{""stimulus"":""img/green_wl/6.jpg"",""time"":304},{""stimulus"":""img/green_wl/7.jpg"",""time"":356},{""stimulus"":""img/green_wl/8.jpg"",""time"":406},{""stimulus"":""img/green_wl/9.jpg"",""time"":451},{""stimulus"":""img/green_wl/10.jpg"",""time"":506},{""stimulus"":""img/green_wl/11.jpg"",""time"":553}]","[]"
"image-keyboard-response","92","171982","0.0-5.0-1.44","640415971520c41606ca4389","bdp_lott","Sat Mar 25 2023 22:27:03 GMT-0400 (Eastern Daylight Time)","358941","red","green","","513","","","","choice","","img/green_wl/choose11.jpg","1","181","green","0.5","0.5","0.5","w","",""
"animation","93","172596","0.0-5.0-2.44","640415971520c41606ca4389","bdp_lott","Sat Mar 25 2023 22:27:03 GMT-0400 (Eastern Daylight Time)","358941","red","green","","","","","","","","","","181","","","","","","[{""stimulus"":""img/green_wl/1.jpg"",""time"":51},{""stimulus"":""img/green_wl/2.jpg"",""time"":112},{""stimulus"":""img/green_wl/3.jpg"",""time"":151},{""stimulus"":""img/green_wl/4.jpg"",""time"":206},{""stimulus"":""img/green_wl/5.jpg"",""time"":251},{""stimulus"":""img/green_wl/6.jpg"",""time"":316},{""stimulus"":""img/green_wl/7.jpg"",""time"":364},{""stimulus"":""img/green_wl/8.jpg"",""time"":412},{""stimulus"":""img/green_wl/9.jpg"",""time"":458},{""stimulus"":""img/green_wl/10.jpg"",""time"":507},{""stimulus"":""img/green_wl/11.jpg"",""time"":551}]","[]"
"image-keyboard-response","94","173218","0.0-5.0-1.45","640415971520c41606ca4389","bdp_lott","Sat Mar 25 2023 22:27:03 GMT-0400 (Eastern Daylight Time)","358941","red","green","","622","","","","choice","","img/green_wl/choose11.jpg","1","180","green","0.5","0.5","0.5","w","",""
"animation","95","173821","0.0-5.0-2.45","640415971520c41606ca4389","bdp_lott","Sat Mar 25 2023 22:27:03 GMT-0400 (Eastern Daylight Time)","358941","red","green","","","","","","","","","","180","","","","","","[{""stimulus"":""img/green_wl/1.jpg"",""time"":51},{""stimulus"":""img/green_wl/2.jpg"",""time"":114},{""stimulus"":""img/green_wl/3.jpg"",""time"":151},{""stimulus"":""img/green_wl/4.jpg"",""time"":205},{""stimulus"":""img/green_wl/5.jpg"",""time"":251},{""stimulus"":""img/green_wl/6.jpg"",""time"":314},{""stimulus"":""img/green_wl/7.jpg"",""time"":351},{""stimulus"":""img/green_wl/8.jpg"",""time"":408},{""stimulus"":""img/green_wl/9.jpg"",""time"":451},{""stimulus"":""img/green_wl/10.jpg"",""time"":516},{""stimulus"":""img/green_wl/11.jpg"",""time"":553}]","[]"
"image-keyboard-response","96","174282","0.0-5.0-1.46","640415971520c41606ca4389","bdp_lott","Sat Mar 25 2023 22:27:03 GMT-0400 (Eastern Daylight Time)","358941","red","green","","461","","","","choice","","img/green_wl/choose11.jpg","1","179","green","0.5","0.5","0.5","w","",""
"animation","97","174895","0.0-5.0-2.46","640415971520c41606ca4389","bdp_lott","Sat Mar 25 2023 22:27:03 GMT-0400 (Eastern Daylight Time)","358941","red","green","","","","","","","","","","179","","","","","","[{""stimulus"":""img/green_wl/1.jpg"",""time"":51},{""stimulus"":""img/green_wl/2.jpg"",""time"":111},{""stimulus"":""img/green_wl/3.jpg"",""time"":159},{""stimulus"":""img/green_wl/4.jpg"",""time"":207},{""stimulus"":""img/green_wl/5.jpg"",""time"":253},{""stimulus"":""img/green_wl/6.jpg"",""time"":315},{""stimulus"":""img/green_wl/7.jpg"",""time"":362},{""stimulus"":""img/green_wl/8.jpg"",""time"":409},{""stimulus"":""img/green_wl/9.jpg"",""time"":456},{""stimulus"":""img/green_wl/10.jpg"",""time"":504},{""stimulus"":""img/green_wl/11.jpg"",""time"":551}]","[]"
"image-keyboard-response","98","175326","0.0-5.0-1.47","640415971520c41606ca4389","bdp_lott","Sat Mar 25 2023 22:27:03 GMT-0400 (Eastern Daylight Time)","358941","red","green","","430","","","","choice","","img/green_wl/choose11.jpg","1","178","green","0.5","0.5","0.5","l","",""
"animation","99","175927","0.0-5.0-2.47","640415971520c41606ca4389","bdp_lott","Sat Mar 25 2023 22:27:03 GMT-0400 (Eastern Daylight Time)","358941","red","green","","","","","","","","","","178","","","","","","[{""stimulus"":""img/green_ll/1.jpg"",""time"":51},{""stimulus"":""img/green_ll/2.jpg"",""time"":101},{""stimulus"":""img/green_ll/3.jpg"",""time"":150},{""stimulus"":""img/green_ll/4.jpg"",""time"":200},{""stimulus"":""img/green_ll/5.jpg"",""time"":263},{""stimulus"":""img/green_ll/6.jpg"",""time"":308},{""stimulus"":""img/green_ll/7.jpg"",""time"":351},{""stimulus"":""img/green_ll/8.jpg"",""time"":403},{""stimulus"":""img/green_ll/9.jpg"",""time"":452},{""stimulus"":""img/green_ll/10.jpg"",""time"":500},{""stimulus"":""img/green_ll/11.jpg"",""time"":558}]","[]"
"image-keyboard-response","100","176580","0.0-5.0-1.48","640415971520c41606ca4389","bdp_lott","Sat Mar 25 2023 22:27:03 GMT-0400 (Eastern Daylight Time)","358941","red","green","","652","","","","choice","","img/green_ll/choose11.jpg","1","177","green","0.5","0.5","0.5","w","",""
"animation","101","177182","0.0-5.0-2.48","640415971520c41606ca4389","bdp_lott","Sat Mar 25 2023 22:27:03 GMT-0400 (Eastern Daylight Time)","358941","red","green","","","","","","","","","","177","","","","","","[{""stimulus"":""img/green_wl/1.jpg"",""time"":51},{""stimulus"":""img/green_wl/2.jpg"",""time"":114},{""stimulus"":""img/green_wl/3.jpg"",""time"":161},{""stimulus"":""img/green_wl/4.jpg"",""time"":201},{""stimulus"":""img/green_wl/5.jpg"",""time"":254},{""stimulus"":""img/green_wl/6.jpg"",""time"":315},{""stimulus"":""img/green_wl/7.jpg"",""time"":351},{""stimulus"":""img/green_wl/8.jpg"",""time"":401},{""stimulus"":""img/green_wl/9.jpg"",""time"":452},{""stimulus"":""img/green_wl/10.jpg"",""time"":502},{""stimulus"":""img/green_wl/11.jpg"",""time"":552}]","[]"
"image-keyboard-response","102","177650","0.0-5.0-1.49","640415971520c41606ca4389","bdp_lott","Sat Mar 25 2023 22:27:03 GMT-0400 (Eastern Daylight Time)","358941","red","green","","468","","","","choice","","img/green_wl/choose11.jpg","1","176","green","0.5","0.5","0.5","w","",""
"animation","103","178252","0.0-5.0-2.49","640415971520c41606ca4389","bdp_lott","Sat Mar 25 2023 22:27:03 GMT-0400 (Eastern Daylight Time)","358941","red","green","","","","","","","","","","176","","","","","","[{""stimulus"":""img/green_wl/1.jpg"",""time"":52},{""stimulus"":""img/green_wl/2.jpg"",""time"":102},{""stimulus"":""img/green_wl/3.jpg"",""time"":151},{""stimulus"":""img/green_wl/4.jpg"",""time"":201},{""stimulus"":""img/green_wl/5.jpg"",""time"":251},{""stimulus"":""img/green_wl/6.jpg"",""time"":302},{""stimulus"":""img/green_wl/7.jpg"",""time"":366},{""stimulus"":""img/green_wl/8.jpg"",""time"":402},{""stimulus"":""img/green_wl/9.jpg"",""time"":452},{""stimulus"":""img/green_wl/10.jpg"",""time"":501},{""stimulus"":""img/green_wl/11.jpg"",""time"":552}]","[]"
"image-keyboard-response","104","178890","0.0-5.0-1.50","640415971520c41606ca4389","bdp_lott","Sat Mar 25 2023 22:27:03 GMT-0400 (Eastern Daylight Time)","358941","red","green","","638","","","","choice","","img/green_wl/choose11.jpg","1","175","green","0.5","0.5","0.5","l","",""
"animation","105","179490","0.0-5.0-2.50","640415971520c41606ca4389","bdp_lott","Sat Mar 25 2023 22:27:03 GMT-0400 (Eastern Daylight Time)","358941","red","green","","","","","","","","","","175","","","","","","[{""stimulus"":""img/green_ll/1.jpg"",""time"":51},{""stimulus"":""img/green_ll/2.jpg"",""time"":107},{""stimulus"":""img/green_ll/3.jpg"",""time"":152},{""stimulus"":""img/green_ll/4.jpg"",""time"":215},{""stimulus"":""img/green_ll/5.jpg"",""time"":251},{""stimulus"":""img/green_ll/6.jpg"",""time"":308},{""stimulus"":""img/green_ll/7.jpg"",""time"":351},{""stimulus"":""img/green_ll/8.jpg"",""time"":401},{""stimulus"":""img/green_ll/9.jpg"",""time"":452},{""stimulus"":""img/green_ll/10.jpg"",""time"":511},{""stimulus"":""img/green_ll/11.jpg"",""time"":552}]","[]"
"image-keyboard-response","106","180003","0.0-5.0-1.51","640415971520c41606ca4389","bdp_lott","Sat Mar 25 2023 22:27:03 GMT-0400 (Eastern Daylight Time)","358941","red","green","","512","","","","choice","","img/green_ll/choose11.jpg","1","174","green","0.5","0.5","0.5","l","",""
"animation","107","180604","0.0-5.0-2.51","640415971520c41606ca4389","bdp_lott","Sat Mar 25 2023 22:27:03 GMT-0400 (Eastern Daylight Time)","358941","red","green","","","","","","","","","","174","","","","","","[{""stimulus"":""img/green_ll/1.jpg"",""time"":51},{""stimulus"":""img/green_ll/2.jpg"",""time"":111},{""stimulus"":""img/green_ll/3.jpg"",""time"":152},{""stimulus"":""img/green_ll/4.jpg"",""time"":201},{""stimulus"":""img/green_ll/5.jpg"",""time"":251},{""stimulus"":""img/green_ll/6.jpg"",""time"":315},{""stimulus"":""img/green_ll/7.jpg"",""time"":351},{""stimulus"":""img/green_ll/8.jpg"",""time"":401},{""stimulus"":""img/green_ll/9.jpg"",""time"":453},{""stimulus"":""img/green_ll/10.jpg"",""time"":503},{""stimulus"":""img/green_ll/11.jpg"",""time"":552}]","[]"
"image-keyboard-response","108","181224","0.0-5.0-1.52","640415971520c41606ca4389","bdp_lott","Sat Mar 25 2023 22:27:03 GMT-0400 (Eastern Daylight Time)","358941","red","green","","620","","","","choice","","img/green_ll/choose11.jpg","2","173","red","0.5","0.5","0.5","w","",""
"animation","109","181839","0.0-5.0-2.52","640415971520c41606ca4389","bdp_lott","Sat Mar 25 2023 22:27:03 GMT-0400 (Eastern Daylight Time)","358941","red","green","","","","","","","","","","173","","","","","","[{""stimulus"":""img/red_lw/1.jpg"",""time"":55},{""stimulus"":""img/red_lw/2.jpg"",""time"":116},{""stimulus"":""img/red_lw/3.jpg"",""time"":151},{""stimulus"":""img/red_lw/4.jpg"",""time"":202},{""stimulus"":""img/red_lw/5.jpg"",""time"":258},{""stimulus"":""img/red_lw/6.jpg"",""time"":303},{""stimulus"":""img/red_lw/7.jpg"",""time"":355},{""stimulus"":""img/red_lw/8.jpg"",""time"":405},{""stimulus"":""img/red_lw/9.jpg"",""time"":455},{""stimulus"":""img/red_lw/10.jpg"",""time"":505},{""stimulus"":""img/red_lw/11.jpg"",""time"":553}]","[]"
"image-keyboard-response","110","182450","0.0-5.0-1.53","640415971520c41606ca4389","bdp_lott","Sat Mar 25 2023 22:27:03 GMT-0400 (Eastern Daylight Time)","358941","red","green","","611","","","","choice","","img/red_lw/choose11.jpg","2","172","red","0.5","0.5","0.5","w","",""
"animation","111","183052","0.0-5.0-2.53","640415971520c41606ca4389","bdp_lott","Sat Mar 25 2023 22:27:03 GMT-0400 (Eastern Daylight Time)","358941","red","green","","","","","","","","","","172","","","","","","[{""stimulus"":""img/red_lw/1.jpg"",""time"":53},{""stimulus"":""img/red_lw/2.jpg"",""time"":101},{""stimulus"":""img/red_lw/3.jpg"",""time"":161},{""stimulus"":""img/red_lw/4.jpg"",""time"":201},{""stimulus"":""img/red_lw/5.jpg"",""time"":254},{""stimulus"":""img/red_lw/6.jpg"",""time"":316},{""stimulus"":""img/red_lw/7.jpg"",""time"":351},{""stimulus"":""img/red_lw/8.jpg"",""time"":402},{""stimulus"":""img/red_lw/9.jpg"",""time"":451},{""stimulus"":""img/red_lw/10.jpg"",""time"":501},{""stimulus"":""img/red_lw/11.jpg"",""time"":551}]","[]"
"image-keyboard-response","112","183534","0.0-5.0-1.54","640415971520c41606ca4389","bdp_lott","Sat Mar 25 2023 22:27:03 GMT-0400 (Eastern Daylight Time)","358941","red","green","","482","","","","choice","","img/red_lw/choose11.jpg","2","171","red","0.5","0.5","0.5","l","",""
"animation","113","184135","0.0-5.0-2.54","640415971520c41606ca4389","bdp_lott","Sat Mar 25 2023 22:27:03 GMT-0400 (Eastern Daylight Time)","358941","red","green","","","","","","","","","","171","","","","","","[{""stimulus"":""img/red_ll/1.jpg"",""time"":51},{""stimulus"":""img/red_ll/2.jpg"",""time"":113},{""stimulus"":""img/red_ll/3.jpg"",""time"":160},{""stimulus"":""img/red_ll/4.jpg"",""time"":206},{""stimulus"":""img/red_ll/5.jpg"",""time"":253},{""stimulus"":""img/red_ll/6.jpg"",""time"":301},{""stimulus"":""img/red_ll/7.jpg"",""time"":362},{""stimulus"":""img/red_ll/8.jpg"",""time"":402},{""stimulus"":""img/red_ll/9.jpg"",""time"":455},{""stimulus"":""img/red_ll/10.jpg"",""time"":501},{""stimulus"":""img/red_ll/11.jpg"",""time"":566}]","[]"
"image-keyboard-response","114","184459","0.0-5.0-1.55","640415971520c41606ca4389","bdp_lott","Sat Mar 25 2023 22:27:03 GMT-0400 (Eastern Daylight Time)","358941","red","green","","323","","","","choice","","img/red_ll/choose11.jpg","2","170","red","0.5","0.5","0.5","l","",""
"animation","115","185060","0.0-5.0-2.55","640415971520c41606ca4389","bdp_lott","Sat Mar 25 2023 22:27:03 GMT-0400 (Eastern Daylight Time)","358941","red","green","","","","","","","","","","170","","","","","","[{""stimulus"":""img/red_ll/1.jpg"",""time"":51},{""stimulus"":""img/red_ll/2.jpg"",""time"":101},{""stimulus"":""img/red_ll/3.jpg"",""time"":157},{""stimulus"":""img/red_ll/4.jpg"",""time"":204},{""stimulus"":""img/red_ll/5.jpg"",""time"":266},{""stimulus"":""img/red_ll/6.jpg"",""time"":312},{""stimulus"":""img/red_ll/7.jpg"",""time"":351},{""stimulus"":""img/red_ll/8.jpg"",""time"":404},{""stimulus"":""img/red_ll/9.jpg"",""time"":465},{""stimulus"":""img/red_ll/10.jpg"",""time"":512},{""stimulus"":""img/red_ll/11.jpg"",""time"":559}]","[]"
"image-keyboard-response","116","185439","0.0-5.0-1.56","640415971520c41606ca4389","bdp_lott","Sat Mar 25 2023 22:27:03 GMT-0400 (Eastern Daylight Time)","358941","red","green","","378","","","","choice","","img/red_ll/choose11.jpg","2","169","red","0.5","0.5","0.5","w","",""
"animation","117","186040","0.0-5.0-2.56","640415971520c41606ca4389","bdp_lott","Sat Mar 25 2023 22:27:03 GMT-0400 (Eastern Daylight Time)","358941","red","green","","","","","","","","","","169","","","","","","[{""stimulus"":""img/red_lw/1.jpg"",""time"":51},{""stimulus"":""img/red_lw/2.jpg"",""time"":100},{""stimulus"":""img/red_lw/3.jpg"",""time"":159},{""stimulus"":""img/red_lw/4.jpg"",""time"":200},{""stimulus"":""img/red_lw/5.jpg"",""time"":252},{""stimulus"":""img/red_lw/6.jpg"",""time"":314},{""stimulus"":""img/red_lw/7.jpg"",""time"":352},{""stimulus"":""img/red_lw/8.jpg"",""time"":402},{""stimulus"":""img/red_lw/9.jpg"",""time"":451},{""stimulus"":""img/red_lw/10.jpg"",""time"":501},{""stimulus"":""img/red_lw/11.jpg"",""time"":551}]","[]"
"image-keyboard-response","118","186513","0.0-5.0-1.57","640415971520c41606ca4389","bdp_lott","Sat Mar 25 2023 22:27:03 GMT-0400 (Eastern Daylight Time)","358941","red","green","","473","","","","choice","","img/red_lw/choose11.jpg","2","168","red","0.5","0.5","0.5","w","",""
"animation","119","187115","0.0-5.0-2.57","640415971520c41606ca4389","bdp_lott","Sat Mar 25 2023 22:27:03 GMT-0400 (Eastern Daylight Time)","358941","red","green","","","","","","","","","","168","","","","","","[{""stimulus"":""img/red_lw/1.jpg"",""time"":51},{""stimulus"":""img/red_lw/2.jpg"",""time"":100},{""stimulus"":""img/red_lw/3.jpg"",""time"":161},{""stimulus"":""img/red_lw/4.jpg"",""time"":207},{""stimulus"":""img/red_lw/5.jpg"",""time"":256},{""stimulus"":""img/red_lw/6.jpg"",""time"":301},{""stimulus"":""img/red_lw/7.jpg"",""time"":351},{""stimulus"":""img/red_lw/8.jpg"",""time"":400},{""stimulus"":""img/red_lw/9.jpg"",""time"":461},{""stimulus"":""img/red_lw/10.jpg"",""time"":507},{""stimulus"":""img/red_lw/11.jpg"",""time"":554}]","[]"
"image-keyboard-response","120","187355","0.0-5.0-1.58","640415971520c41606ca4389","bdp_lott","Sat Mar 25 2023 22:27:03 GMT-0400 (Eastern Daylight Time)","358941","red","green","","239","","","","choice","","img/red_lw/choose11.jpg","2","167","red","0.5","0.5","0.5","l","",""
"animation","121","187956","0.0-5.0-2.58","640415971520c41606ca4389","bdp_lott","Sat Mar 25 2023 22:27:03 GMT-0400 (Eastern Daylight Time)","358941","red","green","","","","","","","","","","167","","","","","","[{""stimulus"":""img/red_ll/1.jpg"",""time"":52},{""stimulus"":""img/red_ll/2.jpg"",""time"":107},{""stimulus"":""img/red_ll/3.jpg"",""time"":154},{""stimulus"":""img/red_ll/4.jpg"",""time"":202},{""stimulus"":""img/red_ll/5.jpg"",""time"":250},{""stimulus"":""img/red_ll/6.jpg"",""time"":301},{""stimulus"":""img/red_ll/7.jpg"",""time"":351},{""stimulus"":""img/red_ll/8.jpg"",""time"":405},{""stimulus"":""img/red_ll/9.jpg"",""time"":454},{""stimulus"":""img/red_ll/10.jpg"",""time"":515},{""stimulus"":""img/red_ll/11.jpg"",""time"":550}]","[]"
"image-keyboard-response","122","188377","0.0-5.0-1.59","640415971520c41606ca4389","bdp_lott","Sat Mar 25 2023 22:27:03 GMT-0400 (Eastern Daylight Time)","358941","red","green","","421","","","","choice","","img/red_ll/choose11.jpg","2","166","red","0.5","0.5","0.5","w","",""
"animation","123","188982","0.0-5.0-2.59","640415971520c41606ca4389","bdp_lott","Sat Mar 25 2023 22:27:03 GMT-0400 (Eastern Daylight Time)","358941","red","green","","","","","","","","","","166","","","","","","[{""stimulus"":""img/red_lw/1.jpg"",""time"":51},{""stimulus"":""img/red_lw/2.jpg"",""time"":105},{""stimulus"":""img/red_lw/3.jpg"",""time"":152},{""stimulus"":""img/red_lw/4.jpg"",""time"":215},{""stimulus"":""img/red_lw/5.jpg"",""time"":251},{""stimulus"":""img/red_lw/6.jpg"",""time"":308},{""stimulus"":""img/red_lw/7.jpg"",""time"":355},{""stimulus"":""img/red_lw/8.jpg"",""time"":403},{""stimulus"":""img/red_lw/9.jpg"",""time"":466},{""stimulus"":""img/red_lw/10.jpg"",""time"":512},{""stimulus"":""img/red_lw/11.jpg"",""time"":557}]","[]"
"image-keyboard-response","124","189407","0.0-5.0-1.60","640415971520c41606ca4389","bdp_lott","Sat Mar 25 2023 22:27:03 GMT-0400 (Eastern Daylight Time)","358941","red","green","","425","","","","choice","","img/red_lw/choose11.jpg","2","165","red","0.5","0.5","0.5","w","",""
"animation","125","190008","0.0-5.0-2.60","640415971520c41606ca4389","bdp_lott","Sat Mar 25 2023 22:27:03 GMT-0400 (Eastern Daylight Time)","358941","red","green","","","","","","","","","","165","","","","","","[{""stimulus"":""img/red_lw/1.jpg"",""time"":51},{""stimulus"":""img/red_lw/2.jpg"",""time"":101},{""stimulus"":""img/red_lw/3.jpg"",""time"":156},{""stimulus"":""img/red_lw/4.jpg"",""time"":204},{""stimulus"":""img/red_lw/5.jpg"",""time"":251},{""stimulus"":""img/red_lw/6.jpg"",""time"":316},{""stimulus"":""img/red_lw/7.jpg"",""time"":362},{""stimulus"":""img/red_lw/8.jpg"",""time"":400},{""stimulus"":""img/red_lw/9.jpg"",""time"":455},{""stimulus"":""img/red_lw/10.jpg"",""time"":500},{""stimulus"":""img/red_lw/11.jpg"",""time"":551}]","[]"
"image-keyboard-response","126","190268","0.0-5.0-1.61","640415971520c41606ca4389","bdp_lott","Sat Mar 25 2023 22:27:03 GMT-0400 (Eastern Daylight Time)","358941","red","green","","258","","","","choice","","img/red_lw/choose11.jpg","2","164","red","0.5","0.5","0.5","l","",""
"animation","127","190880","0.0-5.0-2.61","640415971520c41606ca4389","bdp_lott","Sat Mar 25 2023 22:27:03 GMT-0400 (Eastern Daylight Time)","358941","red","green","","","","","","","","","","164","","","","","","[{""stimulus"":""img/red_ll/1.jpg"",""time"":65},{""stimulus"":""img/red_ll/2.jpg"",""time"":111},{""stimulus"":""img/red_ll/3.jpg"",""time"":158},{""stimulus"":""img/red_ll/4.jpg"",""time"":200},{""stimulus"":""img/red_ll/5.jpg"",""time"":251},{""stimulus"":""img/red_ll/6.jpg"",""time"":301},{""stimulus"":""img/red_ll/7.jpg"",""time"":350},{""stimulus"":""img/red_ll/8.jpg"",""time"":400},{""stimulus"":""img/red_ll/9.jpg"",""time"":450},{""stimulus"":""img/red_ll/10.jpg"",""time"":503},{""stimulus"":""img/red_ll/11.jpg"",""time"":550}]","[]"
"image-keyboard-response","128","191267","0.0-5.0-1.62","640415971520c41606ca4389","bdp_lott","Sat Mar 25 2023 22:27:03 GMT-0400 (Eastern Daylight Time)","358941","red","green","","387","","","","choice","","img/red_ll/choose11.jpg","2","163","red","0.5","0.5","0.5","l","",""
"animation","129","191868","0.0-5.0-2.62","640415971520c41606ca4389","bdp_lott","Sat Mar 25 2023 22:27:03 GMT-0400 (Eastern Daylight Time)","358941","red","green","","","","","","","","","","163","","","","","","[{""stimulus"":""img/red_ll/1.jpg"",""time"":51},{""stimulus"":""img/red_ll/2.jpg"",""time"":115},{""stimulus"":""img/red_ll/3.jpg"",""time"":157},{""stimulus"":""img/red_ll/4.jpg"",""time"":201},{""stimulus"":""img/red_ll/5.jpg"",""time"":252},{""stimulus"":""img/red_ll/6.jpg"",""time"":302},{""stimulus"":""img/red_ll/7.jpg"",""time"":366},{""stimulus"":""img/red_ll/8.jpg"",""time"":401},{""stimulus"":""img/red_ll/9.jpg"",""time"":451},{""stimulus"":""img/red_ll/10.jpg"",""time"":506},{""stimulus"":""img/red_ll/11.jpg"",""time"":551}]","[]"
"image-keyboard-response","130","192601","0.0-5.0-1.63","640415971520c41606ca4389","bdp_lott","Sat Mar 25 2023 22:27:03 GMT-0400 (Eastern Daylight Time)","358941","red","green","","733","","","","choice","","img/red_ll/choose11.jpg","1","162","green","0.5","0.5","0.5","l","",""
"animation","131","193202","0.0-5.0-2.63","640415971520c41606ca4389","bdp_lott","Sat Mar 25 2023 22:27:03 GMT-0400 (Eastern Daylight Time)","358941","red","green","","","","","","","","","","162","","","","","","[{""stimulus"":""img/green_ll/1.jpg"",""time"":50},{""stimulus"":""img/green_ll/2.jpg"",""time"":112},{""stimulus"":""img/green_ll/3.jpg"",""time"":150},{""stimulus"":""img/green_ll/4.jpg"",""time"":201},{""stimulus"":""img/green_ll/5.jpg"",""time"":253},{""stimulus"":""img/green_ll/6.jpg"",""time"":316},{""stimulus"":""img/green_ll/7.jpg"",""time"":351},{""stimulus"":""img/green_ll/8.jpg"",""time"":401},{""stimulus"":""img/green_ll/9.jpg"",""time"":457},{""stimulus"":""img/green_ll/10.jpg"",""time"":500},{""stimulus"":""img/green_ll/11.jpg"",""time"":551}]","[]"
"image-keyboard-response","132","193578","0.0-5.0-1.64","640415971520c41606ca4389","bdp_lott","Sat Mar 25 2023 22:27:03 GMT-0400 (Eastern Daylight Time)","358941","red","green","","376","","","","choice","","img/green_ll/choose11.jpg","1","161","green","0.5","0.5","0.5","w","",""
"animation","133","194179","0.0-5.0-2.64","640415971520c41606ca4389","bdp_lott","Sat Mar 25 2023 22:27:03 GMT-0400 (Eastern Daylight Time)","358941","red","green","","","","","","","","","","161","","","","","","[{""stimulus"":""img/green_wl/1.jpg"",""time"":50},{""stimulus"":""img/green_wl/2.jpg"",""time"":100},{""stimulus"":""img/green_wl/3.jpg"",""time"":150},{""stimulus"":""img/green_wl/4.jpg"",""time"":216},{""stimulus"":""img/green_wl/5.jpg"",""time"":252},{""stimulus"":""img/green_wl/6.jpg"",""time"":310},{""stimulus"":""img/green_wl/7.jpg"",""time"":357},{""stimulus"":""img/green_wl/8.jpg"",""time"":404},{""stimulus"":""img/green_wl/9.jpg"",""time"":451},{""stimulus"":""img/green_wl/10.jpg"",""time"":500},{""stimulus"":""img/green_wl/11.jpg"",""time"":551}]","[]"
"image-keyboard-response","134","194667","0.0-5.0-1.65","640415971520c41606ca4389","bdp_lott","Sat Mar 25 2023 22:27:03 GMT-0400 (Eastern Daylight Time)","358941","red","green","","486","","","","choice","","img/green_wl/choose11.jpg","1","160","green","0.5","0.5","0.5","l","",""
"animation","135","195268","0.0-5.0-2.65","640415971520c41606ca4389","bdp_lott","Sat Mar 25 2023 22:27:03 GMT-0400 (Eastern Daylight Time)","358941","red","green","","","","","","","","","","160","","","","","","[{""stimulus"":""img/green_ll/1.jpg"",""time"":51},{""stimulus"":""img/green_ll/2.jpg"",""time"":101},{""stimulus"":""img/green_ll/3.jpg"",""time"":163},{""stimulus"":""img/green_ll/4.jpg"",""time"":211},{""stimulus"":""img/green_ll/5.jpg"",""time"":250},{""stimulus"":""img/green_ll/6.jpg"",""time"":305},{""stimulus"":""img/green_ll/7.jpg"",""time"":350},{""stimulus"":""img/green_ll/8.jpg"",""time"":400},{""stimulus"":""img/green_ll/9.jpg"",""time"":450},{""stimulus"":""img/green_ll/10.jpg"",""time"":505},{""stimulus"":""img/green_ll/11.jpg"",""time"":551}]","[]"
"image-keyboard-response","136","195641","0.0-5.0-1.66","640415971520c41606ca4389","bdp_lott","Sat Mar 25 2023 22:27:03 GMT-0400 (Eastern Daylight Time)","358941","red","green","","371","","","","choice","","img/green_ll/choose11.jpg","1","159","green","0.5","0.5","0.5","w","",""
"animation","137","196245","0.0-5.0-2.66","640415971520c41606ca4389","bdp_lott","Sat Mar 25 2023 22:27:03 GMT-0400 (Eastern Daylight Time)","358941","red","green","","","","","","","","","","159","","","","","","[{""stimulus"":""img/green_wl/1.jpg"",""time"":53},{""stimulus"":""img/green_wl/2.jpg"",""time"":100},{""stimulus"":""img/green_wl/3.jpg"",""time"":162},{""stimulus"":""img/green_wl/4.jpg"",""time"":200},{""stimulus"":""img/green_wl/5.jpg"",""time"":256},{""stimulus"":""img/green_wl/6.jpg"",""time"":303},{""stimulus"":""img/green_wl/7.jpg"",""time"":351},{""stimulus"":""img/green_wl/8.jpg"",""time"":400},{""stimulus"":""img/green_wl/9.jpg"",""time"":462},{""stimulus"":""img/green_wl/10.jpg"",""time"":500},{""stimulus"":""img/green_wl/11.jpg"",""time"":552}]","[]"
"image-keyboard-response","138","196630","0.0-5.0-1.67","640415971520c41606ca4389","bdp_lott","Sat Mar 25 2023 22:27:03 GMT-0400 (Eastern Daylight Time)","358941","red","green","","385","","","","choice","","img/green_wl/choose11.jpg","1","158","green","0.5","0.5","0.5","l","",""
"animation","139","197243","0.0-5.0-2.67","640415971520c41606ca4389","bdp_lott","Sat Mar 25 2023 22:27:03 GMT-0400 (Eastern Daylight Time)","358941","red","green","","","","","","","","","","158","","","","","","[{""stimulus"":""img/green_ll/1.jpg"",""time"":50},{""stimulus"":""img/green_ll/2.jpg"",""time"":111},{""stimulus"":""img/green_ll/3.jpg"",""time"":150},{""stimulus"":""img/green_ll/4.jpg"",""time"":204},{""stimulus"":""img/green_ll/5.jpg"",""time"":252},{""stimulus"":""img/green_ll/6.jpg"",""time"":301},{""stimulus"":""img/green_ll/7.jpg"",""time"":351},{""stimulus"":""img/green_ll/8.jpg"",""time"":409},{""stimulus"":""img/green_ll/9.jpg"",""time"":456},{""stimulus"":""img/green_ll/10.jpg"",""time"":503},{""stimulus"":""img/green_ll/11.jpg"",""time"":565}]","[]"
"image-keyboard-response","140","197555","0.0-5.0-1.68","640415971520c41606ca4389","bdp_lott","Sat Mar 25 2023 22:27:03 GMT-0400 (Eastern Daylight Time)","358941","red","green","","312","","","","choice","","img/green_ll/choose11.jpg","1","157","green","0.5","0.5","0.5","l","",""
"animation","141","198157","0.0-5.0-2.68","640415971520c41606ca4389","bdp_lott","Sat Mar 25 2023 22:27:03 GMT-0400 (Eastern Daylight Time)","358941","red","green","","","","","","","","","","157","","","","","","[{""stimulus"":""img/green_ll/1.jpg"",""time"":65},{""stimulus"":""img/green_ll/2.jpg"",""time"":112},{""stimulus"":""img/green_ll/3.jpg"",""time"":159},{""stimulus"":""img/green_ll/4.jpg"",""time"":206},{""stimulus"":""img/green_ll/5.jpg"",""time"":254},{""stimulus"":""img/green_ll/6.jpg"",""time"":300},{""stimulus"":""img/green_ll/7.jpg"",""time"":363},{""stimulus"":""img/green_ll/8.jpg"",""time"":411},{""stimulus"":""img/green_ll/9.jpg"",""time"":451},{""stimulus"":""img/green_ll/10.jpg"",""time"":505},{""stimulus"":""img/green_ll/11.jpg"",""time"":551}]","[]"
"image-keyboard-response","142","198470","0.0-5.0-1.69","640415971520c41606ca4389","bdp_lott","Sat Mar 25 2023 22:27:03 GMT-0400 (Eastern Daylight Time)","358941","red","green","","312","","","","choice","","img/green_ll/choose11.jpg","1","156","green","0.5","0.5","0.5","w","",""
"animation","143","199071","0.0-5.0-2.69","640415971520c41606ca4389","bdp_lott","Sat Mar 25 2023 22:27:03 GMT-0400 (Eastern Daylight Time)","358941","red","green","","","","","","","","","","156","","","","","","[{""stimulus"":""img/green_wl/1.jpg"",""time"":52},{""stimulus"":""img/green_wl/2.jpg"",""time"":108},{""stimulus"":""img/green_wl/3.jpg"",""time"":155},{""stimulus"":""img/green_wl/4.jpg"",""time"":202},{""stimulus"":""img/green_wl/5.jpg"",""time"":252},{""stimulus"":""img/green_wl/6.jpg"",""time"":302},{""stimulus"":""img/green_wl/7.jpg"",""time"":358},{""stimulus"":""img/green_wl/8.jpg"",""time"":401},{""stimulus"":""img/green_wl/9.jpg"",""time"":451},{""stimulus"":""img/green_wl/10.jpg"",""time"":514},{""stimulus"":""img/green_wl/11.jpg"",""time"":551}]","[]"
"image-keyboard-response","144","199536","0.0-5.0-1.70","640415971520c41606ca4389","bdp_lott","Sat Mar 25 2023 22:27:03 GMT-0400 (Eastern Daylight Time)","358941","red","green","","465","","","","choice","","img/green_wl/choose11.jpg","1","155","green","0.5","0.5","0.5","w","",""
"animation","145","200137","0.0-5.0-2.70","640415971520c41606ca4389","bdp_lott","Sat Mar 25 2023 22:27:03 GMT-0400 (Eastern Daylight Time)","358941","red","green","","","","","","","","","","155","","","","","","[{""stimulus"":""img/green_wl/1.jpg"",""time"":60},{""stimulus"":""img/green_wl/2.jpg"",""time"":101},{""stimulus"":""img/green_wl/3.jpg"",""time"":155},{""stimulus"":""img/green_wl/4.jpg"",""time"":201},{""stimulus"":""img/green_wl/5.jpg"",""time"":265},{""stimulus"":""img/green_wl/6.jpg"",""time"":313},{""stimulus"":""img/green_wl/7.jpg"",""time"":360},{""stimulus"":""img/green_wl/8.jpg"",""time"":400},{""stimulus"":""img/green_wl/9.jpg"",""time"":453},{""stimulus"":""img/green_wl/10.jpg"",""time"":500},{""stimulus"":""img/green_wl/11.jpg"",""time"":560}]","[]"
"image-keyboard-response","146","200689","0.0-5.0-1.71","640415971520c41606ca4389","bdp_lott","Sat Mar 25 2023 22:27:03 GMT-0400 (Eastern Daylight Time)","358941","red","green","","551","","","","choice","","img/green_wl/choose11.jpg","1","154","green","0.5","0.5","0.5","w","",""
"animation","147","201290","0.0-5.0-2.71","640415971520c41606ca4389","bdp_lott","Sat Mar 25 2023 22:27:03 GMT-0400 (Eastern Daylight Time)","358941","red","green","","","","","","","","","","154","","","","","","[{""stimulus"":""img/green_wl/1.jpg"",""time"":50},{""stimulus"":""img/green_wl/2.jpg"",""time"":115},{""stimulus"":""img/green_wl/3.jpg"",""time"":150},{""stimulus"":""img/green_wl/4.jpg"",""time"":200},{""stimulus"":""img/green_wl/5.jpg"",""time"":250},{""stimulus"":""img/green_wl/6.jpg"",""time"":300},{""stimulus"":""img/green_wl/7.jpg"",""time"":350},{""stimulus"":""img/green_wl/8.jpg"",""time"":400},{""stimulus"":""img/green_wl/9.jpg"",""time"":462},{""stimulus"":""img/green_wl/10.jpg"",""time"":500},{""stimulus"":""img/green_wl/11.jpg"",""time"":550}]","[]"
"image-keyboard-response","148","201829","0.0-5.0-1.72","640415971520c41606ca4389","bdp_lott","Sat Mar 25 2023 22:27:03 GMT-0400 (Eastern Daylight Time)","358941","red","green","","539","","","","choice","","img/green_wl/choose11.jpg","1","153","green","0.5","0.5","0.5","l","",""
"animation","149","202431","0.0-5.0-2.72","640415971520c41606ca4389","bdp_lott","Sat Mar 25 2023 22:27:03 GMT-0400 (Eastern Daylight Time)","358941","red","green","","","","","","","","","","153","","","","","","[{""stimulus"":""img/green_ll/1.jpg"",""time"":51},{""stimulus"":""img/green_ll/2.jpg"",""time"":111},{""stimulus"":""img/green_ll/3.jpg"",""time"":151},{""stimulus"":""img/green_ll/4.jpg"",""time"":201},{""stimulus"":""img/green_ll/5.jpg"",""time"":251},{""stimulus"":""img/green_ll/6.jpg"",""time"":301},{""stimulus"":""img/green_ll/7.jpg"",""time"":363},{""stimulus"":""img/green_ll/8.jpg"",""time"":401},{""stimulus"":""img/green_ll/9.jpg"",""time"":451},{""stimulus"":""img/green_ll/10.jpg"",""time"":502},{""stimulus"":""img/green_ll/11.jpg"",""time"":567}]","[]"
"image-keyboard-response","150","202814","0.0-5.0-1.73","640415971520c41606ca4389","bdp_lott","Sat Mar 25 2023 22:27:03 GMT-0400 (Eastern Daylight Time)","358941","red","green","","383","","","","choice","","img/green_ll/choose11.jpg","1","152","green","0.5","0.5","0.5","l","",""
"animation","151","203415","0.0-5.0-2.73","640415971520c41606ca4389","bdp_lott","Sat Mar 25 2023 22:27:03 GMT-0400 (Eastern Daylight Time)","358941","red","green","","","","","","","","","","152","","","","","","[{""stimulus"":""img/green_ll/1.jpg"",""time"":67},{""stimulus"":""img/green_ll/2.jpg"",""time"":114},{""stimulus"":""img/green_ll/3.jpg"",""time"":151},{""stimulus"":""img/green_ll/4.jpg"",""time"":202},{""stimulus"":""img/green_ll/5.jpg"",""time"":255},{""stimulus"":""img/green_ll/6.jpg"",""time"":303},{""stimulus"":""img/green_ll/7.jpg"",""time"":351},{""stimulus"":""img/green_ll/8.jpg"",""time"":412},{""stimulus"":""img/green_ll/9.jpg"",""time"":451},{""stimulus"":""img/green_ll/10.jpg"",""time"":501},{""stimulus"":""img/green_ll/11.jpg"",""time"":551}]","[]"
"image-keyboard-response","152","203848","0.0-5.0-1.74","640415971520c41606ca4389","bdp_lott","Sat Mar 25 2023 22:27:03 GMT-0400 (Eastern Daylight Time)","358941","red","green","","433","","","","choice","","img/green_ll/choose11.jpg","1","151","green","0.5","0.5","0.5","l","",""
"animation","153","204450","0.0-5.0-2.74","640415971520c41606ca4389","bdp_lott","Sat Mar 25 2023 22:27:03 GMT-0400 (Eastern Daylight Time)","358941","red","green","","","","","","","","","","151","","","","","","[{""stimulus"":""img/green_ll/1.jpg"",""time"":52},{""stimulus"":""img/green_ll/2.jpg"",""time"":104},{""stimulus"":""img/green_ll/3.jpg"",""time"":150},{""stimulus"":""img/green_ll/4.jpg"",""time"":210},{""stimulus"":""img/green_ll/5.jpg"",""time"":256},{""stimulus"":""img/green_ll/6.jpg"",""time"":300},{""stimulus"":""img/green_ll/7.jpg"",""time"":351},{""stimulus"":""img/green_ll/8.jpg"",""time"":413},{""stimulus"":""img/green_ll/9.jpg"",""time"":461},{""stimulus"":""img/green_ll/10.jpg"",""time"":508},{""stimulus"":""img/green_ll/11.jpg"",""time"":554}]","[]"
"image-keyboard-response","154","204915","0.0-5.0-1.75","640415971520c41606ca4389","bdp_lott","Sat Mar 25 2023 22:27:03 GMT-0400 (Eastern Daylight Time)","358941","red","green","","464","","","","choice","","img/green_ll/choose11.jpg","2","150","red","0.5","0.5","0.5","l","",""
"animation","155","205517","0.0-5.0-2.75","640415971520c41606ca4389","bdp_lott","Sat Mar 25 2023 22:27:03 GMT-0400 (Eastern Daylight Time)","358941","red","green","","","","","","","","","","150","","","","","","[{""stimulus"":""img/red_ll/1.jpg"",""time"":51},{""stimulus"":""img/red_ll/2.jpg"",""time"":116},{""stimulus"":""img/red_ll/3.jpg"",""time"":153},{""stimulus"":""img/red_ll/4.jpg"",""time"":201},{""stimulus"":""img/red_ll/5.jpg"",""time"":257},{""stimulus"":""img/red_ll/6.jpg"",""time"":303},{""stimulus"":""img/red_ll/7.jpg"",""time"":352},{""stimulus"":""img/red_ll/8.jpg"",""time"":401},{""stimulus"":""img/red_ll/9.jpg"",""time"":451},{""stimulus"":""img/red_ll/10.jpg"",""time"":507},{""stimulus"":""img/red_ll/11.jpg"",""time"":551}]","[]"
"image-keyboard-response","156","205859","0.0-5.0-1.76","640415971520c41606ca4389","bdp_lott","Sat Mar 25 2023 22:27:03 GMT-0400 (Eastern Daylight Time)","358941","red","green","","342","","","","choice","","img/red_ll/choose11.jpg","2","149","red","0.5","0.1","0.5","w","",""
"animation","157","206460","0.0-5.0-2.76","640415971520c41606ca4389","bdp_lott","Sat Mar 25 2023 22:27:03 GMT-0400 (Eastern Daylight Time)","358941","red","green","","","","","","","","","","149","","","","","","[{""stimulus"":""img/red_lw/1.jpg"",""time"":51},{""stimulus"":""img/red_lw/2.jpg"",""time"":112},{""stimulus"":""img/red_lw/3.jpg"",""time"":151},{""stimulus"":""img/red_lw/4.jpg"",""time"":201},{""stimulus"":""img/red_lw/5.jpg"",""time"":253},{""stimulus"":""img/red_lw/6.jpg"",""time"":302},{""stimulus"":""img/red_lw/7.jpg"",""time"":351},{""stimulus"":""img/red_lw/8.jpg"",""time"":401},{""stimulus"":""img/red_lw/9.jpg"",""time"":452},{""stimulus"":""img/red_lw/10.jpg"",""time"":501},{""stimulus"":""img/red_lw/11.jpg"",""time"":563}]","[]"
"image-keyboard-response","158","206960","0.0-5.0-1.77","640415971520c41606ca4389","bdp_lott","Sat Mar 25 2023 22:27:03 GMT-0400 (Eastern Daylight Time)","358941","red","green","","499","","","","choice","","img/red_lw/choose11.jpg","2","148","red","0.5","0.1","0.5","l","",""
"animation","159","207561","0.0-5.0-2.77","640415971520c41606ca4389","bdp_lott","Sat Mar 25 2023 22:27:03 GMT-0400 (Eastern Daylight Time)","358941","red","green","","","","","","","","","","148","","","","","","[{""stimulus"":""img/red_ll/1.jpg"",""time"":52},{""stimulus"":""img/red_ll/2.jpg"",""time"":107},{""stimulus"":""img/red_ll/3.jpg"",""time"":154},{""stimulus"":""img/red_ll/4.jpg"",""time"":201},{""stimulus"":""img/red_ll/5.jpg"",""time"":251},{""stimulus"":""img/red_ll/6.jpg"",""time"":311},{""stimulus"":""img/red_ll/7.jpg"",""time"":357},{""stimulus"":""img/red_ll/8.jpg"",""time"":404},{""stimulus"":""img/red_ll/9.jpg"",""time"":466},{""stimulus"":""img/red_ll/10.jpg"",""time"":514},{""stimulus"":""img/red_ll/11.jpg"",""time"":552}]","[]"
"image-keyboard-response","160","207789","0.0-5.0-1.78","640415971520c41606ca4389","bdp_lott","Sat Mar 25 2023 22:27:03 GMT-0400 (Eastern Daylight Time)","358941","red","green","","228","","","","choice","","img/red_ll/choose11.jpg","2","147","red","0.5","0.1","0.5","w","",""
"animation","161","208400","0.0-5.0-2.78","640415971520c41606ca4389","bdp_lott","Sat Mar 25 2023 22:27:03 GMT-0400 (Eastern Daylight Time)","358941","red","green","","","","","","","","","","147","","","","","","[{""stimulus"":""img/red_lw/1.jpg"",""time"":61},{""stimulus"":""img/red_lw/2.jpg"",""time"":108},{""stimulus"":""img/red_lw/3.jpg"",""time"":155},{""stimulus"":""img/red_lw/4.jpg"",""time"":203},{""stimulus"":""img/red_lw/5.jpg"",""time"":266},{""stimulus"":""img/red_lw/6.jpg"",""time"":300},{""stimulus"":""img/red_lw/7.jpg"",""time"":351},{""stimulus"":""img/red_lw/8.jpg"",""time"":406},{""stimulus"":""img/red_lw/9.jpg"",""time"":454},{""stimulus"":""img/red_lw/10.jpg"",""time"":516},{""stimulus"":""img/red_lw/11.jpg"",""time"":550}]","[]"
"image-keyboard-response","162","209047","0.0-5.0-1.79","640415971520c41606ca4389","bdp_lott","Sat Mar 25 2023 22:27:03 GMT-0400 (Eastern Daylight Time)","358941","red","green","","646","","","","choice","","img/red_lw/choose11.jpg","2","146","red","0.5","0.1","0.5","w","",""
"animation","163","209648","0.0-5.0-2.79","640415971520c41606ca4389","bdp_lott","Sat Mar 25 2023 22:27:03 GMT-0400 (Eastern Daylight Time)","358941","red","green","","","","","","","","","","146","","","","","","[{""stimulus"":""img/red_lw/1.jpg"",""time"":60},{""stimulus"":""img/red_lw/2.jpg"",""time"":101},{""stimulus"":""img/red_lw/3.jpg"",""time"":152},{""stimulus"":""img/red_lw/4.jpg"",""time"":215},{""stimulus"":""img/red_lw/5.jpg"",""time"":262},{""stimulus"":""img/red_lw/6.jpg"",""time"":308},{""stimulus"":""img/red_lw/7.jpg"",""time"":355},{""stimulus"":""img/red_lw/8.jpg"",""time"":401},{""stimulus"":""img/red_lw/9.jpg"",""time"":464},{""stimulus"":""img/red_lw/10.jpg"",""time"":512},{""stimulus"":""img/red_lw/11.jpg"",""time"":558}]","[]"
"image-keyboard-response","164","210502","0.0-5.0-1.80","640415971520c41606ca4389","bdp_lott","Sat Mar 25 2023 22:27:03 GMT-0400 (Eastern Daylight Time)","358941","red","green","","853","","","","choice","","img/red_lw/choose11.jpg","2","145","red","0.5","0.1","0.5","l","",""
"animation","165","211103","0.0-5.0-2.80","640415971520c41606ca4389","bdp_lott","Sat Mar 25 2023 22:27:03 GMT-0400 (Eastern Daylight Time)","358941","red","green","","","","","","","","","","145","","","","","","[{""stimulus"":""img/red_ll/1.jpg"",""time"":54},{""stimulus"":""img/red_ll/2.jpg"",""time"":101},{""stimulus"":""img/red_ll/3.jpg"",""time"":152},{""stimulus"":""img/red_ll/4.jpg"",""time"":210},{""stimulus"":""img/red_ll/5.jpg"",""time"":256},{""stimulus"":""img/red_ll/6.jpg"",""time"":302},{""stimulus"":""img/red_ll/7.jpg"",""time"":351},{""stimulus"":""img/red_ll/8.jpg"",""time"":401},{""stimulus"":""img/red_ll/9.jpg"",""time"":460},{""stimulus"":""img/red_ll/10.jpg"",""time"":500},{""stimulus"":""img/red_ll/11.jpg"",""time"":551}]","[]"
"image-keyboard-response","166","211453","0.0-5.0-1.81","640415971520c41606ca4389","bdp_lott","Sat Mar 25 2023 22:27:03 GMT-0400 (Eastern Daylight Time)","358941","red","green","","349","","","","choice","","img/red_ll/choose11.jpg","2","144","red","0.5","0.1","0.5","l","",""
"animation","167","212062","0.0-5.0-2.81","640415971520c41606ca4389","bdp_lott","Sat Mar 25 2023 22:27:03 GMT-0400 (Eastern Daylight Time)","358941","red","green","","","","","","","","","","144","","","","","","[{""stimulus"":""img/red_ll/1.jpg"",""time"":59},{""stimulus"":""img/red_ll/2.jpg"",""time"":106},{""stimulus"":""img/red_ll/3.jpg"",""time"":153},{""stimulus"":""img/red_ll/4.jpg"",""time"":216},{""stimulus"":""img/red_ll/5.jpg"",""time"":263},{""stimulus"":""img/red_ll/6.jpg"",""time"":311},{""stimulus"":""img/red_ll/7.jpg"",""time"":357},{""stimulus"":""img/red_ll/8.jpg"",""time"":405},{""stimulus"":""img/red_ll/9.jpg"",""time"":452},{""stimulus"":""img/red_ll/10.jpg"",""time"":515},{""stimulus"":""img/red_ll/11.jpg"",""time"":562}]","[]"
"image-keyboard-response","168","212357","0.0-5.0-1.82","640415971520c41606ca4389","bdp_lott","Sat Mar 25 2023 22:27:03 GMT-0400 (Eastern Daylight Time)","358941","red","green","","295","","","","choice","","img/red_ll/choose11.jpg","2","143","red","0.5","0.1","0.5","w","",""
"animation","169","212958","0.0-5.0-2.82","640415971520c41606ca4389","bdp_lott","Sat Mar 25 2023 22:27:03 GMT-0400 (Eastern Daylight Time)","358941","red","green","","","","","","","","","","143","","","","","","[{""stimulus"":""img/red_lw/1.jpg"",""time"":51},{""stimulus"":""img/red_lw/2.jpg"",""time"":113},{""stimulus"":""img/red_lw/3.jpg"",""time"":152},{""stimulus"":""img/red_lw/4.jpg"",""time"":209},{""stimulus"":""img/red_lw/5.jpg"",""time"":256},{""stimulus"":""img/red_lw/6.jpg"",""time"":301},{""stimulus"":""img/red_lw/7.jpg"",""time"":367},{""stimulus"":""img/red_lw/8.jpg"",""time"":414},{""stimulus"":""img/red_lw/9.jpg"",""time"":451},{""stimulus"":""img/red_lw/10.jpg"",""time"":508},{""stimulus"":""img/red_lw/11.jpg"",""time"":555}]","[]"
"image-keyboard-response","170","214297","0.0-5.0-1.83","640415971520c41606ca4389","bdp_lott","Sat Mar 25 2023 22:27:03 GMT-0400 (Eastern Daylight Time)","358941","red","green","","1339","","","","choice","","img/red_lw/choose11.jpg","2","142","red","0.5","0.1","0.5","w","",""
"animation","171","214898","0.0-5.0-2.83","640415971520c41606ca4389","bdp_lott","Sat Mar 25 2023 22:27:03 GMT-0400 (Eastern Daylight Time)","358941","red","green","","","","","","","","","","142","","","","","","[{""stimulus"":""img/red_lw/1.jpg"",""time"":51},{""stimulus"":""img/red_lw/2.jpg"",""time"":109},{""stimulus"":""img/red_lw/3.jpg"",""time"":155},{""stimulus"":""img/red_lw/4.jpg"",""time"":203},{""stimulus"":""img/red_lw/5.jpg"",""time"":264},{""stimulus"":""img/red_lw/6.jpg"",""time"":311},{""stimulus"":""img/red_lw/7.jpg"",""time"":351},{""stimulus"":""img/red_lw/8.jpg"",""time"":401},{""stimulus"":""img/red_lw/9.jpg"",""time"":451},{""stimulus"":""img/red_lw/10.jpg"",""time"":514},{""stimulus"":""img/red_lw/11.jpg"",""time"":551}]","[]"
"image-keyboard-response","172","215052","0.0-5.0-1.84","640415971520c41606ca4389","bdp_lott","Sat Mar 25 2023 22:27:03 GMT-0400 (Eastern Daylight Time)","358941","red","green","","154","","","","choice","","img/red_lw/choose11.jpg","2","141","red","0.5","0.1","0.5","w","",""
"animation","173","215653","0.0-5.0-2.84","640415971520c41606ca4389","bdp_lott","Sat Mar 25 2023 22:27:03 GMT-0400 (Eastern Daylight Time)","358941","red","green","","","","","","","","","","141","","","","","","[{""stimulus"":""img/red_lw/1.jpg"",""time"":55},{""stimulus"":""img/red_lw/2.jpg"",""time"":103},{""stimulus"":""img/red_lw/3.jpg"",""time"":151},{""stimulus"":""img/red_lw/4.jpg"",""time"":207},{""stimulus"":""img/red_lw/5.jpg"",""time"":259},{""stimulus"":""img/red_lw/6.jpg"",""time"":301},{""stimulus"":""img/red_lw/7.jpg"",""time"":353},{""stimulus"":""img/red_lw/8.jpg"",""time"":401},{""stimulus"":""img/red_lw/9.jpg"",""time"":450},{""stimulus"":""img/red_lw/10.jpg"",""time"":500},{""stimulus"":""img/red_lw/11.jpg"",""time"":557}]","[]"
"image-keyboard-response","174","216465","0.0-5.0-1.85","640415971520c41606ca4389","bdp_lott","Sat Mar 25 2023 22:27:03 GMT-0400 (Eastern Daylight Time)","358941","red","green","","811","","","","choice","","img/red_lw/choose11.jpg","2","140","red","0.5","0.1","0.5","l","",""
"animation","175","217076","0.0-5.0-2.85","640415971520c41606ca4389","bdp_lott","Sat Mar 25 2023 22:27:03 GMT-0400 (Eastern Daylight Time)","358941","red","green","","","","","","","","","","140","","","","","","[{""stimulus"":""img/red_ll/1.jpg"",""time"":52},{""stimulus"":""img/red_ll/2.jpg"",""time"":104},{""stimulus"":""img/red_ll/3.jpg"",""time"":152},{""stimulus"":""img/red_ll/4.jpg"",""time"":215},{""stimulus"":""img/red_ll/5.jpg"",""time"":263},{""stimulus"":""img/red_ll/6.jpg"",""time"":309},{""stimulus"":""img/red_ll/7.jpg"",""time"":358},{""stimulus"":""img/red_ll/8.jpg"",""time"":404},{""stimulus"":""img/red_ll/9.jpg"",""time"":453},{""stimulus"":""img/red_ll/10.jpg"",""time"":516},{""stimulus"":""img/red_ll/11.jpg"",""time"":551}]","[]"
"image-keyboard-response","176","217450","0.0-5.0-1.86","640415971520c41606ca4389","bdp_lott","Sat Mar 25 2023 22:27:03 GMT-0400 (Eastern Daylight Time)","358941","red","green","","373","","","","choice","","img/red_ll/choose11.jpg","2","139","red","0.5","0.1","0.5","l","",""
"animation","177","218051","0.0-5.0-2.86","640415971520c41606ca4389","bdp_lott","Sat Mar 25 2023 22:27:03 GMT-0400 (Eastern Daylight Time)","358941","red","green","","","","","","","","","","139","","","","","","[{""stimulus"":""img/red_ll/1.jpg"",""time"":53},{""stimulus"":""img/red_ll/2.jpg"",""time"":104},{""stimulus"":""img/red_ll/3.jpg"",""time"":154},{""stimulus"":""img/red_ll/4.jpg"",""time"":201},{""stimulus"":""img/red_ll/5.jpg"",""time"":256},{""stimulus"":""img/red_ll/6.jpg"",""time"":308},{""stimulus"":""img/red_ll/7.jpg"",""time"":355},{""stimulus"":""img/red_ll/8.jpg"",""time"":402},{""stimulus"":""img/red_ll/9.jpg"",""time"":465},{""stimulus"":""img/red_ll/10.jpg"",""time"":513},{""stimulus"":""img/red_ll/11.jpg"",""time"":551}]","[]"
"image-keyboard-response","178","218567","0.0-5.0-1.87","640415971520c41606ca4389","bdp_lott","Sat Mar 25 2023 22:27:03 GMT-0400 (Eastern Daylight Time)","358941","red","green","","516","","","","choice","","img/red_ll/choose11.jpg","2","138","red","0.5","0.1","0.5","w","",""
"animation","179","219168","0.0-5.0-2.87","640415971520c41606ca4389","bdp_lott","Sat Mar 25 2023 22:27:03 GMT-0400 (Eastern Daylight Time)","358941","red","green","","","","","","","","","","138","","","","","","[{""stimulus"":""img/red_lw/1.jpg"",""time"":51},{""stimulus"":""img/red_lw/2.jpg"",""time"":103},{""stimulus"":""img/red_lw/3.jpg"",""time"":165},{""stimulus"":""img/red_lw/4.jpg"",""time"":203},{""stimulus"":""img/red_lw/5.jpg"",""time"":253},{""stimulus"":""img/red_lw/6.jpg"",""time"":302},{""stimulus"":""img/red_lw/7.jpg"",""time"":353},{""stimulus"":""img/red_lw/8.jpg"",""time"":403},{""stimulus"":""img/red_lw/9.jpg"",""time"":452},{""stimulus"":""img/red_lw/10.jpg"",""time"":509},{""stimulus"":""img/red_lw/11.jpg"",""time"":556}]","[]"
"image-keyboard-response","180","219667","0.0-5.0-1.88","640415971520c41606ca4389","bdp_lott","Sat Mar 25 2023 22:27:03 GMT-0400 (Eastern Daylight Time)","358941","red","green","","498","","","","choice","","img/red_lw/choose11.jpg","2","137","red","0.5","0.1","0.5","l","",""
"animation","181","220267","0.0-5.0-2.88","640415971520c41606ca4389","bdp_lott","Sat Mar 25 2023 22:27:03 GMT-0400 (Eastern Daylight Time)","358941","red","green","","","","","","","","","","137","","","","","","[{""stimulus"":""img/red_ll/1.jpg"",""time"":55},{""stimulus"":""img/red_ll/2.jpg"",""time"":102},{""stimulus"":""img/red_ll/3.jpg"",""time"":151},{""stimulus"":""img/red_ll/4.jpg"",""time"":201},{""stimulus"":""img/red_ll/5.jpg"",""time"":259},{""stimulus"":""img/red_ll/6.jpg"",""time"":300},{""stimulus"":""img/red_ll/7.jpg"",""time"":352},{""stimulus"":""img/red_ll/8.jpg"",""time"":415},{""stimulus"":""img/red_ll/9.jpg"",""time"":465},{""stimulus"":""img/red_ll/10.jpg"",""time"":501},{""stimulus"":""img/red_ll/11.jpg"",""time"":551}]","[]"
"image-keyboard-response","182","220597","0.0-5.0-1.89","640415971520c41606ca4389","bdp_lott","Sat Mar 25 2023 22:27:03 GMT-0400 (Eastern Daylight Time)","358941","red","green","","330","","","","choice","","img/red_ll/choose11.jpg","2","136","red","0.5","0.1","0.5","w","",""
"animation","183","221198","0.0-5.0-2.89","640415971520c41606ca4389","bdp_lott","Sat Mar 25 2023 22:27:03 GMT-0400 (Eastern Daylight Time)","358941","red","green","","","","","","","","","","136","","","","","","[{""stimulus"":""img/red_lw/1.jpg"",""time"":51},{""stimulus"":""img/red_lw/2.jpg"",""time"":115},{""stimulus"":""img/red_lw/3.jpg"",""time"":151},{""stimulus"":""img/red_lw/4.jpg"",""time"":202},{""stimulus"":""img/red_lw/5.jpg"",""time"":254},{""stimulus"":""img/red_lw/6.jpg"",""time"":302},{""stimulus"":""img/red_lw/7.jpg"",""time"":365},{""stimulus"":""img/red_lw/8.jpg"",""time"":413},{""stimulus"":""img/red_lw/9.jpg"",""time"":461},{""stimulus"":""img/red_lw/10.jpg"",""time"":507},{""stimulus"":""img/red_lw/11.jpg"",""time"":553}]","[]"
"image-keyboard-response","184","221726","0.0-5.0-1.90","640415971520c41606ca4389","bdp_lott","Sat Mar 25 2023 22:27:03 GMT-0400 (Eastern Daylight Time)","358941","red","green","","528","","","","choice","","img/red_lw/choose11.jpg","2","135","red","0.5","0.1","0.5","w","",""
"animation","185","222327","0.0-5.0-2.90","640415971520c41606ca4389","bdp_lott","Sat Mar 25 2023 22:27:03 GMT-0400 (Eastern Daylight Time)","358941","red","green","","","","","","","","","","135","","","","","","[{""stimulus"":""img/red_lw/1.jpg"",""time"":51},{""stimulus"":""img/red_lw/2.jpg"",""time"":102},{""stimulus"":""img/red_lw/3.jpg"",""time"":152},{""stimulus"":""img/red_lw/4.jpg"",""time"":208},{""stimulus"":""img/red_lw/5.jpg"",""time"":254},{""stimulus"":""img/red_lw/6.jpg"",""time"":302},{""stimulus"":""img/red_lw/7.jpg"",""time"":351},{""stimulus"":""img/red_lw/8.jpg"",""time"":402},{""stimulus"":""img/red_lw/9.jpg"",""time"":457},{""stimulus"":""img/red_lw/10.jpg"",""time"":504},{""stimulus"":""img/red_lw/11.jpg"",""time"":551}]","[]"
"image-keyboard-response","186","222962","0.0-5.0-1.91","640415971520c41606ca4389","bdp_lott","Sat Mar 25 2023 22:27:03 GMT-0400 (Eastern Daylight Time)","358941","red","green","","634","","","","choice","","img/red_lw/choose11.jpg","2","134","red","0.5","0.1","0.5","l","",""
"animation","187","223563","0.0-5.0-2.91","640415971520c41606ca4389","bdp_lott","Sat Mar 25 2023 22:27:03 GMT-0400 (Eastern Daylight Time)","358941","red","green","","","","","","","","","","134","","","","","","[{""stimulus"":""img/red_ll/1.jpg"",""time"":51},{""stimulus"":""img/red_ll/2.jpg"",""time"":114},{""stimulus"":""img/red_ll/3.jpg"",""time"":152},{""stimulus"":""img/red_ll/4.jpg"",""time"":202},{""stimulus"":""img/red_ll/5.jpg"",""time"":253},{""stimulus"":""img/red_ll/6.jpg"",""time"":303},{""stimulus"":""img/red_ll/7.jpg"",""time"":352},{""stimulus"":""img/red_ll/8.jpg"",""time"":402},{""stimulus"":""img/red_ll/9.jpg"",""time"":452},{""stimulus"":""img/red_ll/10.jpg"",""time"":502},{""stimulus"":""img/red_ll/11.jpg"",""time"":552}]","[]"
"image-keyboard-response","188","223916","0.0-5.0-1.92","640415971520c41606ca4389","bdp_lott","Sat Mar 25 2023 22:27:03 GMT-0400 (Eastern Daylight Time)","358941","red","green","","353","","","","choice","","img/red_ll/choose11.jpg","2","133","red","0.5","0.1","0.5","l","",""
"animation","189","224517","0.0-5.0-2.92","640415971520c41606ca4389","bdp_lott","Sat Mar 25 2023 22:27:03 GMT-0400 (Eastern Daylight Time)","358941","red","green","","","","","","","","","","133","","","","","","[{""stimulus"":""img/red_ll/1.jpg"",""time"":53},{""stimulus"":""img/red_ll/2.jpg"",""time"":115},{""stimulus"":""img/red_ll/3.jpg"",""time"":151},{""stimulus"":""img/red_ll/4.jpg"",""time"":208},{""stimulus"":""img/red_ll/5.jpg"",""time"":251},{""stimulus"":""img/red_ll/6.jpg"",""time"":301},{""stimulus"":""img/red_ll/7.jpg"",""time"":352},{""stimulus"":""img/red_ll/8.jpg"",""time"":401},{""stimulus"":""img/red_ll/9.jpg"",""time"":452},{""stimulus"":""img/red_ll/10.jpg"",""time"":505},{""stimulus"":""img/red_ll/11.jpg"",""time"":552}]","[]"
"image-keyboard-response","190","225022","0.0-5.0-1.93","640415971520c41606ca4389","bdp_lott","Sat Mar 25 2023 22:27:03 GMT-0400 (Eastern Daylight Time)","358941","red","green","","505","","","","choice","","img/red_ll/choose11.jpg","2","132","red","0.5","0.1","0.5","w","",""
"animation","191","225624","0.0-5.0-2.93","640415971520c41606ca4389","bdp_lott","Sat Mar 25 2023 22:27:03 GMT-0400 (Eastern Daylight Time)","358941","red","green","","","","","","","","","","132","","","","","","[{""stimulus"":""img/red_lw/1.jpg"",""time"":50},{""stimulus"":""img/red_lw/2.jpg"",""time"":100},{""stimulus"":""img/red_lw/3.jpg"",""time"":150},{""stimulus"":""img/red_lw/4.jpg"",""time"":215},{""stimulus"":""img/red_lw/5.jpg"",""time"":263},{""stimulus"":""img/red_lw/6.jpg"",""time"":311},{""stimulus"":""img/red_lw/7.jpg"",""time"":358},{""stimulus"":""img/red_lw/8.jpg"",""time"":401},{""stimulus"":""img/red_lw/9.jpg"",""time"":451},{""stimulus"":""img/red_lw/10.jpg"",""time"":515},{""stimulus"":""img/red_lw/11.jpg"",""time"":550}]","[]"
