"trial_type","trial_index","time_elapsed","internal_node_id","subject_id","task","startTime","totalTime","fairMachine","unfairMachine","view_history","rt","event","trial","time","trialtype","success","stimulus","key_press","roundsLeft","chosen","pFairMachWin","pUnfairMachWin","pTrialWin","outcome","animation_sequence","responses"
"pavlovia","0","2","0.0-0.0","610940bbdb7795c3be364375","bdp_lott","Mon Mar 27 2023 09:14:32 GMT-0500 (Central Daylight Time)","221382","green","red","","","","","","","","","","","","","","","","",""
"instructions","1","2199","0.0-1.0","610940bbdb7795c3be364375","bdp_lott","Mon Mar 27 2023 09:14:32 GMT-0500 (Central Daylight Time)","221382","green","red","[{""page_index"":0,""viewing_time"":2197}]","2197","","","","","","","","","","","","","","",""
"","","","","610940bbdb7795c3be364375","bdp_lott","Mon Mar 27 2023 09:14:32 GMT-0500 (Central Daylight Time)","221382","green","red","","","fullscreenenter","2","4386","fullscreenenter","","","","","","","","","","",""
"fullscreen","2","5375","0.0-2.0","610940bbdb7795c3be364375","bdp_lott","Mon Mar 27 2023 09:14:32 GMT-0500 (Central Daylight Time)","221382","green","red","","","","","","","true","","","","","","","","","",""
"instructions","3","17190","0.0-4.0","610940bbdb7795c3be364375","bdp_lott","Mon Mar 27 2023 09:14:32 GMT-0500 (Central Daylight Time)","221382","green","red","[{""page_index"":0,""viewing_time"":11814}]","11814","","","","","","","","","","","","","","",""
"image-keyboard-response","4","20678","0.0-5.0-1.0","610940bbdb7795c3be364375","bdp_lott","Mon Mar 27 2023 09:14:32 GMT-0500 (Central Daylight Time)","221382","green","red","","3487","","","","choice","","img/red_ll/initchoose11.jpg","1","225","green","0.5","0.5","0.5","l","",""
"animation","5","21279","0.0-5.0-2.0","610940bbdb7795c3be364375","bdp_lott","Mon Mar 27 2023 09:14:32 GMT-0500 (Central Daylight Time)","221382","green","red","","","","","","","","","","225","","","","","","[{""stimulus"":""img/green_ll/1.jpg"",""time"":60},{""stimulus"":""img/green_ll/2.jpg"",""time"":107},{""stimulus"":""img/green_ll/3.jpg"",""time"":152},{""stimulus"":""img/green_ll/4.jpg"",""time"":202},{""stimulus"":""img/green_ll/5.jpg"",""time"":262},{""stimulus"":""img/green_ll/6.jpg"",""time"":308},{""stimulus"":""img/green_ll/7.jpg"",""time"":351},{""stimulus"":""img/green_ll/8.jpg"",""time"":400},{""stimulus"":""img/green_ll/9.jpg"",""time"":451},{""stimulus"":""img/green_ll/10.jpg"",""time"":500},{""stimulus"":""img/green_ll/11.jpg"",""time"":559}]","[]"
"image-keyboard-response","6","22438","0.0-5.0-1.1","610940bbdb7795c3be364375","bdp_lott","Mon Mar 27 2023 09:14:32 GMT-0500 (Central Daylight Time)","221382","green","red","","1159","","","","choice","","img/green_ll/choose11.jpg","2","224","red","0.5","0.5","0.5","l","",""
"animation","7","23039","0.0-5.0-2.1","610940bbdb7795c3be364375","bdp_lott","Mon Mar 27 2023 09:14:32 GMT-0500 (Central Daylight Time)","221382","green","red","","","","","","","","","","224","","","","","","[{""stimulus"":""img/red_ll/1.jpg"",""time"":63},{""stimulus"":""img/red_ll/2.jpg"",""time"":101},{""stimulus"":""img/red_ll/3.jpg"",""time"":151},{""stimulus"":""img/red_ll/4.jpg"",""time"":203},{""stimulus"":""img/red_ll/5.jpg"",""time"":250},{""stimulus"":""img/red_ll/6.jpg"",""time"":312},{""stimulus"":""img/red_ll/7.jpg"",""time"":351},{""stimulus"":""img/red_ll/8.jpg"",""time"":401},{""stimulus"":""img/red_ll/9.jpg"",""time"":467},{""stimulus"":""img/red_ll/10.jpg"",""time"":500},{""stimulus"":""img/red_ll/11.jpg"",""time"":562}]","[]"
"image-keyboard-response","8","23686","0.0-5.0-1.2","610940bbdb7795c3be364375","bdp_lott","Mon Mar 27 2023 09:14:32 GMT-0500 (Central Daylight Time)","221382","green","red","","647","","","","choice","","img/red_ll/choose11.jpg","1","223","green","0.5","0.5","0.5","w","",""
"animation","9","24286","0.0-5.0-2.2","610940bbdb7795c3be364375","bdp_lott","Mon Mar 27 2023 09:14:32 GMT-0500 (Central Daylight Time)","221382","green","red","","","","","","","","","","223","","","","","","[{""stimulus"":""img/green_wl/1.jpg"",""time"":63},{""stimulus"":""img/green_wl/2.jpg"",""time"":100},{""stimulus"":""img/green_wl/3.jpg"",""time"":150},{""stimulus"":""img/green_wl/4.jpg"",""time"":203},{""stimulus"":""img/green_wl/5.jpg"",""time"":251},{""stimulus"":""img/green_wl/6.jpg"",""time"":301},{""stimulus"":""img/green_wl/7.jpg"",""time"":360},{""stimulus"":""img/green_wl/8.jpg"",""time"":401},{""stimulus"":""img/green_wl/9.jpg"",""time"":454},{""stimulus"":""img/green_wl/10.jpg"",""time"":500},{""stimulus"":""img/green_wl/11.jpg"",""time"":563}]","[]"
"image-keyboard-response","10","25629","0.0-5.0-1.3","610940bbdb7795c3be364375","bdp_lott","Mon Mar 27 2023 09:14:32 GMT-0500 (Central Daylight Time)","221382","green","red","","1343","","","","choice","","img/green_wl/choose11.jpg","1","222","green","0.5","0.5","0.5","l","",""
"animation","11","26230","0.0-5.0-2.3","610940bbdb7795c3be364375","bdp_lott","Mon Mar 27 2023 09:14:32 GMT-0500 (Central Daylight Time)","221382","green","red","","","","","","","","","","222","","","","","","[{""stimulus"":""img/green_ll/1.jpg"",""time"":65},{""stimulus"":""img/green_ll/2.jpg"",""time"":112},{""stimulus"":""img/green_ll/3.jpg"",""time"":151},{""stimulus"":""img/green_ll/4.jpg"",""time"":207},{""stimulus"":""img/green_ll/5.jpg"",""time"":253},{""stimulus"":""img/green_ll/6.jpg"",""time"":300},{""stimulus"":""img/green_ll/7.jpg"",""time"":350},{""stimulus"":""img/green_ll/8.jpg"",""time"":410},{""stimulus"":""img/green_ll/9.jpg"",""time"":457},{""stimulus"":""img/green_ll/10.jpg"",""time"":501},{""stimulus"":""img/green_ll/11.jpg"",""time"":551}]","[]"
"image-keyboard-response","12","26805","0.0-5.0-1.4","610940bbdb7795c3be364375","bdp_lott","Mon Mar 27 2023 09:14:32 GMT-0500 (Central Daylight Time)","221382","green","red","","575","","","","choice","","img/green_ll/choose11.jpg","1","221","green","0.5","0.5","0.5","w","",""
"animation","13","27412","0.0-5.0-2.4","610940bbdb7795c3be364375","bdp_lott","Mon Mar 27 2023 09:14:32 GMT-0500 (Central Daylight Time)","221382","green","red","","","","","","","","","","221","","","","","","[{""stimulus"":""img/green_wl/1.jpg"",""time"":60},{""stimulus"":""img/green_wl/2.jpg"",""time"":107},{""stimulus"":""img/green_wl/3.jpg"",""time"":151},{""stimulus"":""img/green_wl/4.jpg"",""time"":201},{""stimulus"":""img/green_wl/5.jpg"",""time"":251},{""stimulus"":""img/green_wl/6.jpg"",""time"":309},{""stimulus"":""img/green_wl/7.jpg"",""time"":351},{""stimulus"":""img/green_wl/8.jpg"",""time"":402},{""stimulus"":""img/green_wl/9.jpg"",""time"":451},{""stimulus"":""img/green_wl/10.jpg"",""time"":513},{""stimulus"":""img/green_wl/11.jpg"",""time"":552}]","[]"
"image-keyboard-response","14","28189","0.0-5.0-1.5","610940bbdb7795c3be364375","bdp_lott","Mon Mar 27 2023 09:14:32 GMT-0500 (Central Daylight Time)","221382","green","red","","776","","","","choice","","img/green_wl/choose11.jpg","1","220","green","0.5","0.5","0.5","l","",""
"animation","15","28791","0.0-5.0-2.5","610940bbdb7795c3be364375","bdp_lott","Mon Mar 27 2023 09:14:32 GMT-0500 (Central Daylight Time)","221382","green","red","","","","","","","","","","220","","","","","","[{""stimulus"":""img/green_ll/1.jpg"",""time"":64},{""stimulus"":""img/green_ll/2.jpg"",""time"":110},{""stimulus"":""img/green_ll/3.jpg"",""time"":151},{""stimulus"":""img/green_ll/4.jpg"",""time"":200},{""stimulus"":""img/green_ll/5.jpg"",""time"":251},{""stimulus"":""img/green_ll/6.jpg"",""time"":312},{""stimulus"":""img/green_ll/7.jpg"",""time"":360},{""stimulus"":""img/green_ll/8.jpg"",""time"":408},{""stimulus"":""img/green_ll/9.jpg"",""time"":450},{""stimulus"":""img/green_ll/10.jpg"",""time"":501},{""stimulus"":""img/green_ll/11.jpg"",""time"":550}]","[]"
"image-keyboard-response","16","29254","0.0-5.0-1.6","610940bbdb7795c3be364375","bdp_lott","Mon Mar 27 2023 09:14:32 GMT-0500 (Central Daylight Time)","221382","green","red","","463","","","","choice","","img/green_ll/choose11.jpg","1","219","green","0.5","0.5","0.5","w","",""
"animation","17","29855","0.0-5.0-2.6","610940bbdb7795c3be364375","bdp_lott","Mon Mar 27 2023 09:14:32 GMT-0500 (Central Daylight Time)","221382","green","red","","","","","","","","","","219","","","","","","[{""stimulus"":""img/green_wl/1.jpg"",""time"":51},{""stimulus"":""img/green_wl/2.jpg"",""time"":101},{""stimulus"":""img/green_wl/3.jpg"",""time"":151},{""stimulus"":""img/green_wl/4.jpg"",""time"":201},{""stimulus"":""img/green_wl/5.jpg"",""time"":251},{""stimulus"":""img/green_wl/6.jpg"",""time"":301},{""stimulus"":""img/green_wl/7.jpg"",""time"":351},{""stimulus"":""img/green_wl/8.jpg"",""time"":400},{""stimulus"":""img/green_wl/9.jpg"",""time"":451},{""stimulus"":""img/green_wl/10.jpg"",""time"":500},{""stimulus"":""img/green_wl/11.jpg"",""time"":552}]","[]"
"image-keyboard-response","18","30398","0.0-5.0-1.7","610940bbdb7795c3be364375","bdp_lott","Mon Mar 27 2023 09:14:32 GMT-0500 (Central Daylight Time)","221382","green","red","","543","","","","choice","","img/green_wl/choose11.jpg","1","218","green","0.5","0.5","0.5","l","",""
"animation","19","30999","0.0-5.0-2.7","610940bbdb7795c3be364375","bdp_lott","Mon Mar 27 2023 09:14:32 GMT-0500 (Central Daylight Time)","221382","green","red","","","","","","","","","","218","","","","","","[{""stimulus"":""img/green_ll/1.jpg"",""time"":51},{""stimulus"":""img/green_ll/2.jpg"",""time"":100},{""stimulus"":""img/green_ll/3.jpg"",""time"":151},{""stimulus"":""img/green_ll/4.jpg"",""time"":201},{""stimulus"":""img/green_ll/5.jpg"",""time"":251},{""stimulus"":""img/green_ll/6.jpg"",""time"":301},{""stimulus"":""img/green_ll/7.jpg"",""time"":350},{""stimulus"":""img/green_ll/8.jpg"",""time"":401},{""stimulus"":""img/green_ll/9.jpg"",""time"":451},{""stimulus"":""img/green_ll/10.jpg"",""time"":500},{""stimulus"":""img/green_ll/11.jpg"",""time"":551}]","[]"
"image-keyboard-response","20","31469","0.0-5.0-1.8","610940bbdb7795c3be364375","bdp_lott","Mon Mar 27 2023 09:14:32 GMT-0500 (Central Daylight Time)","221382","green","red","","470","","","","choice","","img/green_ll/choose11.jpg","1","217","green","0.5","0.5","0.5","l","",""
"animation","21","32070","0.0-5.0-2.8","610940bbdb7795c3be364375","bdp_lott","Mon Mar 27 2023 09:14:32 GMT-0500 (Central Daylight Time)","221382","green","red","","","","","","","","","","217","","","","","","[{""stimulus"":""img/green_ll/1.jpg"",""time"":51},{""stimulus"":""img/green_ll/2.jpg"",""time"":100},{""stimulus"":""img/green_ll/3.jpg"",""time"":150},{""stimulus"":""img/green_ll/4.jpg"",""time"":201},{""stimulus"":""img/green_ll/5.jpg"",""time"":251},{""stimulus"":""img/green_ll/6.jpg"",""time"":300},{""stimulus"":""img/green_ll/7.jpg"",""time"":350},{""stimulus"":""img/green_ll/8.jpg"",""time"":401},{""stimulus"":""img/green_ll/9.jpg"",""time"":450},{""stimulus"":""img/green_ll/10.jpg"",""time"":500},{""stimulus"":""img/green_ll/11.jpg"",""time"":550}]","[]"
"image-keyboard-response","22","32734","0.0-5.0-1.9","610940bbdb7795c3be364375","bdp_lott","Mon Mar 27 2023 09:14:32 GMT-0500 (Central Daylight Time)","221382","green","red","","664","","","","choice","","img/green_ll/choose11.jpg","1","216","green","0.5","0.5","0.5","l","",""
"animation","23","33335","0.0-5.0-2.9","610940bbdb7795c3be364375","bdp_lott","Mon Mar 27 2023 09:14:32 GMT-0500 (Central Daylight Time)","221382","green","red","","","","","","","","","","216","","","","","","[{""stimulus"":""img/green_ll/1.jpg"",""time"":51},{""stimulus"":""img/green_ll/2.jpg"",""time"":101},{""stimulus"":""img/green_ll/3.jpg"",""time"":151},{""stimulus"":""img/green_ll/4.jpg"",""time"":200},{""stimulus"":""img/green_ll/5.jpg"",""time"":251},{""stimulus"":""img/green_ll/6.jpg"",""time"":300},{""stimulus"":""img/green_ll/7.jpg"",""time"":352},{""stimulus"":""img/green_ll/8.jpg"",""time"":400},{""stimulus"":""img/green_ll/9.jpg"",""time"":451},{""stimulus"":""img/green_ll/10.jpg"",""time"":501},{""stimulus"":""img/green_ll/11.jpg"",""time"":551}]","[]"
"image-keyboard-response","24","33766","0.0-5.0-1.10","610940bbdb7795c3be364375","bdp_lott","Mon Mar 27 2023 09:14:32 GMT-0500 (Central Daylight Time)","221382","green","red","","431","","","","choice","","img/green_ll/choose11.jpg","1","215","green","0.5","0.5","0.5","w","",""
"animation","25","34366","0.0-5.0-2.10","610940bbdb7795c3be364375","bdp_lott","Mon Mar 27 2023 09:14:32 GMT-0500 (Central Daylight Time)","221382","green","red","","","","","","","","","","215","","","","","","[{""stimulus"":""img/green_wl/1.jpg"",""time"":50},{""stimulus"":""img/green_wl/2.jpg"",""time"":101},{""stimulus"":""img/green_wl/3.jpg"",""time"":151},{""stimulus"":""img/green_wl/4.jpg"",""time"":201},{""stimulus"":""img/green_wl/5.jpg"",""time"":250},{""stimulus"":""img/green_wl/6.jpg"",""time"":301},{""stimulus"":""img/green_wl/7.jpg"",""time"":351},{""stimulus"":""img/green_wl/8.jpg"",""time"":401},{""stimulus"":""img/green_wl/9.jpg"",""time"":451},{""stimulus"":""img/green_wl/10.jpg"",""time"":500},{""stimulus"":""img/green_wl/11.jpg"",""time"":551}]","[]"
"image-keyboard-response","26","34710","0.0-5.0-1.11","610940bbdb7795c3be364375","bdp_lott","Mon Mar 27 2023 09:14:32 GMT-0500 (Central Daylight Time)","221382","green","red","","344","","","","choice","","img/green_wl/choose11.jpg","2","214","red","0.5","0.5","0.5","l","",""
"animation","27","35310","0.0-5.0-2.11","610940bbdb7795c3be364375","bdp_lott","Mon Mar 27 2023 09:14:32 GMT-0500 (Central Daylight Time)","221382","green","red","","","","","","","","","","214","","","","","","[{""stimulus"":""img/red_wl/1.jpg"",""time"":51},{""stimulus"":""img/red_wl/2.jpg"",""time"":101},{""stimulus"":""img/red_wl/3.jpg"",""time"":151},{""stimulus"":""img/red_wl/4.jpg"",""time"":201},{""stimulus"":""img/red_wl/5.jpg"",""time"":251},{""stimulus"":""img/red_wl/6.jpg"",""time"":301},{""stimulus"":""img/red_wl/7.jpg"",""time"":351},{""stimulus"":""img/red_wl/8.jpg"",""time"":401},{""stimulus"":""img/red_wl/9.jpg"",""time"":451},{""stimulus"":""img/red_wl/10.jpg"",""time"":501},{""stimulus"":""img/red_wl/11.jpg"",""time"":551}]","[]"
"image-keyboard-response","28","35638","0.0-5.0-1.12","610940bbdb7795c3be364375","bdp_lott","Mon Mar 27 2023 09:14:32 GMT-0500 (Central Daylight Time)","221382","green","red","","327","","","","choice","","img/red_wl/choose11.jpg","2","213","red","0.5","0.5","0.5","l","",""
"animation","29","36238","0.0-5.0-2.12","610940bbdb7795c3be364375","bdp_lott","Mon Mar 27 2023 09:14:32 GMT-0500 (Central Daylight Time)","221382","green","red","","","","","","","","","","213","","","","","","[{""stimulus"":""img/red_wl/1.jpg"",""time"":52},{""stimulus"":""img/red_wl/2.jpg"",""time"":100},{""stimulus"":""img/red_wl/3.jpg"",""time"":151},{""stimulus"":""img/red_wl/4.jpg"",""time"":200},{""stimulus"":""img/red_wl/5.jpg"",""time"":251},{""stimulus"":""img/red_wl/6.jpg"",""time"":302},{""stimulus"":""img/red_wl/7.jpg"",""time"":351},{""stimulus"":""img/red_wl/8.jpg"",""time"":400},{""stimulus"":""img/red_wl/9.jpg"",""time"":450},{""stimulus"":""img/red_wl/10.jpg"",""time"":501},{""stimulus"":""img/red_wl/11.jpg"",""time"":550}]","[]"
"image-keyboard-response","30","36558","0.0-5.0-1.13","610940bbdb7795c3be364375","bdp_lott","Mon Mar 27 2023 09:14:32 GMT-0500 (Central Daylight Time)","221382","green","red","","319","","","","choice","","img/red_wl/choose11.jpg","2","212","red","0.5","0.5","0.5","w","",""
"animation","31","37159","0.0-5.0-2.13","610940bbdb7795c3be364375","bdp_lott","Mon Mar 27 2023 09:14:32 GMT-0500 (Central Daylight Time)","221382","green","red","","","","","","","","","","212","","","","","","[{""stimulus"":""img/red_ww/1.jpg"",""time"":51},{""stimulus"":""img/red_ww/2.jpg"",""time"":101},{""stimulus"":""img/red_ww/3.jpg"",""time"":151},{""stimulus"":""img/red_ww/4.jpg"",""time"":201},{""stimulus"":""img/red_ww/5.jpg"",""time"":251},{""stimulus"":""img/red_ww/6.jpg"",""time"":300},{""stimulus"":""img/red_ww/7.jpg"",""time"":351},{""stimulus"":""img/red_ww/8.jpg"",""time"":401},{""stimulus"":""img/red_ww/9.jpg"",""time"":451},{""stimulus"":""img/red_ww/10.jpg"",""time"":502},{""stimulus"":""img/red_ww/11.jpg"",""time"":551}]","[]"
"image-keyboard-response","32","37781","0.0-5.0-1.14","610940bbdb7795c3be364375","bdp_lott","Mon Mar 27 2023 09:14:32 GMT-0500 (Central Daylight Time)","221382","green","red","","622","","","","choice","","img/red_ww/choose11.jpg","2","211","red","0.5","0.5","0.5","w","",""
"animation","33","38383","0.0-5.0-2.14","610940bbdb7795c3be364375","bdp_lott","Mon Mar 27 2023 09:14:32 GMT-0500 (Central Daylight Time)","221382","green","red","","","","","","","","","","211","","","","","","[{""stimulus"":""img/red_ww/1.jpg"",""time"":51},{""stimulus"":""img/red_ww/2.jpg"",""time"":101},{""stimulus"":""img/red_ww/3.jpg"",""time"":150},{""stimulus"":""img/red_ww/4.jpg"",""time"":200},{""stimulus"":""img/red_ww/5.jpg"",""time"":250},{""stimulus"":""img/red_ww/6.jpg"",""time"":301},{""stimulus"":""img/red_ww/7.jpg"",""time"":350},{""stimulus"":""img/red_ww/8.jpg"",""time"":402},{""stimulus"":""img/red_ww/9.jpg"",""time"":451},{""stimulus"":""img/red_ww/10.jpg"",""time"":500},{""stimulus"":""img/red_ww/11.jpg"",""time"":550}]","[]"
"image-keyboard-response","34","38838","0.0-5.0-1.15","610940bbdb7795c3be364375","bdp_lott","Mon Mar 27 2023 09:14:32 GMT-0500 (Central Daylight Time)","221382","green","red","","455","","","","choice","","img/red_ww/choose11.jpg","2","210","red","0.5","0.5","0.5","l","",""
"animation","35","39439","0.0-5.0-2.15","610940bbdb7795c3be364375","bdp_lott","Mon Mar 27 2023 09:14:32 GMT-0500 (Central Daylight Time)","221382","green","red","","","","","","","","","","210","","","","","","[{""stimulus"":""img/red_wl/1.jpg"",""time"":52},{""stimulus"":""img/red_wl/2.jpg"",""time"":101},{""stimulus"":""img/red_wl/3.jpg"",""time"":151},{""stimulus"":""img/red_wl/4.jpg"",""time"":201},{""stimulus"":""img/red_wl/5.jpg"",""time"":251},{""stimulus"":""img/red_wl/6.jpg"",""time"":301},{""stimulus"":""img/red_wl/7.jpg"",""time"":352},{""stimulus"":""img/red_wl/8.jpg"",""time"":401},{""stimulus"":""img/red_wl/9.jpg"",""time"":452},{""stimulus"":""img/red_wl/10.jpg"",""time"":501},{""stimulus"":""img/red_wl/11.jpg"",""time"":552}]","[]"
"image-keyboard-response","36","39838","0.0-5.0-1.16","610940bbdb7795c3be364375","bdp_lott","Mon Mar 27 2023 09:14:32 GMT-0500 (Central Daylight Time)","221382","green","red","","398","","","","choice","","img/red_wl/choose11.jpg","2","209","red","0.5","0.5","0.5","l","",""
"animation","37","40438","0.0-5.0-2.16","610940bbdb7795c3be364375","bdp_lott","Mon Mar 27 2023 09:14:32 GMT-0500 (Central Daylight Time)","221382","green","red","","","","","","","","","","209","","","","","","[{""stimulus"":""img/red_wl/1.jpg"",""time"":51},{""stimulus"":""img/red_wl/2.jpg"",""time"":101},{""stimulus"":""img/red_wl/3.jpg"",""time"":150},{""stimulus"":""img/red_wl/4.jpg"",""time"":200},{""stimulus"":""img/red_wl/5.jpg"",""time"":250},{""stimulus"":""img/red_wl/6.jpg"",""time"":300},{""stimulus"":""img/red_wl/7.jpg"",""time"":351},{""stimulus"":""img/red_wl/8.jpg"",""time"":402},{""stimulus"":""img/red_wl/9.jpg"",""time"":450},{""stimulus"":""img/red_wl/10.jpg"",""time"":501},{""stimulus"":""img/red_wl/11.jpg"",""time"":551}]","[]"
"image-keyboard-response","38","40838","0.0-5.0-1.17","610940bbdb7795c3be364375","bdp_lott","Mon Mar 27 2023 09:14:32 GMT-0500 (Central Daylight Time)","221382","green","red","","399","","","","choice","","img/red_wl/choose11.jpg","2","208","red","0.5","0.5","0.5","w","",""
"animation","39","41438","0.0-5.0-2.17","610940bbdb7795c3be364375","bdp_lott","Mon Mar 27 2023 09:14:32 GMT-0500 (Central Daylight Time)","221382","green","red","","","","","","","","","","208","","","","","","[{""stimulus"":""img/red_ww/1.jpg"",""time"":51},{""stimulus"":""img/red_ww/2.jpg"",""time"":101},{""stimulus"":""img/red_ww/3.jpg"",""time"":150},{""stimulus"":""img/red_ww/4.jpg"",""time"":201},{""stimulus"":""img/red_ww/5.jpg"",""time"":250},{""stimulus"":""img/red_ww/6.jpg"",""time"":302},{""stimulus"":""img/red_ww/7.jpg"",""time"":351},{""stimulus"":""img/red_ww/8.jpg"",""time"":401},{""stimulus"":""img/red_ww/9.jpg"",""time"":451},{""stimulus"":""img/red_ww/10.jpg"",""time"":500},{""stimulus"":""img/red_ww/11.jpg"",""time"":551}]","[]"
"image-keyboard-response","40","41981","0.0-5.0-1.18","610940bbdb7795c3be364375","bdp_lott","Mon Mar 27 2023 09:14:32 GMT-0500 (Central Daylight Time)","221382","green","red","","543","","","","choice","","img/red_ww/choose11.jpg","2","207","red","0.5","0.5","0.5","w","",""
"animation","41","42582","0.0-5.0-2.18","610940bbdb7795c3be364375","bdp_lott","Mon Mar 27 2023 09:14:32 GMT-0500 (Central Daylight Time)","221382","green","red","","","","","","","","","","207","","","","","","[{""stimulus"":""img/red_ww/1.jpg"",""time"":51},{""stimulus"":""img/red_ww/2.jpg"",""time"":102},{""stimulus"":""img/red_ww/3.jpg"",""time"":151},{""stimulus"":""img/red_ww/4.jpg"",""time"":202},{""stimulus"":""img/red_ww/5.jpg"",""time"":251},{""stimulus"":""img/red_ww/6.jpg"",""time"":302},{""stimulus"":""img/red_ww/7.jpg"",""time"":351},{""stimulus"":""img/red_ww/8.jpg"",""time"":401},{""stimulus"":""img/red_ww/9.jpg"",""time"":451},{""stimulus"":""img/red_ww/10.jpg"",""time"":501},{""stimulus"":""img/red_ww/11.jpg"",""time"":552}]","[]"
"image-keyboard-response","42","43062","0.0-5.0-1.19","610940bbdb7795c3be364375","bdp_lott","Mon Mar 27 2023 09:14:32 GMT-0500 (Central Daylight Time)","221382","green","red","","480","","","","choice","","img/red_ww/choose11.jpg","2","206","red","0.5","0.5","0.5","l","",""
"animation","43","43663","0.0-5.0-2.19","610940bbdb7795c3be364375","bdp_lott","Mon Mar 27 2023 09:14:32 GMT-0500 (Central Daylight Time)","221382","green","red","","","","","","","","","","206","","","","","","[{""stimulus"":""img/red_wl/1.jpg"",""time"":51},{""stimulus"":""img/red_wl/2.jpg"",""time"":101},{""stimulus"":""img/red_wl/3.jpg"",""time"":151},{""stimulus"":""img/red_wl/4.jpg"",""time"":201},{""stimulus"":""img/red_wl/5.jpg"",""time"":250},{""stimulus"":""img/red_wl/6.jpg"",""time"":301},{""stimulus"":""img/red_wl/7.jpg"",""time"":351},{""stimulus"":""img/red_wl/8.jpg"",""time"":401},{""stimulus"":""img/red_wl/9.jpg"",""time"":450},{""stimulus"":""img/red_wl/10.jpg"",""time"":501},{""stimulus"":""img/red_wl/11.jpg"",""time"":551}]","[]"
"image-keyboard-response","44","43974","0.0-5.0-1.20","610940bbdb7795c3be364375","bdp_lott","Mon Mar 27 2023 09:14:32 GMT-0500 (Central Daylight Time)","221382","green","red","","311","","","","choice","","img/red_wl/choose11.jpg","2","205","red","0.5","0.5","0.5","w","",""
"animation","45","44575","0.0-5.0-2.20","610940bbdb7795c3be364375","bdp_lott","Mon Mar 27 2023 09:14:32 GMT-0500 (Central Daylight Time)","221382","green","red","","","","","","","","","","205","","","","","","[{""stimulus"":""img/red_ww/1.jpg"",""time"":52},{""stimulus"":""img/red_ww/2.jpg"",""time"":101},{""stimulus"":""img/red_ww/3.jpg"",""time"":150},{""stimulus"":""img/red_ww/4.jpg"",""time"":200},{""stimulus"":""img/red_ww/5.jpg"",""time"":250},{""stimulus"":""img/red_ww/6.jpg"",""time"":301},{""stimulus"":""img/red_ww/7.jpg"",""time"":351},{""stimulus"":""img/red_ww/8.jpg"",""time"":401},{""stimulus"":""img/red_ww/9.jpg"",""time"":451},{""stimulus"":""img/red_ww/10.jpg"",""time"":501},{""stimulus"":""img/red_ww/11.jpg"",""time"":552}]","[]"
"image-keyboard-response","46","45046","0.0-5.0-1.21","610940bbdb7795c3be364375","bdp_lott","Mon Mar 27 2023 09:14:32 GMT-0500 (Central Daylight Time)","221382","green","red","","471","","","","choice","","img/red_ww/choose11.jpg","2","204","red","0.5","0.5","0.5","w","",""
"animation","47","45647","0.0-5.0-2.21","610940bbdb7795c3be364375","bdp_lott","Mon Mar 27 2023 09:14:32 GMT-0500 (Central Daylight Time)","221382","green","red","","","","","","","","","","204","","","","","","[{""stimulus"":""img/red_ww/1.jpg"",""time"":51},{""stimulus"":""img/red_ww/2.jpg"",""time"":101},{""stimulus"":""img/red_ww/3.jpg"",""time"":151},{""stimulus"":""img/red_ww/4.jpg"",""time"":202},{""stimulus"":""img/red_ww/5.jpg"",""time"":251},{""stimulus"":""img/red_ww/6.jpg"",""time"":301},{""stimulus"":""img/red_ww/7.jpg"",""time"":350},{""stimulus"":""img/red_ww/8.jpg"",""time"":400},{""stimulus"":""img/red_ww/9.jpg"",""time"":452},{""stimulus"":""img/red_ww/10.jpg"",""time"":501},{""stimulus"":""img/red_ww/11.jpg"",""time"":552}]","[]"
"image-keyboard-response","48","46102","0.0-5.0-1.22","610940bbdb7795c3be364375","bdp_lott","Mon Mar 27 2023 09:14:32 GMT-0500 (Central Daylight Time)","221382","green","red","","454","","","","choice","","img/red_ww/choose11.jpg","2","203","red","0.5","0.5","0.5","w","",""
"animation","49","46702","0.0-5.0-2.22","610940bbdb7795c3be364375","bdp_lott","Mon Mar 27 2023 09:14:32 GMT-0500 (Central Daylight Time)","221382","green","red","","","","","","","","","","203","","","","","","[{""stimulus"":""img/red_ww/1.jpg"",""time"":50},{""stimulus"":""img/red_ww/2.jpg"",""time"":101},{""stimulus"":""img/red_ww/3.jpg"",""time"":151},{""stimulus"":""img/red_ww/4.jpg"",""time"":201},{""stimulus"":""img/red_ww/5.jpg"",""time"":251},{""stimulus"":""img/red_ww/6.jpg"",""time"":300},{""stimulus"":""img/red_ww/7.jpg"",""time"":356},{""stimulus"":""img/red_ww/8.jpg"",""time"":401},{""stimulus"":""img/red_ww/9.jpg"",""time"":451},{""stimulus"":""img/red_ww/10.jpg"",""time"":501},{""stimulus"":""img/red_ww/11.jpg"",""time"":551}]","[]"
"image-keyboard-response","50","47110","0.0-5.0-1.23","610940bbdb7795c3be364375","bdp_lott","Mon Mar 27 2023 09:14:32 GMT-0500 (Central Daylight Time)","221382","green","red","","408","","","","choice","","img/red_ww/choose11.jpg","2","202","red","0.5","0.5","0.5","w","",""
"animation","51","47711","0.0-5.0-2.23","610940bbdb7795c3be364375","bdp_lott","Mon Mar 27 2023 09:14:32 GMT-0500 (Central Daylight Time)","221382","green","red","","","","","","","","","","202","","","","","","[{""stimulus"":""img/red_ww/1.jpg"",""time"":51},{""stimulus"":""img/red_ww/2.jpg"",""time"":102},{""stimulus"":""img/red_ww/3.jpg"",""time"":151},{""stimulus"":""img/red_ww/4.jpg"",""time"":201},{""stimulus"":""img/red_ww/5.jpg"",""time"":251},{""stimulus"":""img/red_ww/6.jpg"",""time"":300},{""stimulus"":""img/red_ww/7.jpg"",""time"":351},{""stimulus"":""img/red_ww/8.jpg"",""time"":400},{""stimulus"":""img/red_ww/9.jpg"",""time"":451},{""stimulus"":""img/red_ww/10.jpg"",""time"":500},{""stimulus"":""img/red_ww/11.jpg"",""time"":551}]","[]"
"image-keyboard-response","52","48102","0.0-5.0-1.24","610940bbdb7795c3be364375","bdp_lott","Mon Mar 27 2023 09:14:32 GMT-0500 (Central Daylight Time)","221382","green","red","","390","","","","choice","","img/red_ww/choose11.jpg","2","201","red","0.5","0.5","0.5","l","",""
"animation","53","48702","0.0-5.0-2.24","610940bbdb7795c3be364375","bdp_lott","Mon Mar 27 2023 09:14:32 GMT-0500 (Central Daylight Time)","221382","green","red","","","","","","","","","","201","","","","","","[{""stimulus"":""img/red_wl/1.jpg"",""time"":51},{""stimulus"":""img/red_wl/2.jpg"",""time"":100},{""stimulus"":""img/red_wl/3.jpg"",""time"":151},{""stimulus"":""img/red_wl/4.jpg"",""time"":200},{""stimulus"":""img/red_wl/5.jpg"",""time"":250},{""stimulus"":""img/red_wl/6.jpg"",""time"":301},{""stimulus"":""img/red_wl/7.jpg"",""time"":351},{""stimulus"":""img/red_wl/8.jpg"",""time"":400},{""stimulus"":""img/red_wl/9.jpg"",""time"":452},{""stimulus"":""img/red_wl/10.jpg"",""time"":502},{""stimulus"":""img/red_wl/11.jpg"",""time"":550}]","[]"
"image-keyboard-response","54","49270","0.0-5.0-1.25","610940bbdb7795c3be364375","bdp_lott","Mon Mar 27 2023 09:14:32 GMT-0500 (Central Daylight Time)","221382","green","red","","568","","","","choice","","img/red_wl/choose11.jpg","2","200","red","0.5","0.5","0.5","w","",""
"animation","55","49871","0.0-5.0-2.25","610940bbdb7795c3be364375","bdp_lott","Mon Mar 27 2023 09:14:32 GMT-0500 (Central Daylight Time)","221382","green","red","","","","","","","","","","200","","","","","","[{""stimulus"":""img/red_ww/1.jpg"",""time"":53},{""stimulus"":""img/red_ww/2.jpg"",""time"":102},{""stimulus"":""img/red_ww/3.jpg"",""time"":152},{""stimulus"":""img/red_ww/4.jpg"",""time"":202},{""stimulus"":""img/red_ww/5.jpg"",""time"":251},{""stimulus"":""img/red_ww/6.jpg"",""time"":302},{""stimulus"":""img/red_ww/7.jpg"",""time"":352},{""stimulus"":""img/red_ww/8.jpg"",""time"":401},{""stimulus"":""img/red_ww/9.jpg"",""time"":451},{""stimulus"":""img/red_ww/10.jpg"",""time"":502},{""stimulus"":""img/red_ww/11.jpg"",""time"":551}]","[]"
"image-keyboard-response","56","50310","0.0-5.0-1.26","610940bbdb7795c3be364375","bdp_lott","Mon Mar 27 2023 09:14:32 GMT-0500 (Central Daylight Time)","221382","green","red","","439","","","","choice","","img/red_ww/choose11.jpg","2","199","red","0.5","0.5","0.5","w","",""
"animation","57","50910","0.0-5.0-2.26","610940bbdb7795c3be364375","bdp_lott","Mon Mar 27 2023 09:14:32 GMT-0500 (Central Daylight Time)","221382","green","red","","","","","","","","","","199","","","","","","[{""stimulus"":""img/red_ww/1.jpg"",""time"":51},{""stimulus"":""img/red_ww/2.jpg"",""time"":101},{""stimulus"":""img/red_ww/3.jpg"",""time"":151},{""stimulus"":""img/red_ww/4.jpg"",""time"":201},{""stimulus"":""img/red_ww/5.jpg"",""time"":251},{""stimulus"":""img/red_ww/6.jpg"",""time"":300},{""stimulus"":""img/red_ww/7.jpg"",""time"":350},{""stimulus"":""img/red_ww/8.jpg"",""time"":400},{""stimulus"":""img/red_ww/9.jpg"",""time"":452},{""stimulus"":""img/red_ww/10.jpg"",""time"":500},{""stimulus"":""img/red_ww/11.jpg"",""time"":551}]","[]"
"image-keyboard-response","58","51237","0.0-5.0-1.27","610940bbdb7795c3be364375","bdp_lott","Mon Mar 27 2023 09:14:32 GMT-0500 (Central Daylight Time)","221382","green","red","","327","","","","choice","","img/red_ww/choose11.jpg","2","198","red","0.5","0.5","0.5","w","",""
"animation","59","51838","0.0-5.0-2.27","610940bbdb7795c3be364375","bdp_lott","Mon Mar 27 2023 09:14:32 GMT-0500 (Central Daylight Time)","221382","green","red","","","","","","","","","","198","","","","","","[{""stimulus"":""img/red_ww/1.jpg"",""time"":52},{""stimulus"":""img/red_ww/2.jpg"",""time"":101},{""stimulus"":""img/red_ww/3.jpg"",""time"":151},{""stimulus"":""img/red_ww/4.jpg"",""time"":201},{""stimulus"":""img/red_ww/5.jpg"",""time"":252},{""stimulus"":""img/red_ww/6.jpg"",""time"":301},{""stimulus"":""img/red_ww/7.jpg"",""time"":352},{""stimulus"":""img/red_ww/8.jpg"",""time"":401},{""stimulus"":""img/red_ww/9.jpg"",""time"":451},{""stimulus"":""img/red_ww/10.jpg"",""time"":501},{""stimulus"":""img/red_ww/11.jpg"",""time"":552}]","[]"
"image-keyboard-response","60","52270","0.0-5.0-1.28","610940bbdb7795c3be364375","bdp_lott","Mon Mar 27 2023 09:14:32 GMT-0500 (Central Daylight Time)","221382","green","red","","432","","","","choice","","img/red_ww/choose11.jpg","2","197","red","0.5","0.5","0.5","l","",""
"animation","61","52871","0.0-5.0-2.28","610940bbdb7795c3be364375","bdp_lott","Mon Mar 27 2023 09:14:32 GMT-0500 (Central Daylight Time)","221382","green","red","","","","","","","","","","197","","","","","","[{""stimulus"":""img/red_wl/1.jpg"",""time"":51},{""stimulus"":""img/red_wl/2.jpg"",""time"":101},{""stimulus"":""img/red_wl/3.jpg"",""time"":151},{""stimulus"":""img/red_wl/4.jpg"",""time"":201},{""stimulus"":""img/red_wl/5.jpg"",""time"":251},{""stimulus"":""img/red_wl/6.jpg"",""time"":302},{""stimulus"":""img/red_wl/7.jpg"",""time"":350},{""stimulus"":""img/red_wl/8.jpg"",""time"":400},{""stimulus"":""img/red_wl/9.jpg"",""time"":451},{""stimulus"":""img/red_wl/10.jpg"",""time"":501},{""stimulus"":""img/red_wl/11.jpg"",""time"":551}]","[]"
"image-keyboard-response","62","53318","0.0-5.0-1.29","610940bbdb7795c3be364375","bdp_lott","Mon Mar 27 2023 09:14:32 GMT-0500 (Central Daylight Time)","221382","green","red","","447","","","","choice","","img/red_wl/choose11.jpg","2","196","red","0.5","0.5","0.5","l","",""
"animation","63","53919","0.0-5.0-2.29","610940bbdb7795c3be364375","bdp_lott","Mon Mar 27 2023 09:14:32 GMT-0500 (Central Daylight Time)","221382","green","red","","","","","","","","","","196","","","","","","[{""stimulus"":""img/red_wl/1.jpg"",""time"":51},{""stimulus"":""img/red_wl/2.jpg"",""time"":100},{""stimulus"":""img/red_wl/3.jpg"",""time"":151},{""stimulus"":""img/red_wl/4.jpg"",""time"":201},{""stimulus"":""img/red_wl/5.jpg"",""time"":251},{""stimulus"":""img/red_wl/6.jpg"",""time"":301},{""stimulus"":""img/red_wl/7.jpg"",""time"":351},{""stimulus"":""img/red_wl/8.jpg"",""time"":400},{""stimulus"":""img/red_wl/9.jpg"",""time"":451},{""stimulus"":""img/red_wl/10.jpg"",""time"":500},{""stimulus"":""img/red_wl/11.jpg"",""time"":551}]","[]"
"image-keyboard-response","64","54254","0.0-5.0-1.30","610940bbdb7795c3be364375","bdp_lott","Mon Mar 27 2023 09:14:32 GMT-0500 (Central Daylight Time)","221382","green","red","","335","","","","choice","","img/red_wl/choose11.jpg","2","195","red","0.5","0.5","0.5","l","",""
"animation","65","54855","0.0-5.0-2.30","610940bbdb7795c3be364375","bdp_lott","Mon Mar 27 2023 09:14:32 GMT-0500 (Central Daylight Time)","221382","green","red","","","","","","","","","","195","","","","","","[{""stimulus"":""img/red_wl/1.jpg"",""time"":51},{""stimulus"":""img/red_wl/2.jpg"",""time"":102},{""stimulus"":""img/red_wl/3.jpg"",""time"":151},{""stimulus"":""img/red_wl/4.jpg"",""time"":202},{""stimulus"":""img/red_wl/5.jpg"",""time"":251},{""stimulus"":""img/red_wl/6.jpg"",""time"":300},{""stimulus"":""img/red_wl/7.jpg"",""time"":351},{""stimulus"":""img/red_wl/8.jpg"",""time"":402},{""stimulus"":""img/red_wl/9.jpg"",""time"":450},{""stimulus"":""img/red_wl/10.jpg"",""time"":501},{""stimulus"":""img/red_wl/11.jpg"",""time"":551}]","[]"
"image-keyboard-response","66","55222","0.0-5.0-1.31","610940bbdb7795c3be364375","bdp_lott","Mon Mar 27 2023 09:14:32 GMT-0500 (Central Daylight Time)","221382","green","red","","367","","","","choice","","img/red_wl/choose11.jpg","2","194","red","0.5","0.5","0.5","w","",""
"animation","67","55823","0.0-5.0-2.31","610940bbdb7795c3be364375","bdp_lott","Mon Mar 27 2023 09:14:32 GMT-0500 (Central Daylight Time)","221382","green","red","","","","","","","","","","194","","","","","","[{""stimulus"":""img/red_ww/1.jpg"",""time"":51},{""stimulus"":""img/red_ww/2.jpg"",""time"":101},{""stimulus"":""img/red_ww/3.jpg"",""time"":151},{""stimulus"":""img/red_ww/4.jpg"",""time"":200},{""stimulus"":""img/red_ww/5.jpg"",""time"":251},{""stimulus"":""img/red_ww/6.jpg"",""time"":302},{""stimulus"":""img/red_ww/7.jpg"",""time"":351},{""stimulus"":""img/red_ww/8.jpg"",""time"":401},{""stimulus"":""img/red_ww/9.jpg"",""time"":451},{""stimulus"":""img/red_ww/10.jpg"",""time"":501},{""stimulus"":""img/red_ww/11.jpg"",""time"":551}]","[]"
"image-keyboard-response","68","56358","0.0-5.0-1.32","610940bbdb7795c3be364375","bdp_lott","Mon Mar 27 2023 09:14:32 GMT-0500 (Central Daylight Time)","221382","green","red","","534","","","","choice","","img/red_ww/choose11.jpg","2","193","red","0.5","0.5","0.5","w","",""
"animation","69","56958","0.0-5.0-2.32","610940bbdb7795c3be364375","bdp_lott","Mon Mar 27 2023 09:14:32 GMT-0500 (Central Daylight Time)","221382","green","red","","","","","","","","","","193","","","","","","[{""stimulus"":""img/red_ww/1.jpg"",""time"":50},{""stimulus"":""img/red_ww/2.jpg"",""time"":100},{""stimulus"":""img/red_ww/3.jpg"",""time"":151},{""stimulus"":""img/red_ww/4.jpg"",""time"":200},{""stimulus"":""img/red_ww/5.jpg"",""time"":251},{""stimulus"":""img/red_ww/6.jpg"",""time"":300},{""stimulus"":""img/red_ww/7.jpg"",""time"":351},{""stimulus"":""img/red_ww/8.jpg"",""time"":401},{""stimulus"":""img/red_ww/9.jpg"",""time"":450},{""stimulus"":""img/red_ww/10.jpg"",""time"":500},{""stimulus"":""img/red_ww/11.jpg"",""time"":550}]","[]"
"image-keyboard-response","70","57366","0.0-5.0-1.33","610940bbdb7795c3be364375","bdp_lott","Mon Mar 27 2023 09:14:32 GMT-0500 (Central Daylight Time)","221382","green","red","","407","","","","choice","","img/red_ww/choose11.jpg","2","192","red","0.5","0.5","0.5","w","",""
"animation","71","57966","0.0-5.0-2.33","610940bbdb7795c3be364375","bdp_lott","Mon Mar 27 2023 09:14:32 GMT-0500 (Central Daylight Time)","221382","green","red","","","","","","","","","","192","","","","","","[{""stimulus"":""img/red_ww/1.jpg"",""time"":52},{""stimulus"":""img/red_ww/2.jpg"",""time"":100},{""stimulus"":""img/red_ww/3.jpg"",""time"":151},{""stimulus"":""img/red_ww/4.jpg"",""time"":200},{""stimulus"":""img/red_ww/5.jpg"",""time"":251},{""stimulus"":""img/red_ww/6.jpg"",""time"":301},{""stimulus"":""img/red_ww/7.jpg"",""time"":351},{""stimulus"":""img/red_ww/8.jpg"",""time"":401},{""stimulus"":""img/red_ww/9.jpg"",""time"":451},{""stimulus"":""img/red_ww/10.jpg"",""time"":501},{""stimulus"":""img/red_ww/11.jpg"",""time"":551}]","[]"
"image-keyboard-response","72","58389","0.0-5.0-1.34","610940bbdb7795c3be364375","bdp_lott","Mon Mar 27 2023 09:14:32 GMT-0500 (Central Daylight Time)","221382","green","red","","422","","","","choice","","img/red_ww/choose11.jpg","2","191","red","0.5","0.5","0.5","w","",""
"animation","73","58991","0.0-5.0-2.34","610940bbdb7795c3be364375","bdp_lott","Mon Mar 27 2023 09:14:32 GMT-0500 (Central Daylight Time)","221382","green","red","","","","","","","","","","191","","","","","","[{""stimulus"":""img/red_ww/1.jpg"",""time"":51},{""stimulus"":""img/red_ww/2.jpg"",""time"":101},{""stimulus"":""img/red_ww/3.jpg"",""time"":151},{""stimulus"":""img/red_ww/4.jpg"",""time"":202},{""stimulus"":""img/red_ww/5.jpg"",""time"":251},{""stimulus"":""img/red_ww/6.jpg"",""time"":301},{""stimulus"":""img/red_ww/7.jpg"",""time"":352},{""stimulus"":""img/red_ww/8.jpg"",""time"":402},{""stimulus"":""img/red_ww/9.jpg"",""time"":451},{""stimulus"":""img/red_ww/10.jpg"",""time"":501},{""stimulus"":""img/red_ww/11.jpg"",""time"":551}]","[]"
"image-keyboard-response","74","59446","0.0-5.0-1.35","610940bbdb7795c3be364375","bdp_lott","Mon Mar 27 2023 09:14:32 GMT-0500 (Central Daylight Time)","221382","green","red","","455","","","","choice","","img/red_ww/choose11.jpg","2","190","red","0.5","0.5","0.5","w","",""
"animation","75","60047","0.0-5.0-2.35","610940bbdb7795c3be364375","bdp_lott","Mon Mar 27 2023 09:14:32 GMT-0500 (Central Daylight Time)","221382","green","red","","","","","","","","","","190","","","","","","[{""stimulus"":""img/red_ww/1.jpg"",""time"":52},{""stimulus"":""img/red_ww/2.jpg"",""time"":101},{""stimulus"":""img/red_ww/3.jpg"",""time"":151},{""stimulus"":""img/red_ww/4.jpg"",""time"":202},{""stimulus"":""img/red_ww/5.jpg"",""time"":251},{""stimulus"":""img/red_ww/6.jpg"",""time"":300},{""stimulus"":""img/red_ww/7.jpg"",""time"":352},{""stimulus"":""img/red_ww/8.jpg"",""time"":401},{""stimulus"":""img/red_ww/9.jpg"",""time"":450},{""stimulus"":""img/red_ww/10.jpg"",""time"":501},{""stimulus"":""img/red_ww/11.jpg"",""time"":551}]","[]"
"image-keyboard-response","76","60366","0.0-5.0-1.36","610940bbdb7795c3be364375","bdp_lott","Mon Mar 27 2023 09:14:32 GMT-0500 (Central Daylight Time)","221382","green","red","","319","","","","choice","","img/red_ww/choose11.jpg","2","189","red","0.5","0.5","0.5","l","",""
"animation","77","60967","0.0-5.0-2.36","610940bbdb7795c3be364375","bdp_lott","Mon Mar 27 2023 09:14:32 GMT-0500 (Central Daylight Time)","221382","green","red","","","","","","","","","","189","","","","","","[{""stimulus"":""img/red_wl/1.jpg"",""time"":51},{""stimulus"":""img/red_wl/2.jpg"",""time"":100},{""stimulus"":""img/red_wl/3.jpg"",""time"":151},{""stimulus"":""img/red_wl/4.jpg"",""time"":201},{""stimulus"":""img/red_wl/5.jpg"",""time"":250},{""stimulus"":""img/red_wl/6.jpg"",""time"":301},{""stimulus"":""img/red_wl/7.jpg"",""time"":350},{""stimulus"":""img/red_wl/8.jpg"",""time"":400},{""stimulus"":""img/red_wl/9.jpg"",""time"":450},{""stimulus"":""img/red_wl/10.jpg"",""time"":500},{""stimulus"":""img/red_wl/11.jpg"",""time"":551}]","[]"
"image-keyboard-response","78","61302","0.0-5.0-1.37","610940bbdb7795c3be364375","bdp_lott","Mon Mar 27 2023 09:14:32 GMT-0500 (Central Daylight Time)","221382","green","red","","334","","","","choice","","img/red_wl/choose11.jpg","2","188","red","0.5","0.5","0.5","l","",""
"animation","79","61902","0.0-5.0-2.37","610940bbdb7795c3be364375","bdp_lott","Mon Mar 27 2023 09:14:32 GMT-0500 (Central Daylight Time)","221382","green","red","","","","","","","","","","188","","","","","","[{""stimulus"":""img/red_wl/1.jpg"",""time"":51},{""stimulus"":""img/red_wl/2.jpg"",""time"":100},{""stimulus"":""img/red_wl/3.jpg"",""time"":151},{""stimulus"":""img/red_wl/4.jpg"",""time"":201},{""stimulus"":""img/red_wl/5.jpg"",""time"":251},{""stimulus"":""img/red_wl/6.jpg"",""time"":301},{""stimulus"":""img/red_wl/7.jpg"",""time"":352},{""stimulus"":""img/red_wl/8.jpg"",""time"":401},{""stimulus"":""img/red_wl/9.jpg"",""time"":451},{""stimulus"":""img/red_wl/10.jpg"",""time"":502},{""stimulus"":""img/red_wl/11.jpg"",""time"":550}]","[]"
"image-keyboard-response","80","62262","0.0-5.0-1.38","610940bbdb7795c3be364375","bdp_lott","Mon Mar 27 2023 09:14:32 GMT-0500 (Central Daylight Time)","221382","green","red","","360","","","","choice","","img/red_wl/choose11.jpg","2","187","red","0.5","0.5","0.5","l","",""
"animation","81","62863","0.0-5.0-2.38","610940bbdb7795c3be364375","bdp_lott","Mon Mar 27 2023 09:14:32 GMT-0500 (Central Daylight Time)","221382","green","red","","","","","","","","","","187","","","","","","[{""stimulus"":""img/red_wl/1.jpg"",""time"":51},{""stimulus"":""img/red_wl/2.jpg"",""time"":100},{""stimulus"":""img/red_wl/3.jpg"",""time"":151},{""stimulus"":""img/red_wl/4.jpg"",""time"":200},{""stimulus"":""img/red_wl/5.jpg"",""time"":250},{""stimulus"":""img/red_wl/6.jpg"",""time"":300},{""stimulus"":""img/red_wl/7.jpg"",""time"":351},{""stimulus"":""img/red_wl/8.jpg"",""time"":400},{""stimulus"":""img/red_wl/9.jpg"",""time"":451},{""stimulus"":""img/red_wl/10.jpg"",""time"":501},{""stimulus"":""img/red_wl/11.jpg"",""time"":550}]","[]"
"image-keyboard-response","82","63198","0.0-5.0-1.39","610940bbdb7795c3be364375","bdp_lott","Mon Mar 27 2023 09:14:32 GMT-0500 (Central Daylight Time)","221382","green","red","","334","","","","choice","","img/red_wl/choose11.jpg","2","186","red","0.5","0.5","0.5","w","",""
"animation","83","63799","0.0-5.0-2.39","610940bbdb7795c3be364375","bdp_lott","Mon Mar 27 2023 09:14:32 GMT-0500 (Central Daylight Time)","221382","green","red","","","","","","","","","","186","","","","","","[{""stimulus"":""img/red_ww/1.jpg"",""time"":51},{""stimulus"":""img/red_ww/2.jpg"",""time"":101},{""stimulus"":""img/red_ww/3.jpg"",""time"":151},{""stimulus"":""img/red_ww/4.jpg"",""time"":200},{""stimulus"":""img/red_ww/5.jpg"",""time"":250},{""stimulus"":""img/red_ww/6.jpg"",""time"":301},{""stimulus"":""img/red_ww/7.jpg"",""time"":351},{""stimulus"":""img/red_ww/8.jpg"",""time"":401},{""stimulus"":""img/red_ww/9.jpg"",""time"":451},{""stimulus"":""img/red_ww/10.jpg"",""time"":500},{""stimulus"":""img/red_ww/11.jpg"",""time"":550}]","[]"
"image-keyboard-response","84","64317","0.0-5.0-1.40","610940bbdb7795c3be364375","bdp_lott","Mon Mar 27 2023 09:14:32 GMT-0500 (Central Daylight Time)","221382","green","red","","518","","","","choice","","img/red_ww/choose11.jpg","2","185","red","0.5","0.5","0.5","w","",""
"animation","85","64918","0.0-5.0-2.40","610940bbdb7795c3be364375","bdp_lott","Mon Mar 27 2023 09:14:32 GMT-0500 (Central Daylight Time)","221382","green","red","","","","","","","","","","185","","","","","","[{""stimulus"":""img/red_ww/1.jpg"",""time"":52},{""stimulus"":""img/red_ww/2.jpg"",""time"":101},{""stimulus"":""img/red_ww/3.jpg"",""time"":152},{""stimulus"":""img/red_ww/4.jpg"",""time"":201},{""stimulus"":""img/red_ww/5.jpg"",""time"":252},{""stimulus"":""img/red_ww/6.jpg"",""time"":302},{""stimulus"":""img/red_ww/7.jpg"",""time"":352},{""stimulus"":""img/red_ww/8.jpg"",""time"":401},{""stimulus"":""img/red_ww/9.jpg"",""time"":452},{""stimulus"":""img/red_ww/10.jpg"",""time"":501},{""stimulus"":""img/red_ww/11.jpg"",""time"":552}]","[]"
"image-keyboard-response","86","65461","0.0-5.0-1.41","610940bbdb7795c3be364375","bdp_lott","Mon Mar 27 2023 09:14:32 GMT-0500 (Central Daylight Time)","221382","green","red","","543","","","","choice","","img/red_ww/choose11.jpg","2","184","red","0.5","0.5","0.5","l","",""
"animation","87","66061","0.0-5.0-2.41","610940bbdb7795c3be364375","bdp_lott","Mon Mar 27 2023 09:14:32 GMT-0500 (Central Daylight Time)","221382","green","red","","","","","","","","","","184","","","","","","[{""stimulus"":""img/red_wl/1.jpg"",""time"":51},{""stimulus"":""img/red_wl/2.jpg"",""time"":101},{""stimulus"":""img/red_wl/3.jpg"",""time"":151},{""stimulus"":""img/red_wl/4.jpg"",""time"":201},{""stimulus"":""img/red_wl/5.jpg"",""time"":251},{""stimulus"":""img/red_wl/6.jpg"",""time"":301},{""stimulus"":""img/red_wl/7.jpg"",""time"":351},{""stimulus"":""img/red_wl/8.jpg"",""time"":402},{""stimulus"":""img/red_wl/9.jpg"",""time"":451},{""stimulus"":""img/red_wl/10.jpg"",""time"":501},{""stimulus"":""img/red_wl/11.jpg"",""time"":551}]","[]"
"image-keyboard-response","88","66461","0.0-5.0-1.42","610940bbdb7795c3be364375","bdp_lott","Mon Mar 27 2023 09:14:32 GMT-0500 (Central Daylight Time)","221382","green","red","","399","","","","choice","","img/red_wl/choose11.jpg","2","183","red","0.5","0.5","0.5","w","",""
"animation","89","67062","0.0-5.0-2.42","610940bbdb7795c3be364375","bdp_lott","Mon Mar 27 2023 09:14:32 GMT-0500 (Central Daylight Time)","221382","green","red","","","","","","","","","","183","","","","","","[{""stimulus"":""img/red_ww/1.jpg"",""time"":51},{""stimulus"":""img/red_ww/2.jpg"",""time"":101},{""stimulus"":""img/red_ww/3.jpg"",""time"":151},{""stimulus"":""img/red_ww/4.jpg"",""time"":201},{""stimulus"":""img/red_ww/5.jpg"",""time"":251},{""stimulus"":""img/red_ww/6.jpg"",""time"":301},{""stimulus"":""img/red_ww/7.jpg"",""time"":351},{""stimulus"":""img/red_ww/8.jpg"",""time"":401},{""stimulus"":""img/red_ww/9.jpg"",""time"":451},{""stimulus"":""img/red_ww/10.jpg"",""time"":501},{""stimulus"":""img/red_ww/11.jpg"",""time"":552}]","[]"
"image-keyboard-response","90","67669","0.0-5.0-1.43","610940bbdb7795c3be364375","bdp_lott","Mon Mar 27 2023 09:14:32 GMT-0500 (Central Daylight Time)","221382","green","red","","607","","","","choice","","img/red_ww/choose11.jpg","1","182","green","0.5","0.5","0.5","l","",""
"animation","91","68270","0.0-5.0-2.43","610940bbdb7795c3be364375","bdp_lott","Mon Mar 27 2023 09:14:32 GMT-0500 (Central Daylight Time)","221382","green","red","","","","","","","","","","182","","","","","","[{""stimulus"":""img/green_lw/1.jpg"",""time"":50},{""stimulus"":""img/green_lw/2.jpg"",""time"":100},{""stimulus"":""img/green_lw/3.jpg"",""time"":150},{""stimulus"":""img/green_lw/4.jpg"",""time"":201},{""stimulus"":""img/green_lw/5.jpg"",""time"":250},{""stimulus"":""img/green_lw/6.jpg"",""time"":300},{""stimulus"":""img/green_lw/7.jpg"",""time"":351},{""stimulus"":""img/green_lw/8.jpg"",""time"":401},{""stimulus"":""img/green_lw/9.jpg"",""time"":450},{""stimulus"":""img/green_lw/10.jpg"",""time"":502},{""stimulus"":""img/green_lw/11.jpg"",""time"":550}]","[]"
"image-keyboard-response","92","68678","0.0-5.0-1.44","610940bbdb7795c3be364375","bdp_lott","Mon Mar 27 2023 09:14:32 GMT-0500 (Central Daylight Time)","221382","green","red","","408","","","","choice","","img/green_lw/choose11.jpg","1","181","green","0.5","0.5","0.5","w","",""
"animation","93","69278","0.0-5.0-2.44","610940bbdb7795c3be364375","bdp_lott","Mon Mar 27 2023 09:14:32 GMT-0500 (Central Daylight Time)","221382","green","red","","","","","","","","","","181","","","","","","[{""stimulus"":""img/green_ww/1.jpg"",""time"":50},{""stimulus"":""img/green_ww/2.jpg"",""time"":101},{""stimulus"":""img/green_ww/3.jpg"",""time"":150},{""stimulus"":""img/green_ww/4.jpg"",""time"":200},{""stimulus"":""img/green_ww/5.jpg"",""time"":250},{""stimulus"":""img/green_ww/6.jpg"",""time"":301},{""stimulus"":""img/green_ww/7.jpg"",""time"":351},{""stimulus"":""img/green_ww/8.jpg"",""time"":400},{""stimulus"":""img/green_ww/9.jpg"",""time"":450},{""stimulus"":""img/green_ww/10.jpg"",""time"":501},{""stimulus"":""img/green_ww/11.jpg"",""time"":550}]","[]"
"image-keyboard-response","94","69582","0.0-5.0-1.45","610940bbdb7795c3be364375","bdp_lott","Mon Mar 27 2023 09:14:32 GMT-0500 (Central Daylight Time)","221382","green","red","","303","","","","choice","","img/green_ww/choose11.jpg","1","180","green","0.5","0.5","0.5","w","",""
"animation","95","70182","0.0-5.0-2.45","610940bbdb7795c3be364375","bdp_lott","Mon Mar 27 2023 09:14:32 GMT-0500 (Central Daylight Time)","221382","green","red","","","","","","","","","","180","","","","","","[{""stimulus"":""img/green_ww/1.jpg"",""time"":52},{""stimulus"":""img/green_ww/2.jpg"",""time"":101},{""stimulus"":""img/green_ww/3.jpg"",""time"":151},{""stimulus"":""img/green_ww/4.jpg"",""time"":200},{""stimulus"":""img/green_ww/5.jpg"",""time"":250},{""stimulus"":""img/green_ww/6.jpg"",""time"":300},{""stimulus"":""img/green_ww/7.jpg"",""time"":351},{""stimulus"":""img/green_ww/8.jpg"",""time"":400},{""stimulus"":""img/green_ww/9.jpg"",""time"":450},{""stimulus"":""img/green_ww/10.jpg"",""time"":501},{""stimulus"":""img/green_ww/11.jpg"",""time"":551}]","[]"
"image-keyboard-response","96","70581","0.0-5.0-1.46","610940bbdb7795c3be364375","bdp_lott","Mon Mar 27 2023 09:14:32 GMT-0500 (Central Daylight Time)","221382","green","red","","399","","","","choice","","img/green_ww/choose11.jpg","1","179","green","0.5","0.5","0.5","l","",""
"animation","97","71182","0.0-5.0-2.46","610940bbdb7795c3be364375","bdp_lott","Mon Mar 27 2023 09:14:32 GMT-0500 (Central Daylight Time)","221382","green","red","","","","","","","","","","179","","","","","","[{""stimulus"":""img/green_lw/1.jpg"",""time"":51},{""stimulus"":""img/green_lw/2.jpg"",""time"":101},{""stimulus"":""img/green_lw/3.jpg"",""time"":151},{""stimulus"":""img/green_lw/4.jpg"",""time"":201},{""stimulus"":""img/green_lw/5.jpg"",""time"":252},{""stimulus"":""img/green_lw/6.jpg"",""time"":301},{""stimulus"":""img/green_lw/7.jpg"",""time"":351},{""stimulus"":""img/green_lw/8.jpg"",""time"":401},{""stimulus"":""img/green_lw/9.jpg"",""time"":451},{""stimulus"":""img/green_lw/10.jpg"",""time"":501},{""stimulus"":""img/green_lw/11.jpg"",""time"":551}]","[]"
"image-keyboard-response","98","71574","0.0-5.0-1.47","610940bbdb7795c3be364375","bdp_lott","Mon Mar 27 2023 09:14:32 GMT-0500 (Central Daylight Time)","221382","green","red","","390","","","","choice","","img/green_lw/choose11.jpg","1","178","green","0.5","0.5","0.5","l","",""
"animation","99","72174","0.0-5.0-2.47","610940bbdb7795c3be364375","bdp_lott","Mon Mar 27 2023 09:14:32 GMT-0500 (Central Daylight Time)","221382","green","red","","","","","","","","","","178","","","","","","[{""stimulus"":""img/green_lw/1.jpg"",""time"":51},{""stimulus"":""img/green_lw/2.jpg"",""time"":100},{""stimulus"":""img/green_lw/3.jpg"",""time"":150},{""stimulus"":""img/green_lw/4.jpg"",""time"":200},{""stimulus"":""img/green_lw/5.jpg"",""time"":250},{""stimulus"":""img/green_lw/6.jpg"",""time"":301},{""stimulus"":""img/green_lw/7.jpg"",""time"":351},{""stimulus"":""img/green_lw/8.jpg"",""time"":400},{""stimulus"":""img/green_lw/9.jpg"",""time"":450},{""stimulus"":""img/green_lw/10.jpg"",""time"":500},{""stimulus"":""img/green_lw/11.jpg"",""time"":551}]","[]"
"image-keyboard-response","100","72550","0.0-5.0-1.48","610940bbdb7795c3be364375","bdp_lott","Mon Mar 27 2023 09:14:32 GMT-0500 (Central Daylight Time)","221382","green","red","","374","","","","choice","","img/green_lw/choose11.jpg","1","177","green","0.5","0.5","0.5","w","",""
"animation","101","73151","0.0-5.0-2.48","610940bbdb7795c3be364375","bdp_lott","Mon Mar 27 2023 09:14:32 GMT-0500 (Central Daylight Time)","221382","green","red","","","","","","","","","","177","","","","","","[{""stimulus"":""img/green_ww/1.jpg"",""time"":52},{""stimulus"":""img/green_ww/2.jpg"",""time"":101},{""stimulus"":""img/green_ww/3.jpg"",""time"":150},{""stimulus"":""img/green_ww/4.jpg"",""time"":200},{""stimulus"":""img/green_ww/5.jpg"",""time"":251},{""stimulus"":""img/green_ww/6.jpg"",""time"":300},{""stimulus"":""img/green_ww/7.jpg"",""time"":350},{""stimulus"":""img/green_ww/8.jpg"",""time"":400},{""stimulus"":""img/green_ww/9.jpg"",""time"":451},{""stimulus"":""img/green_ww/10.jpg"",""time"":500},{""stimulus"":""img/green_ww/11.jpg"",""time"":550}]","[]"
"image-keyboard-response","102","73630","0.0-5.0-1.49","610940bbdb7795c3be364375","bdp_lott","Mon Mar 27 2023 09:14:32 GMT-0500 (Central Daylight Time)","221382","green","red","","479","","","","choice","","img/green_ww/choose11.jpg","1","176","green","0.5","0.5","0.5","w","",""
"animation","103","74230","0.0-5.0-2.49","610940bbdb7795c3be364375","bdp_lott","Mon Mar 27 2023 09:14:32 GMT-0500 (Central Daylight Time)","221382","green","red","","","","","","","","","","176","","","","","","[{""stimulus"":""img/green_ww/1.jpg"",""time"":51},{""stimulus"":""img/green_ww/2.jpg"",""time"":100},{""stimulus"":""img/green_ww/3.jpg"",""time"":151},{""stimulus"":""img/green_ww/4.jpg"",""time"":200},{""stimulus"":""img/green_ww/5.jpg"",""time"":250},{""stimulus"":""img/green_ww/6.jpg"",""time"":301},{""stimulus"":""img/green_ww/7.jpg"",""time"":350},{""stimulus"":""img/green_ww/8.jpg"",""time"":400},{""stimulus"":""img/green_ww/9.jpg"",""time"":451},{""stimulus"":""img/green_ww/10.jpg"",""time"":501},{""stimulus"":""img/green_ww/11.jpg"",""time"":550}]","[]"
"image-keyboard-response","104","74646","0.0-5.0-1.50","610940bbdb7795c3be364375","bdp_lott","Mon Mar 27 2023 09:14:32 GMT-0500 (Central Daylight Time)","221382","green","red","","416","","","","choice","","img/green_ww/choose11.jpg","1","175","green","0.5","0.5","0.5","w","",""
"animation","105","75246","0.0-5.0-2.50","610940bbdb7795c3be364375","bdp_lott","Mon Mar 27 2023 09:14:32 GMT-0500 (Central Daylight Time)","221382","green","red","","","","","","","","","","175","","","","","","[{""stimulus"":""img/green_ww/1.jpg"",""time"":51},{""stimulus"":""img/green_ww/2.jpg"",""time"":100},{""stimulus"":""img/green_ww/3.jpg"",""time"":151},{""stimulus"":""img/green_ww/4.jpg"",""time"":201},{""stimulus"":""img/green_ww/5.jpg"",""time"":250},{""stimulus"":""img/green_ww/6.jpg"",""time"":301},{""stimulus"":""img/green_ww/7.jpg"",""time"":350},{""stimulus"":""img/green_ww/8.jpg"",""time"":400},{""stimulus"":""img/green_ww/9.jpg"",""time"":450},{""stimulus"":""img/green_ww/10.jpg"",""time"":500},{""stimulus"":""img/green_ww/11.jpg"",""time"":550}]","[]"
"image-keyboard-response","106","75581","0.0-5.0-1.51","610940bbdb7795c3be364375","bdp_lott","Mon Mar 27 2023 09:14:32 GMT-0500 (Central Daylight Time)","221382","green","red","","335","","","","choice","","img/green_ww/choose11.jpg","1","174","green","0.5","0.5","0.5","l","",""
"animation","107","76181","0.0-5.0-2.51","610940bbdb7795c3be364375","bdp_lott","Mon Mar 27 2023 09:14:32 GMT-0500 (Central Daylight Time)","221382","green","red","","","","","","","","","","174","","","","","","[{""stimulus"":""img/green_lw/1.jpg"",""time"":51},{""stimulus"":""img/green_lw/2.jpg"",""time"":102},{""stimulus"":""img/green_lw/3.jpg"",""time"":151},{""stimulus"":""img/green_lw/4.jpg"",""time"":202},{""stimulus"":""img/green_lw/5.jpg"",""time"":251},{""stimulus"":""img/green_lw/6.jpg"",""time"":302},{""stimulus"":""img/green_lw/7.jpg"",""time"":351},{""stimulus"":""img/green_lw/8.jpg"",""time"":401},{""stimulus"":""img/green_lw/9.jpg"",""time"":452},{""stimulus"":""img/green_lw/10.jpg"",""time"":502},{""stimulus"":""img/green_lw/11.jpg"",""time"":551}]","[]"
"image-keyboard-response","108","76725","0.0-5.0-1.52","610940bbdb7795c3be364375","bdp_lott","Mon Mar 27 2023 09:14:32 GMT-0500 (Central Daylight Time)","221382","green","red","","543","","","","choice","","img/green_lw/choose11.jpg","1","173","green","0.5","0.5","0.5","l","",""
"animation","109","77326","0.0-5.0-2.52","610940bbdb7795c3be364375","bdp_lott","Mon Mar 27 2023 09:14:32 GMT-0500 (Central Daylight Time)","221382","green","red","","","","","","","","","","173","","","","","","[{""stimulus"":""img/green_lw/1.jpg"",""time"":51},{""stimulus"":""img/green_lw/2.jpg"",""time"":101},{""stimulus"":""img/green_lw/3.jpg"",""time"":151},{""stimulus"":""img/green_lw/4.jpg"",""time"":201},{""stimulus"":""img/green_lw/5.jpg"",""time"":251},{""stimulus"":""img/green_lw/6.jpg"",""time"":301},{""stimulus"":""img/green_lw/7.jpg"",""time"":351},{""stimulus"":""img/green_lw/8.jpg"",""time"":401},{""stimulus"":""img/green_lw/9.jpg"",""time"":451},{""stimulus"":""img/green_lw/10.jpg"",""time"":502},{""stimulus"":""img/green_lw/11.jpg"",""time"":552}]","[]"
"image-keyboard-response","110","77933","0.0-5.0-1.53","610940bbdb7795c3be364375","bdp_lott","Mon Mar 27 2023 09:14:32 GMT-0500 (Central Daylight Time)","221382","green","red","","607","","","","choice","","img/green_lw/choose11.jpg","1","172","green","0.5","0.5","0.5","l","",""
"animation","111","78534","0.0-5.0-2.53","610940bbdb7795c3be364375","bdp_lott","Mon Mar 27 2023 09:14:32 GMT-0500 (Central Daylight Time)","221382","green","red","","","","","","","","","","172","","","","","","[{""stimulus"":""img/green_lw/1.jpg"",""time"":51},{""stimulus"":""img/green_lw/2.jpg"",""time"":101},{""stimulus"":""img/green_lw/3.jpg"",""time"":151},{""stimulus"":""img/green_lw/4.jpg"",""time"":201},{""stimulus"":""img/green_lw/5.jpg"",""time"":251},{""stimulus"":""img/green_lw/6.jpg"",""time"":302},{""stimulus"":""img/green_lw/7.jpg"",""time"":351},{""stimulus"":""img/green_lw/8.jpg"",""time"":401},{""stimulus"":""img/green_lw/9.jpg"",""time"":451},{""stimulus"":""img/green_lw/10.jpg"",""time"":501},{""stimulus"":""img/green_lw/11.jpg"",""time"":552}]","[]"
"image-keyboard-response","112","78814","0.0-5.0-1.54","610940bbdb7795c3be364375","bdp_lott","Mon Mar 27 2023 09:14:32 GMT-0500 (Central Daylight Time)","221382","green","red","","279","","","","choice","","img/green_lw/choose11.jpg","2","171","red","0.5","0.5","0.5","w","",""
"animation","113","79415","0.0-5.0-2.54","610940bbdb7795c3be364375","bdp_lott","Mon Mar 27 2023 09:14:32 GMT-0500 (Central Daylight Time)","221382","green","red","","","","","","","","","","171","","","","","","[{""stimulus"":""img/red_lw/1.jpg"",""time"":51},{""stimulus"":""img/red_lw/2.jpg"",""time"":101},{""stimulus"":""img/red_lw/3.jpg"",""time"":151},{""stimulus"":""img/red_lw/4.jpg"",""time"":201},{""stimulus"":""img/red_lw/5.jpg"",""time"":250},{""stimulus"":""img/red_lw/6.jpg"",""time"":301},{""stimulus"":""img/red_lw/7.jpg"",""time"":351},{""stimulus"":""img/red_lw/8.jpg"",""time"":401},{""stimulus"":""img/red_lw/9.jpg"",""time"":451},{""stimulus"":""img/red_lw/10.jpg"",""time"":500},{""stimulus"":""img/red_lw/11.jpg"",""time"":551}]","[]"
"image-keyboard-response","114","79759","0.0-5.0-1.55","610940bbdb7795c3be364375","bdp_lott","Mon Mar 27 2023 09:14:32 GMT-0500 (Central Daylight Time)","221382","green","red","","344","","","","choice","","img/red_lw/choose11.jpg","2","170","red","0.5","0.5","0.5","l","",""
"animation","115","80360","0.0-5.0-2.55","610940bbdb7795c3be364375","bdp_lott","Mon Mar 27 2023 09:14:32 GMT-0500 (Central Daylight Time)","221382","green","red","","","","","","","","","","170","","","","","","[{""stimulus"":""img/red_ll/1.jpg"",""time"":50},{""stimulus"":""img/red_ll/2.jpg"",""time"":100},{""stimulus"":""img/red_ll/3.jpg"",""time"":151},{""stimulus"":""img/red_ll/4.jpg"",""time"":200},{""stimulus"":""img/red_ll/5.jpg"",""time"":250},{""stimulus"":""img/red_ll/6.jpg"",""time"":301},{""stimulus"":""img/red_ll/7.jpg"",""time"":351},{""stimulus"":""img/red_ll/8.jpg"",""time"":400},{""stimulus"":""img/red_ll/9.jpg"",""time"":450},{""stimulus"":""img/red_ll/10.jpg"",""time"":500},{""stimulus"":""img/red_ll/11.jpg"",""time"":551}]","[]"
"image-keyboard-response","116","80678","0.0-5.0-1.56","610940bbdb7795c3be364375","bdp_lott","Mon Mar 27 2023 09:14:32 GMT-0500 (Central Daylight Time)","221382","green","red","","318","","","","choice","","img/red_ll/choose11.jpg","2","169","red","0.5","0.5","0.5","l","",""
"animation","117","81279","0.0-5.0-2.56","610940bbdb7795c3be364375","bdp_lott","Mon Mar 27 2023 09:14:32 GMT-0500 (Central Daylight Time)","221382","green","red","","","","","","","","","","169","","","","","","[{""stimulus"":""img/red_ll/1.jpg"",""time"":51},{""stimulus"":""img/red_ll/2.jpg"",""time"":100},{""stimulus"":""img/red_ll/3.jpg"",""time"":151},{""stimulus"":""img/red_ll/4.jpg"",""time"":201},{""stimulus"":""img/red_ll/5.jpg"",""time"":252},{""stimulus"":""img/red_ll/6.jpg"",""time"":300},{""stimulus"":""img/red_ll/7.jpg"",""time"":350},{""stimulus"":""img/red_ll/8.jpg"",""time"":400},{""stimulus"":""img/red_ll/9.jpg"",""time"":451},{""stimulus"":""img/red_ll/10.jpg"",""time"":500},{""stimulus"":""img/red_ll/11.jpg"",""time"":551}]","[]"
"image-keyboard-response","118","81581","0.0-5.0-1.57","610940bbdb7795c3be364375","bdp_lott","Mon Mar 27 2023 09:14:32 GMT-0500 (Central Daylight Time)","221382","green","red","","302","","","","choice","","img/red_ll/choose11.jpg","2","168","red","0.5","0.5","0.5","l","",""
"animation","119","82182","0.0-5.0-2.57","610940bbdb7795c3be364375","bdp_lott","Mon Mar 27 2023 09:14:32 GMT-0500 (Central Daylight Time)","221382","green","red","","","","","","","","","","168","","","","","","[{""stimulus"":""img/red_ll/1.jpg"",""time"":51},{""stimulus"":""img/red_ll/2.jpg"",""time"":101},{""stimulus"":""img/red_ll/3.jpg"",""time"":151},{""stimulus"":""img/red_ll/4.jpg"",""time"":203},{""stimulus"":""img/red_ll/5.jpg"",""time"":251},{""stimulus"":""img/red_ll/6.jpg"",""time"":301},{""stimulus"":""img/red_ll/7.jpg"",""time"":351},{""stimulus"":""img/red_ll/8.jpg"",""time"":401},{""stimulus"":""img/red_ll/9.jpg"",""time"":452},{""stimulus"":""img/red_ll/10.jpg"",""time"":501},{""stimulus"":""img/red_ll/11.jpg"",""time"":552}]","[]"
"image-keyboard-response","120","82486","0.0-5.0-1.58","610940bbdb7795c3be364375","bdp_lott","Mon Mar 27 2023 09:14:32 GMT-0500 (Central Daylight Time)","221382","green","red","","304","","","","choice","","img/red_ll/choose11.jpg","2","167","red","0.5","0.5","0.5","w","",""
"animation","121","83086","0.0-5.0-2.58","610940bbdb7795c3be364375","bdp_lott","Mon Mar 27 2023 09:14:32 GMT-0500 (Central Daylight Time)","221382","green","red","","","","","","","","","","167","","","","","","[{""stimulus"":""img/red_lw/1.jpg"",""time"":51},{""stimulus"":""img/red_lw/2.jpg"",""time"":101},{""stimulus"":""img/red_lw/3.jpg"",""time"":150},{""stimulus"":""img/red_lw/4.jpg"",""time"":201},{""stimulus"":""img/red_lw/5.jpg"",""time"":251},{""stimulus"":""img/red_lw/6.jpg"",""time"":301},{""stimulus"":""img/red_lw/7.jpg"",""time"":351},{""stimulus"":""img/red_lw/8.jpg"",""time"":402},{""stimulus"":""img/red_lw/9.jpg"",""time"":451},{""stimulus"":""img/red_lw/10.jpg"",""time"":501},{""stimulus"":""img/red_lw/11.jpg"",""time"":551}]","[]"
"image-keyboard-response","122","83566","0.0-5.0-1.59","610940bbdb7795c3be364375","bdp_lott","Mon Mar 27 2023 09:14:32 GMT-0500 (Central Daylight Time)","221382","green","red","","480","","","","choice","","img/red_lw/choose11.jpg","2","166","red","0.5","0.5","0.5","w","",""
"animation","123","84166","0.0-5.0-2.59","610940bbdb7795c3be364375","bdp_lott","Mon Mar 27 2023 09:14:32 GMT-0500 (Central Daylight Time)","221382","green","red","","","","","","","","","","166","","","","","","[{""stimulus"":""img/red_lw/1.jpg"",""time"":51},{""stimulus"":""img/red_lw/2.jpg"",""time"":101},{""stimulus"":""img/red_lw/3.jpg"",""time"":151},{""stimulus"":""img/red_lw/4.jpg"",""time"":201},{""stimulus"":""img/red_lw/5.jpg"",""time"":251},{""stimulus"":""img/red_lw/6.jpg"",""time"":302},{""stimulus"":""img/red_lw/7.jpg"",""time"":352},{""stimulus"":""img/red_lw/8.jpg"",""time"":401},{""stimulus"":""img/red_lw/9.jpg"",""time"":451},{""stimulus"":""img/red_lw/10.jpg"",""time"":501},{""stimulus"":""img/red_lw/11.jpg"",""time"":551}]","[]"
"image-keyboard-response","124","84478","0.0-5.0-1.60","610940bbdb7795c3be364375","bdp_lott","Mon Mar 27 2023 09:14:32 GMT-0500 (Central Daylight Time)","221382","green","red","","311","","","","choice","","img/red_lw/choose11.jpg","2","165","red","0.5","0.5","0.5","w","",""
"animation","125","85079","0.0-5.0-2.60","610940bbdb7795c3be364375","bdp_lott","Mon Mar 27 2023 09:14:32 GMT-0500 (Central Daylight Time)","221382","green","red","","","","","","","","","","165","","","","","","[{""stimulus"":""img/red_lw/1.jpg"",""time"":51},{""stimulus"":""img/red_lw/2.jpg"",""time"":100},{""stimulus"":""img/red_lw/3.jpg"",""time"":151},{""stimulus"":""img/red_lw/4.jpg"",""time"":201},{""stimulus"":""img/red_lw/5.jpg"",""time"":250},{""stimulus"":""img/red_lw/6.jpg"",""time"":301},{""stimulus"":""img/red_lw/7.jpg"",""time"":352},{""stimulus"":""img/red_lw/8.jpg"",""time"":402},{""stimulus"":""img/red_lw/9.jpg"",""time"":451},{""stimulus"":""img/red_lw/10.jpg"",""time"":500},{""stimulus"":""img/red_lw/11.jpg"",""time"":551}]","[]"
"image-keyboard-response","126","85478","0.0-5.0-1.61","610940bbdb7795c3be364375","bdp_lott","Mon Mar 27 2023 09:14:32 GMT-0500 (Central Daylight Time)","221382","green","red","","399","","","","choice","","img/red_lw/choose11.jpg","2","164","red","0.5","0.5","0.5","l","",""
"animation","127","86079","0.0-5.0-2.61","610940bbdb7795c3be364375","bdp_lott","Mon Mar 27 2023 09:14:32 GMT-0500 (Central Daylight Time)","221382","green","red","","","","","","","","","","164","","","","","","[{""stimulus"":""img/red_ll/1.jpg"",""time"":51},{""stimulus"":""img/red_ll/2.jpg"",""time"":101},{""stimulus"":""img/red_ll/3.jpg"",""time"":152},{""stimulus"":""img/red_ll/4.jpg"",""time"":202},{""stimulus"":""img/red_ll/5.jpg"",""time"":251},{""stimulus"":""img/red_ll/6.jpg"",""time"":301},{""stimulus"":""img/red_ll/7.jpg"",""time"":351},{""stimulus"":""img/red_ll/8.jpg"",""time"":401},{""stimulus"":""img/red_ll/9.jpg"",""time"":452},{""stimulus"":""img/red_ll/10.jpg"",""time"":501},{""stimulus"":""img/red_ll/11.jpg"",""time"":551}]","[]"
"image-keyboard-response","128","86502","0.0-5.0-1.62","610940bbdb7795c3be364375","bdp_lott","Mon Mar 27 2023 09:14:32 GMT-0500 (Central Daylight Time)","221382","green","red","","423","","","","choice","","img/red_ll/choose11.jpg","2","163","red","0.5","0.5","0.5","w","",""
"animation","129","87104","0.0-5.0-2.62","610940bbdb7795c3be364375","bdp_lott","Mon Mar 27 2023 09:14:32 GMT-0500 (Central Daylight Time)","221382","green","red","","","","","","","","","","163","","","","","","[{""stimulus"":""img/red_lw/1.jpg"",""time"":51},{""stimulus"":""img/red_lw/2.jpg"",""time"":112},{""stimulus"":""img/red_lw/3.jpg"",""time"":151},{""stimulus"":""img/red_lw/4.jpg"",""time"":202},{""stimulus"":""img/red_lw/5.jpg"",""time"":251},{""stimulus"":""img/red_lw/6.jpg"",""time"":302},{""stimulus"":""img/red_lw/7.jpg"",""time"":351},{""stimulus"":""img/red_lw/8.jpg"",""time"":400},{""stimulus"":""img/red_lw/9.jpg"",""time"":451},{""stimulus"":""img/red_lw/10.jpg"",""time"":502},{""stimulus"":""img/red_lw/11.jpg"",""time"":552}]","[]"
"image-keyboard-response","130","87550","0.0-5.0-1.63","610940bbdb7795c3be364375","bdp_lott","Mon Mar 27 2023 09:14:32 GMT-0500 (Central Daylight Time)","221382","green","red","","446","","","","choice","","img/red_lw/choose11.jpg","2","162","red","0.5","0.5","0.5","w","",""
"animation","131","88150","0.0-5.0-2.63","610940bbdb7795c3be364375","bdp_lott","Mon Mar 27 2023 09:14:32 GMT-0500 (Central Daylight Time)","221382","green","red","","","","","","","","","","162","","","","","","[{""stimulus"":""img/red_lw/1.jpg"",""time"":50},{""stimulus"":""img/red_lw/2.jpg"",""time"":101},{""stimulus"":""img/red_lw/3.jpg"",""time"":151},{""stimulus"":""img/red_lw/4.jpg"",""time"":200},{""stimulus"":""img/red_lw/5.jpg"",""time"":250},{""stimulus"":""img/red_lw/6.jpg"",""time"":301},{""stimulus"":""img/red_lw/7.jpg"",""time"":351},{""stimulus"":""img/red_lw/8.jpg"",""time"":400},{""stimulus"":""img/red_lw/9.jpg"",""time"":451},{""stimulus"":""img/red_lw/10.jpg"",""time"":501},{""stimulus"":""img/red_lw/11.jpg"",""time"":552}]","[]"
"image-keyboard-response","132","88654","0.0-5.0-1.64","610940bbdb7795c3be364375","bdp_lott","Mon Mar 27 2023 09:14:32 GMT-0500 (Central Daylight Time)","221382","green","red","","503","","","","choice","","img/red_lw/choose11.jpg","2","161","red","0.5","0.5","0.5","w","",""
"animation","133","89255","0.0-5.0-2.64","610940bbdb7795c3be364375","bdp_lott","Mon Mar 27 2023 09:14:32 GMT-0500 (Central Daylight Time)","221382","green","red","","","","","","","","","","161","","","","","","[{""stimulus"":""img/red_lw/1.jpg"",""time"":51},{""stimulus"":""img/red_lw/2.jpg"",""time"":101},{""stimulus"":""img/red_lw/3.jpg"",""time"":151},{""stimulus"":""img/red_lw/4.jpg"",""time"":201},{""stimulus"":""img/red_lw/5.jpg"",""time"":251},{""stimulus"":""img/red_lw/6.jpg"",""time"":301},{""stimulus"":""img/red_lw/7.jpg"",""time"":350},{""stimulus"":""img/red_lw/8.jpg"",""time"":401},{""stimulus"":""img/red_lw/9.jpg"",""time"":450},{""stimulus"":""img/red_lw/10.jpg"",""time"":501},{""stimulus"":""img/red_lw/11.jpg"",""time"":551}]","[]"
"image-keyboard-response","134","89614","0.0-5.0-1.65","610940bbdb7795c3be364375","bdp_lott","Mon Mar 27 2023 09:14:32 GMT-0500 (Central Daylight Time)","221382","green","red","","359","","","","choice","","img/red_lw/choose11.jpg","2","160","red","0.5","0.5","0.5","w","",""
"animation","135","90215","0.0-5.0-2.65","610940bbdb7795c3be364375","bdp_lott","Mon Mar 27 2023 09:14:32 GMT-0500 (Central Daylight Time)","221382","green","red","","","","","","","","","","160","","","","","","[{""stimulus"":""img/red_lw/1.jpg"",""time"":51},{""stimulus"":""img/red_lw/2.jpg"",""time"":101},{""stimulus"":""img/red_lw/3.jpg"",""time"":151},{""stimulus"":""img/red_lw/4.jpg"",""time"":201},{""stimulus"":""img/red_lw/5.jpg"",""time"":251},{""stimulus"":""img/red_lw/6.jpg"",""time"":301},{""stimulus"":""img/red_lw/7.jpg"",""time"":351},{""stimulus"":""img/red_lw/8.jpg"",""time"":402},{""stimulus"":""img/red_lw/9.jpg"",""time"":451},{""stimulus"":""img/red_lw/10.jpg"",""time"":502},{""stimulus"":""img/red_lw/11.jpg"",""time"":551}]","[]"
"image-keyboard-response","136","90518","0.0-5.0-1.66","610940bbdb7795c3be364375","bdp_lott","Mon Mar 27 2023 09:14:32 GMT-0500 (Central Daylight Time)","221382","green","red","","303","","","","choice","","img/red_lw/choose11.jpg","2","159","red","0.5","0.5","0.5","l","",""
"animation","137","91119","0.0-5.0-2.66","610940bbdb7795c3be364375","bdp_lott","Mon Mar 27 2023 09:14:32 GMT-0500 (Central Daylight Time)","221382","green","red","","","","","","","","","","159","","","","","","[{""stimulus"":""img/red_ll/1.jpg"",""time"":52},{""stimulus"":""img/red_ll/2.jpg"",""time"":101},{""stimulus"":""img/red_ll/3.jpg"",""time"":151},{""stimulus"":""img/red_ll/4.jpg"",""time"":202},{""stimulus"":""img/red_ll/5.jpg"",""time"":266},{""stimulus"":""img/red_ll/6.jpg"",""time"":301},{""stimulus"":""img/red_ll/7.jpg"",""time"":352},{""stimulus"":""img/red_ll/8.jpg"",""time"":402},{""stimulus"":""img/red_ll/9.jpg"",""time"":452},{""stimulus"":""img/red_ll/10.jpg"",""time"":501},{""stimulus"":""img/red_ll/11.jpg"",""time"":551}]","[]"
"image-keyboard-response","138","91526","0.0-5.0-1.67","610940bbdb7795c3be364375","bdp_lott","Mon Mar 27 2023 09:14:32 GMT-0500 (Central Daylight Time)","221382","green","red","","406","","","","choice","","img/red_ll/choose11.jpg","2","158","red","0.5","0.5","0.5","l","",""
"animation","139","92126","0.0-5.0-2.67","610940bbdb7795c3be364375","bdp_lott","Mon Mar 27 2023 09:14:32 GMT-0500 (Central Daylight Time)","221382","green","red","","","","","","","","","","158","","","","","","[{""stimulus"":""img/red_ll/1.jpg"",""time"":51},{""stimulus"":""img/red_ll/2.jpg"",""time"":101},{""stimulus"":""img/red_ll/3.jpg"",""time"":150},{""stimulus"":""img/red_ll/4.jpg"",""time"":200},{""stimulus"":""img/red_ll/5.jpg"",""time"":251},{""stimulus"":""img/red_ll/6.jpg"",""time"":300},{""stimulus"":""img/red_ll/7.jpg"",""time"":351},{""stimulus"":""img/red_ll/8.jpg"",""time"":400},{""stimulus"":""img/red_ll/9.jpg"",""time"":450},{""stimulus"":""img/red_ll/10.jpg"",""time"":500},{""stimulus"":""img/red_ll/11.jpg"",""time"":552}]","[]"
"image-keyboard-response","140","92438","0.0-5.0-1.68","610940bbdb7795c3be364375","bdp_lott","Mon Mar 27 2023 09:14:32 GMT-0500 (Central Daylight Time)","221382","green","red","","311","","","","choice","","img/red_ll/choose11.jpg","2","157","red","0.5","0.5","0.5","l","",""
"animation","141","93039","0.0-5.0-2.68","610940bbdb7795c3be364375","bdp_lott","Mon Mar 27 2023 09:14:32 GMT-0500 (Central Daylight Time)","221382","green","red","","","","","","","","","","157","","","","","","[{""stimulus"":""img/red_ll/1.jpg"",""time"":52},{""stimulus"":""img/red_ll/2.jpg"",""time"":101},{""stimulus"":""img/red_ll/3.jpg"",""time"":151},{""stimulus"":""img/red_ll/4.jpg"",""time"":201},{""stimulus"":""img/red_ll/5.jpg"",""time"":265},{""stimulus"":""img/red_ll/6.jpg"",""time"":301},{""stimulus"":""img/red_ll/7.jpg"",""time"":351},{""stimulus"":""img/red_ll/8.jpg"",""time"":401},{""stimulus"":""img/red_ll/9.jpg"",""time"":451},{""stimulus"":""img/red_ll/10.jpg"",""time"":501},{""stimulus"":""img/red_ll/11.jpg"",""time"":552}]","[]"
"image-keyboard-response","142","93334","0.0-5.0-1.69","610940bbdb7795c3be364375","bdp_lott","Mon Mar 27 2023 09:14:32 GMT-0500 (Central Daylight Time)","221382","green","red","","295","","","","choice","","img/red_ll/choose11.jpg","2","156","red","0.5","0.5","0.5","w","",""
"animation","143","93934","0.0-5.0-2.69","610940bbdb7795c3be364375","bdp_lott","Mon Mar 27 2023 09:14:32 GMT-0500 (Central Daylight Time)","221382","green","red","","","","","","","","","","156","","","","","","[{""stimulus"":""img/red_lw/1.jpg"",""time"":52},{""stimulus"":""img/red_lw/2.jpg"",""time"":100},{""stimulus"":""img/red_lw/3.jpg"",""time"":150},{""stimulus"":""img/red_lw/4.jpg"",""time"":201},{""stimulus"":""img/red_lw/5.jpg"",""time"":250},{""stimulus"":""img/red_lw/6.jpg"",""time"":301},{""stimulus"":""img/red_lw/7.jpg"",""time"":351},{""stimulus"":""img/red_lw/8.jpg"",""time"":400},{""stimulus"":""img/red_lw/9.jpg"",""time"":451},{""stimulus"":""img/red_lw/10.jpg"",""time"":500},{""stimulus"":""img/red_lw/11.jpg"",""time"":550}]","[]"
"image-keyboard-response","144","94150","0.0-5.0-1.70","610940bbdb7795c3be364375","bdp_lott","Mon Mar 27 2023 09:14:32 GMT-0500 (Central Daylight Time)","221382","green","red","","216","","","","choice","","img/red_lw/choose11.jpg","2","155","red","0.5","0.5","0.5","w","",""
"animation","145","94752","0.0-5.0-2.70","610940bbdb7795c3be364375","bdp_lott","Mon Mar 27 2023 09:14:32 GMT-0500 (Central Daylight Time)","221382","green","red","","","","","","","","","","155","","","","","","[{""stimulus"":""img/red_lw/1.jpg"",""time"":51},{""stimulus"":""img/red_lw/2.jpg"",""time"":101},{""stimulus"":""img/red_lw/3.jpg"",""time"":151},{""stimulus"":""img/red_lw/4.jpg"",""time"":200},{""stimulus"":""img/red_lw/5.jpg"",""time"":251},{""stimulus"":""img/red_lw/6.jpg"",""time"":300},{""stimulus"":""img/red_lw/7.jpg"",""time"":351},{""stimulus"":""img/red_lw/8.jpg"",""time"":400},{""stimulus"":""img/red_lw/9.jpg"",""time"":452},{""stimulus"":""img/red_lw/10.jpg"",""time"":500},{""stimulus"":""img/red_lw/11.jpg"",""time"":551}]","[]"
"image-keyboard-response","146","95166","0.0-5.0-1.71","610940bbdb7795c3be364375","bdp_lott","Mon Mar 27 2023 09:14:32 GMT-0500 (Central Daylight Time)","221382","green","red","","414","","","","choice","","img/red_lw/choose11.jpg","2","154","red","0.5","0.5","0.5","l","",""
"animation","147","95767","0.0-5.0-2.71","610940bbdb7795c3be364375","bdp_lott","Mon Mar 27 2023 09:14:32 GMT-0500 (Central Daylight Time)","221382","green","red","","","","","","","","","","154","","","","","","[{""stimulus"":""img/red_ll/1.jpg"",""time"":51},{""stimulus"":""img/red_ll/2.jpg"",""time"":101},{""stimulus"":""img/red_ll/3.jpg"",""time"":151},{""stimulus"":""img/red_ll/4.jpg"",""time"":201},{""stimulus"":""img/red_ll/5.jpg"",""time"":250},{""stimulus"":""img/red_ll/6.jpg"",""time"":301},{""stimulus"":""img/red_ll/7.jpg"",""time"":350},{""stimulus"":""img/red_ll/8.jpg"",""time"":400},{""stimulus"":""img/red_ll/9.jpg"",""time"":451},{""stimulus"":""img/red_ll/10.jpg"",""time"":500},{""stimulus"":""img/red_ll/11.jpg"",""time"":551}]","[]"
"image-keyboard-response","148","95926","0.0-5.0-1.72","610940bbdb7795c3be364375","bdp_lott","Mon Mar 27 2023 09:14:32 GMT-0500 (Central Daylight Time)","221382","green","red","","159","","","","choice","","img/red_ll/choose11.jpg","2","153","red","0.5","0.5","0.5","l","",""
"animation","149","96526","0.0-5.0-2.72","610940bbdb7795c3be364375","bdp_lott","Mon Mar 27 2023 09:14:32 GMT-0500 (Central Daylight Time)","221382","green","red","","","","","","","","","","153","","","","","","[{""stimulus"":""img/red_ll/1.jpg"",""time"":51},{""stimulus"":""img/red_ll/2.jpg"",""time"":101},{""stimulus"":""img/red_ll/3.jpg"",""time"":150},{""stimulus"":""img/red_ll/4.jpg"",""time"":200},{""stimulus"":""img/red_ll/5.jpg"",""time"":251},{""stimulus"":""img/red_ll/6.jpg"",""time"":301},{""stimulus"":""img/red_ll/7.jpg"",""time"":351},{""stimulus"":""img/red_ll/8.jpg"",""time"":401},{""stimulus"":""img/red_ll/9.jpg"",""time"":450},{""stimulus"":""img/red_ll/10.jpg"",""time"":501},{""stimulus"":""img/red_ll/11.jpg"",""time"":551}]","[]"
"image-keyboard-response","150","96734","0.0-5.0-1.73","610940bbdb7795c3be364375","bdp_lott","Mon Mar 27 2023 09:14:32 GMT-0500 (Central Daylight Time)","221382","green","red","","207","","","","choice","","img/red_ll/choose11.jpg","2","152","red","0.5","0.5","0.5","w","",""
"animation","151","97334","0.0-5.0-2.73","610940bbdb7795c3be364375","bdp_lott","Mon Mar 27 2023 09:14:32 GMT-0500 (Central Daylight Time)","221382","green","red","","","","","","","","","","152","","","","","","[{""stimulus"":""img/red_lw/1.jpg"",""time"":51},{""stimulus"":""img/red_lw/2.jpg"",""time"":101},{""stimulus"":""img/red_lw/3.jpg"",""time"":150},{""stimulus"":""img/red_lw/4.jpg"",""time"":200},{""stimulus"":""img/red_lw/5.jpg"",""time"":250},{""stimulus"":""img/red_lw/6.jpg"",""time"":300},{""stimulus"":""img/red_lw/7.jpg"",""time"":350},{""stimulus"":""img/red_lw/8.jpg"",""time"":400},{""stimulus"":""img/red_lw/9.jpg"",""time"":450},{""stimulus"":""img/red_lw/10.jpg"",""time"":501},{""stimulus"":""img/red_lw/11.jpg"",""time"":551}]","[]"
"image-keyboard-response","152","97526","0.0-5.0-1.74","610940bbdb7795c3be364375","bdp_lott","Mon Mar 27 2023 09:14:32 GMT-0500 (Central Daylight Time)","221382","green","red","","191","","","","choice","","img/red_lw/choose11.jpg","2","151","red","0.5","0.5","0.5","w","",""
"animation","153","98127","0.0-5.0-2.74","610940bbdb7795c3be364375","bdp_lott","Mon Mar 27 2023 09:14:32 GMT-0500 (Central Daylight Time)","221382","green","red","","","","","","","","","","151","","","","","","[{""stimulus"":""img/red_lw/1.jpg"",""time"":51},{""stimulus"":""img/red_lw/2.jpg"",""time"":101},{""stimulus"":""img/red_lw/3.jpg"",""time"":152},{""stimulus"":""img/red_lw/4.jpg"",""time"":201},{""stimulus"":""img/red_lw/5.jpg"",""time"":251},{""stimulus"":""img/red_lw/6.jpg"",""time"":301},{""stimulus"":""img/red_lw/7.jpg"",""time"":351},{""stimulus"":""img/red_lw/8.jpg"",""time"":402},{""stimulus"":""img/red_lw/9.jpg"",""time"":451},{""stimulus"":""img/red_lw/10.jpg"",""time"":501},{""stimulus"":""img/red_lw/11.jpg"",""time"":550}]","[]"
"image-keyboard-response","154","98454","0.0-5.0-1.75","610940bbdb7795c3be364375","bdp_lott","Mon Mar 27 2023 09:14:32 GMT-0500 (Central Daylight Time)","221382","green","red","","326","","","","choice","","img/red_lw/choose11.jpg","2","150","red","0.5","0.5","0.5","l","",""
"animation","155","99055","0.0-5.0-2.75","610940bbdb7795c3be364375","bdp_lott","Mon Mar 27 2023 09:14:32 GMT-0500 (Central Daylight Time)","221382","green","red","","","","","","","","","","150","","","","","","[{""stimulus"":""img/red_ll/1.jpg"",""time"":50},{""stimulus"":""img/red_ll/2.jpg"",""time"":100},{""stimulus"":""img/red_ll/3.jpg"",""time"":152},{""stimulus"":""img/red_ll/4.jpg"",""time"":202},{""stimulus"":""img/red_ll/5.jpg"",""time"":250},{""stimulus"":""img/red_ll/6.jpg"",""time"":301},{""stimulus"":""img/red_ll/7.jpg"",""time"":352},{""stimulus"":""img/red_ll/8.jpg"",""time"":401},{""stimulus"":""img/red_ll/9.jpg"",""time"":451},{""stimulus"":""img/red_ll/10.jpg"",""time"":501},{""stimulus"":""img/red_ll/11.jpg"",""time"":551}]","[]"
"image-keyboard-response","156","99158","0.0-5.0-1.76","610940bbdb7795c3be364375","bdp_lott","Mon Mar 27 2023 09:14:32 GMT-0500 (Central Daylight Time)","221382","green","red","","103","","","","choice","","img/red_ll/choose11.jpg","2","149","red","0.5","0.1","0.1","l","",""
"animation","157","99759","0.0-5.0-2.76","610940bbdb7795c3be364375","bdp_lott","Mon Mar 27 2023 09:14:32 GMT-0500 (Central Daylight Time)","221382","green","red","","","","","","","","","","149","","","","","","[{""stimulus"":""img/red_ll/1.jpg"",""time"":50},{""stimulus"":""img/red_ll/2.jpg"",""time"":115},{""stimulus"":""img/red_ll/3.jpg"",""time"":151},{""stimulus"":""img/red_ll/4.jpg"",""time"":201},{""stimulus"":""img/red_ll/5.jpg"",""time"":251},{""stimulus"":""img/red_ll/6.jpg"",""time"":301},{""stimulus"":""img/red_ll/7.jpg"",""time"":351},{""stimulus"":""img/red_ll/8.jpg"",""time"":401},{""stimulus"":""img/red_ll/9.jpg"",""time"":451},{""stimulus"":""img/red_ll/10.jpg"",""time"":501},{""stimulus"":""img/red_ll/11.jpg"",""time"":551}]","[]"
"image-keyboard-response","158","99965","0.0-5.0-1.77","610940bbdb7795c3be364375","bdp_lott","Mon Mar 27 2023 09:14:32 GMT-0500 (Central Daylight Time)","221382","green","red","","206","","","","choice","","img/red_ll/choose11.jpg","2","148","red","0.5","0.1","0.1","l","",""
"animation","159","100567","0.0-5.0-2.77","610940bbdb7795c3be364375","bdp_lott","Mon Mar 27 2023 09:14:32 GMT-0500 (Central Daylight Time)","221382","green","red","","","","","","","","","","148","","","","","","[{""stimulus"":""img/red_ll/1.jpg"",""time"":51},{""stimulus"":""img/red_ll/2.jpg"",""time"":101},{""stimulus"":""img/red_ll/3.jpg"",""time"":151},{""stimulus"":""img/red_ll/4.jpg"",""time"":201},{""stimulus"":""img/red_ll/5.jpg"",""time"":252},{""stimulus"":""img/red_ll/6.jpg"",""time"":302},{""stimulus"":""img/red_ll/7.jpg"",""time"":352},{""stimulus"":""img/red_ll/8.jpg"",""time"":401},{""stimulus"":""img/red_ll/9.jpg"",""time"":451},{""stimulus"":""img/red_ll/10.jpg"",""time"":501},{""stimulus"":""img/red_ll/11.jpg"",""time"":551}]","[]"
"image-keyboard-response","160","100766","0.0-5.0-1.78","610940bbdb7795c3be364375","bdp_lott","Mon Mar 27 2023 09:14:32 GMT-0500 (Central Daylight Time)","221382","green","red","","198","","","","choice","","img/red_ll/choose11.jpg","2","147","red","0.5","0.1","0.1","l","",""
"animation","161","101367","0.0-5.0-2.78","610940bbdb7795c3be364375","bdp_lott","Mon Mar 27 2023 09:14:32 GMT-0500 (Central Daylight Time)","221382","green","red","","","","","","","","","","147","","","","","","[{""stimulus"":""img/red_ll/1.jpg"",""time"":51},{""stimulus"":""img/red_ll/2.jpg"",""time"":102},{""stimulus"":""img/red_ll/3.jpg"",""time"":151},{""stimulus"":""img/red_ll/4.jpg"",""time"":202},{""stimulus"":""img/red_ll/5.jpg"",""time"":251},{""stimulus"":""img/red_ll/6.jpg"",""time"":301},{""stimulus"":""img/red_ll/7.jpg"",""time"":351},{""stimulus"":""img/red_ll/8.jpg"",""time"":401},{""stimulus"":""img/red_ll/9.jpg"",""time"":450},{""stimulus"":""img/red_ll/10.jpg"",""time"":506},{""stimulus"":""img/red_ll/11.jpg"",""time"":551}]","[]"
"image-keyboard-response","162","101678","0.0-5.0-1.79","610940bbdb7795c3be364375","bdp_lott","Mon Mar 27 2023 09:14:32 GMT-0500 (Central Daylight Time)","221382","green","red","","311","","","","choice","","img/red_ll/choose11.jpg","2","146","red","0.5","0.1","0.1","l","",""
"animation","163","102280","0.0-5.0-2.79","610940bbdb7795c3be364375","bdp_lott","Mon Mar 27 2023 09:14:32 GMT-0500 (Central Daylight Time)","221382","green","red","","","","","","","","","","146","","","","","","[{""stimulus"":""img/red_ll/1.jpg"",""time"":51},{""stimulus"":""img/red_ll/2.jpg"",""time"":101},{""stimulus"":""img/red_ll/3.jpg"",""time"":151},{""stimulus"":""img/red_ll/4.jpg"",""time"":200},{""stimulus"":""img/red_ll/5.jpg"",""time"":251},{""stimulus"":""img/red_ll/6.jpg"",""time"":301},{""stimulus"":""img/red_ll/7.jpg"",""time"":352},{""stimulus"":""img/red_ll/8.jpg"",""time"":401},{""stimulus"":""img/red_ll/9.jpg"",""time"":451},{""stimulus"":""img/red_ll/10.jpg"",""time"":501},{""stimulus"":""img/red_ll/11.jpg"",""time"":551}]","[]"
"image-keyboard-response","164","102390","0.0-5.0-1.80","610940bbdb7795c3be364375","bdp_lott","Mon Mar 27 2023 09:14:32 GMT-0500 (Central Daylight Time)","221382","green","red","","110","","","","choice","","img/red_ll/choose11.jpg","1","145","green","0.5","0.1","0.5","l","",""
"animation","165","102990","0.0-5.0-2.80","610940bbdb7795c3be364375","bdp_lott","Mon Mar 27 2023 09:14:32 GMT-0500 (Central Daylight Time)","221382","green","red","","","","","","","","","","145","","","","","","[{""stimulus"":""img/green_ll/1.jpg"",""time"":50},{""stimulus"":""img/green_ll/2.jpg"",""time"":101},{""stimulus"":""img/green_ll/3.jpg"",""time"":151},{""stimulus"":""img/green_ll/4.jpg"",""time"":201},{""stimulus"":""img/green_ll/5.jpg"",""time"":251},{""stimulus"":""img/green_ll/6.jpg"",""time"":301},{""stimulus"":""img/green_ll/7.jpg"",""time"":351},{""stimulus"":""img/green_ll/8.jpg"",""time"":400},{""stimulus"":""img/green_ll/9.jpg"",""time"":451},{""stimulus"":""img/green_ll/10.jpg"",""time"":501},{""stimulus"":""img/green_ll/11.jpg"",""time"":551}]","[]"
"image-keyboard-response","166","103245","0.0-5.0-1.81","610940bbdb7795c3be364375","bdp_lott","Mon Mar 27 2023 09:14:32 GMT-0500 (Central Daylight Time)","221382","green","red","","254","","","","choice","","img/green_ll/choose11.jpg","1","144","green","0.5","0.1","0.5","l","",""
"animation","167","103847","0.0-5.0-2.81","610940bbdb7795c3be364375","bdp_lott","Mon Mar 27 2023 09:14:32 GMT-0500 (Central Daylight Time)","221382","green","red","","","","","","","","","","144","","","","","","[{""stimulus"":""img/green_ll/1.jpg"",""time"":51},{""stimulus"":""img/green_ll/2.jpg"",""time"":100},{""stimulus"":""img/green_ll/3.jpg"",""time"":151},{""stimulus"":""img/green_ll/4.jpg"",""time"":200},{""stimulus"":""img/green_ll/5.jpg"",""time"":250},{""stimulus"":""img/green_ll/6.jpg"",""time"":301},{""stimulus"":""img/green_ll/7.jpg"",""time"":350},{""stimulus"":""img/green_ll/8.jpg"",""time"":400},{""stimulus"":""img/green_ll/9.jpg"",""time"":450},{""stimulus"":""img/green_ll/10.jpg"",""time"":501},{""stimulus"":""img/green_ll/11.jpg"",""time"":550}]","[]"
"image-keyboard-response","168","104142","0.0-5.0-1.82","610940bbdb7795c3be364375","bdp_lott","Mon Mar 27 2023 09:14:32 GMT-0500 (Central Daylight Time)","221382","green","red","","295","","","","choice","","img/green_ll/choose11.jpg","1","143","green","0.5","0.1","0.5","l","",""
"animation","169","104742","0.0-5.0-2.82","610940bbdb7795c3be364375","bdp_lott","Mon Mar 27 2023 09:14:32 GMT-0500 (Central Daylight Time)","221382","green","red","","","","","","","","","","143","","","","","","[{""stimulus"":""img/green_ll/1.jpg"",""time"":52},{""stimulus"":""img/green_ll/2.jpg"",""time"":101},{""stimulus"":""img/green_ll/3.jpg"",""time"":151},{""stimulus"":""img/green_ll/4.jpg"",""time"":200},{""stimulus"":""img/green_ll/5.jpg"",""time"":251},{""stimulus"":""img/green_ll/6.jpg"",""time"":300},{""stimulus"":""img/green_ll/7.jpg"",""time"":350},{""stimulus"":""img/green_ll/8.jpg"",""time"":401},{""stimulus"":""img/green_ll/9.jpg"",""time"":451},{""stimulus"":""img/green_ll/10.jpg"",""time"":504},{""stimulus"":""img/green_ll/11.jpg"",""time"":551}]","[]"
"image-keyboard-response","170","105014","0.0-5.0-1.83","610940bbdb7795c3be364375","bdp_lott","Mon Mar 27 2023 09:14:32 GMT-0500 (Central Daylight Time)","221382","green","red","","272","","","","choice","","img/green_ll/choose11.jpg","1","142","green","0.5","0.1","0.5","l","",""
"animation","171","105615","0.0-5.0-2.83","610940bbdb7795c3be364375","bdp_lott","Mon Mar 27 2023 09:14:32 GMT-0500 (Central Daylight Time)","221382","green","red","","","","","","","","","","142","","","","","","[{""stimulus"":""img/green_ll/1.jpg"",""time"":51},{""stimulus"":""img/green_ll/2.jpg"",""time"":102},{""stimulus"":""img/green_ll/3.jpg"",""time"":150},{""stimulus"":""img/green_ll/4.jpg"",""time"":201},{""stimulus"":""img/green_ll/5.jpg"",""time"":251},{""stimulus"":""img/green_ll/6.jpg"",""time"":301},{""stimulus"":""img/green_ll/7.jpg"",""time"":351},{""stimulus"":""img/green_ll/8.jpg"",""time"":401},{""stimulus"":""img/green_ll/9.jpg"",""time"":450},{""stimulus"":""img/green_ll/10.jpg"",""time"":501},{""stimulus"":""img/green_ll/11.jpg"",""time"":550}]","[]"
"image-keyboard-response","172","105870","0.0-5.0-1.84","610940bbdb7795c3be364375","bdp_lott","Mon Mar 27 2023 09:14:32 GMT-0500 (Central Daylight Time)","221382","green","red","","255","","","","choice","","img/green_ll/choose11.jpg","1","141","green","0.5","0.1","0.5","w","",""
"animation","173","106470","0.0-5.0-2.84","610940bbdb7795c3be364375","bdp_lott","Mon Mar 27 2023 09:14:32 GMT-0500 (Central Daylight Time)","221382","green","red","","","","","","","","","","141","","","","","","[{""stimulus"":""img/green_wl/1.jpg"",""time"":51},{""stimulus"":""img/green_wl/2.jpg"",""time"":101},{""stimulus"":""img/green_wl/3.jpg"",""time"":151},{""stimulus"":""img/green_wl/4.jpg"",""time"":202},{""stimulus"":""img/green_wl/5.jpg"",""time"":250},{""stimulus"":""img/green_wl/6.jpg"",""time"":311},{""stimulus"":""img/green_wl/7.jpg"",""time"":351},{""stimulus"":""img/green_wl/8.jpg"",""time"":402},{""stimulus"":""img/green_wl/9.jpg"",""time"":452},{""stimulus"":""img/green_wl/10.jpg"",""time"":501},{""stimulus"":""img/green_wl/11.jpg"",""time"":551}]","[]"
"image-keyboard-response","174","106654","0.0-5.0-1.85","610940bbdb7795c3be364375","bdp_lott","Mon Mar 27 2023 09:14:32 GMT-0500 (Central Daylight Time)","221382","green","red","","183","","","","choice","","img/green_wl/choose11.jpg","1","140","green","0.5","0.1","0.5","w","",""
"animation","175","107255","0.0-5.0-2.85","610940bbdb7795c3be364375","bdp_lott","Mon Mar 27 2023 09:14:32 GMT-0500 (Central Daylight Time)","221382","green","red","","","","","","","","","","140","","","","","","[{""stimulus"":""img/green_wl/1.jpg"",""time"":52},{""stimulus"":""img/green_wl/2.jpg"",""time"":100},{""stimulus"":""img/green_wl/3.jpg"",""time"":151},{""stimulus"":""img/green_wl/4.jpg"",""time"":200},{""stimulus"":""img/green_wl/5.jpg"",""time"":252},{""stimulus"":""img/green_wl/6.jpg"",""time"":302},{""stimulus"":""img/green_wl/7.jpg"",""time"":350},{""stimulus"":""img/green_wl/8.jpg"",""time"":401},{""stimulus"":""img/green_wl/9.jpg"",""time"":450},{""stimulus"":""img/green_wl/10.jpg"",""time"":501},{""stimulus"":""img/green_wl/11.jpg"",""time"":551}]","[]"
"image-keyboard-response","176","107622","0.0-5.0-1.86","610940bbdb7795c3be364375","bdp_lott","Mon Mar 27 2023 09:14:32 GMT-0500 (Central Daylight Time)","221382","green","red","","367","","","","choice","","img/green_wl/choose11.jpg","1","139","green","0.5","0.1","0.5","l","",""
"animation","177","108223","0.0-5.0-2.86","610940bbdb7795c3be364375","bdp_lott","Mon Mar 27 2023 09:14:32 GMT-0500 (Central Daylight Time)","221382","green","red","","","","","","","","","","139","","","","","","[{""stimulus"":""img/green_ll/1.jpg"",""time"":50},{""stimulus"":""img/green_ll/2.jpg"",""time"":100},{""stimulus"":""img/green_ll/3.jpg"",""time"":152},{""stimulus"":""img/green_ll/4.jpg"",""time"":201},{""stimulus"":""img/green_ll/5.jpg"",""time"":250},{""stimulus"":""img/green_ll/6.jpg"",""time"":301},{""stimulus"":""img/green_ll/7.jpg"",""time"":351},{""stimulus"":""img/green_ll/8.jpg"",""time"":401},{""stimulus"":""img/green_ll/9.jpg"",""time"":451},{""stimulus"":""img/green_ll/10.jpg"",""time"":500},{""stimulus"":""img/green_ll/11.jpg"",""time"":550}]","[]"
"image-keyboard-response","178","108574","0.0-5.0-1.87","610940bbdb7795c3be364375","bdp_lott","Mon Mar 27 2023 09:14:32 GMT-0500 (Central Daylight Time)","221382","green","red","","351","","","","choice","","img/green_ll/choose11.jpg","1","138","green","0.5","0.1","0.5","l","",""
"animation","179","109176","0.0-5.0-2.87","610940bbdb7795c3be364375","bdp_lott","Mon Mar 27 2023 09:14:32 GMT-0500 (Central Daylight Time)","221382","green","red","","","","","","","","","","138","","","","","","[{""stimulus"":""img/green_ll/1.jpg"",""time"":51},{""stimulus"":""img/green_ll/2.jpg"",""time"":101},{""stimulus"":""img/green_ll/3.jpg"",""time"":151},{""stimulus"":""img/green_ll/4.jpg"",""time"":201},{""stimulus"":""img/green_ll/5.jpg"",""time"":251},{""stimulus"":""img/green_ll/6.jpg"",""time"":301},{""stimulus"":""img/green_ll/7.jpg"",""time"":351},{""stimulus"":""img/green_ll/8.jpg"",""time"":401},{""stimulus"":""img/green_ll/9.jpg"",""time"":451},{""stimulus"":""img/green_ll/10.jpg"",""time"":502},{""stimulus"":""img/green_ll/11.jpg"",""time"":551}]","[]"
"image-keyboard-response","180","109461","0.0-5.0-1.88","610940bbdb7795c3be364375","bdp_lott","Mon Mar 27 2023 09:14:32 GMT-0500 (Central Daylight Time)","221382","green","red","","285","","","","choice","","img/green_ll/choose11.jpg","1","137","green","0.5","0.1","0.5","w","",""
"animation","181","110062","0.0-5.0-2.88","610940bbdb7795c3be364375","bdp_lott","Mon Mar 27 2023 09:14:32 GMT-0500 (Central Daylight Time)","221382","green","red","","","","","","","","","","137","","","","","","[{""stimulus"":""img/green_wl/1.jpg"",""time"":52},{""stimulus"":""img/green_wl/2.jpg"",""time"":101},{""stimulus"":""img/green_wl/3.jpg"",""time"":152},{""stimulus"":""img/green_wl/4.jpg"",""time"":201},{""stimulus"":""img/green_wl/5.jpg"",""time"":251},{""stimulus"":""img/green_wl/6.jpg"",""time"":301},{""stimulus"":""img/green_wl/7.jpg"",""time"":351},{""stimulus"":""img/green_wl/8.jpg"",""time"":401},{""stimulus"":""img/green_wl/9.jpg"",""time"":451},{""stimulus"":""img/green_wl/10.jpg"",""time"":502},{""stimulus"":""img/green_wl/11.jpg"",""time"":551}]","[]"
"image-keyboard-response","182","110134","0.0-5.0-1.89","610940bbdb7795c3be364375","bdp_lott","Mon Mar 27 2023 09:14:32 GMT-0500 (Central Daylight Time)","221382","green","red","","72","","","","choice","","img/green_wl/choose11.jpg","2","136","red","0.5","0.1","0.1","w","",""
"animation","183","110734","0.0-5.0-2.89","610940bbdb7795c3be364375","bdp_lott","Mon Mar 27 2023 09:14:32 GMT-0500 (Central Daylight Time)","221382","green","red","","","","","","","","","","136","","","","","","[{""stimulus"":""img/red_ww/1.jpg"",""time"":52},{""stimulus"":""img/red_ww/2.jpg"",""time"":102},{""stimulus"":""img/red_ww/3.jpg"",""time"":151},{""stimulus"":""img/red_ww/4.jpg"",""time"":201},{""stimulus"":""img/red_ww/5.jpg"",""time"":251},{""stimulus"":""img/red_ww/6.jpg"",""time"":301},{""stimulus"":""img/red_ww/7.jpg"",""time"":352},{""stimulus"":""img/red_ww/8.jpg"",""time"":401},{""stimulus"":""img/red_ww/9.jpg"",""time"":451},{""stimulus"":""img/red_ww/10.jpg"",""time"":501},{""stimulus"":""img/red_ww/11.jpg"",""time"":551}]","[]"
"image-keyboard-response","184","110878","0.0-5.0-1.90","610940bbdb7795c3be364375","bdp_lott","Mon Mar 27 2023 09:14:32 GMT-0500 (Central Daylight Time)","221382","green","red","","143","","","","choice","","img/red_ww/choose11.jpg","2","135","red","0.5","0.1","0.1","l","",""
"animation","185","111480","0.0-5.0-2.90","610940bbdb7795c3be364375","bdp_lott","Mon Mar 27 2023 09:14:32 GMT-0500 (Central Daylight Time)","221382","green","red","","","","","","","","","","135","","","","","","[{""stimulus"":""img/red_wl/1.jpg"",""time"":51},{""stimulus"":""img/red_wl/2.jpg"",""time"":102},{""stimulus"":""img/red_wl/3.jpg"",""time"":152},{""stimulus"":""img/red_wl/4.jpg"",""time"":202},{""stimulus"":""img/red_wl/5.jpg"",""time"":252},{""stimulus"":""img/red_wl/6.jpg"",""time"":301},{""stimulus"":""img/red_wl/7.jpg"",""time"":351},{""stimulus"":""img/red_wl/8.jpg"",""time"":402},{""stimulus"":""img/red_wl/9.jpg"",""time"":452},{""stimulus"":""img/red_wl/10.jpg"",""time"":501},{""stimulus"":""img/red_wl/11.jpg"",""time"":551}]","[]"
"image-keyboard-response","186","111718","0.0-5.0-1.91","610940bbdb7795c3be364375","bdp_lott","Mon Mar 27 2023 09:14:32 GMT-0500 (Central Daylight Time)","221382","green","red","","238","","","","choice","","img/red_wl/choose11.jpg","2","134","red","0.5","0.1","0.1","l","",""
"animation","187","112319","0.0-5.0-2.91","610940bbdb7795c3be364375","bdp_lott","Mon Mar 27 2023 09:14:32 GMT-0500 (Central Daylight Time)","221382","green","red","","","","","","","","","","134","","","","","","[{""stimulus"":""img/red_wl/1.jpg"",""time"":51},{""stimulus"":""img/red_wl/2.jpg"",""time"":101},{""stimulus"":""img/red_wl/3.jpg"",""time"":151},{""stimulus"":""img/red_wl/4.jpg"",""time"":201},{""stimulus"":""img/red_wl/5.jpg"",""time"":251},{""stimulus"":""img/red_wl/6.jpg"",""time"":302},{""stimulus"":""img/red_wl/7.jpg"",""time"":351},{""stimulus"":""img/red_wl/8.jpg"",""time"":400},{""stimulus"":""img/red_wl/9.jpg"",""time"":450},{""stimulus"":""img/red_wl/10.jpg"",""time"":501},{""stimulus"":""img/red_wl/11.jpg"",""time"":551}]","[]"
"image-keyboard-response","188","112486","0.0-5.0-1.92","610940bbdb7795c3be364375","bdp_lott","Mon Mar 27 2023 09:14:32 GMT-0500 (Central Daylight Time)","221382","green","red","","165","","","","choice","","img/red_wl/choose11.jpg","2","133","red","0.5","0.1","0.1","w","",""
"animation","189","113087","0.0-5.0-2.92","610940bbdb7795c3be364375","bdp_lott","Mon Mar 27 2023 09:14:32 GMT-0500 (Central Daylight Time)","221382","green","red","","","","","","","","","","133","","","","","","[{""stimulus"":""img/red_ww/1.jpg"",""time"":51},{""stimulus"":""img/red_ww/2.jpg"",""time"":100},{""stimulus"":""img/red_ww/3.jpg"",""time"":151},{""stimulus"":""img/red_ww/4.jpg"",""time"":200},{""stimulus"":""img/red_ww/5.jpg"",""time"":250},{""stimulus"":""img/red_ww/6.jpg"",""time"":300},{""stimulus"":""img/red_ww/7.jpg"",""time"":351},{""stimulus"":""img/red_ww/8.jpg"",""time"":400},{""stimulus"":""img/red_ww/9.jpg"",""time"":451},{""stimulus"":""img/red_ww/10.jpg"",""time"":501},{""stimulus"":""img/red_ww/11.jpg"",""time"":551}]","[]"
"image-keyboard-response","190","113230","0.0-5.0-1.93","610940bbdb7795c3be364375","bdp_lott","Mon Mar 27 2023 09:14:32 GMT-0500 (Central Daylight Time)","221382","green","red","","143","","","","choice","","img/red_ww/choose11.jpg","2","132","red","0.5","0.1","0.1","l","",""
"animation","191","113832","0.0-5.0-2.93","610940bbdb7795c3be364375","bdp_lott","Mon Mar 27 2023 09:14:32 GMT-0500 (Central Daylight Time)","221382","green","red","","","","","","","","","","132","","","","","","[{""stimulus"":""img/red_wl/1.jpg"",""time"":51},{""stimulus"":""img/red_wl/2.jpg"",""time"":101},{""stimulus"":""img/red_wl/3.jpg"",""time"":151},{""stimulus"":""img/red_wl/4.jpg"",""time"":201},{""stimulus"":""img/red_wl/5.jpg"",""time"":251},{""stimulus"":""img/red_wl/6.jpg"",""time"":301},{""stimulus"":""img/red_wl/7.jpg"",""time"":351},{""stimulus"":""img/red_wl/8.jpg"",""time"":400},{""stimulus"":""img/red_wl/9.jpg"",""time"":451},{""stimulus"":""img/red_wl/10.jpg"",""time"":501},{""stimulus"":""img/red_wl/11.jpg"",""time"":550}]","[]"
"image-keyboard-response","192","113974","0.0-5.0-1.94","610940bbdb7795c3be364375","bdp_lott","Mon Mar 27 2023 09:14:32 GMT-0500 (Central Daylight Time)","221382","green","red","","142","","","","choice","","img/red_wl/choose11.jpg","2","131","red","0.5","0.1","0.1","w","",""
