"trial_type","trial_index","time_elapsed","internal_node_id","subject_id","task","startTime","totalTime","fairMachine","unfairMachine","view_history","rt","event","trial","time","trialtype","success","stimulus","key_press","roundsLeft","chosen","pFairMachWin","pUnfairMachWin","pTrialWin","outcome","animation_sequence","responses"
"pavlovia","0","13","0.0-0.0","63e5ffdf639ebdcf35aacb09","bdp_lott","Sun Mar 26 2023 20:16:40 GMT+0200 (Central European Summer Time)","303608","green","red","","","","","","","","","","","","","","","","",""
"instructions","1","4258","0.0-1.0","63e5ffdf639ebdcf35aacb09","bdp_lott","Sun Mar 26 2023 20:16:40 GMT+0200 (Central European Summer Time)","303608","green","red","[{""page_index"":0,""viewing_time"":4243}]","4243","","","","","","","","","","","","","","",""
"","","","","63e5ffdf639ebdcf35aacb09","bdp_lott","Sun Mar 26 2023 20:16:40 GMT+0200 (Central European Summer Time)","303608","green","red","","","fullscreenenter","2","8312","fullscreenenter","","","","","","","","","","",""
"fullscreen","2","9244","0.0-2.0","63e5ffdf639ebdcf35aacb09","bdp_lott","Sun Mar 26 2023 20:16:40 GMT+0200 (Central European Summer Time)","303608","green","red","","","","","","","true","","","","","","","","","",""
"instructions","3","89301","0.0-4.0","63e5ffdf639ebdcf35aacb09","bdp_lott","Sun Mar 26 2023 20:16:40 GMT+0200 (Central European Summer Time)","303608","green","red","[{""page_index"":0,""viewing_time"":80055}]","80055","","","","","","","","","","","","","","",""
"image-keyboard-response","4","90901","0.0-5.0-1.0","63e5ffdf639ebdcf35aacb09","bdp_lott","Sun Mar 26 2023 20:16:40 GMT+0200 (Central European Summer Time)","303608","green","red","","1595","","","","choice","","img/red_ll/initchoose11.jpg","1","225","green","0.5","0.5","0.5","w","",""
"animation","5","91504","0.0-5.0-2.0","63e5ffdf639ebdcf35aacb09","bdp_lott","Sun Mar 26 2023 20:16:40 GMT+0200 (Central European Summer Time)","303608","green","red","","","","","","","","","","225","","","","","","[{""stimulus"":""img/green_wl/1.jpg"",""time"":60},{""stimulus"":""img/green_wl/2.jpg"",""time"":108},{""stimulus"":""img/green_wl/3.jpg"",""time"":152},{""stimulus"":""img/green_wl/4.jpg"",""time"":202},{""stimulus"":""img/green_wl/5.jpg"",""time"":252},{""stimulus"":""img/green_wl/6.jpg"",""time"":302},{""stimulus"":""img/green_wl/7.jpg"",""time"":352},{""stimulus"":""img/green_wl/8.jpg"",""time"":409},{""stimulus"":""img/green_wl/9.jpg"",""time"":451},{""stimulus"":""img/green_wl/10.jpg"",""time"":503},{""stimulus"":""img/green_wl/11.jpg"",""time"":552}]","[]"
"image-keyboard-response","6","93684","0.0-5.0-1.1","63e5ffdf639ebdcf35aacb09","bdp_lott","Sun Mar 26 2023 20:16:40 GMT+0200 (Central European Summer Time)","303608","green","red","","2178","","","","choice","","img/green_wl/choose11.jpg","1","224","green","0.5","0.5","0.5","l","",""
"animation","7","94286","0.0-5.0-2.1","63e5ffdf639ebdcf35aacb09","bdp_lott","Sun Mar 26 2023 20:16:40 GMT+0200 (Central European Summer Time)","303608","green","red","","","","","","","","","","224","","","","","","[{""stimulus"":""img/green_ll/1.jpg"",""time"":58},{""stimulus"":""img/green_ll/2.jpg"",""time"":102},{""stimulus"":""img/green_ll/3.jpg"",""time"":152},{""stimulus"":""img/green_ll/4.jpg"",""time"":202},{""stimulus"":""img/green_ll/5.jpg"",""time"":252},{""stimulus"":""img/green_ll/6.jpg"",""time"":303},{""stimulus"":""img/green_ll/7.jpg"",""time"":352},{""stimulus"":""img/green_ll/8.jpg"",""time"":402},{""stimulus"":""img/green_ll/9.jpg"",""time"":452},{""stimulus"":""img/green_ll/10.jpg"",""time"":504},{""stimulus"":""img/green_ll/11.jpg"",""time"":552}]","[]"
"image-keyboard-response","8","96332","0.0-5.0-1.2","63e5ffdf639ebdcf35aacb09","bdp_lott","Sun Mar 26 2023 20:16:40 GMT+0200 (Central European Summer Time)","303608","green","red","","2045","","","","choice","","img/green_ll/choose11.jpg","1","223","green","0.5","0.5","0.5","l","",""
"animation","9","96933","0.0-5.0-2.2","63e5ffdf639ebdcf35aacb09","bdp_lott","Sun Mar 26 2023 20:16:40 GMT+0200 (Central European Summer Time)","303608","green","red","","","","","","","","","","223","","","","","","[{""stimulus"":""img/green_ll/1.jpg"",""time"":61},{""stimulus"":""img/green_ll/2.jpg"",""time"":107},{""stimulus"":""img/green_ll/3.jpg"",""time"":152},{""stimulus"":""img/green_ll/4.jpg"",""time"":203},{""stimulus"":""img/green_ll/5.jpg"",""time"":251},{""stimulus"":""img/green_ll/6.jpg"",""time"":312},{""stimulus"":""img/green_ll/7.jpg"",""time"":352},{""stimulus"":""img/green_ll/8.jpg"",""time"":402},{""stimulus"":""img/green_ll/9.jpg"",""time"":453},{""stimulus"":""img/green_ll/10.jpg"",""time"":501},{""stimulus"":""img/green_ll/11.jpg"",""time"":552}]","[]"
"image-keyboard-response","10","99325","0.0-5.0-1.3","63e5ffdf639ebdcf35aacb09","bdp_lott","Sun Mar 26 2023 20:16:40 GMT+0200 (Central European Summer Time)","303608","green","red","","2390","","","","choice","","img/green_ll/choose11.jpg","1","222","green","0.5","0.5","0.5","l","",""
"animation","11","99927","0.0-5.0-2.3","63e5ffdf639ebdcf35aacb09","bdp_lott","Sun Mar 26 2023 20:16:40 GMT+0200 (Central European Summer Time)","303608","green","red","","","","","","","","","","222","","","","","","[{""stimulus"":""img/green_ll/1.jpg"",""time"":63},{""stimulus"":""img/green_ll/2.jpg"",""time"":103},{""stimulus"":""img/green_ll/3.jpg"",""time"":153},{""stimulus"":""img/green_ll/4.jpg"",""time"":203},{""stimulus"":""img/green_ll/5.jpg"",""time"":252},{""stimulus"":""img/green_ll/6.jpg"",""time"":300},{""stimulus"":""img/green_ll/7.jpg"",""time"":350},{""stimulus"":""img/green_ll/8.jpg"",""time"":400},{""stimulus"":""img/green_ll/9.jpg"",""time"":451},{""stimulus"":""img/green_ll/10.jpg"",""time"":500},{""stimulus"":""img/green_ll/11.jpg"",""time"":551}]","[]"
"image-keyboard-response","12","102180","0.0-5.0-1.4","63e5ffdf639ebdcf35aacb09","bdp_lott","Sun Mar 26 2023 20:16:40 GMT+0200 (Central European Summer Time)","303608","green","red","","2252","","","","choice","","img/green_ll/choose11.jpg","2","221","red","0.5","0.5","0.5","l","",""
"animation","13","102782","0.0-5.0-2.4","63e5ffdf639ebdcf35aacb09","bdp_lott","Sun Mar 26 2023 20:16:40 GMT+0200 (Central European Summer Time)","303608","green","red","","","","","","","","","","221","","","","","","[{""stimulus"":""img/red_ll/1.jpg"",""time"":60},{""stimulus"":""img/red_ll/2.jpg"",""time"":108},{""stimulus"":""img/red_ll/3.jpg"",""time"":152},{""stimulus"":""img/red_ll/4.jpg"",""time"":203},{""stimulus"":""img/red_ll/5.jpg"",""time"":252},{""stimulus"":""img/red_ll/6.jpg"",""time"":302},{""stimulus"":""img/red_ll/7.jpg"",""time"":352},{""stimulus"":""img/red_ll/8.jpg"",""time"":402},{""stimulus"":""img/red_ll/9.jpg"",""time"":452},{""stimulus"":""img/red_ll/10.jpg"",""time"":505},{""stimulus"":""img/red_ll/11.jpg"",""time"":553}]","[]"
"image-keyboard-response","14","103956","0.0-5.0-1.5","63e5ffdf639ebdcf35aacb09","bdp_lott","Sun Mar 26 2023 20:16:40 GMT+0200 (Central European Summer Time)","303608","green","red","","1173","","","","choice","","img/red_ll/choose11.jpg","2","220","red","0.5","0.5","0.5","l","",""
"animation","15","104558","0.0-5.0-2.5","63e5ffdf639ebdcf35aacb09","bdp_lott","Sun Mar 26 2023 20:16:40 GMT+0200 (Central European Summer Time)","303608","green","red","","","","","","","","","","220","","","","","","[{""stimulus"":""img/red_ll/1.jpg"",""time"":61},{""stimulus"":""img/red_ll/2.jpg"",""time"":102},{""stimulus"":""img/red_ll/3.jpg"",""time"":152},{""stimulus"":""img/red_ll/4.jpg"",""time"":201},{""stimulus"":""img/red_ll/5.jpg"",""time"":251},{""stimulus"":""img/red_ll/6.jpg"",""time"":314},{""stimulus"":""img/red_ll/7.jpg"",""time"":352},{""stimulus"":""img/red_ll/8.jpg"",""time"":401},{""stimulus"":""img/red_ll/9.jpg"",""time"":452},{""stimulus"":""img/red_ll/10.jpg"",""time"":504},{""stimulus"":""img/red_ll/11.jpg"",""time"":552}]","[]"
"image-keyboard-response","16","105181","0.0-5.0-1.6","63e5ffdf639ebdcf35aacb09","bdp_lott","Sun Mar 26 2023 20:16:40 GMT+0200 (Central European Summer Time)","303608","green","red","","622","","","","choice","","img/red_ll/choose11.jpg","2","219","red","0.5","0.5","0.5","l","",""
"animation","17","105783","0.0-5.0-2.6","63e5ffdf639ebdcf35aacb09","bdp_lott","Sun Mar 26 2023 20:16:40 GMT+0200 (Central European Summer Time)","303608","green","red","","","","","","","","","","219","","","","","","[{""stimulus"":""img/red_ll/1.jpg"",""time"":57},{""stimulus"":""img/red_ll/2.jpg"",""time"":104},{""stimulus"":""img/red_ll/3.jpg"",""time"":152},{""stimulus"":""img/red_ll/4.jpg"",""time"":202},{""stimulus"":""img/red_ll/5.jpg"",""time"":251},{""stimulus"":""img/red_ll/6.jpg"",""time"":302},{""stimulus"":""img/red_ll/7.jpg"",""time"":352},{""stimulus"":""img/red_ll/8.jpg"",""time"":402},{""stimulus"":""img/red_ll/9.jpg"",""time"":452},{""stimulus"":""img/red_ll/10.jpg"",""time"":515},{""stimulus"":""img/red_ll/11.jpg"",""time"":552}]","[]"
"image-keyboard-response","18","106516","0.0-5.0-1.7","63e5ffdf639ebdcf35aacb09","bdp_lott","Sun Mar 26 2023 20:16:40 GMT+0200 (Central European Summer Time)","303608","green","red","","732","","","","choice","","img/red_ll/choose11.jpg","2","218","red","0.5","0.5","0.5","l","",""
"animation","19","107117","0.0-5.0-2.7","63e5ffdf639ebdcf35aacb09","bdp_lott","Sun Mar 26 2023 20:16:40 GMT+0200 (Central European Summer Time)","303608","green","red","","","","","","","","","","218","","","","","","[{""stimulus"":""img/red_ll/1.jpg"",""time"":66},{""stimulus"":""img/red_ll/2.jpg"",""time"":101},{""stimulus"":""img/red_ll/3.jpg"",""time"":152},{""stimulus"":""img/red_ll/4.jpg"",""time"":201},{""stimulus"":""img/red_ll/5.jpg"",""time"":251},{""stimulus"":""img/red_ll/6.jpg"",""time"":301},{""stimulus"":""img/red_ll/7.jpg"",""time"":351},{""stimulus"":""img/red_ll/8.jpg"",""time"":401},{""stimulus"":""img/red_ll/9.jpg"",""time"":451},{""stimulus"":""img/red_ll/10.jpg"",""time"":511},{""stimulus"":""img/red_ll/11.jpg"",""time"":551}]","[]"
"image-keyboard-response","20","108044","0.0-5.0-1.8","63e5ffdf639ebdcf35aacb09","bdp_lott","Sun Mar 26 2023 20:16:40 GMT+0200 (Central European Summer Time)","303608","green","red","","926","","","","choice","","img/red_ll/choose11.jpg","1","217","green","0.5","0.5","0.5","l","",""
"animation","21","108645","0.0-5.0-2.8","63e5ffdf639ebdcf35aacb09","bdp_lott","Sun Mar 26 2023 20:16:40 GMT+0200 (Central European Summer Time)","303608","green","red","","","","","","","","","","217","","","","","","[{""stimulus"":""img/green_ll/1.jpg"",""time"":66},{""stimulus"":""img/green_ll/2.jpg"",""time"":101},{""stimulus"":""img/green_ll/3.jpg"",""time"":151},{""stimulus"":""img/green_ll/4.jpg"",""time"":209},{""stimulus"":""img/green_ll/5.jpg"",""time"":255},{""stimulus"":""img/green_ll/6.jpg"",""time"":302},{""stimulus"":""img/green_ll/7.jpg"",""time"":352},{""stimulus"":""img/green_ll/8.jpg"",""time"":402},{""stimulus"":""img/green_ll/9.jpg"",""time"":452},{""stimulus"":""img/green_ll/10.jpg"",""time"":501},{""stimulus"":""img/green_ll/11.jpg"",""time"":550}]","[]"
"image-keyboard-response","22","109485","0.0-5.0-1.9","63e5ffdf639ebdcf35aacb09","bdp_lott","Sun Mar 26 2023 20:16:40 GMT+0200 (Central European Summer Time)","303608","green","red","","839","","","","choice","","img/green_ll/choose11.jpg","1","216","green","0.5","0.5","0.5","l","",""
"animation","23","110093","0.0-5.0-2.9","63e5ffdf639ebdcf35aacb09","bdp_lott","Sun Mar 26 2023 20:16:40 GMT+0200 (Central European Summer Time)","303608","green","red","","","","","","","","","","216","","","","","","[{""stimulus"":""img/green_ll/1.jpg"",""time"":53},{""stimulus"":""img/green_ll/2.jpg"",""time"":117},{""stimulus"":""img/green_ll/3.jpg"",""time"":152},{""stimulus"":""img/green_ll/4.jpg"",""time"":202},{""stimulus"":""img/green_ll/5.jpg"",""time"":259},{""stimulus"":""img/green_ll/6.jpg"",""time"":302},{""stimulus"":""img/green_ll/7.jpg"",""time"":352},{""stimulus"":""img/green_ll/8.jpg"",""time"":401},{""stimulus"":""img/green_ll/9.jpg"",""time"":451},{""stimulus"":""img/green_ll/10.jpg"",""time"":513},{""stimulus"":""img/green_ll/11.jpg"",""time"":551}]","[]"
"image-keyboard-response","24","110652","0.0-5.0-1.10","63e5ffdf639ebdcf35aacb09","bdp_lott","Sun Mar 26 2023 20:16:40 GMT+0200 (Central European Summer Time)","303608","green","red","","558","","","","choice","","img/green_ll/choose11.jpg","1","215","green","0.5","0.5","0.5","w","",""
"animation","25","111254","0.0-5.0-2.10","63e5ffdf639ebdcf35aacb09","bdp_lott","Sun Mar 26 2023 20:16:40 GMT+0200 (Central European Summer Time)","303608","green","red","","","","","","","","","","215","","","","","","[{""stimulus"":""img/green_wl/1.jpg"",""time"":59},{""stimulus"":""img/green_wl/2.jpg"",""time"":102},{""stimulus"":""img/green_wl/3.jpg"",""time"":151},{""stimulus"":""img/green_wl/4.jpg"",""time"":201},{""stimulus"":""img/green_wl/5.jpg"",""time"":265},{""stimulus"":""img/green_wl/6.jpg"",""time"":301},{""stimulus"":""img/green_wl/7.jpg"",""time"":351},{""stimulus"":""img/green_wl/8.jpg"",""time"":401},{""stimulus"":""img/green_wl/9.jpg"",""time"":452},{""stimulus"":""img/green_wl/10.jpg"",""time"":501},{""stimulus"":""img/green_wl/11.jpg"",""time"":551}]","[]"
"image-keyboard-response","26","112069","0.0-5.0-1.11","63e5ffdf639ebdcf35aacb09","bdp_lott","Sun Mar 26 2023 20:16:40 GMT+0200 (Central European Summer Time)","303608","green","red","","814","","","","choice","","img/green_wl/choose11.jpg","1","214","green","0.5","0.5","0.5","w","",""
"animation","27","112671","0.0-5.0-2.11","63e5ffdf639ebdcf35aacb09","bdp_lott","Sun Mar 26 2023 20:16:40 GMT+0200 (Central European Summer Time)","303608","green","red","","","","","","","","","","214","","","","","","[{""stimulus"":""img/green_wl/1.jpg"",""time"":60},{""stimulus"":""img/green_wl/2.jpg"",""time"":102},{""stimulus"":""img/green_wl/3.jpg"",""time"":154},{""stimulus"":""img/green_wl/4.jpg"",""time"":202},{""stimulus"":""img/green_wl/5.jpg"",""time"":265},{""stimulus"":""img/green_wl/6.jpg"",""time"":301},{""stimulus"":""img/green_wl/7.jpg"",""time"":351},{""stimulus"":""img/green_wl/8.jpg"",""time"":401},{""stimulus"":""img/green_wl/9.jpg"",""time"":451},{""stimulus"":""img/green_wl/10.jpg"",""time"":501},{""stimulus"":""img/green_wl/11.jpg"",""time"":551}]","[]"
"image-keyboard-response","28","113445","0.0-5.0-1.12","63e5ffdf639ebdcf35aacb09","bdp_lott","Sun Mar 26 2023 20:16:40 GMT+0200 (Central European Summer Time)","303608","green","red","","772","","","","choice","","img/green_wl/choose11.jpg","1","213","green","0.5","0.5","0.5","w","",""
"animation","29","114046","0.0-5.0-2.12","63e5ffdf639ebdcf35aacb09","bdp_lott","Sun Mar 26 2023 20:16:40 GMT+0200 (Central European Summer Time)","303608","green","red","","","","","","","","","","213","","","","","","[{""stimulus"":""img/green_wl/1.jpg"",""time"":57},{""stimulus"":""img/green_wl/2.jpg"",""time"":102},{""stimulus"":""img/green_wl/3.jpg"",""time"":153},{""stimulus"":""img/green_wl/4.jpg"",""time"":203},{""stimulus"":""img/green_wl/5.jpg"",""time"":265},{""stimulus"":""img/green_wl/6.jpg"",""time"":301},{""stimulus"":""img/green_wl/7.jpg"",""time"":351},{""stimulus"":""img/green_wl/8.jpg"",""time"":402},{""stimulus"":""img/green_wl/9.jpg"",""time"":452},{""stimulus"":""img/green_wl/10.jpg"",""time"":504},{""stimulus"":""img/green_wl/11.jpg"",""time"":552}]","[]"
"image-keyboard-response","30","114772","0.0-5.0-1.13","63e5ffdf639ebdcf35aacb09","bdp_lott","Sun Mar 26 2023 20:16:40 GMT+0200 (Central European Summer Time)","303608","green","red","","724","","","","choice","","img/green_wl/choose11.jpg","1","212","green","0.5","0.5","0.5","l","",""
"animation","31","115377","0.0-5.0-2.13","63e5ffdf639ebdcf35aacb09","bdp_lott","Sun Mar 26 2023 20:16:40 GMT+0200 (Central European Summer Time)","303608","green","red","","","","","","","","","","212","","","","","","[{""stimulus"":""img/green_ll/1.jpg"",""time"":65},{""stimulus"":""img/green_ll/2.jpg"",""time"":105},{""stimulus"":""img/green_ll/3.jpg"",""time"":155},{""stimulus"":""img/green_ll/4.jpg"",""time"":203},{""stimulus"":""img/green_ll/5.jpg"",""time"":251},{""stimulus"":""img/green_ll/6.jpg"",""time"":301},{""stimulus"":""img/green_ll/7.jpg"",""time"":351},{""stimulus"":""img/green_ll/8.jpg"",""time"":401},{""stimulus"":""img/green_ll/9.jpg"",""time"":451},{""stimulus"":""img/green_ll/10.jpg"",""time"":515},{""stimulus"":""img/green_ll/11.jpg"",""time"":554}]","[]"
"image-keyboard-response","32","116772","0.0-5.0-1.14","63e5ffdf639ebdcf35aacb09","bdp_lott","Sun Mar 26 2023 20:16:40 GMT+0200 (Central European Summer Time)","303608","green","red","","1394","","","","choice","","img/green_ll/choose11.jpg","1","211","green","0.5","0.5","0.5","l","",""
"animation","33","117374","0.0-5.0-2.14","63e5ffdf639ebdcf35aacb09","bdp_lott","Sun Mar 26 2023 20:16:40 GMT+0200 (Central European Summer Time)","303608","green","red","","","","","","","","","","211","","","","","","[{""stimulus"":""img/green_ll/1.jpg"",""time"":59},{""stimulus"":""img/green_ll/2.jpg"",""time"":106},{""stimulus"":""img/green_ll/3.jpg"",""time"":154},{""stimulus"":""img/green_ll/4.jpg"",""time"":202},{""stimulus"":""img/green_ll/5.jpg"",""time"":251},{""stimulus"":""img/green_ll/6.jpg"",""time"":301},{""stimulus"":""img/green_ll/7.jpg"",""time"":351},{""stimulus"":""img/green_ll/8.jpg"",""time"":401},{""stimulus"":""img/green_ll/9.jpg"",""time"":451},{""stimulus"":""img/green_ll/10.jpg"",""time"":501},{""stimulus"":""img/green_ll/11.jpg"",""time"":553}]","[]"
"image-keyboard-response","34","117909","0.0-5.0-1.15","63e5ffdf639ebdcf35aacb09","bdp_lott","Sun Mar 26 2023 20:16:40 GMT+0200 (Central European Summer Time)","303608","green","red","","532","","","","choice","","img/green_ll/choose11.jpg","2","210","red","0.5","0.5","0.5","l","",""
"animation","35","118517","0.0-5.0-2.15","63e5ffdf639ebdcf35aacb09","bdp_lott","Sun Mar 26 2023 20:16:40 GMT+0200 (Central European Summer Time)","303608","green","red","","","","","","","","","","210","","","","","","[{""stimulus"":""img/red_ll/1.jpg"",""time"":54},{""stimulus"":""img/red_ll/2.jpg"",""time"":102},{""stimulus"":""img/red_ll/3.jpg"",""time"":152},{""stimulus"":""img/red_ll/4.jpg"",""time"":202},{""stimulus"":""img/red_ll/5.jpg"",""time"":251},{""stimulus"":""img/red_ll/6.jpg"",""time"":301},{""stimulus"":""img/red_ll/7.jpg"",""time"":352},{""stimulus"":""img/red_ll/8.jpg"",""time"":401},{""stimulus"":""img/red_ll/9.jpg"",""time"":451},{""stimulus"":""img/red_ll/10.jpg"",""time"":501},{""stimulus"":""img/red_ll/11.jpg"",""time"":551}]","[]"
"image-keyboard-response","36","118925","0.0-5.0-1.16","63e5ffdf639ebdcf35aacb09","bdp_lott","Sun Mar 26 2023 20:16:40 GMT+0200 (Central European Summer Time)","303608","green","red","","406","","","","choice","","img/red_ll/choose11.jpg","2","209","red","0.5","0.5","0.5","l","",""
"animation","37","119527","0.0-5.0-2.16","63e5ffdf639ebdcf35aacb09","bdp_lott","Sun Mar 26 2023 20:16:40 GMT+0200 (Central European Summer Time)","303608","green","red","","","","","","","","","","209","","","","","","[{""stimulus"":""img/red_ll/1.jpg"",""time"":53},{""stimulus"":""img/red_ll/2.jpg"",""time"":102},{""stimulus"":""img/red_ll/3.jpg"",""time"":152},{""stimulus"":""img/red_ll/4.jpg"",""time"":202},{""stimulus"":""img/red_ll/5.jpg"",""time"":252},{""stimulus"":""img/red_ll/6.jpg"",""time"":302},{""stimulus"":""img/red_ll/7.jpg"",""time"":352},{""stimulus"":""img/red_ll/8.jpg"",""time"":402},{""stimulus"":""img/red_ll/9.jpg"",""time"":452},{""stimulus"":""img/red_ll/10.jpg"",""time"":512},{""stimulus"":""img/red_ll/11.jpg"",""time"":552}]","[]"
"image-keyboard-response","38","120189","0.0-5.0-1.17","63e5ffdf639ebdcf35aacb09","bdp_lott","Sun Mar 26 2023 20:16:40 GMT+0200 (Central European Summer Time)","303608","green","red","","661","","","","choice","","img/red_ll/choose11.jpg","2","208","red","0.5","0.5","0.5","l","",""
"animation","39","120793","0.0-5.0-2.17","63e5ffdf639ebdcf35aacb09","bdp_lott","Sun Mar 26 2023 20:16:40 GMT+0200 (Central European Summer Time)","303608","green","red","","","","","","","","","","208","","","","","","[{""stimulus"":""img/red_ll/1.jpg"",""time"":67},{""stimulus"":""img/red_ll/2.jpg"",""time"":105},{""stimulus"":""img/red_ll/3.jpg"",""time"":152},{""stimulus"":""img/red_ll/4.jpg"",""time"":208},{""stimulus"":""img/red_ll/5.jpg"",""time"":253},{""stimulus"":""img/red_ll/6.jpg"",""time"":304},{""stimulus"":""img/red_ll/7.jpg"",""time"":368},{""stimulus"":""img/red_ll/8.jpg"",""time"":405},{""stimulus"":""img/red_ll/9.jpg"",""time"":455},{""stimulus"":""img/red_ll/10.jpg"",""time"":505},{""stimulus"":""img/red_ll/11.jpg"",""time"":555}]","[]"
"image-keyboard-response","40","121557","0.0-5.0-1.18","63e5ffdf639ebdcf35aacb09","bdp_lott","Sun Mar 26 2023 20:16:40 GMT+0200 (Central European Summer Time)","303608","green","red","","762","","","","choice","","img/red_ll/choose11.jpg","2","207","red","0.5","0.5","0.5","w","",""
"animation","41","122158","0.0-5.0-2.18","63e5ffdf639ebdcf35aacb09","bdp_lott","Sun Mar 26 2023 20:16:40 GMT+0200 (Central European Summer Time)","303608","green","red","","","","","","","","","","207","","","","","","[{""stimulus"":""img/red_lw/1.jpg"",""time"":61},{""stimulus"":""img/red_lw/2.jpg"",""time"":104},{""stimulus"":""img/red_lw/3.jpg"",""time"":153},{""stimulus"":""img/red_lw/4.jpg"",""time"":203},{""stimulus"":""img/red_lw/5.jpg"",""time"":252},{""stimulus"":""img/red_lw/6.jpg"",""time"":302},{""stimulus"":""img/red_lw/7.jpg"",""time"":352},{""stimulus"":""img/red_lw/8.jpg"",""time"":410},{""stimulus"":""img/red_lw/9.jpg"",""time"":454},{""stimulus"":""img/red_lw/10.jpg"",""time"":503},{""stimulus"":""img/red_lw/11.jpg"",""time"":554}]","[]"
"image-keyboard-response","42","123885","0.0-5.0-1.19","63e5ffdf639ebdcf35aacb09","bdp_lott","Sun Mar 26 2023 20:16:40 GMT+0200 (Central European Summer Time)","303608","green","red","","1726","","","","choice","","img/red_lw/choose11.jpg","2","206","red","0.5","0.5","0.5","l","",""
"animation","43","124487","0.0-5.0-2.19","63e5ffdf639ebdcf35aacb09","bdp_lott","Sun Mar 26 2023 20:16:40 GMT+0200 (Central European Summer Time)","303608","green","red","","","","","","","","","","206","","","","","","[{""stimulus"":""img/red_ll/1.jpg"",""time"":59},{""stimulus"":""img/red_ll/2.jpg"",""time"":101},{""stimulus"":""img/red_ll/3.jpg"",""time"":154},{""stimulus"":""img/red_ll/4.jpg"",""time"":201},{""stimulus"":""img/red_ll/5.jpg"",""time"":266},{""stimulus"":""img/red_ll/6.jpg"",""time"":302},{""stimulus"":""img/red_ll/7.jpg"",""time"":352},{""stimulus"":""img/red_ll/8.jpg"",""time"":402},{""stimulus"":""img/red_ll/9.jpg"",""time"":452},{""stimulus"":""img/red_ll/10.jpg"",""time"":502},{""stimulus"":""img/red_ll/11.jpg"",""time"":552}]","[]"
"image-keyboard-response","44","124845","0.0-5.0-1.20","63e5ffdf639ebdcf35aacb09","bdp_lott","Sun Mar 26 2023 20:16:40 GMT+0200 (Central European Summer Time)","303608","green","red","","357","","","","choice","","img/red_ll/choose11.jpg","2","205","red","0.5","0.5","0.5","w","",""
"animation","45","125446","0.0-5.0-2.20","63e5ffdf639ebdcf35aacb09","bdp_lott","Sun Mar 26 2023 20:16:40 GMT+0200 (Central European Summer Time)","303608","green","red","","","","","","","","","","205","","","","","","[{""stimulus"":""img/red_lw/1.jpg"",""time"":65},{""stimulus"":""img/red_lw/2.jpg"",""time"":102},{""stimulus"":""img/red_lw/3.jpg"",""time"":152},{""stimulus"":""img/red_lw/4.jpg"",""time"":210},{""stimulus"":""img/red_lw/5.jpg"",""time"":251},{""stimulus"":""img/red_lw/6.jpg"",""time"":301},{""stimulus"":""img/red_lw/7.jpg"",""time"":351},{""stimulus"":""img/red_lw/8.jpg"",""time"":401},{""stimulus"":""img/red_lw/9.jpg"",""time"":451},{""stimulus"":""img/red_lw/10.jpg"",""time"":501},{""stimulus"":""img/red_lw/11.jpg"",""time"":552}]","[]"
"image-keyboard-response","46","126213","0.0-5.0-1.21","63e5ffdf639ebdcf35aacb09","bdp_lott","Sun Mar 26 2023 20:16:40 GMT+0200 (Central European Summer Time)","303608","green","red","","766","","","","choice","","img/red_lw/choose11.jpg","2","204","red","0.5","0.5","0.5","l","",""
"animation","47","126814","0.0-5.0-2.21","63e5ffdf639ebdcf35aacb09","bdp_lott","Sun Mar 26 2023 20:16:40 GMT+0200 (Central European Summer Time)","303608","green","red","","","","","","","","","","204","","","","","","[{""stimulus"":""img/red_ll/1.jpg"",""time"":64},{""stimulus"":""img/red_ll/2.jpg"",""time"":101},{""stimulus"":""img/red_ll/3.jpg"",""time"":152},{""stimulus"":""img/red_ll/4.jpg"",""time"":202},{""stimulus"":""img/red_ll/5.jpg"",""time"":252},{""stimulus"":""img/red_ll/6.jpg"",""time"":302},{""stimulus"":""img/red_ll/7.jpg"",""time"":368},{""stimulus"":""img/red_ll/8.jpg"",""time"":402},{""stimulus"":""img/red_ll/9.jpg"",""time"":452},{""stimulus"":""img/red_ll/10.jpg"",""time"":510},{""stimulus"":""img/red_ll/11.jpg"",""time"":551}]","[]"
"image-keyboard-response","48","127165","0.0-5.0-1.22","63e5ffdf639ebdcf35aacb09","bdp_lott","Sun Mar 26 2023 20:16:40 GMT+0200 (Central European Summer Time)","303608","green","red","","349","","","","choice","","img/red_ll/choose11.jpg","2","203","red","0.5","0.5","0.5","l","",""
"animation","49","127780","0.0-5.0-2.22","63e5ffdf639ebdcf35aacb09","bdp_lott","Sun Mar 26 2023 20:16:40 GMT+0200 (Central European Summer Time)","303608","green","red","","","","","","","","","","203","","","","","","[{""stimulus"":""img/red_ll/1.jpg"",""time"":65},{""stimulus"":""img/red_ll/2.jpg"",""time"":101},{""stimulus"":""img/red_ll/3.jpg"",""time"":152},{""stimulus"":""img/red_ll/4.jpg"",""time"":202},{""stimulus"":""img/red_ll/5.jpg"",""time"":251},{""stimulus"":""img/red_ll/6.jpg"",""time"":302},{""stimulus"":""img/red_ll/7.jpg"",""time"":365},{""stimulus"":""img/red_ll/8.jpg"",""time"":410},{""stimulus"":""img/red_ll/9.jpg"",""time"":452},{""stimulus"":""img/red_ll/10.jpg"",""time"":501},{""stimulus"":""img/red_ll/11.jpg"",""time"":552}]","[]"
"image-keyboard-response","50","127949","0.0-5.0-1.23","63e5ffdf639ebdcf35aacb09","bdp_lott","Sun Mar 26 2023 20:16:40 GMT+0200 (Central European Summer Time)","303608","green","red","","168","","","","choice","","img/red_ll/choose11.jpg","2","202","red","0.5","0.5","0.5","w","",""
"animation","51","128550","0.0-5.0-2.23","63e5ffdf639ebdcf35aacb09","bdp_lott","Sun Mar 26 2023 20:16:40 GMT+0200 (Central European Summer Time)","303608","green","red","","","","","","","","","","202","","","","","","[{""stimulus"":""img/red_lw/1.jpg"",""time"":56},{""stimulus"":""img/red_lw/2.jpg"",""time"":102},{""stimulus"":""img/red_lw/3.jpg"",""time"":152},{""stimulus"":""img/red_lw/4.jpg"",""time"":202},{""stimulus"":""img/red_lw/5.jpg"",""time"":259},{""stimulus"":""img/red_lw/6.jpg"",""time"":302},{""stimulus"":""img/red_lw/7.jpg"",""time"":352},{""stimulus"":""img/red_lw/8.jpg"",""time"":417},{""stimulus"":""img/red_lw/9.jpg"",""time"":452},{""stimulus"":""img/red_lw/10.jpg"",""time"":501},{""stimulus"":""img/red_lw/11.jpg"",""time"":552}]","[]"
"image-keyboard-response","52","129478","0.0-5.0-1.24","63e5ffdf639ebdcf35aacb09","bdp_lott","Sun Mar 26 2023 20:16:40 GMT+0200 (Central European Summer Time)","303608","green","red","","927","","","","choice","","img/red_lw/choose11.jpg","2","201","red","0.5","0.5","0.5","w","",""
"animation","53","130093","0.0-5.0-2.24","63e5ffdf639ebdcf35aacb09","bdp_lott","Sun Mar 26 2023 20:16:40 GMT+0200 (Central European Summer Time)","303608","green","red","","","","","","","","","","201","","","","","","[{""stimulus"":""img/red_lw/1.jpg"",""time"":61},{""stimulus"":""img/red_lw/2.jpg"",""time"":101},{""stimulus"":""img/red_lw/3.jpg"",""time"":152},{""stimulus"":""img/red_lw/4.jpg"",""time"":202},{""stimulus"":""img/red_lw/5.jpg"",""time"":266},{""stimulus"":""img/red_lw/6.jpg"",""time"":314},{""stimulus"":""img/red_lw/7.jpg"",""time"":352},{""stimulus"":""img/red_lw/8.jpg"",""time"":403},{""stimulus"":""img/red_lw/9.jpg"",""time"":452},{""stimulus"":""img/red_lw/10.jpg"",""time"":501},{""stimulus"":""img/red_lw/11.jpg"",""time"":552}]","[]"
"image-keyboard-response","54","130591","0.0-5.0-1.25","63e5ffdf639ebdcf35aacb09","bdp_lott","Sun Mar 26 2023 20:16:40 GMT+0200 (Central European Summer Time)","303608","green","red","","495","","","","choice","","img/red_lw/choose11.jpg","2","200","red","0.5","0.5","0.5","w","",""
"animation","55","131192","0.0-5.0-2.25","63e5ffdf639ebdcf35aacb09","bdp_lott","Sun Mar 26 2023 20:16:40 GMT+0200 (Central European Summer Time)","303608","green","red","","","","","","","","","","200","","","","","","[{""stimulus"":""img/red_lw/1.jpg"",""time"":63},{""stimulus"":""img/red_lw/2.jpg"",""time"":101},{""stimulus"":""img/red_lw/3.jpg"",""time"":151},{""stimulus"":""img/red_lw/4.jpg"",""time"":202},{""stimulus"":""img/red_lw/5.jpg"",""time"":251},{""stimulus"":""img/red_lw/6.jpg"",""time"":301},{""stimulus"":""img/red_lw/7.jpg"",""time"":351},{""stimulus"":""img/red_lw/8.jpg"",""time"":401},{""stimulus"":""img/red_lw/9.jpg"",""time"":451},{""stimulus"":""img/red_lw/10.jpg"",""time"":501},{""stimulus"":""img/red_lw/11.jpg"",""time"":551}]","[]"
"image-keyboard-response","56","131637","0.0-5.0-1.26","63e5ffdf639ebdcf35aacb09","bdp_lott","Sun Mar 26 2023 20:16:40 GMT+0200 (Central European Summer Time)","303608","green","red","","444","","","","choice","","img/red_lw/choose11.jpg","2","199","red","0.5","0.5","0.5","w","",""
"animation","57","132238","0.0-5.0-2.26","63e5ffdf639ebdcf35aacb09","bdp_lott","Sun Mar 26 2023 20:16:40 GMT+0200 (Central European Summer Time)","303608","green","red","","","","","","","","","","199","","","","","","[{""stimulus"":""img/red_lw/1.jpg"",""time"":59},{""stimulus"":""img/red_lw/2.jpg"",""time"":106},{""stimulus"":""img/red_lw/3.jpg"",""time"":153},{""stimulus"":""img/red_lw/4.jpg"",""time"":208},{""stimulus"":""img/red_lw/5.jpg"",""time"":263},{""stimulus"":""img/red_lw/6.jpg"",""time"":302},{""stimulus"":""img/red_lw/7.jpg"",""time"":359},{""stimulus"":""img/red_lw/8.jpg"",""time"":406},{""stimulus"":""img/red_lw/9.jpg"",""time"":451},{""stimulus"":""img/red_lw/10.jpg"",""time"":515},{""stimulus"":""img/red_lw/11.jpg"",""time"":551}]","[]"
"image-keyboard-response","58","132669","0.0-5.0-1.27","63e5ffdf639ebdcf35aacb09","bdp_lott","Sun Mar 26 2023 20:16:40 GMT+0200 (Central European Summer Time)","303608","green","red","","429","","","","choice","","img/red_lw/choose11.jpg","2","198","red","0.5","0.5","0.5","w","",""
"animation","59","133271","0.0-5.0-2.27","63e5ffdf639ebdcf35aacb09","bdp_lott","Sun Mar 26 2023 20:16:40 GMT+0200 (Central European Summer Time)","303608","green","red","","","","","","","","","","198","","","","","","[{""stimulus"":""img/red_lw/1.jpg"",""time"":52},{""stimulus"":""img/red_lw/2.jpg"",""time"":115},{""stimulus"":""img/red_lw/3.jpg"",""time"":153},{""stimulus"":""img/red_lw/4.jpg"",""time"":202},{""stimulus"":""img/red_lw/5.jpg"",""time"":252},{""stimulus"":""img/red_lw/6.jpg"",""time"":306},{""stimulus"":""img/red_lw/7.jpg"",""time"":353},{""stimulus"":""img/red_lw/8.jpg"",""time"":403},{""stimulus"":""img/red_lw/9.jpg"",""time"":453},{""stimulus"":""img/red_lw/10.jpg"",""time"":501},{""stimulus"":""img/red_lw/11.jpg"",""time"":552}]","[]"
"image-keyboard-response","60","133781","0.0-5.0-1.28","63e5ffdf639ebdcf35aacb09","bdp_lott","Sun Mar 26 2023 20:16:40 GMT+0200 (Central European Summer Time)","303608","green","red","","509","","","","choice","","img/red_lw/choose11.jpg","2","197","red","0.5","0.5","0.5","w","",""
"animation","61","134382","0.0-5.0-2.28","63e5ffdf639ebdcf35aacb09","bdp_lott","Sun Mar 26 2023 20:16:40 GMT+0200 (Central European Summer Time)","303608","green","red","","","","","","","","","","197","","","","","","[{""stimulus"":""img/red_lw/1.jpg"",""time"":53},{""stimulus"":""img/red_lw/2.jpg"",""time"":116},{""stimulus"":""img/red_lw/3.jpg"",""time"":152},{""stimulus"":""img/red_lw/4.jpg"",""time"":202},{""stimulus"":""img/red_lw/5.jpg"",""time"":252},{""stimulus"":""img/red_lw/6.jpg"",""time"":302},{""stimulus"":""img/red_lw/7.jpg"",""time"":352},{""stimulus"":""img/red_lw/8.jpg"",""time"":402},{""stimulus"":""img/red_lw/9.jpg"",""time"":451},{""stimulus"":""img/red_lw/10.jpg"",""time"":501},{""stimulus"":""img/red_lw/11.jpg"",""time"":559}]","[]"
"image-keyboard-response","62","134765","0.0-5.0-1.29","63e5ffdf639ebdcf35aacb09","bdp_lott","Sun Mar 26 2023 20:16:40 GMT+0200 (Central European Summer Time)","303608","green","red","","382","","","","choice","","img/red_lw/choose11.jpg","2","196","red","0.5","0.5","0.5","l","",""
"animation","63","135366","0.0-5.0-2.29","63e5ffdf639ebdcf35aacb09","bdp_lott","Sun Mar 26 2023 20:16:40 GMT+0200 (Central European Summer Time)","303608","green","red","","","","","","","","","","196","","","","","","[{""stimulus"":""img/red_ll/1.jpg"",""time"":65},{""stimulus"":""img/red_ll/2.jpg"",""time"":101},{""stimulus"":""img/red_ll/3.jpg"",""time"":161},{""stimulus"":""img/red_ll/4.jpg"",""time"":203},{""stimulus"":""img/red_ll/5.jpg"",""time"":255},{""stimulus"":""img/red_ll/6.jpg"",""time"":302},{""stimulus"":""img/red_ll/7.jpg"",""time"":352},{""stimulus"":""img/red_ll/8.jpg"",""time"":402},{""stimulus"":""img/red_ll/9.jpg"",""time"":452},{""stimulus"":""img/red_ll/10.jpg"",""time"":505},{""stimulus"":""img/red_ll/11.jpg"",""time"":552}]","[]"
"image-keyboard-response","64","136037","0.0-5.0-1.30","63e5ffdf639ebdcf35aacb09","bdp_lott","Sun Mar 26 2023 20:16:40 GMT+0200 (Central European Summer Time)","303608","green","red","","669","","","","choice","","img/red_ll/choose11.jpg","1","195","green","0.5","0.5","0.5","l","",""
"animation","65","136653","0.0-5.0-2.30","63e5ffdf639ebdcf35aacb09","bdp_lott","Sun Mar 26 2023 20:16:40 GMT+0200 (Central European Summer Time)","303608","green","red","","","","","","","","","","195","","","","","","[{""stimulus"":""img/green_ll/1.jpg"",""time"":62},{""stimulus"":""img/green_ll/2.jpg"",""time"":103},{""stimulus"":""img/green_ll/3.jpg"",""time"":157},{""stimulus"":""img/green_ll/4.jpg"",""time"":203},{""stimulus"":""img/green_ll/5.jpg"",""time"":253},{""stimulus"":""img/green_ll/6.jpg"",""time"":316},{""stimulus"":""img/green_ll/7.jpg"",""time"":355},{""stimulus"":""img/green_ll/8.jpg"",""time"":405},{""stimulus"":""img/green_ll/9.jpg"",""time"":455},{""stimulus"":""img/green_ll/10.jpg"",""time"":505},{""stimulus"":""img/green_ll/11.jpg"",""time"":552}]","[]"
"image-keyboard-response","66","137061","0.0-5.0-1.31","63e5ffdf639ebdcf35aacb09","bdp_lott","Sun Mar 26 2023 20:16:40 GMT+0200 (Central European Summer Time)","303608","green","red","","407","","","","choice","","img/green_ll/choose11.jpg","1","194","green","0.5","0.5","0.5","w","",""
"animation","67","137667","0.0-5.0-2.31","63e5ffdf639ebdcf35aacb09","bdp_lott","Sun Mar 26 2023 20:16:40 GMT+0200 (Central European Summer Time)","303608","green","red","","","","","","","","","","194","","","","","","[{""stimulus"":""img/green_wl/1.jpg"",""time"":52},{""stimulus"":""img/green_wl/2.jpg"",""time"":104},{""stimulus"":""img/green_wl/3.jpg"",""time"":159},{""stimulus"":""img/green_wl/4.jpg"",""time"":207},{""stimulus"":""img/green_wl/5.jpg"",""time"":252},{""stimulus"":""img/green_wl/6.jpg"",""time"":302},{""stimulus"":""img/green_wl/7.jpg"",""time"":352},{""stimulus"":""img/green_wl/8.jpg"",""time"":402},{""stimulus"":""img/green_wl/9.jpg"",""time"":452},{""stimulus"":""img/green_wl/10.jpg"",""time"":511},{""stimulus"":""img/green_wl/11.jpg"",""time"":551}]","[]"
"image-keyboard-response","68","138142","0.0-5.0-1.32","63e5ffdf639ebdcf35aacb09","bdp_lott","Sun Mar 26 2023 20:16:40 GMT+0200 (Central European Summer Time)","303608","green","red","","473","","","","choice","","img/green_wl/choose11.jpg","1","193","green","0.5","0.5","0.5","w","",""
"animation","69","138743","0.0-5.0-2.32","63e5ffdf639ebdcf35aacb09","bdp_lott","Sun Mar 26 2023 20:16:40 GMT+0200 (Central European Summer Time)","303608","green","red","","","","","","","","","","193","","","","","","[{""stimulus"":""img/green_wl/1.jpg"",""time"":60},{""stimulus"":""img/green_wl/2.jpg"",""time"":107},{""stimulus"":""img/green_wl/3.jpg"",""time"":152},{""stimulus"":""img/green_wl/4.jpg"",""time"":202},{""stimulus"":""img/green_wl/5.jpg"",""time"":252},{""stimulus"":""img/green_wl/6.jpg"",""time"":302},{""stimulus"":""img/green_wl/7.jpg"",""time"":352},{""stimulus"":""img/green_wl/8.jpg"",""time"":401},{""stimulus"":""img/green_wl/9.jpg"",""time"":466},{""stimulus"":""img/green_wl/10.jpg"",""time"":512},{""stimulus"":""img/green_wl/11.jpg"",""time"":552}]","[]"
"image-keyboard-response","70","139397","0.0-5.0-1.33","63e5ffdf639ebdcf35aacb09","bdp_lott","Sun Mar 26 2023 20:16:40 GMT+0200 (Central European Summer Time)","303608","green","red","","653","","","","choice","","img/green_wl/choose11.jpg","1","192","green","0.5","0.5","0.5","l","",""
"animation","71","140010","0.0-5.0-2.33","63e5ffdf639ebdcf35aacb09","bdp_lott","Sun Mar 26 2023 20:16:40 GMT+0200 (Central European Summer Time)","303608","green","red","","","","","","","","","","192","","","","","","[{""stimulus"":""img/green_ll/1.jpg"",""time"":65},{""stimulus"":""img/green_ll/2.jpg"",""time"":111},{""stimulus"":""img/green_ll/3.jpg"",""time"":163},{""stimulus"":""img/green_ll/4.jpg"",""time"":201},{""stimulus"":""img/green_ll/5.jpg"",""time"":251},{""stimulus"":""img/green_ll/6.jpg"",""time"":302},{""stimulus"":""img/green_ll/7.jpg"",""time"":363},{""stimulus"":""img/green_ll/8.jpg"",""time"":410},{""stimulus"":""img/green_ll/9.jpg"",""time"":451},{""stimulus"":""img/green_ll/10.jpg"",""time"":503},{""stimulus"":""img/green_ll/11.jpg"",""time"":567}]","[]"
"image-keyboard-response","72","141030","0.0-5.0-1.34","63e5ffdf639ebdcf35aacb09","bdp_lott","Sun Mar 26 2023 20:16:40 GMT+0200 (Central European Summer Time)","303608","green","red","","1018","","","","choice","","img/green_ll/choose11.jpg","2","191","red","0.5","0.5","0.5","l","",""
"animation","73","141632","0.0-5.0-2.34","63e5ffdf639ebdcf35aacb09","bdp_lott","Sun Mar 26 2023 20:16:40 GMT+0200 (Central European Summer Time)","303608","green","red","","","","","","","","","","191","","","","","","[{""stimulus"":""img/red_ll/1.jpg"",""time"":63},{""stimulus"":""img/red_ll/2.jpg"",""time"":102},{""stimulus"":""img/red_ll/3.jpg"",""time"":157},{""stimulus"":""img/red_ll/4.jpg"",""time"":201},{""stimulus"":""img/red_ll/5.jpg"",""time"":254},{""stimulus"":""img/red_ll/6.jpg"",""time"":302},{""stimulus"":""img/red_ll/7.jpg"",""time"":352},{""stimulus"":""img/red_ll/8.jpg"",""time"":402},{""stimulus"":""img/red_ll/9.jpg"",""time"":451},{""stimulus"":""img/red_ll/10.jpg"",""time"":500},{""stimulus"":""img/red_ll/11.jpg"",""time"":551}]","[]"
"image-keyboard-response","74","142037","0.0-5.0-1.35","63e5ffdf639ebdcf35aacb09","bdp_lott","Sun Mar 26 2023 20:16:40 GMT+0200 (Central European Summer Time)","303608","green","red","","404","","","","choice","","img/red_ll/choose11.jpg","2","190","red","0.5","0.5","0.5","l","",""
"animation","75","142638","0.0-5.0-2.35","63e5ffdf639ebdcf35aacb09","bdp_lott","Sun Mar 26 2023 20:16:40 GMT+0200 (Central European Summer Time)","303608","green","red","","","","","","","","","","190","","","","","","[{""stimulus"":""img/red_ll/1.jpg"",""time"":55},{""stimulus"":""img/red_ll/2.jpg"",""time"":101},{""stimulus"":""img/red_ll/3.jpg"",""time"":151},{""stimulus"":""img/red_ll/4.jpg"",""time"":201},{""stimulus"":""img/red_ll/5.jpg"",""time"":252},{""stimulus"":""img/red_ll/6.jpg"",""time"":301},{""stimulus"":""img/red_ll/7.jpg"",""time"":351},{""stimulus"":""img/red_ll/8.jpg"",""time"":401},{""stimulus"":""img/red_ll/9.jpg"",""time"":451},{""stimulus"":""img/red_ll/10.jpg"",""time"":501},{""stimulus"":""img/red_ll/11.jpg"",""time"":551}]","[]"
"image-keyboard-response","76","142902","0.0-5.0-1.36","63e5ffdf639ebdcf35aacb09","bdp_lott","Sun Mar 26 2023 20:16:40 GMT+0200 (Central European Summer Time)","303608","green","red","","263","","","","choice","","img/red_ll/choose11.jpg","2","189","red","0.5","0.5","0.5","l","",""
"animation","77","143504","0.0-5.0-2.36","63e5ffdf639ebdcf35aacb09","bdp_lott","Sun Mar 26 2023 20:16:40 GMT+0200 (Central European Summer Time)","303608","green","red","","","","","","","","","","189","","","","","","[{""stimulus"":""img/red_ll/1.jpg"",""time"":55},{""stimulus"":""img/red_ll/2.jpg"",""time"":102},{""stimulus"":""img/red_ll/3.jpg"",""time"":152},{""stimulus"":""img/red_ll/4.jpg"",""time"":202},{""stimulus"":""img/red_ll/5.jpg"",""time"":252},{""stimulus"":""img/red_ll/6.jpg"",""time"":302},{""stimulus"":""img/red_ll/7.jpg"",""time"":352},{""stimulus"":""img/red_ll/8.jpg"",""time"":417},{""stimulus"":""img/red_ll/9.jpg"",""time"":456},{""stimulus"":""img/red_ll/10.jpg"",""time"":506},{""stimulus"":""img/red_ll/11.jpg"",""time"":556}]","[]"
"image-keyboard-response","78","143757","0.0-5.0-1.37","63e5ffdf639ebdcf35aacb09","bdp_lott","Sun Mar 26 2023 20:16:40 GMT+0200 (Central European Summer Time)","303608","green","red","","252","","","","choice","","img/red_ll/choose11.jpg","2","188","red","0.5","0.5","0.5","w","",""
"animation","79","144364","0.0-5.0-2.37","63e5ffdf639ebdcf35aacb09","bdp_lott","Sun Mar 26 2023 20:16:40 GMT+0200 (Central European Summer Time)","303608","green","red","","","","","","","","","","188","","","","","","[{""stimulus"":""img/red_lw/1.jpg"",""time"":66},{""stimulus"":""img/red_lw/2.jpg"",""time"":103},{""stimulus"":""img/red_lw/3.jpg"",""time"":153},{""stimulus"":""img/red_lw/4.jpg"",""time"":203},{""stimulus"":""img/red_lw/5.jpg"",""time"":252},{""stimulus"":""img/red_lw/6.jpg"",""time"":301},{""stimulus"":""img/red_lw/7.jpg"",""time"":353},{""stimulus"":""img/red_lw/8.jpg"",""time"":401},{""stimulus"":""img/red_lw/9.jpg"",""time"":465},{""stimulus"":""img/red_lw/10.jpg"",""time"":512},{""stimulus"":""img/red_lw/11.jpg"",""time"":560}]","[]"
"image-keyboard-response","80","144781","0.0-5.0-1.38","63e5ffdf639ebdcf35aacb09","bdp_lott","Sun Mar 26 2023 20:16:40 GMT+0200 (Central European Summer Time)","303608","green","red","","415","","","","choice","","img/red_lw/choose11.jpg","2","187","red","0.5","0.5","0.5","w","",""
"animation","81","145383","0.0-5.0-2.38","63e5ffdf639ebdcf35aacb09","bdp_lott","Sun Mar 26 2023 20:16:40 GMT+0200 (Central European Summer Time)","303608","green","red","","","","","","","","","","187","","","","","","[{""stimulus"":""img/red_lw/1.jpg"",""time"":55},{""stimulus"":""img/red_lw/2.jpg"",""time"":116},{""stimulus"":""img/red_lw/3.jpg"",""time"":152},{""stimulus"":""img/red_lw/4.jpg"",""time"":202},{""stimulus"":""img/red_lw/5.jpg"",""time"":252},{""stimulus"":""img/red_lw/6.jpg"",""time"":302},{""stimulus"":""img/red_lw/7.jpg"",""time"":352},{""stimulus"":""img/red_lw/8.jpg"",""time"":402},{""stimulus"":""img/red_lw/9.jpg"",""time"":450},{""stimulus"":""img/red_lw/10.jpg"",""time"":508},{""stimulus"":""img/red_lw/11.jpg"",""time"":551}]","[]"
"image-keyboard-response","82","145693","0.0-5.0-1.39","63e5ffdf639ebdcf35aacb09","bdp_lott","Sun Mar 26 2023 20:16:40 GMT+0200 (Central European Summer Time)","303608","green","red","","309","","","","choice","","img/red_lw/choose11.jpg","2","186","red","0.5","0.5","0.5","w","",""
"animation","83","146294","0.0-5.0-2.39","63e5ffdf639ebdcf35aacb09","bdp_lott","Sun Mar 26 2023 20:16:40 GMT+0200 (Central European Summer Time)","303608","green","red","","","","","","","","","","186","","","","","","[{""stimulus"":""img/red_lw/1.jpg"",""time"":56},{""stimulus"":""img/red_lw/2.jpg"",""time"":102},{""stimulus"":""img/red_lw/3.jpg"",""time"":151},{""stimulus"":""img/red_lw/4.jpg"",""time"":202},{""stimulus"":""img/red_lw/5.jpg"",""time"":260},{""stimulus"":""img/red_lw/6.jpg"",""time"":307},{""stimulus"":""img/red_lw/7.jpg"",""time"":352},{""stimulus"":""img/red_lw/8.jpg"",""time"":401},{""stimulus"":""img/red_lw/9.jpg"",""time"":452},{""stimulus"":""img/red_lw/10.jpg"",""time"":501},{""stimulus"":""img/red_lw/11.jpg"",""time"":552}]","[]"
"image-keyboard-response","84","146589","0.0-5.0-1.40","63e5ffdf639ebdcf35aacb09","bdp_lott","Sun Mar 26 2023 20:16:40 GMT+0200 (Central European Summer Time)","303608","green","red","","293","","","","choice","","img/red_lw/choose11.jpg","2","185","red","0.5","0.5","0.5","l","",""
"animation","85","147190","0.0-5.0-2.40","63e5ffdf639ebdcf35aacb09","bdp_lott","Sun Mar 26 2023 20:16:40 GMT+0200 (Central European Summer Time)","303608","green","red","","","","","","","","","","185","","","","","","[{""stimulus"":""img/red_ll/1.jpg"",""time"":54},{""stimulus"":""img/red_ll/2.jpg"",""time"":116},{""stimulus"":""img/red_ll/3.jpg"",""time"":154},{""stimulus"":""img/red_ll/4.jpg"",""time"":202},{""stimulus"":""img/red_ll/5.jpg"",""time"":257},{""stimulus"":""img/red_ll/6.jpg"",""time"":302},{""stimulus"":""img/red_ll/7.jpg"",""time"":353},{""stimulus"":""img/red_ll/8.jpg"",""time"":402},{""stimulus"":""img/red_ll/9.jpg"",""time"":452},{""stimulus"":""img/red_ll/10.jpg"",""time"":502},{""stimulus"":""img/red_ll/11.jpg"",""time"":552}]","[]"
"image-keyboard-response","86","147789","0.0-5.0-1.41","63e5ffdf639ebdcf35aacb09","bdp_lott","Sun Mar 26 2023 20:16:40 GMT+0200 (Central European Summer Time)","303608","green","red","","598","","","","choice","","img/red_ll/choose11.jpg","1","184","green","0.5","0.5","0.5","w","",""
"animation","87","148390","0.0-5.0-2.41","63e5ffdf639ebdcf35aacb09","bdp_lott","Sun Mar 26 2023 20:16:40 GMT+0200 (Central European Summer Time)","303608","green","red","","","","","","","","","","184","","","","","","[{""stimulus"":""img/green_wl/1.jpg"",""time"":53},{""stimulus"":""img/green_wl/2.jpg"",""time"":101},{""stimulus"":""img/green_wl/3.jpg"",""time"":162},{""stimulus"":""img/green_wl/4.jpg"",""time"":200},{""stimulus"":""img/green_wl/5.jpg"",""time"":251},{""stimulus"":""img/green_wl/6.jpg"",""time"":301},{""stimulus"":""img/green_wl/7.jpg"",""time"":351},{""stimulus"":""img/green_wl/8.jpg"",""time"":401},{""stimulus"":""img/green_wl/9.jpg"",""time"":451},{""stimulus"":""img/green_wl/10.jpg"",""time"":501},{""stimulus"":""img/green_wl/11.jpg"",""time"":551}]","[]"
"image-keyboard-response","88","148901","0.0-5.0-1.42","63e5ffdf639ebdcf35aacb09","bdp_lott","Sun Mar 26 2023 20:16:40 GMT+0200 (Central European Summer Time)","303608","green","red","","510","","","","choice","","img/green_wl/choose11.jpg","1","183","green","0.5","0.5","0.5","l","",""
"animation","89","149503","0.0-5.0-2.42","63e5ffdf639ebdcf35aacb09","bdp_lott","Sun Mar 26 2023 20:16:40 GMT+0200 (Central European Summer Time)","303608","green","red","","","","","","","","","","183","","","","","","[{""stimulus"":""img/green_ll/1.jpg"",""time"":58},{""stimulus"":""img/green_ll/2.jpg"",""time"":101},{""stimulus"":""img/green_ll/3.jpg"",""time"":152},{""stimulus"":""img/green_ll/4.jpg"",""time"":203},{""stimulus"":""img/green_ll/5.jpg"",""time"":264},{""stimulus"":""img/green_ll/6.jpg"",""time"":305},{""stimulus"":""img/green_ll/7.jpg"",""time"":355},{""stimulus"":""img/green_ll/8.jpg"",""time"":405},{""stimulus"":""img/green_ll/9.jpg"",""time"":456},{""stimulus"":""img/green_ll/10.jpg"",""time"":503},{""stimulus"":""img/green_ll/11.jpg"",""time"":552}]","[]"
"image-keyboard-response","90","149885","0.0-5.0-1.43","63e5ffdf639ebdcf35aacb09","bdp_lott","Sun Mar 26 2023 20:16:40 GMT+0200 (Central European Summer Time)","303608","green","red","","381","","","","choice","","img/green_ll/choose11.jpg","1","182","green","0.5","0.5","0.5","l","",""
"animation","91","150502","0.0-5.0-2.43","63e5ffdf639ebdcf35aacb09","bdp_lott","Sun Mar 26 2023 20:16:40 GMT+0200 (Central European Summer Time)","303608","green","red","","","","","","","","","","182","","","","","","[{""stimulus"":""img/green_ll/1.jpg"",""time"":61},{""stimulus"":""img/green_ll/2.jpg"",""time"":108},{""stimulus"":""img/green_ll/3.jpg"",""time"":151},{""stimulus"":""img/green_ll/4.jpg"",""time"":204},{""stimulus"":""img/green_ll/5.jpg"",""time"":252},{""stimulus"":""img/green_ll/6.jpg"",""time"":302},{""stimulus"":""img/green_ll/7.jpg"",""time"":352},{""stimulus"":""img/green_ll/8.jpg"",""time"":402},{""stimulus"":""img/green_ll/9.jpg"",""time"":451},{""stimulus"":""img/green_ll/10.jpg"",""time"":500},{""stimulus"":""img/green_ll/11.jpg"",""time"":551}]","[]"
"image-keyboard-response","92","150877","0.0-5.0-1.44","63e5ffdf639ebdcf35aacb09","bdp_lott","Sun Mar 26 2023 20:16:40 GMT+0200 (Central European Summer Time)","303608","green","red","","374","","","","choice","","img/green_ll/choose11.jpg","1","181","green","0.5","0.5","0.5","w","",""
"animation","93","151478","0.0-5.0-2.44","63e5ffdf639ebdcf35aacb09","bdp_lott","Sun Mar 26 2023 20:16:40 GMT+0200 (Central European Summer Time)","303608","green","red","","","","","","","","","","181","","","","","","[{""stimulus"":""img/green_wl/1.jpg"",""time"":66},{""stimulus"":""img/green_wl/2.jpg"",""time"":113},{""stimulus"":""img/green_wl/3.jpg"",""time"":152},{""stimulus"":""img/green_wl/4.jpg"",""time"":201},{""stimulus"":""img/green_wl/5.jpg"",""time"":251},{""stimulus"":""img/green_wl/6.jpg"",""time"":301},{""stimulus"":""img/green_wl/7.jpg"",""time"":351},{""stimulus"":""img/green_wl/8.jpg"",""time"":401},{""stimulus"":""img/green_wl/9.jpg"",""time"":451},{""stimulus"":""img/green_wl/10.jpg"",""time"":508},{""stimulus"":""img/green_wl/11.jpg"",""time"":551}]","[]"
"image-keyboard-response","94","152103","0.0-5.0-1.45","63e5ffdf639ebdcf35aacb09","bdp_lott","Sun Mar 26 2023 20:16:40 GMT+0200 (Central European Summer Time)","303608","green","red","","623","","","","choice","","img/green_wl/choose11.jpg","2","180","red","0.5","0.5","0.5","w","",""
"animation","95","152707","0.0-5.0-2.45","63e5ffdf639ebdcf35aacb09","bdp_lott","Sun Mar 26 2023 20:16:40 GMT+0200 (Central European Summer Time)","303608","green","red","","","","","","","","","","180","","","","","","[{""stimulus"":""img/red_ww/1.jpg"",""time"":63},{""stimulus"":""img/red_ww/2.jpg"",""time"":105},{""stimulus"":""img/red_ww/3.jpg"",""time"":154},{""stimulus"":""img/red_ww/4.jpg"",""time"":204},{""stimulus"":""img/red_ww/5.jpg"",""time"":251},{""stimulus"":""img/red_ww/6.jpg"",""time"":302},{""stimulus"":""img/red_ww/7.jpg"",""time"":352},{""stimulus"":""img/red_ww/8.jpg"",""time"":402},{""stimulus"":""img/red_ww/9.jpg"",""time"":452},{""stimulus"":""img/red_ww/10.jpg"",""time"":502},{""stimulus"":""img/red_ww/11.jpg"",""time"":554}]","[]"
"image-keyboard-response","96","153557","0.0-5.0-1.46","63e5ffdf639ebdcf35aacb09","bdp_lott","Sun Mar 26 2023 20:16:40 GMT+0200 (Central European Summer Time)","303608","green","red","","849","","","","choice","","img/red_ww/choose11.jpg","2","179","red","0.5","0.5","0.5","w","",""
"animation","97","154169","0.0-5.0-2.46","63e5ffdf639ebdcf35aacb09","bdp_lott","Sun Mar 26 2023 20:16:40 GMT+0200 (Central European Summer Time)","303608","green","red","","","","","","","","","","179","","","","","","[{""stimulus"":""img/red_ww/1.jpg"",""time"":56},{""stimulus"":""img/red_ww/2.jpg"",""time"":101},{""stimulus"":""img/red_ww/3.jpg"",""time"":151},{""stimulus"":""img/red_ww/4.jpg"",""time"":201},{""stimulus"":""img/red_ww/5.jpg"",""time"":252},{""stimulus"":""img/red_ww/6.jpg"",""time"":302},{""stimulus"":""img/red_ww/7.jpg"",""time"":352},{""stimulus"":""img/red_ww/8.jpg"",""time"":402},{""stimulus"":""img/red_ww/9.jpg"",""time"":452},{""stimulus"":""img/red_ww/10.jpg"",""time"":501},{""stimulus"":""img/red_ww/11.jpg"",""time"":552}]","[]"
"image-keyboard-response","98","154550","0.0-5.0-1.47","63e5ffdf639ebdcf35aacb09","bdp_lott","Sun Mar 26 2023 20:16:40 GMT+0200 (Central European Summer Time)","303608","green","red","","380","","","","choice","","img/red_ww/choose11.jpg","2","178","red","0.5","0.5","0.5","l","",""
"animation","99","155155","0.0-5.0-2.47","63e5ffdf639ebdcf35aacb09","bdp_lott","Sun Mar 26 2023 20:16:40 GMT+0200 (Central European Summer Time)","303608","green","red","","","","","","","","","","178","","","","","","[{""stimulus"":""img/red_wl/1.jpg"",""time"":63},{""stimulus"":""img/red_wl/2.jpg"",""time"":102},{""stimulus"":""img/red_wl/3.jpg"",""time"":152},{""stimulus"":""img/red_wl/4.jpg"",""time"":203},{""stimulus"":""img/red_wl/5.jpg"",""time"":251},{""stimulus"":""img/red_wl/6.jpg"",""time"":303},{""stimulus"":""img/red_wl/7.jpg"",""time"":351},{""stimulus"":""img/red_wl/8.jpg"",""time"":401},{""stimulus"":""img/red_wl/9.jpg"",""time"":451},{""stimulus"":""img/red_wl/10.jpg"",""time"":507},{""stimulus"":""img/red_wl/11.jpg"",""time"":558}]","[]"
"image-keyboard-response","100","155749","0.0-5.0-1.48","63e5ffdf639ebdcf35aacb09","bdp_lott","Sun Mar 26 2023 20:16:40 GMT+0200 (Central European Summer Time)","303608","green","red","","592","","","","choice","","img/red_wl/choose11.jpg","2","177","red","0.5","0.5","0.5","l","",""
"animation","101","156351","0.0-5.0-2.48","63e5ffdf639ebdcf35aacb09","bdp_lott","Sun Mar 26 2023 20:16:40 GMT+0200 (Central European Summer Time)","303608","green","red","","","","","","","","","","177","","","","","","[{""stimulus"":""img/red_wl/1.jpg"",""time"":55},{""stimulus"":""img/red_wl/2.jpg"",""time"":103},{""stimulus"":""img/red_wl/3.jpg"",""time"":166},{""stimulus"":""img/red_wl/4.jpg"",""time"":206},{""stimulus"":""img/red_wl/5.jpg"",""time"":252},{""stimulus"":""img/red_wl/6.jpg"",""time"":309},{""stimulus"":""img/red_wl/7.jpg"",""time"":352},{""stimulus"":""img/red_wl/8.jpg"",""time"":401},{""stimulus"":""img/red_wl/9.jpg"",""time"":453},{""stimulus"":""img/red_wl/10.jpg"",""time"":515},{""stimulus"":""img/red_wl/11.jpg"",""time"":551}]","[]"
"image-keyboard-response","102","156582","0.0-5.0-1.49","63e5ffdf639ebdcf35aacb09","bdp_lott","Sun Mar 26 2023 20:16:40 GMT+0200 (Central European Summer Time)","303608","green","red","","230","","","","choice","","img/red_wl/choose11.jpg","1","176","green","0.5","0.5","0.5","l","",""
"animation","103","157183","0.0-5.0-2.49","63e5ffdf639ebdcf35aacb09","bdp_lott","Sun Mar 26 2023 20:16:40 GMT+0200 (Central European Summer Time)","303608","green","red","","","","","","","","","","176","","","","","","[{""stimulus"":""img/green_ll/1.jpg"",""time"":65},{""stimulus"":""img/green_ll/2.jpg"",""time"":109},{""stimulus"":""img/green_ll/3.jpg"",""time"":158},{""stimulus"":""img/green_ll/4.jpg"",""time"":206},{""stimulus"":""img/green_ll/5.jpg"",""time"":252},{""stimulus"":""img/green_ll/6.jpg"",""time"":302},{""stimulus"":""img/green_ll/7.jpg"",""time"":351},{""stimulus"":""img/green_ll/8.jpg"",""time"":402},{""stimulus"":""img/green_ll/9.jpg"",""time"":452},{""stimulus"":""img/green_ll/10.jpg"",""time"":501},{""stimulus"":""img/green_ll/11.jpg"",""time"":553}]","[]"
"image-keyboard-response","104","157589","0.0-5.0-1.50","63e5ffdf639ebdcf35aacb09","bdp_lott","Sun Mar 26 2023 20:16:40 GMT+0200 (Central European Summer Time)","303608","green","red","","405","","","","choice","","img/green_ll/choose11.jpg","1","175","green","0.5","0.5","0.5","w","",""
"animation","105","158191","0.0-5.0-2.50","63e5ffdf639ebdcf35aacb09","bdp_lott","Sun Mar 26 2023 20:16:40 GMT+0200 (Central European Summer Time)","303608","green","red","","","","","","","","","","175","","","","","","[{""stimulus"":""img/green_wl/1.jpg"",""time"":53},{""stimulus"":""img/green_wl/2.jpg"",""time"":115},{""stimulus"":""img/green_wl/3.jpg"",""time"":163},{""stimulus"":""img/green_wl/4.jpg"",""time"":202},{""stimulus"":""img/green_wl/5.jpg"",""time"":252},{""stimulus"":""img/green_wl/6.jpg"",""time"":301},{""stimulus"":""img/green_wl/7.jpg"",""time"":350},{""stimulus"":""img/green_wl/8.jpg"",""time"":402},{""stimulus"":""img/green_wl/9.jpg"",""time"":458},{""stimulus"":""img/green_wl/10.jpg"",""time"":506},{""stimulus"":""img/green_wl/11.jpg"",""time"":553}]","[]"
"image-keyboard-response","106","158734","0.0-5.0-1.51","63e5ffdf639ebdcf35aacb09","bdp_lott","Sun Mar 26 2023 20:16:40 GMT+0200 (Central European Summer Time)","303608","green","red","","541","","","","choice","","img/green_wl/choose11.jpg","1","174","green","0.5","0.5","0.5","l","",""
"animation","107","159350","0.0-5.0-2.51","63e5ffdf639ebdcf35aacb09","bdp_lott","Sun Mar 26 2023 20:16:40 GMT+0200 (Central European Summer Time)","303608","green","red","","","","","","","","","","174","","","","","","[{""stimulus"":""img/green_ll/1.jpg"",""time"":62},{""stimulus"":""img/green_ll/2.jpg"",""time"":109},{""stimulus"":""img/green_ll/3.jpg"",""time"":152},{""stimulus"":""img/green_ll/4.jpg"",""time"":204},{""stimulus"":""img/green_ll/5.jpg"",""time"":252},{""stimulus"":""img/green_ll/6.jpg"",""time"":313},{""stimulus"":""img/green_ll/7.jpg"",""time"":352},{""stimulus"":""img/green_ll/8.jpg"",""time"":408},{""stimulus"":""img/green_ll/9.jpg"",""time"":455},{""stimulus"":""img/green_ll/10.jpg"",""time"":503},{""stimulus"":""img/green_ll/11.jpg"",""time"":551}]","[]"
"image-keyboard-response","108","159638","0.0-5.0-1.52","63e5ffdf639ebdcf35aacb09","bdp_lott","Sun Mar 26 2023 20:16:40 GMT+0200 (Central European Summer Time)","303608","green","red","","287","","","","choice","","img/green_ll/choose11.jpg","1","173","green","0.5","0.5","0.5","l","",""
"animation","109","160239","0.0-5.0-2.52","63e5ffdf639ebdcf35aacb09","bdp_lott","Sun Mar 26 2023 20:16:40 GMT+0200 (Central European Summer Time)","303608","green","red","","","","","","","","","","173","","","","","","[{""stimulus"":""img/green_ll/1.jpg"",""time"":64},{""stimulus"":""img/green_ll/2.jpg"",""time"":102},{""stimulus"":""img/green_ll/3.jpg"",""time"":152},{""stimulus"":""img/green_ll/4.jpg"",""time"":202},{""stimulus"":""img/green_ll/5.jpg"",""time"":252},{""stimulus"":""img/green_ll/6.jpg"",""time"":302},{""stimulus"":""img/green_ll/7.jpg"",""time"":351},{""stimulus"":""img/green_ll/8.jpg"",""time"":402},{""stimulus"":""img/green_ll/9.jpg"",""time"":452},{""stimulus"":""img/green_ll/10.jpg"",""time"":502},{""stimulus"":""img/green_ll/11.jpg"",""time"":552}]","[]"
"image-keyboard-response","110","160654","0.0-5.0-1.53","63e5ffdf639ebdcf35aacb09","bdp_lott","Sun Mar 26 2023 20:16:40 GMT+0200 (Central European Summer Time)","303608","green","red","","414","","","","choice","","img/green_ll/choose11.jpg","1","172","green","0.5","0.5","0.5","w","",""
"animation","111","161256","0.0-5.0-2.53","63e5ffdf639ebdcf35aacb09","bdp_lott","Sun Mar 26 2023 20:16:40 GMT+0200 (Central European Summer Time)","303608","green","red","","","","","","","","","","172","","","","","","[{""stimulus"":""img/green_wl/1.jpg"",""time"":64},{""stimulus"":""img/green_wl/2.jpg"",""time"":102},{""stimulus"":""img/green_wl/3.jpg"",""time"":151},{""stimulus"":""img/green_wl/4.jpg"",""time"":201},{""stimulus"":""img/green_wl/5.jpg"",""time"":251},{""stimulus"":""img/green_wl/6.jpg"",""time"":302},{""stimulus"":""img/green_wl/7.jpg"",""time"":351},{""stimulus"":""img/green_wl/8.jpg"",""time"":401},{""stimulus"":""img/green_wl/9.jpg"",""time"":451},{""stimulus"":""img/green_wl/10.jpg"",""time"":502},{""stimulus"":""img/green_wl/11.jpg"",""time"":552}]","[]"
"image-keyboard-response","112","161799","0.0-5.0-1.54","63e5ffdf639ebdcf35aacb09","bdp_lott","Sun Mar 26 2023 20:16:40 GMT+0200 (Central European Summer Time)","303608","green","red","","542","","","","choice","","img/green_wl/choose11.jpg","1","171","green","0.5","0.5","0.5","l","",""
"animation","113","162400","0.0-5.0-2.54","63e5ffdf639ebdcf35aacb09","bdp_lott","Sun Mar 26 2023 20:16:40 GMT+0200 (Central European Summer Time)","303608","green","red","","","","","","","","","","171","","","","","","[{""stimulus"":""img/green_ll/1.jpg"",""time"":63},{""stimulus"":""img/green_ll/2.jpg"",""time"":103},{""stimulus"":""img/green_ll/3.jpg"",""time"":152},{""stimulus"":""img/green_ll/4.jpg"",""time"":202},{""stimulus"":""img/green_ll/5.jpg"",""time"":252},{""stimulus"":""img/green_ll/6.jpg"",""time"":302},{""stimulus"":""img/green_ll/7.jpg"",""time"":362},{""stimulus"":""img/green_ll/8.jpg"",""time"":408},{""stimulus"":""img/green_ll/9.jpg"",""time"":460},{""stimulus"":""img/green_ll/10.jpg"",""time"":504},{""stimulus"":""img/green_ll/11.jpg"",""time"":552}]","[]"
"image-keyboard-response","114","162975","0.0-5.0-1.55","63e5ffdf639ebdcf35aacb09","bdp_lott","Sun Mar 26 2023 20:16:40 GMT+0200 (Central European Summer Time)","303608","green","red","","573","","","","choice","","img/green_ll/choose11.jpg","2","170","red","0.5","0.5","0.5","l","",""
"animation","115","163581","0.0-5.0-2.55","63e5ffdf639ebdcf35aacb09","bdp_lott","Sun Mar 26 2023 20:16:40 GMT+0200 (Central European Summer Time)","303608","green","red","","","","","","","","","","170","","","","","","[{""stimulus"":""img/red_ll/1.jpg"",""time"":55},{""stimulus"":""img/red_ll/2.jpg"",""time"":102},{""stimulus"":""img/red_ll/3.jpg"",""time"":151},{""stimulus"":""img/red_ll/4.jpg"",""time"":201},{""stimulus"":""img/red_ll/5.jpg"",""time"":258},{""stimulus"":""img/red_ll/6.jpg"",""time"":301},{""stimulus"":""img/red_ll/7.jpg"",""time"":352},{""stimulus"":""img/red_ll/8.jpg"",""time"":415},{""stimulus"":""img/red_ll/9.jpg"",""time"":451},{""stimulus"":""img/red_ll/10.jpg"",""time"":501},{""stimulus"":""img/red_ll/11.jpg"",""time"":551}]","[]"
"image-keyboard-response","116","163806","0.0-5.0-1.56","63e5ffdf639ebdcf35aacb09","bdp_lott","Sun Mar 26 2023 20:16:40 GMT+0200 (Central European Summer Time)","303608","green","red","","224","","","","choice","","img/red_ll/choose11.jpg","2","169","red","0.5","0.5","0.5","l","",""
"animation","117","164417","0.0-5.0-2.56","63e5ffdf639ebdcf35aacb09","bdp_lott","Sun Mar 26 2023 20:16:40 GMT+0200 (Central European Summer Time)","303608","green","red","","","","","","","","","","169","","","","","","[{""stimulus"":""img/red_ll/1.jpg"",""time"":59},{""stimulus"":""img/red_ll/2.jpg"",""time"":106},{""stimulus"":""img/red_ll/3.jpg"",""time"":152},{""stimulus"":""img/red_ll/4.jpg"",""time"":203},{""stimulus"":""img/red_ll/5.jpg"",""time"":252},{""stimulus"":""img/red_ll/6.jpg"",""time"":303},{""stimulus"":""img/red_ll/7.jpg"",""time"":353},{""stimulus"":""img/red_ll/8.jpg"",""time"":403},{""stimulus"":""img/red_ll/9.jpg"",""time"":452},{""stimulus"":""img/red_ll/10.jpg"",""time"":517},{""stimulus"":""img/red_ll/11.jpg"",""time"":566}]","[]"
"image-keyboard-response","118","164726","0.0-5.0-1.57","63e5ffdf639ebdcf35aacb09","bdp_lott","Sun Mar 26 2023 20:16:40 GMT+0200 (Central European Summer Time)","303608","green","red","","308","","","","choice","","img/red_ll/choose11.jpg","2","168","red","0.5","0.5","0.5","l","",""
"animation","119","165327","0.0-5.0-2.57","63e5ffdf639ebdcf35aacb09","bdp_lott","Sun Mar 26 2023 20:16:40 GMT+0200 (Central European Summer Time)","303608","green","red","","","","","","","","","","168","","","","","","[{""stimulus"":""img/red_ll/1.jpg"",""time"":53},{""stimulus"":""img/red_ll/2.jpg"",""time"":115},{""stimulus"":""img/red_ll/3.jpg"",""time"":151},{""stimulus"":""img/red_ll/4.jpg"",""time"":201},{""stimulus"":""img/red_ll/5.jpg"",""time"":251},{""stimulus"":""img/red_ll/6.jpg"",""time"":300},{""stimulus"":""img/red_ll/7.jpg"",""time"":351},{""stimulus"":""img/red_ll/8.jpg"",""time"":402},{""stimulus"":""img/red_ll/9.jpg"",""time"":452},{""stimulus"":""img/red_ll/10.jpg"",""time"":512},{""stimulus"":""img/red_ll/11.jpg"",""time"":552}]","[]"
"image-keyboard-response","120","165518","0.0-5.0-1.58","63e5ffdf639ebdcf35aacb09","bdp_lott","Sun Mar 26 2023 20:16:40 GMT+0200 (Central European Summer Time)","303608","green","red","","189","","","","choice","","img/red_ll/choose11.jpg","2","167","red","0.5","0.5","0.5","w","",""
"animation","121","166122","0.0-5.0-2.58","63e5ffdf639ebdcf35aacb09","bdp_lott","Sun Mar 26 2023 20:16:40 GMT+0200 (Central European Summer Time)","303608","green","red","","","","","","","","","","167","","","","","","[{""stimulus"":""img/red_lw/1.jpg"",""time"":56},{""stimulus"":""img/red_lw/2.jpg"",""time"":102},{""stimulus"":""img/red_lw/3.jpg"",""time"":167},{""stimulus"":""img/red_lw/4.jpg"",""time"":204},{""stimulus"":""img/red_lw/5.jpg"",""time"":252},{""stimulus"":""img/red_lw/6.jpg"",""time"":302},{""stimulus"":""img/red_lw/7.jpg"",""time"":352},{""stimulus"":""img/red_lw/8.jpg"",""time"":402},{""stimulus"":""img/red_lw/9.jpg"",""time"":454},{""stimulus"":""img/red_lw/10.jpg"",""time"":515},{""stimulus"":""img/red_lw/11.jpg"",""time"":554}]","[]"
"image-keyboard-response","122","166352","0.0-5.0-1.59","63e5ffdf639ebdcf35aacb09","bdp_lott","Sun Mar 26 2023 20:16:40 GMT+0200 (Central European Summer Time)","303608","green","red","","228","","","","choice","","img/red_lw/choose11.jpg","2","166","red","0.5","0.5","0.5","l","",""
"animation","123","166953","0.0-5.0-2.59","63e5ffdf639ebdcf35aacb09","bdp_lott","Sun Mar 26 2023 20:16:40 GMT+0200 (Central European Summer Time)","303608","green","red","","","","","","","","","","166","","","","","","[{""stimulus"":""img/red_ll/1.jpg"",""time"":61},{""stimulus"":""img/red_ll/2.jpg"",""time"":104},{""stimulus"":""img/red_ll/3.jpg"",""time"":154},{""stimulus"":""img/red_ll/4.jpg"",""time"":204},{""stimulus"":""img/red_ll/5.jpg"",""time"":253},{""stimulus"":""img/red_ll/6.jpg"",""time"":304},{""stimulus"":""img/red_ll/7.jpg"",""time"":354},{""stimulus"":""img/red_ll/8.jpg"",""time"":404},{""stimulus"":""img/red_ll/9.jpg"",""time"":454},{""stimulus"":""img/red_ll/10.jpg"",""time"":502},{""stimulus"":""img/red_ll/11.jpg"",""time"":552}]","[]"
"image-keyboard-response","124","167198","0.0-5.0-1.60","63e5ffdf639ebdcf35aacb09","bdp_lott","Sun Mar 26 2023 20:16:40 GMT+0200 (Central European Summer Time)","303608","green","red","","244","","","","choice","","img/red_ll/choose11.jpg","2","165","red","0.5","0.5","0.5","l","",""
"animation","125","167800","0.0-5.0-2.60","63e5ffdf639ebdcf35aacb09","bdp_lott","Sun Mar 26 2023 20:16:40 GMT+0200 (Central European Summer Time)","303608","green","red","","","","","","","","","","165","","","","","","[{""stimulus"":""img/red_ll/1.jpg"",""time"":67},{""stimulus"":""img/red_ll/2.jpg"",""time"":105},{""stimulus"":""img/red_ll/3.jpg"",""time"":151},{""stimulus"":""img/red_ll/4.jpg"",""time"":207},{""stimulus"":""img/red_ll/5.jpg"",""time"":252},{""stimulus"":""img/red_ll/6.jpg"",""time"":303},{""stimulus"":""img/red_ll/7.jpg"",""time"":367},{""stimulus"":""img/red_ll/8.jpg"",""time"":407},{""stimulus"":""img/red_ll/9.jpg"",""time"":457},{""stimulus"":""img/red_ll/10.jpg"",""time"":507},{""stimulus"":""img/red_ll/11.jpg"",""time"":557}]","[]"
"image-keyboard-response","126","168087","0.0-5.0-1.61","63e5ffdf639ebdcf35aacb09","bdp_lott","Sun Mar 26 2023 20:16:40 GMT+0200 (Central European Summer Time)","303608","green","red","","285","","","","choice","","img/red_ll/choose11.jpg","2","164","red","0.5","0.5","0.5","w","",""
"animation","127","168688","0.0-5.0-2.61","63e5ffdf639ebdcf35aacb09","bdp_lott","Sun Mar 26 2023 20:16:40 GMT+0200 (Central European Summer Time)","303608","green","red","","","","","","","","","","164","","","","","","[{""stimulus"":""img/red_lw/1.jpg"",""time"":63},{""stimulus"":""img/red_lw/2.jpg"",""time"":102},{""stimulus"":""img/red_lw/3.jpg"",""time"":152},{""stimulus"":""img/red_lw/4.jpg"",""time"":202},{""stimulus"":""img/red_lw/5.jpg"",""time"":252},{""stimulus"":""img/red_lw/6.jpg"",""time"":302},{""stimulus"":""img/red_lw/7.jpg"",""time"":352},{""stimulus"":""img/red_lw/8.jpg"",""time"":403},{""stimulus"":""img/red_lw/9.jpg"",""time"":452},{""stimulus"":""img/red_lw/10.jpg"",""time"":502},{""stimulus"":""img/red_lw/11.jpg"",""time"":552}]","[]"
"image-keyboard-response","128","169143","0.0-5.0-1.62","63e5ffdf639ebdcf35aacb09","bdp_lott","Sun Mar 26 2023 20:16:40 GMT+0200 (Central European Summer Time)","303608","green","red","","453","","","","choice","","img/red_lw/choose11.jpg","2","163","red","0.5","0.5","0.5","w","",""
"animation","129","169746","0.0-5.0-2.62","63e5ffdf639ebdcf35aacb09","bdp_lott","Sun Mar 26 2023 20:16:40 GMT+0200 (Central European Summer Time)","303608","green","red","","","","","","","","","","163","","","","","","[{""stimulus"":""img/red_lw/1.jpg"",""time"":68},{""stimulus"":""img/red_lw/2.jpg"",""time"":118},{""stimulus"":""img/red_lw/3.jpg"",""time"":160},{""stimulus"":""img/red_lw/4.jpg"",""time"":202},{""stimulus"":""img/red_lw/5.jpg"",""time"":253},{""stimulus"":""img/red_lw/6.jpg"",""time"":302},{""stimulus"":""img/red_lw/7.jpg"",""time"":352},{""stimulus"":""img/red_lw/8.jpg"",""time"":413},{""stimulus"":""img/red_lw/9.jpg"",""time"":452},{""stimulus"":""img/red_lw/10.jpg"",""time"":509},{""stimulus"":""img/red_lw/11.jpg"",""time"":552}]","[]"
"image-keyboard-response","130","170103","0.0-5.0-1.63","63e5ffdf639ebdcf35aacb09","bdp_lott","Sun Mar 26 2023 20:16:40 GMT+0200 (Central European Summer Time)","303608","green","red","","356","","","","choice","","img/red_lw/choose11.jpg","2","162","red","0.5","0.5","0.5","l","",""
"animation","131","170705","0.0-5.0-2.63","63e5ffdf639ebdcf35aacb09","bdp_lott","Sun Mar 26 2023 20:16:40 GMT+0200 (Central European Summer Time)","303608","green","red","","","","","","","","","","162","","","","","","[{""stimulus"":""img/red_ll/1.jpg"",""time"":60},{""stimulus"":""img/red_ll/2.jpg"",""time"":101},{""stimulus"":""img/red_ll/3.jpg"",""time"":151},{""stimulus"":""img/red_ll/4.jpg"",""time"":202},{""stimulus"":""img/red_ll/5.jpg"",""time"":253},{""stimulus"":""img/red_ll/6.jpg"",""time"":302},{""stimulus"":""img/red_ll/7.jpg"",""time"":351},{""stimulus"":""img/red_ll/8.jpg"",""time"":401},{""stimulus"":""img/red_ll/9.jpg"",""time"":452},{""stimulus"":""img/red_ll/10.jpg"",""time"":501},{""stimulus"":""img/red_ll/11.jpg"",""time"":553}]","[]"
"image-keyboard-response","132","171054","0.0-5.0-1.64","63e5ffdf639ebdcf35aacb09","bdp_lott","Sun Mar 26 2023 20:16:40 GMT+0200 (Central European Summer Time)","303608","green","red","","348","","","","choice","","img/red_ll/choose11.jpg","2","161","red","0.5","0.5","0.5","w","",""
"animation","133","171655","0.0-5.0-2.64","63e5ffdf639ebdcf35aacb09","bdp_lott","Sun Mar 26 2023 20:16:40 GMT+0200 (Central European Summer Time)","303608","green","red","","","","","","","","","","161","","","","","","[{""stimulus"":""img/red_lw/1.jpg"",""time"":62},{""stimulus"":""img/red_lw/2.jpg"",""time"":101},{""stimulus"":""img/red_lw/3.jpg"",""time"":151},{""stimulus"":""img/red_lw/4.jpg"",""time"":201},{""stimulus"":""img/red_lw/5.jpg"",""time"":251},{""stimulus"":""img/red_lw/6.jpg"",""time"":302},{""stimulus"":""img/red_lw/7.jpg"",""time"":361},{""stimulus"":""img/red_lw/8.jpg"",""time"":401},{""stimulus"":""img/red_lw/9.jpg"",""time"":456},{""stimulus"":""img/red_lw/10.jpg"",""time"":501},{""stimulus"":""img/red_lw/11.jpg"",""time"":551}]","[]"
"image-keyboard-response","134","172070","0.0-5.0-1.65","63e5ffdf639ebdcf35aacb09","bdp_lott","Sun Mar 26 2023 20:16:40 GMT+0200 (Central European Summer Time)","303608","green","red","","413","","","","choice","","img/red_lw/choose11.jpg","2","160","red","0.5","0.5","0.5","w","",""
"animation","135","172672","0.0-5.0-2.65","63e5ffdf639ebdcf35aacb09","bdp_lott","Sun Mar 26 2023 20:16:40 GMT+0200 (Central European Summer Time)","303608","green","red","","","","","","","","","","160","","","","","","[{""stimulus"":""img/red_lw/1.jpg"",""time"":59},{""stimulus"":""img/red_lw/2.jpg"",""time"":101},{""stimulus"":""img/red_lw/3.jpg"",""time"":152},{""stimulus"":""img/red_lw/4.jpg"",""time"":201},{""stimulus"":""img/red_lw/5.jpg"",""time"":265},{""stimulus"":""img/red_lw/6.jpg"",""time"":301},{""stimulus"":""img/red_lw/7.jpg"",""time"":351},{""stimulus"":""img/red_lw/8.jpg"",""time"":401},{""stimulus"":""img/red_lw/9.jpg"",""time"":451},{""stimulus"":""img/red_lw/10.jpg"",""time"":501},{""stimulus"":""img/red_lw/11.jpg"",""time"":551}]","[]"
"image-keyboard-response","136","172950","0.0-5.0-1.66","63e5ffdf639ebdcf35aacb09","bdp_lott","Sun Mar 26 2023 20:16:40 GMT+0200 (Central European Summer Time)","303608","green","red","","277","","","","choice","","img/red_lw/choose11.jpg","2","159","red","0.5","0.5","0.5","l","",""
"animation","137","173553","0.0-5.0-2.66","63e5ffdf639ebdcf35aacb09","bdp_lott","Sun Mar 26 2023 20:16:40 GMT+0200 (Central European Summer Time)","303608","green","red","","","","","","","","","","159","","","","","","[{""stimulus"":""img/red_ll/1.jpg"",""time"":62},{""stimulus"":""img/red_ll/2.jpg"",""time"":104},{""stimulus"":""img/red_ll/3.jpg"",""time"":155},{""stimulus"":""img/red_ll/4.jpg"",""time"":204},{""stimulus"":""img/red_ll/5.jpg"",""time"":252},{""stimulus"":""img/red_ll/6.jpg"",""time"":302},{""stimulus"":""img/red_ll/7.jpg"",""time"":351},{""stimulus"":""img/red_ll/8.jpg"",""time"":401},{""stimulus"":""img/red_ll/9.jpg"",""time"":451},{""stimulus"":""img/red_ll/10.jpg"",""time"":501},{""stimulus"":""img/red_ll/11.jpg"",""time"":552}]","[]"
"image-keyboard-response","138","173887","0.0-5.0-1.67","63e5ffdf639ebdcf35aacb09","bdp_lott","Sun Mar 26 2023 20:16:40 GMT+0200 (Central European Summer Time)","303608","green","red","","333","","","","choice","","img/red_ll/choose11.jpg","2","158","red","0.5","0.5","0.5","l","",""
"animation","139","174489","0.0-5.0-2.67","63e5ffdf639ebdcf35aacb09","bdp_lott","Sun Mar 26 2023 20:16:40 GMT+0200 (Central European Summer Time)","303608","green","red","","","","","","","","","","158","","","","","","[{""stimulus"":""img/red_ll/1.jpg"",""time"":61},{""stimulus"":""img/red_ll/2.jpg"",""time"":109},{""stimulus"":""img/red_ll/3.jpg"",""time"":150},{""stimulus"":""img/red_ll/4.jpg"",""time"":201},{""stimulus"":""img/red_ll/5.jpg"",""time"":252},{""stimulus"":""img/red_ll/6.jpg"",""time"":301},{""stimulus"":""img/red_ll/7.jpg"",""time"":352},{""stimulus"":""img/red_ll/8.jpg"",""time"":401},{""stimulus"":""img/red_ll/9.jpg"",""time"":451},{""stimulus"":""img/red_ll/10.jpg"",""time"":501},{""stimulus"":""img/red_ll/11.jpg"",""time"":551}]","[]"
"image-keyboard-response","140","174734","0.0-5.0-1.68","63e5ffdf639ebdcf35aacb09","bdp_lott","Sun Mar 26 2023 20:16:40 GMT+0200 (Central European Summer Time)","303608","green","red","","244","","","","choice","","img/red_ll/choose11.jpg","1","157","green","0.5","0.5","0.5","l","",""
"animation","141","175338","0.0-5.0-2.68","63e5ffdf639ebdcf35aacb09","bdp_lott","Sun Mar 26 2023 20:16:40 GMT+0200 (Central European Summer Time)","303608","green","red","","","","","","","","","","157","","","","","","[{""stimulus"":""img/green_ll/1.jpg"",""time"":56},{""stimulus"":""img/green_ll/2.jpg"",""time"":102},{""stimulus"":""img/green_ll/3.jpg"",""time"":152},{""stimulus"":""img/green_ll/4.jpg"",""time"":202},{""stimulus"":""img/green_ll/5.jpg"",""time"":252},{""stimulus"":""img/green_ll/6.jpg"",""time"":302},{""stimulus"":""img/green_ll/7.jpg"",""time"":351},{""stimulus"":""img/green_ll/8.jpg"",""time"":402},{""stimulus"":""img/green_ll/9.jpg"",""time"":451},{""stimulus"":""img/green_ll/10.jpg"",""time"":501},{""stimulus"":""img/green_ll/11.jpg"",""time"":562}]","[]"
"image-keyboard-response","142","175655","0.0-5.0-1.69","63e5ffdf639ebdcf35aacb09","bdp_lott","Sun Mar 26 2023 20:16:40 GMT+0200 (Central European Summer Time)","303608","green","red","","315","","","","choice","","img/green_ll/choose11.jpg","1","156","green","0.5","0.5","0.5","w","",""
"animation","143","176256","0.0-5.0-2.69","63e5ffdf639ebdcf35aacb09","bdp_lott","Sun Mar 26 2023 20:16:40 GMT+0200 (Central European Summer Time)","303608","green","red","","","","","","","","","","156","","","","","","[{""stimulus"":""img/green_wl/1.jpg"",""time"":56},{""stimulus"":""img/green_wl/2.jpg"",""time"":103},{""stimulus"":""img/green_wl/3.jpg"",""time"":152},{""stimulus"":""img/green_wl/4.jpg"",""time"":202},{""stimulus"":""img/green_wl/5.jpg"",""time"":252},{""stimulus"":""img/green_wl/6.jpg"",""time"":306},{""stimulus"":""img/green_wl/7.jpg"",""time"":351},{""stimulus"":""img/green_wl/8.jpg"",""time"":402},{""stimulus"":""img/green_wl/9.jpg"",""time"":451},{""stimulus"":""img/green_wl/10.jpg"",""time"":511},{""stimulus"":""img/green_wl/11.jpg"",""time"":552}]","[]"
"image-keyboard-response","144","176766","0.0-5.0-1.70","63e5ffdf639ebdcf35aacb09","bdp_lott","Sun Mar 26 2023 20:16:40 GMT+0200 (Central European Summer Time)","303608","green","red","","509","","","","choice","","img/green_wl/choose11.jpg","1","155","green","0.5","0.5","0.5","l","",""
"animation","145","177377","0.0-5.0-2.70","63e5ffdf639ebdcf35aacb09","bdp_lott","Sun Mar 26 2023 20:16:40 GMT+0200 (Central European Summer Time)","303608","green","red","","","","","","","","","","155","","","","","","[{""stimulus"":""img/green_ll/1.jpg"",""time"":53},{""stimulus"":""img/green_ll/2.jpg"",""time"":102},{""stimulus"":""img/green_ll/3.jpg"",""time"":152},{""stimulus"":""img/green_ll/4.jpg"",""time"":202},{""stimulus"":""img/green_ll/5.jpg"",""time"":253},{""stimulus"":""img/green_ll/6.jpg"",""time"":302},{""stimulus"":""img/green_ll/7.jpg"",""time"":352},{""stimulus"":""img/green_ll/8.jpg"",""time"":402},{""stimulus"":""img/green_ll/9.jpg"",""time"":452},{""stimulus"":""img/green_ll/10.jpg"",""time"":501},{""stimulus"":""img/green_ll/11.jpg"",""time"":552}]","[]"
"image-keyboard-response","146","177678","0.0-5.0-1.71","63e5ffdf639ebdcf35aacb09","bdp_lott","Sun Mar 26 2023 20:16:40 GMT+0200 (Central European Summer Time)","303608","green","red","","300","","","","choice","","img/green_ll/choose11.jpg","1","154","green","0.5","0.5","0.5","w","",""
"animation","147","178280","0.0-5.0-2.71","63e5ffdf639ebdcf35aacb09","bdp_lott","Sun Mar 26 2023 20:16:40 GMT+0200 (Central European Summer Time)","303608","green","red","","","","","","","","","","154","","","","","","[{""stimulus"":""img/green_wl/1.jpg"",""time"":67},{""stimulus"":""img/green_wl/2.jpg"",""time"":102},{""stimulus"":""img/green_wl/3.jpg"",""time"":163},{""stimulus"":""img/green_wl/4.jpg"",""time"":201},{""stimulus"":""img/green_wl/5.jpg"",""time"":258},{""stimulus"":""img/green_wl/6.jpg"",""time"":302},{""stimulus"":""img/green_wl/7.jpg"",""time"":353},{""stimulus"":""img/green_wl/8.jpg"",""time"":403},{""stimulus"":""img/green_wl/9.jpg"",""time"":453},{""stimulus"":""img/green_wl/10.jpg"",""time"":502},{""stimulus"":""img/green_wl/11.jpg"",""time"":552}]","[]"
"image-keyboard-response","148","178742","0.0-5.0-1.72","63e5ffdf639ebdcf35aacb09","bdp_lott","Sun Mar 26 2023 20:16:40 GMT+0200 (Central European Summer Time)","303608","green","red","","461","","","","choice","","img/green_wl/choose11.jpg","1","153","green","0.5","0.5","0.5","w","",""
"animation","149","179343","0.0-5.0-2.72","63e5ffdf639ebdcf35aacb09","bdp_lott","Sun Mar 26 2023 20:16:40 GMT+0200 (Central European Summer Time)","303608","green","red","","","","","","","","","","153","","","","","","[{""stimulus"":""img/green_wl/1.jpg"",""time"":55},{""stimulus"":""img/green_wl/2.jpg"",""time"":103},{""stimulus"":""img/green_wl/3.jpg"",""time"":153},{""stimulus"":""img/green_wl/4.jpg"",""time"":214},{""stimulus"":""img/green_wl/5.jpg"",""time"":252},{""stimulus"":""img/green_wl/6.jpg"",""time"":307},{""stimulus"":""img/green_wl/7.jpg"",""time"":352},{""stimulus"":""img/green_wl/8.jpg"",""time"":402},{""stimulus"":""img/green_wl/9.jpg"",""time"":452},{""stimulus"":""img/green_wl/10.jpg"",""time"":501},{""stimulus"":""img/green_wl/11.jpg"",""time"":552}]","[]"
"image-keyboard-response","150","179718","0.0-5.0-1.73","63e5ffdf639ebdcf35aacb09","bdp_lott","Sun Mar 26 2023 20:16:40 GMT+0200 (Central European Summer Time)","303608","green","red","","373","","","","choice","","img/green_wl/choose11.jpg","1","152","green","0.5","0.5","0.5","w","",""
"animation","151","180323","0.0-5.0-2.73","63e5ffdf639ebdcf35aacb09","bdp_lott","Sun Mar 26 2023 20:16:40 GMT+0200 (Central European Summer Time)","303608","green","red","","","","","","","","","","152","","","","","","[{""stimulus"":""img/green_wl/1.jpg"",""time"":54},{""stimulus"":""img/green_wl/2.jpg"",""time"":102},{""stimulus"":""img/green_wl/3.jpg"",""time"":152},{""stimulus"":""img/green_wl/4.jpg"",""time"":202},{""stimulus"":""img/green_wl/5.jpg"",""time"":252},{""stimulus"":""img/green_wl/6.jpg"",""time"":302},{""stimulus"":""img/green_wl/7.jpg"",""time"":352},{""stimulus"":""img/green_wl/8.jpg"",""time"":402},{""stimulus"":""img/green_wl/9.jpg"",""time"":452},{""stimulus"":""img/green_wl/10.jpg"",""time"":502},{""stimulus"":""img/green_wl/11.jpg"",""time"":551}]","[]"
"image-keyboard-response","152","180998","0.0-5.0-1.74","63e5ffdf639ebdcf35aacb09","bdp_lott","Sun Mar 26 2023 20:16:40 GMT+0200 (Central European Summer Time)","303608","green","red","","674","","","","choice","","img/green_wl/choose11.jpg","1","151","green","0.5","0.5","0.5","w","",""
"animation","153","181600","0.0-5.0-2.74","63e5ffdf639ebdcf35aacb09","bdp_lott","Sun Mar 26 2023 20:16:40 GMT+0200 (Central European Summer Time)","303608","green","red","","","","","","","","","","151","","","","","","[{""stimulus"":""img/green_wl/1.jpg"",""time"":65},{""stimulus"":""img/green_wl/2.jpg"",""time"":106},{""stimulus"":""img/green_wl/3.jpg"",""time"":155},{""stimulus"":""img/green_wl/4.jpg"",""time"":206},{""stimulus"":""img/green_wl/5.jpg"",""time"":251},{""stimulus"":""img/green_wl/6.jpg"",""time"":302},{""stimulus"":""img/green_wl/7.jpg"",""time"":351},{""stimulus"":""img/green_wl/8.jpg"",""time"":401},{""stimulus"":""img/green_wl/9.jpg"",""time"":451},{""stimulus"":""img/green_wl/10.jpg"",""time"":501},{""stimulus"":""img/green_wl/11.jpg"",""time"":550}]","[]"
"image-keyboard-response","154","181934","0.0-5.0-1.75","63e5ffdf639ebdcf35aacb09","bdp_lott","Sun Mar 26 2023 20:16:40 GMT+0200 (Central European Summer Time)","303608","green","red","","333","","","","choice","","img/green_wl/choose11.jpg","1","150","green","0.5","0.5","0.5","l","",""
"animation","155","182537","0.0-5.0-2.75","63e5ffdf639ebdcf35aacb09","bdp_lott","Sun Mar 26 2023 20:16:40 GMT+0200 (Central European Summer Time)","303608","green","red","","","","","","","","","","150","","","","","","[{""stimulus"":""img/green_ll/1.jpg"",""time"":53},{""stimulus"":""img/green_ll/2.jpg"",""time"":101},{""stimulus"":""img/green_ll/3.jpg"",""time"":152},{""stimulus"":""img/green_ll/4.jpg"",""time"":202},{""stimulus"":""img/green_ll/5.jpg"",""time"":251},{""stimulus"":""img/green_ll/6.jpg"",""time"":301},{""stimulus"":""img/green_ll/7.jpg"",""time"":351},{""stimulus"":""img/green_ll/8.jpg"",""time"":401},{""stimulus"":""img/green_ll/9.jpg"",""time"":452},{""stimulus"":""img/green_ll/10.jpg"",""time"":514},{""stimulus"":""img/green_ll/11.jpg"",""time"":552}]","[]"
"image-keyboard-response","156","182998","0.0-5.0-1.76","63e5ffdf639ebdcf35aacb09","bdp_lott","Sun Mar 26 2023 20:16:40 GMT+0200 (Central European Summer Time)","303608","green","red","","460","","","","choice","","img/green_ll/choose11.jpg","1","149","green","0.5","0.1","0.5","w","",""
"animation","157","183600","0.0-5.0-2.76","63e5ffdf639ebdcf35aacb09","bdp_lott","Sun Mar 26 2023 20:16:40 GMT+0200 (Central European Summer Time)","303608","green","red","","","","","","","","","","149","","","","","","[{""stimulus"":""img/green_wl/1.jpg"",""time"":54},{""stimulus"":""img/green_wl/2.jpg"",""time"":105},{""stimulus"":""img/green_wl/3.jpg"",""time"":152},{""stimulus"":""img/green_wl/4.jpg"",""time"":213},{""stimulus"":""img/green_wl/5.jpg"",""time"":260},{""stimulus"":""img/green_wl/6.jpg"",""time"":302},{""stimulus"":""img/green_wl/7.jpg"",""time"":352},{""stimulus"":""img/green_wl/8.jpg"",""time"":403},{""stimulus"":""img/green_wl/9.jpg"",""time"":452},{""stimulus"":""img/green_wl/10.jpg"",""time"":501},{""stimulus"":""img/green_wl/11.jpg"",""time"":552}]","[]"
"image-keyboard-response","158","184015","0.0-5.0-1.77","63e5ffdf639ebdcf35aacb09","bdp_lott","Sun Mar 26 2023 20:16:40 GMT+0200 (Central European Summer Time)","303608","green","red","","414","","","","choice","","img/green_wl/choose11.jpg","1","148","green","0.5","0.1","0.5","w","",""
"animation","159","184616","0.0-5.0-2.77","63e5ffdf639ebdcf35aacb09","bdp_lott","Sun Mar 26 2023 20:16:40 GMT+0200 (Central European Summer Time)","303608","green","red","","","","","","","","","","148","","","","","","[{""stimulus"":""img/green_wl/1.jpg"",""time"":52},{""stimulus"":""img/green_wl/2.jpg"",""time"":102},{""stimulus"":""img/green_wl/3.jpg"",""time"":152},{""stimulus"":""img/green_wl/4.jpg"",""time"":201},{""stimulus"":""img/green_wl/5.jpg"",""time"":252},{""stimulus"":""img/green_wl/6.jpg"",""time"":302},{""stimulus"":""img/green_wl/7.jpg"",""time"":351},{""stimulus"":""img/green_wl/8.jpg"",""time"":402},{""stimulus"":""img/green_wl/9.jpg"",""time"":451},{""stimulus"":""img/green_wl/10.jpg"",""time"":501},{""stimulus"":""img/green_wl/11.jpg"",""time"":553}]","[]"
"image-keyboard-response","160","185112","0.0-5.0-1.78","63e5ffdf639ebdcf35aacb09","bdp_lott","Sun Mar 26 2023 20:16:40 GMT+0200 (Central European Summer Time)","303608","green","red","","495","","","","choice","","img/green_wl/choose11.jpg","1","147","green","0.5","0.1","0.5","l","",""
"animation","161","185713","0.0-5.0-2.78","63e5ffdf639ebdcf35aacb09","bdp_lott","Sun Mar 26 2023 20:16:40 GMT+0200 (Central European Summer Time)","303608","green","red","","","","","","","","","","147","","","","","","[{""stimulus"":""img/green_ll/1.jpg"",""time"":62},{""stimulus"":""img/green_ll/2.jpg"",""time"":107},{""stimulus"":""img/green_ll/3.jpg"",""time"":152},{""stimulus"":""img/green_ll/4.jpg"",""time"":203},{""stimulus"":""img/green_ll/5.jpg"",""time"":252},{""stimulus"":""img/green_ll/6.jpg"",""time"":302},{""stimulus"":""img/green_ll/7.jpg"",""time"":352},{""stimulus"":""img/green_ll/8.jpg"",""time"":402},{""stimulus"":""img/green_ll/9.jpg"",""time"":452},{""stimulus"":""img/green_ll/10.jpg"",""time"":501},{""stimulus"":""img/green_ll/11.jpg"",""time"":552}]","[]"
"image-keyboard-response","162","186254","0.0-5.0-1.79","63e5ffdf639ebdcf35aacb09","bdp_lott","Sun Mar 26 2023 20:16:40 GMT+0200 (Central European Summer Time)","303608","green","red","","539","","","","choice","","img/green_ll/choose11.jpg","2","146","red","0.5","0.1","0.1","l","",""
"animation","163","186855","0.0-5.0-2.79","63e5ffdf639ebdcf35aacb09","bdp_lott","Sun Mar 26 2023 20:16:40 GMT+0200 (Central European Summer Time)","303608","green","red","","","","","","","","","","146","","","","","","[{""stimulus"":""img/red_ll/1.jpg"",""time"":59},{""stimulus"":""img/red_ll/2.jpg"",""time"":107},{""stimulus"":""img/red_ll/3.jpg"",""time"":153},{""stimulus"":""img/red_ll/4.jpg"",""time"":201},{""stimulus"":""img/red_ll/5.jpg"",""time"":252},{""stimulus"":""img/red_ll/6.jpg"",""time"":301},{""stimulus"":""img/red_ll/7.jpg"",""time"":352},{""stimulus"":""img/red_ll/8.jpg"",""time"":403},{""stimulus"":""img/red_ll/9.jpg"",""time"":452},{""stimulus"":""img/red_ll/10.jpg"",""time"":506},{""stimulus"":""img/red_ll/11.jpg"",""time"":552}]","[]"
"image-keyboard-response","164","187231","0.0-5.0-1.80","63e5ffdf639ebdcf35aacb09","bdp_lott","Sun Mar 26 2023 20:16:40 GMT+0200 (Central European Summer Time)","303608","green","red","","374","","","","choice","","img/red_ll/choose11.jpg","2","145","red","0.5","0.1","0.1","w","",""
"animation","165","187832","0.0-5.0-2.80","63e5ffdf639ebdcf35aacb09","bdp_lott","Sun Mar 26 2023 20:16:40 GMT+0200 (Central European Summer Time)","303608","green","red","","","","","","","","","","145","","","","","","[{""stimulus"":""img/red_lw/1.jpg"",""time"":61},{""stimulus"":""img/red_lw/2.jpg"",""time"":106},{""stimulus"":""img/red_lw/3.jpg"",""time"":156},{""stimulus"":""img/red_lw/4.jpg"",""time"":203},{""stimulus"":""img/red_lw/5.jpg"",""time"":267},{""stimulus"":""img/red_lw/6.jpg"",""time"":306},{""stimulus"":""img/red_lw/7.jpg"",""time"":356},{""stimulus"":""img/red_lw/8.jpg"",""time"":406},{""stimulus"":""img/red_lw/9.jpg"",""time"":457},{""stimulus"":""img/red_lw/10.jpg"",""time"":504},{""stimulus"":""img/red_lw/11.jpg"",""time"":552}]","[]"
"image-keyboard-response","166","188513","0.0-5.0-1.81","63e5ffdf639ebdcf35aacb09","bdp_lott","Sun Mar 26 2023 20:16:40 GMT+0200 (Central European Summer Time)","303608","green","red","","680","","","","choice","","img/red_lw/choose11.jpg","2","144","red","0.5","0.1","0.1","l","",""
"animation","167","189117","0.0-5.0-2.81","63e5ffdf639ebdcf35aacb09","bdp_lott","Sun Mar 26 2023 20:16:40 GMT+0200 (Central European Summer Time)","303608","green","red","","","","","","","","","","144","","","","","","[{""stimulus"":""img/red_ll/1.jpg"",""time"":65},{""stimulus"":""img/red_ll/2.jpg"",""time"":101},{""stimulus"":""img/red_ll/3.jpg"",""time"":160},{""stimulus"":""img/red_ll/4.jpg"",""time"":206},{""stimulus"":""img/red_ll/5.jpg"",""time"":254},{""stimulus"":""img/red_ll/6.jpg"",""time"":303},{""stimulus"":""img/red_ll/7.jpg"",""time"":371},{""stimulus"":""img/red_ll/8.jpg"",""time"":409},{""stimulus"":""img/red_ll/9.jpg"",""time"":457},{""stimulus"":""img/red_ll/10.jpg"",""time"":508},{""stimulus"":""img/red_ll/11.jpg"",""time"":558}]","[]"
"image-keyboard-response","168","189502","0.0-5.0-1.82","63e5ffdf639ebdcf35aacb09","bdp_lott","Sun Mar 26 2023 20:16:40 GMT+0200 (Central European Summer Time)","303608","green","red","","384","","","","choice","","img/red_ll/choose11.jpg","2","143","red","0.5","0.1","0.1","l","",""
"animation","169","190104","0.0-5.0-2.82","63e5ffdf639ebdcf35aacb09","bdp_lott","Sun Mar 26 2023 20:16:40 GMT+0200 (Central European Summer Time)","303608","green","red","","","","","","","","","","143","","","","","","[{""stimulus"":""img/red_ll/1.jpg"",""time"":58},{""stimulus"":""img/red_ll/2.jpg"",""time"":105},{""stimulus"":""img/red_ll/3.jpg"",""time"":151},{""stimulus"":""img/red_ll/4.jpg"",""time"":201},{""stimulus"":""img/red_ll/5.jpg"",""time"":262},{""stimulus"":""img/red_ll/6.jpg"",""time"":302},{""stimulus"":""img/red_ll/7.jpg"",""time"":351},{""stimulus"":""img/red_ll/8.jpg"",""time"":404},{""stimulus"":""img/red_ll/9.jpg"",""time"":451},{""stimulus"":""img/red_ll/10.jpg"",""time"":502},{""stimulus"":""img/red_ll/11.jpg"",""time"":551}]","[]"
"image-keyboard-response","170","190446","0.0-5.0-1.83","63e5ffdf639ebdcf35aacb09","bdp_lott","Sun Mar 26 2023 20:16:40 GMT+0200 (Central European Summer Time)","303608","green","red","","340","","","","choice","","img/red_ll/choose11.jpg","2","142","red","0.5","0.1","0.1","l","",""
"animation","171","191048","0.0-5.0-2.83","63e5ffdf639ebdcf35aacb09","bdp_lott","Sun Mar 26 2023 20:16:40 GMT+0200 (Central European Summer Time)","303608","green","red","","","","","","","","","","142","","","","","","[{""stimulus"":""img/red_ll/1.jpg"",""time"":64},{""stimulus"":""img/red_ll/2.jpg"",""time"":106},{""stimulus"":""img/red_ll/3.jpg"",""time"":151},{""stimulus"":""img/red_ll/4.jpg"",""time"":201},{""stimulus"":""img/red_ll/5.jpg"",""time"":253},{""stimulus"":""img/red_ll/6.jpg"",""time"":302},{""stimulus"":""img/red_ll/7.jpg"",""time"":352},{""stimulus"":""img/red_ll/8.jpg"",""time"":402},{""stimulus"":""img/red_ll/9.jpg"",""time"":452},{""stimulus"":""img/red_ll/10.jpg"",""time"":507},{""stimulus"":""img/red_ll/11.jpg"",""time"":551}]","[]"
"image-keyboard-response","172","191286","0.0-5.0-1.84","63e5ffdf639ebdcf35aacb09","bdp_lott","Sun Mar 26 2023 20:16:40 GMT+0200 (Central European Summer Time)","303608","green","red","","237","","","","choice","","img/red_ll/choose11.jpg","2","141","red","0.5","0.1","0.1","l","",""
"animation","173","191889","0.0-5.0-2.84","63e5ffdf639ebdcf35aacb09","bdp_lott","Sun Mar 26 2023 20:16:40 GMT+0200 (Central European Summer Time)","303608","green","red","","","","","","","","","","141","","","","","","[{""stimulus"":""img/red_ll/1.jpg"",""time"":66},{""stimulus"":""img/red_ll/2.jpg"",""time"":115},{""stimulus"":""img/red_ll/3.jpg"",""time"":152},{""stimulus"":""img/red_ll/4.jpg"",""time"":201},{""stimulus"":""img/red_ll/5.jpg"",""time"":251},{""stimulus"":""img/red_ll/6.jpg"",""time"":301},{""stimulus"":""img/red_ll/7.jpg"",""time"":367},{""stimulus"":""img/red_ll/8.jpg"",""time"":401},{""stimulus"":""img/red_ll/9.jpg"",""time"":451},{""stimulus"":""img/red_ll/10.jpg"",""time"":501},{""stimulus"":""img/red_ll/11.jpg"",""time"":580}]","[]"
"image-keyboard-response","174","192166","0.0-5.0-1.85","63e5ffdf639ebdcf35aacb09","bdp_lott","Sun Mar 26 2023 20:16:40 GMT+0200 (Central European Summer Time)","303608","green","red","","276","","","","choice","","img/red_ll/choose11.jpg","2","140","red","0.5","0.1","0.1","l","",""
"animation","175","192769","0.0-5.0-2.85","63e5ffdf639ebdcf35aacb09","bdp_lott","Sun Mar 26 2023 20:16:40 GMT+0200 (Central European Summer Time)","303608","green","red","","","","","","","","","","140","","","","","","[{""stimulus"":""img/red_ll/1.jpg"",""time"":56},{""stimulus"":""img/red_ll/2.jpg"",""time"":101},{""stimulus"":""img/red_ll/3.jpg"",""time"":152},{""stimulus"":""img/red_ll/4.jpg"",""time"":217},{""stimulus"":""img/red_ll/5.jpg"",""time"":253},{""stimulus"":""img/red_ll/6.jpg"",""time"":301},{""stimulus"":""img/red_ll/7.jpg"",""time"":352},{""stimulus"":""img/red_ll/8.jpg"",""time"":401},{""stimulus"":""img/red_ll/9.jpg"",""time"":453},{""stimulus"":""img/red_ll/10.jpg"",""time"":503},{""stimulus"":""img/red_ll/11.jpg"",""time"":553}]","[]"
"image-keyboard-response","176","192958","0.0-5.0-1.86","63e5ffdf639ebdcf35aacb09","bdp_lott","Sun Mar 26 2023 20:16:40 GMT+0200 (Central European Summer Time)","303608","green","red","","188","","","","choice","","img/red_ll/choose11.jpg","2","139","red","0.5","0.1","0.1","l","",""
"animation","177","193560","0.0-5.0-2.86","63e5ffdf639ebdcf35aacb09","bdp_lott","Sun Mar 26 2023 20:16:40 GMT+0200 (Central European Summer Time)","303608","green","red","","","","","","","","","","139","","","","","","[{""stimulus"":""img/red_ll/1.jpg"",""time"":59},{""stimulus"":""img/red_ll/2.jpg"",""time"":106},{""stimulus"":""img/red_ll/3.jpg"",""time"":154},{""stimulus"":""img/red_ll/4.jpg"",""time"":201},{""stimulus"":""img/red_ll/5.jpg"",""time"":251},{""stimulus"":""img/red_ll/6.jpg"",""time"":301},{""stimulus"":""img/red_ll/7.jpg"",""time"":352},{""stimulus"":""img/red_ll/8.jpg"",""time"":405},{""stimulus"":""img/red_ll/9.jpg"",""time"":452},{""stimulus"":""img/red_ll/10.jpg"",""time"":501},{""stimulus"":""img/red_ll/11.jpg"",""time"":552}]","[]"
"image-keyboard-response","178","193728","0.0-5.0-1.87","63e5ffdf639ebdcf35aacb09","bdp_lott","Sun Mar 26 2023 20:16:40 GMT+0200 (Central European Summer Time)","303608","green","red","","167","","","","choice","","img/red_ll/choose11.jpg","1","138","green","0.5","0.1","0.5","w","",""
"animation","179","194330","0.0-5.0-2.87","63e5ffdf639ebdcf35aacb09","bdp_lott","Sun Mar 26 2023 20:16:40 GMT+0200 (Central European Summer Time)","303608","green","red","","","","","","","","","","138","","","","","","[{""stimulus"":""img/green_wl/1.jpg"",""time"":62},{""stimulus"":""img/green_wl/2.jpg"",""time"":109},{""stimulus"":""img/green_wl/3.jpg"",""time"":157},{""stimulus"":""img/green_wl/4.jpg"",""time"":205},{""stimulus"":""img/green_wl/5.jpg"",""time"":252},{""stimulus"":""img/green_wl/6.jpg"",""time"":302},{""stimulus"":""img/green_wl/7.jpg"",""time"":352},{""stimulus"":""img/green_wl/8.jpg"",""time"":402},{""stimulus"":""img/green_wl/9.jpg"",""time"":452},{""stimulus"":""img/green_wl/10.jpg"",""time"":506},{""stimulus"":""img/green_wl/11.jpg"",""time"":553}]","[]"
"image-keyboard-response","180","194495","0.0-5.0-1.88","63e5ffdf639ebdcf35aacb09","bdp_lott","Sun Mar 26 2023 20:16:40 GMT+0200 (Central European Summer Time)","303608","green","red","","164","","","","choice","","img/green_wl/choose11.jpg","1","137","green","0.5","0.1","0.5","w","",""
"animation","181","195096","0.0-5.0-2.88","63e5ffdf639ebdcf35aacb09","bdp_lott","Sun Mar 26 2023 20:16:40 GMT+0200 (Central European Summer Time)","303608","green","red","","","","","","","","","","137","","","","","","[{""stimulus"":""img/green_wl/1.jpg"",""time"":54},{""stimulus"":""img/green_wl/2.jpg"",""time"":116},{""stimulus"":""img/green_wl/3.jpg"",""time"":153},{""stimulus"":""img/green_wl/4.jpg"",""time"":209},{""stimulus"":""img/green_wl/5.jpg"",""time"":251},{""stimulus"":""img/green_wl/6.jpg"",""time"":306},{""stimulus"":""img/green_wl/7.jpg"",""time"":353},{""stimulus"":""img/green_wl/8.jpg"",""time"":402},{""stimulus"":""img/green_wl/9.jpg"",""time"":452},{""stimulus"":""img/green_wl/10.jpg"",""time"":501},{""stimulus"":""img/green_wl/11.jpg"",""time"":552}]","[]"
"image-keyboard-response","182","195407","0.0-5.0-1.89","63e5ffdf639ebdcf35aacb09","bdp_lott","Sun Mar 26 2023 20:16:40 GMT+0200 (Central European Summer Time)","303608","green","red","","309","","","","choice","","img/green_wl/choose11.jpg","1","136","green","0.5","0.1","0.5","l","",""
"animation","183","196010","0.0-5.0-2.89","63e5ffdf639ebdcf35aacb09","bdp_lott","Sun Mar 26 2023 20:16:40 GMT+0200 (Central European Summer Time)","303608","green","red","","","","","","","","","","136","","","","","","[{""stimulus"":""img/green_ll/1.jpg"",""time"":62},{""stimulus"":""img/green_ll/2.jpg"",""time"":101},{""stimulus"":""img/green_ll/3.jpg"",""time"":152},{""stimulus"":""img/green_ll/4.jpg"",""time"":202},{""stimulus"":""img/green_ll/5.jpg"",""time"":253},{""stimulus"":""img/green_ll/6.jpg"",""time"":302},{""stimulus"":""img/green_ll/7.jpg"",""time"":363},{""stimulus"":""img/green_ll/8.jpg"",""time"":402},{""stimulus"":""img/green_ll/9.jpg"",""time"":452},{""stimulus"":""img/green_ll/10.jpg"",""time"":507},{""stimulus"":""img/green_ll/11.jpg"",""time"":552}]","[]"
"image-keyboard-response","184","196319","0.0-5.0-1.90","63e5ffdf639ebdcf35aacb09","bdp_lott","Sun Mar 26 2023 20:16:40 GMT+0200 (Central European Summer Time)","303608","green","red","","308","","","","choice","","img/green_ll/choose11.jpg","1","135","green","0.5","0.1","0.5","w","",""
"animation","185","196921","0.0-5.0-2.90","63e5ffdf639ebdcf35aacb09","bdp_lott","Sun Mar 26 2023 20:16:40 GMT+0200 (Central European Summer Time)","303608","green","red","","","","","","","","","","135","","","","","","[{""stimulus"":""img/green_wl/1.jpg"",""time"":64},{""stimulus"":""img/green_wl/2.jpg"",""time"":102},{""stimulus"":""img/green_wl/3.jpg"",""time"":154},{""stimulus"":""img/green_wl/4.jpg"",""time"":217},{""stimulus"":""img/green_wl/5.jpg"",""time"":252},{""stimulus"":""img/green_wl/6.jpg"",""time"":312},{""stimulus"":""img/green_wl/7.jpg"",""time"":351},{""stimulus"":""img/green_wl/8.jpg"",""time"":402},{""stimulus"":""img/green_wl/9.jpg"",""time"":455},{""stimulus"":""img/green_wl/10.jpg"",""time"":501},{""stimulus"":""img/green_wl/11.jpg"",""time"":551}]","[]"
"image-keyboard-response","186","197198","0.0-5.0-1.91","63e5ffdf639ebdcf35aacb09","bdp_lott","Sun Mar 26 2023 20:16:40 GMT+0200 (Central European Summer Time)","303608","green","red","","276","","","","choice","","img/green_wl/choose11.jpg","1","134","green","0.5","0.1","0.5","l","",""
"animation","187","197799","0.0-5.0-2.91","63e5ffdf639ebdcf35aacb09","bdp_lott","Sun Mar 26 2023 20:16:40 GMT+0200 (Central European Summer Time)","303608","green","red","","","","","","","","","","134","","","","","","[{""stimulus"":""img/green_ll/1.jpg"",""time"":66},{""stimulus"":""img/green_ll/2.jpg"",""time"":101},{""stimulus"":""img/green_ll/3.jpg"",""time"":151},{""stimulus"":""img/green_ll/4.jpg"",""time"":201},{""stimulus"":""img/green_ll/5.jpg"",""time"":251},{""stimulus"":""img/green_ll/6.jpg"",""time"":301},{""stimulus"":""img/green_ll/7.jpg"",""time"":352},{""stimulus"":""img/green_ll/8.jpg"",""time"":401},{""stimulus"":""img/green_ll/9.jpg"",""time"":462},{""stimulus"":""img/green_ll/10.jpg"",""time"":501},{""stimulus"":""img/green_ll/11.jpg"",""time"":551}]","[]"
"image-keyboard-response","188","198095","0.0-5.0-1.92","63e5ffdf639ebdcf35aacb09","bdp_lott","Sun Mar 26 2023 20:16:40 GMT+0200 (Central European Summer Time)","303608","green","red","","294","","","","choice","","img/green_ll/choose11.jpg","1","133","green","0.5","0.1","0.5","w","",""
