"trial_type","trial_index","time_elapsed","internal_node_id","subject_id","task","startTime","totalTime","fairMachine","unfairMachine","view_history","rt","event","trial","time","trialtype","success","stimulus","key_press","roundsLeft","chosen","pFairMachWin","pUnfairMachWin","pTrialWin","outcome","animation_sequence","responses"
"pavlovia","0","6","0.0-0.0","63f477547d2302b4346299f4","bdp_lott","Sun Apr 09 2023 19:07:33 GMT-0500 (Central Daylight Time)","245874","red","green","","","","","","","","","","","","","","","","",""
"instructions","1","13056","0.0-1.0","63f477547d2302b4346299f4","bdp_lott","Sun Apr 09 2023 19:07:33 GMT-0500 (Central Daylight Time)","245874","red","green","[{""page_index"":0,""viewing_time"":13050}]","13050","","","","","","","","","","","","","","",""
"","","","","63f477547d2302b4346299f4","bdp_lott","Sun Apr 09 2023 19:07:33 GMT-0500 (Central Daylight Time)","245874","red","green","","","fullscreenenter","2","14648","fullscreenenter","","","","","","","","","","",""
"fullscreen","2","15641","0.0-2.0","63f477547d2302b4346299f4","bdp_lott","Sun Apr 09 2023 19:07:33 GMT-0500 (Central Daylight Time)","245874","red","green","","","","","","","true","","","","","","","","","",""
"instructions","3","23848","0.0-4.0","63f477547d2302b4346299f4","bdp_lott","Sun Apr 09 2023 19:07:33 GMT-0500 (Central Daylight Time)","245874","red","green","[{""page_index"":0,""viewing_time"":8205}]","8205","","","","","","","","","","","","","","",""
"image-keyboard-response","4","26089","0.0-5.0-1.0","63f477547d2302b4346299f4","bdp_lott","Sun Apr 09 2023 19:07:33 GMT-0500 (Central Daylight Time)","245874","red","green","","2239","","","","choice","","img/red_ll/initchoose11.jpg","1","225","green","0.5","0.5","0.5","w","",""
"animation","5","26691","0.0-5.0-2.0","63f477547d2302b4346299f4","bdp_lott","Sun Apr 09 2023 19:07:33 GMT-0500 (Central Daylight Time)","245874","red","green","","","","","","","","","","225","","","","","","[{""stimulus"":""img/green_wl/1.jpg"",""time"":65},{""stimulus"":""img/green_wl/2.jpg"",""time"":102},{""stimulus"":""img/green_wl/3.jpg"",""time"":152},{""stimulus"":""img/green_wl/4.jpg"",""time"":202},{""stimulus"":""img/green_wl/5.jpg"",""time"":252},{""stimulus"":""img/green_wl/6.jpg"",""time"":301},{""stimulus"":""img/green_wl/7.jpg"",""time"":352},{""stimulus"":""img/green_wl/8.jpg"",""time"":401},{""stimulus"":""img/green_wl/9.jpg"",""time"":451},{""stimulus"":""img/green_wl/10.jpg"",""time"":504},{""stimulus"":""img/green_wl/11.jpg"",""time"":552}]","[]"
"image-keyboard-response","6","27598","0.0-5.0-1.1","63f477547d2302b4346299f4","bdp_lott","Sun Apr 09 2023 19:07:33 GMT-0500 (Central Daylight Time)","245874","red","green","","904","","","","choice","","img/green_wl/choose11.jpg","2","224","red","0.5","0.5","0.5","l","",""
"animation","7","28199","0.0-5.0-2.1","63f477547d2302b4346299f4","bdp_lott","Sun Apr 09 2023 19:07:33 GMT-0500 (Central Daylight Time)","245874","red","green","","","","","","","","","","224","","","","","","[{""stimulus"":""img/red_wl/1.jpg"",""time"":64},{""stimulus"":""img/red_wl/2.jpg"",""time"":102},{""stimulus"":""img/red_wl/3.jpg"",""time"":160},{""stimulus"":""img/red_wl/4.jpg"",""time"":214},{""stimulus"":""img/red_wl/5.jpg"",""time"":253},{""stimulus"":""img/red_wl/6.jpg"",""time"":301},{""stimulus"":""img/red_wl/7.jpg"",""time"":351},{""stimulus"":""img/red_wl/8.jpg"",""time"":401},{""stimulus"":""img/red_wl/9.jpg"",""time"":460},{""stimulus"":""img/red_wl/10.jpg"",""time"":510},{""stimulus"":""img/red_wl/11.jpg"",""time"":552}]","[]"
"image-keyboard-response","8","28744","0.0-5.0-1.2","63f477547d2302b4346299f4","bdp_lott","Sun Apr 09 2023 19:07:33 GMT-0500 (Central Daylight Time)","245874","red","green","","544","","","","choice","","img/red_wl/choose11.jpg","2","223","red","0.5","0.5","0.5","l","",""
"animation","9","29346","0.0-5.0-2.2","63f477547d2302b4346299f4","bdp_lott","Sun Apr 09 2023 19:07:33 GMT-0500 (Central Daylight Time)","245874","red","green","","","","","","","","","","223","","","","","","[{""stimulus"":""img/red_wl/1.jpg"",""time"":63},{""stimulus"":""img/red_wl/2.jpg"",""time"":109},{""stimulus"":""img/red_wl/3.jpg"",""time"":155},{""stimulus"":""img/red_wl/4.jpg"",""time"":201},{""stimulus"":""img/red_wl/5.jpg"",""time"":263},{""stimulus"":""img/red_wl/6.jpg"",""time"":301},{""stimulus"":""img/red_wl/7.jpg"",""time"":363},{""stimulus"":""img/red_wl/8.jpg"",""time"":401},{""stimulus"":""img/red_wl/9.jpg"",""time"":463},{""stimulus"":""img/red_wl/10.jpg"",""time"":501},{""stimulus"":""img/red_wl/11.jpg"",""time"":563}]","[]"
"image-keyboard-response","10","29746","0.0-5.0-1.3","63f477547d2302b4346299f4","bdp_lott","Sun Apr 09 2023 19:07:33 GMT-0500 (Central Daylight Time)","245874","red","green","","399","","","","choice","","img/red_wl/choose11.jpg","2","222","red","0.5","0.5","0.5","w","",""
"animation","11","30356","0.0-5.0-2.3","63f477547d2302b4346299f4","bdp_lott","Sun Apr 09 2023 19:07:33 GMT-0500 (Central Daylight Time)","245874","red","green","","","","","","","","","","222","","","","","","[{""stimulus"":""img/red_ww/1.jpg"",""time"":62},{""stimulus"":""img/red_ww/2.jpg"",""time"":108},{""stimulus"":""img/red_ww/3.jpg"",""time"":160},{""stimulus"":""img/red_ww/4.jpg"",""time"":202},{""stimulus"":""img/red_ww/5.jpg"",""time"":260},{""stimulus"":""img/red_ww/6.jpg"",""time"":302},{""stimulus"":""img/red_ww/7.jpg"",""time"":352},{""stimulus"":""img/red_ww/8.jpg"",""time"":402},{""stimulus"":""img/red_ww/9.jpg"",""time"":460},{""stimulus"":""img/red_ww/10.jpg"",""time"":511},{""stimulus"":""img/red_ww/11.jpg"",""time"":561}]","[]"
"image-keyboard-response","12","31009","0.0-5.0-1.4","63f477547d2302b4346299f4","bdp_lott","Sun Apr 09 2023 19:07:33 GMT-0500 (Central Daylight Time)","245874","red","green","","650","","","","choice","","img/red_ww/choose11.jpg","2","221","red","0.5","0.5","0.5","w","",""
"animation","13","31609","0.0-5.0-2.4","63f477547d2302b4346299f4","bdp_lott","Sun Apr 09 2023 19:07:33 GMT-0500 (Central Daylight Time)","245874","red","green","","","","","","","","","","221","","","","","","[{""stimulus"":""img/red_ww/1.jpg"",""time"":63},{""stimulus"":""img/red_ww/2.jpg"",""time"":107},{""stimulus"":""img/red_ww/3.jpg"",""time"":165},{""stimulus"":""img/red_ww/4.jpg"",""time"":207},{""stimulus"":""img/red_ww/5.jpg"",""time"":256},{""stimulus"":""img/red_ww/6.jpg"",""time"":315},{""stimulus"":""img/red_ww/7.jpg"",""time"":356},{""stimulus"":""img/red_ww/8.jpg"",""time"":406},{""stimulus"":""img/red_ww/9.jpg"",""time"":456},{""stimulus"":""img/red_ww/10.jpg"",""time"":506},{""stimulus"":""img/red_ww/11.jpg"",""time"":556}]","[]"
"image-keyboard-response","14","32034","0.0-5.0-1.5","63f477547d2302b4346299f4","bdp_lott","Sun Apr 09 2023 19:07:33 GMT-0500 (Central Daylight Time)","245874","red","green","","424","","","","choice","","img/red_ww/choose11.jpg","2","220","red","0.5","0.5","0.5","l","",""
"animation","15","32640","0.0-5.0-2.5","63f477547d2302b4346299f4","bdp_lott","Sun Apr 09 2023 19:07:33 GMT-0500 (Central Daylight Time)","245874","red","green","","","","","","","","","","220","","","","","","[{""stimulus"":""img/red_wl/1.jpg"",""time"":62},{""stimulus"":""img/red_wl/2.jpg"",""time"":114},{""stimulus"":""img/red_wl/3.jpg"",""time"":159},{""stimulus"":""img/red_wl/4.jpg"",""time"":201},{""stimulus"":""img/red_wl/5.jpg"",""time"":257},{""stimulus"":""img/red_wl/6.jpg"",""time"":309},{""stimulus"":""img/red_wl/7.jpg"",""time"":351},{""stimulus"":""img/red_wl/8.jpg"",""time"":406},{""stimulus"":""img/red_wl/9.jpg"",""time"":456},{""stimulus"":""img/red_wl/10.jpg"",""time"":506},{""stimulus"":""img/red_wl/11.jpg"",""time"":564}]","[]"
"image-keyboard-response","16","33213","0.0-5.0-1.6","63f477547d2302b4346299f4","bdp_lott","Sun Apr 09 2023 19:07:33 GMT-0500 (Central Daylight Time)","245874","red","green","","571","","","","choice","","img/red_wl/choose11.jpg","1","219","green","0.5","0.5","0.5","w","",""
"animation","17","33815","0.0-5.0-2.6","63f477547d2302b4346299f4","bdp_lott","Sun Apr 09 2023 19:07:33 GMT-0500 (Central Daylight Time)","245874","red","green","","","","","","","","","","219","","","","","","[{""stimulus"":""img/green_wl/1.jpg"",""time"":65},{""stimulus"":""img/green_wl/2.jpg"",""time"":102},{""stimulus"":""img/green_wl/3.jpg"",""time"":161},{""stimulus"":""img/green_wl/4.jpg"",""time"":202},{""stimulus"":""img/green_wl/5.jpg"",""time"":260},{""stimulus"":""img/green_wl/6.jpg"",""time"":311},{""stimulus"":""img/green_wl/7.jpg"",""time"":361},{""stimulus"":""img/green_wl/8.jpg"",""time"":414},{""stimulus"":""img/green_wl/9.jpg"",""time"":452},{""stimulus"":""img/green_wl/10.jpg"",""time"":502},{""stimulus"":""img/green_wl/11.jpg"",""time"":553}]","[]"
"image-keyboard-response","18","34375","0.0-5.0-1.7","63f477547d2302b4346299f4","bdp_lott","Sun Apr 09 2023 19:07:33 GMT-0500 (Central Daylight Time)","245874","red","green","","559","","","","choice","","img/green_wl/choose11.jpg","1","218","green","0.5","0.5","0.5","l","",""
"animation","19","34983","0.0-5.0-2.7","63f477547d2302b4346299f4","bdp_lott","Sun Apr 09 2023 19:07:33 GMT-0500 (Central Daylight Time)","245874","red","green","","","","","","","","","","218","","","","","","[{""stimulus"":""img/green_ll/1.jpg"",""time"":65},{""stimulus"":""img/green_ll/2.jpg"",""time"":109},{""stimulus"":""img/green_ll/3.jpg"",""time"":159},{""stimulus"":""img/green_ll/4.jpg"",""time"":215},{""stimulus"":""img/green_ll/5.jpg"",""time"":258},{""stimulus"":""img/green_ll/6.jpg"",""time"":316},{""stimulus"":""img/green_ll/7.jpg"",""time"":358},{""stimulus"":""img/green_ll/8.jpg"",""time"":416},{""stimulus"":""img/green_ll/9.jpg"",""time"":458},{""stimulus"":""img/green_ll/10.jpg"",""time"":507},{""stimulus"":""img/green_ll/11.jpg"",""time"":565}]","[]"
"image-keyboard-response","20","35547","0.0-5.0-1.8","63f477547d2302b4346299f4","bdp_lott","Sun Apr 09 2023 19:07:33 GMT-0500 (Central Daylight Time)","245874","red","green","","563","","","","choice","","img/green_ll/choose11.jpg","1","217","green","0.5","0.5","0.5","l","",""
"animation","21","36148","0.0-5.0-2.8","63f477547d2302b4346299f4","bdp_lott","Sun Apr 09 2023 19:07:33 GMT-0500 (Central Daylight Time)","245874","red","green","","","","","","","","","","217","","","","","","[{""stimulus"":""img/green_ll/1.jpg"",""time"":66},{""stimulus"":""img/green_ll/2.jpg"",""time"":111},{""stimulus"":""img/green_ll/3.jpg"",""time"":153},{""stimulus"":""img/green_ll/4.jpg"",""time"":210},{""stimulus"":""img/green_ll/5.jpg"",""time"":257},{""stimulus"":""img/green_ll/6.jpg"",""time"":310},{""stimulus"":""img/green_ll/7.jpg"",""time"":353},{""stimulus"":""img/green_ll/8.jpg"",""time"":404},{""stimulus"":""img/green_ll/9.jpg"",""time"":451},{""stimulus"":""img/green_ll/10.jpg"",""time"":504},{""stimulus"":""img/green_ll/11.jpg"",""time"":556}]","[]"
"image-keyboard-response","22","36957","0.0-5.0-1.9","63f477547d2302b4346299f4","bdp_lott","Sun Apr 09 2023 19:07:33 GMT-0500 (Central Daylight Time)","245874","red","green","","808","","","","choice","","img/green_ll/choose11.jpg","2","216","red","0.5","0.5","0.5","l","",""
"animation","23","37565","0.0-5.0-2.9","63f477547d2302b4346299f4","bdp_lott","Sun Apr 09 2023 19:07:33 GMT-0500 (Central Daylight Time)","245874","red","green","","","","","","","","","","216","","","","","","[{""stimulus"":""img/red_ll/1.jpg"",""time"":57},{""stimulus"":""img/red_ll/2.jpg"",""time"":117},{""stimulus"":""img/red_ll/3.jpg"",""time"":166},{""stimulus"":""img/red_ll/4.jpg"",""time"":210},{""stimulus"":""img/red_ll/5.jpg"",""time"":251},{""stimulus"":""img/red_ll/6.jpg"",""time"":301},{""stimulus"":""img/red_ll/7.jpg"",""time"":351},{""stimulus"":""img/red_ll/8.jpg"",""time"":417},{""stimulus"":""img/red_ll/9.jpg"",""time"":467},{""stimulus"":""img/red_ll/10.jpg"",""time"":501},{""stimulus"":""img/red_ll/11.jpg"",""time"":567}]","[]"
"image-keyboard-response","24","37958","0.0-5.0-1.10","63f477547d2302b4346299f4","bdp_lott","Sun Apr 09 2023 19:07:33 GMT-0500 (Central Daylight Time)","245874","red","green","","392","","","","choice","","img/red_ll/choose11.jpg","2","215","red","0.5","0.5","0.5","w","",""
"animation","25","38565","0.0-5.0-2.10","63f477547d2302b4346299f4","bdp_lott","Sun Apr 09 2023 19:07:33 GMT-0500 (Central Daylight Time)","245874","red","green","","","","","","","","","","215","","","","","","[{""stimulus"":""img/red_lw/1.jpg"",""time"":64},{""stimulus"":""img/red_lw/2.jpg"",""time"":108},{""stimulus"":""img/red_lw/3.jpg"",""time"":165},{""stimulus"":""img/red_lw/4.jpg"",""time"":206},{""stimulus"":""img/red_lw/5.jpg"",""time"":265},{""stimulus"":""img/red_lw/6.jpg"",""time"":315},{""stimulus"":""img/red_lw/7.jpg"",""time"":356},{""stimulus"":""img/red_lw/8.jpg"",""time"":415},{""stimulus"":""img/red_lw/9.jpg"",""time"":456},{""stimulus"":""img/red_lw/10.jpg"",""time"":514},{""stimulus"":""img/red_lw/11.jpg"",""time"":556}]","[]"
"image-keyboard-response","26","39114","0.0-5.0-1.11","63f477547d2302b4346299f4","bdp_lott","Sun Apr 09 2023 19:07:33 GMT-0500 (Central Daylight Time)","245874","red","green","","549","","","","choice","","img/red_lw/choose11.jpg","2","214","red","0.5","0.5","0.5","l","",""
"animation","27","39714","0.0-5.0-2.11","63f477547d2302b4346299f4","bdp_lott","Sun Apr 09 2023 19:07:33 GMT-0500 (Central Daylight Time)","245874","red","green","","","","","","","","","","214","","","","","","[{""stimulus"":""img/red_ll/1.jpg"",""time"":56},{""stimulus"":""img/red_ll/2.jpg"",""time"":109},{""stimulus"":""img/red_ll/3.jpg"",""time"":153},{""stimulus"":""img/red_ll/4.jpg"",""time"":209},{""stimulus"":""img/red_ll/5.jpg"",""time"":261},{""stimulus"":""img/red_ll/6.jpg"",""time"":309},{""stimulus"":""img/red_ll/7.jpg"",""time"":359},{""stimulus"":""img/red_ll/8.jpg"",""time"":401},{""stimulus"":""img/red_ll/9.jpg"",""time"":466},{""stimulus"":""img/red_ll/10.jpg"",""time"":510},{""stimulus"":""img/red_ll/11.jpg"",""time"":552}]","[]"
"image-keyboard-response","28","40267","0.0-5.0-1.12","63f477547d2302b4346299f4","bdp_lott","Sun Apr 09 2023 19:07:33 GMT-0500 (Central Daylight Time)","245874","red","green","","552","","","","choice","","img/red_ll/choose11.jpg","2","213","red","0.5","0.5","0.5","w","",""
"animation","29","40874","0.0-5.0-2.12","63f477547d2302b4346299f4","bdp_lott","Sun Apr 09 2023 19:07:33 GMT-0500 (Central Daylight Time)","245874","red","green","","","","","","","","","","213","","","","","","[{""stimulus"":""img/red_lw/1.jpg"",""time"":52},{""stimulus"":""img/red_lw/2.jpg"",""time"":107},{""stimulus"":""img/red_lw/3.jpg"",""time"":157},{""stimulus"":""img/red_lw/4.jpg"",""time"":202},{""stimulus"":""img/red_lw/5.jpg"",""time"":274},{""stimulus"":""img/red_lw/6.jpg"",""time"":308},{""stimulus"":""img/red_lw/7.jpg"",""time"":357},{""stimulus"":""img/red_lw/8.jpg"",""time"":407},{""stimulus"":""img/red_lw/9.jpg"",""time"":458},{""stimulus"":""img/red_lw/10.jpg"",""time"":507},{""stimulus"":""img/red_lw/11.jpg"",""time"":557}]","[]"
"image-keyboard-response","30","41324","0.0-5.0-1.13","63f477547d2302b4346299f4","bdp_lott","Sun Apr 09 2023 19:07:33 GMT-0500 (Central Daylight Time)","245874","red","green","","449","","","","choice","","img/red_lw/choose11.jpg","2","212","red","0.5","0.5","0.5","w","",""
"animation","31","41931","0.0-5.0-2.13","63f477547d2302b4346299f4","bdp_lott","Sun Apr 09 2023 19:07:33 GMT-0500 (Central Daylight Time)","245874","red","green","","","","","","","","","","212","","","","","","[{""stimulus"":""img/red_lw/1.jpg"",""time"":66},{""stimulus"":""img/red_lw/2.jpg"",""time"":111},{""stimulus"":""img/red_lw/3.jpg"",""time"":166},{""stimulus"":""img/red_lw/4.jpg"",""time"":211},{""stimulus"":""img/red_lw/5.jpg"",""time"":266},{""stimulus"":""img/red_lw/6.jpg"",""time"":311},{""stimulus"":""img/red_lw/7.jpg"",""time"":366},{""stimulus"":""img/red_lw/8.jpg"",""time"":407},{""stimulus"":""img/red_lw/9.jpg"",""time"":458},{""stimulus"":""img/red_lw/10.jpg"",""time"":523},{""stimulus"":""img/red_lw/11.jpg"",""time"":557}]","[]"
"image-keyboard-response","32","42356","0.0-5.0-1.14","63f477547d2302b4346299f4","bdp_lott","Sun Apr 09 2023 19:07:33 GMT-0500 (Central Daylight Time)","245874","red","green","","424","","","","choice","","img/red_lw/choose11.jpg","2","211","red","0.5","0.5","0.5","w","",""
"animation","33","42957","0.0-5.0-2.14","63f477547d2302b4346299f4","bdp_lott","Sun Apr 09 2023 19:07:33 GMT-0500 (Central Daylight Time)","245874","red","green","","","","","","","","","","211","","","","","","[{""stimulus"":""img/red_lw/1.jpg"",""time"":55},{""stimulus"":""img/red_lw/2.jpg"",""time"":124},{""stimulus"":""img/red_lw/3.jpg"",""time"":152},{""stimulus"":""img/red_lw/4.jpg"",""time"":202},{""stimulus"":""img/red_lw/5.jpg"",""time"":252},{""stimulus"":""img/red_lw/6.jpg"",""time"":302},{""stimulus"":""img/red_lw/7.jpg"",""time"":352},{""stimulus"":""img/red_lw/8.jpg"",""time"":401},{""stimulus"":""img/red_lw/9.jpg"",""time"":452},{""stimulus"":""img/red_lw/10.jpg"",""time"":502},{""stimulus"":""img/red_lw/11.jpg"",""time"":551}]","[]"
"image-keyboard-response","34","43422","0.0-5.0-1.15","63f477547d2302b4346299f4","bdp_lott","Sun Apr 09 2023 19:07:33 GMT-0500 (Central Daylight Time)","245874","red","green","","464","","","","choice","","img/red_lw/choose11.jpg","2","210","red","0.5","0.5","0.5","w","",""
"animation","35","44024","0.0-5.0-2.15","63f477547d2302b4346299f4","bdp_lott","Sun Apr 09 2023 19:07:33 GMT-0500 (Central Daylight Time)","245874","red","green","","","","","","","","","","210","","","","","","[{""stimulus"":""img/red_lw/1.jpg"",""time"":55},{""stimulus"":""img/red_lw/2.jpg"",""time"":109},{""stimulus"":""img/red_lw/3.jpg"",""time"":151},{""stimulus"":""img/red_lw/4.jpg"",""time"":201},{""stimulus"":""img/red_lw/5.jpg"",""time"":252},{""stimulus"":""img/red_lw/6.jpg"",""time"":302},{""stimulus"":""img/red_lw/7.jpg"",""time"":352},{""stimulus"":""img/red_lw/8.jpg"",""time"":402},{""stimulus"":""img/red_lw/9.jpg"",""time"":452},{""stimulus"":""img/red_lw/10.jpg"",""time"":501},{""stimulus"":""img/red_lw/11.jpg"",""time"":551}]","[]"
"image-keyboard-response","36","44475","0.0-5.0-1.16","63f477547d2302b4346299f4","bdp_lott","Sun Apr 09 2023 19:07:33 GMT-0500 (Central Daylight Time)","245874","red","green","","451","","","","choice","","img/red_lw/choose11.jpg","2","209","red","0.5","0.5","0.5","l","",""
"animation","37","45076","0.0-5.0-2.16","63f477547d2302b4346299f4","bdp_lott","Sun Apr 09 2023 19:07:33 GMT-0500 (Central Daylight Time)","245874","red","green","","","","","","","","","","209","","","","","","[{""stimulus"":""img/red_ll/1.jpg"",""time"":53},{""stimulus"":""img/red_ll/2.jpg"",""time"":107},{""stimulus"":""img/red_ll/3.jpg"",""time"":156},{""stimulus"":""img/red_ll/4.jpg"",""time"":202},{""stimulus"":""img/red_ll/5.jpg"",""time"":257},{""stimulus"":""img/red_ll/6.jpg"",""time"":321},{""stimulus"":""img/red_ll/7.jpg"",""time"":357},{""stimulus"":""img/red_ll/8.jpg"",""time"":415},{""stimulus"":""img/red_ll/9.jpg"",""time"":457},{""stimulus"":""img/red_ll/10.jpg"",""time"":515},{""stimulus"":""img/red_ll/11.jpg"",""time"":556}]","[]"
"image-keyboard-response","38","45529","0.0-5.0-1.17","63f477547d2302b4346299f4","bdp_lott","Sun Apr 09 2023 19:07:33 GMT-0500 (Central Daylight Time)","245874","red","green","","452","","","","choice","","img/red_ll/choose11.jpg","1","208","green","0.5","0.5","0.5","l","",""
"animation","39","46141","0.0-5.0-2.17","63f477547d2302b4346299f4","bdp_lott","Sun Apr 09 2023 19:07:33 GMT-0500 (Central Daylight Time)","245874","red","green","","","","","","","","","","208","","","","","","[{""stimulus"":""img/green_ll/1.jpg"",""time"":64},{""stimulus"":""img/green_ll/2.jpg"",""time"":103},{""stimulus"":""img/green_ll/3.jpg"",""time"":152},{""stimulus"":""img/green_ll/4.jpg"",""time"":205},{""stimulus"":""img/green_ll/5.jpg"",""time"":252},{""stimulus"":""img/green_ll/6.jpg"",""time"":303},{""stimulus"":""img/green_ll/7.jpg"",""time"":364},{""stimulus"":""img/green_ll/8.jpg"",""time"":403},{""stimulus"":""img/green_ll/9.jpg"",""time"":452},{""stimulus"":""img/green_ll/10.jpg"",""time"":502},{""stimulus"":""img/green_ll/11.jpg"",""time"":560}]","[]"
"image-keyboard-response","40","46645","0.0-5.0-1.18","63f477547d2302b4346299f4","bdp_lott","Sun Apr 09 2023 19:07:33 GMT-0500 (Central Daylight Time)","245874","red","green","","503","","","","choice","","img/green_ll/choose11.jpg","1","207","green","0.5","0.5","0.5","w","",""
"animation","41","47248","0.0-5.0-2.18","63f477547d2302b4346299f4","bdp_lott","Sun Apr 09 2023 19:07:33 GMT-0500 (Central Daylight Time)","245874","red","green","","","","","","","","","","207","","","","","","[{""stimulus"":""img/green_wl/1.jpg"",""time"":71},{""stimulus"":""img/green_wl/2.jpg"",""time"":101},{""stimulus"":""img/green_wl/3.jpg"",""time"":152},{""stimulus"":""img/green_wl/4.jpg"",""time"":211},{""stimulus"":""img/green_wl/5.jpg"",""time"":253},{""stimulus"":""img/green_wl/6.jpg"",""time"":303},{""stimulus"":""img/green_wl/7.jpg"",""time"":361},{""stimulus"":""img/green_wl/8.jpg"",""time"":403},{""stimulus"":""img/green_wl/9.jpg"",""time"":461},{""stimulus"":""img/green_wl/10.jpg"",""time"":503},{""stimulus"":""img/green_wl/11.jpg"",""time"":552}]","[]"
"image-keyboard-response","42","47659","0.0-5.0-1.19","63f477547d2302b4346299f4","bdp_lott","Sun Apr 09 2023 19:07:33 GMT-0500 (Central Daylight Time)","245874","red","green","","411","","","","choice","","img/green_wl/choose11.jpg","1","206","green","0.5","0.5","0.5","l","",""
"animation","43","48273","0.0-5.0-2.19","63f477547d2302b4346299f4","bdp_lott","Sun Apr 09 2023 19:07:33 GMT-0500 (Central Daylight Time)","245874","red","green","","","","","","","","","","206","","","","","","[{""stimulus"":""img/green_ll/1.jpg"",""time"":52},{""stimulus"":""img/green_ll/2.jpg"",""time"":106},{""stimulus"":""img/green_ll/3.jpg"",""time"":155},{""stimulus"":""img/green_ll/4.jpg"",""time"":204},{""stimulus"":""img/green_ll/5.jpg"",""time"":272},{""stimulus"":""img/green_ll/6.jpg"",""time"":305},{""stimulus"":""img/green_ll/7.jpg"",""time"":356},{""stimulus"":""img/green_ll/8.jpg"",""time"":415},{""stimulus"":""img/green_ll/9.jpg"",""time"":459},{""stimulus"":""img/green_ll/10.jpg"",""time"":514},{""stimulus"":""img/green_ll/11.jpg"",""time"":556}]","[]"
"image-keyboard-response","44","48691","0.0-5.0-1.20","63f477547d2302b4346299f4","bdp_lott","Sun Apr 09 2023 19:07:33 GMT-0500 (Central Daylight Time)","245874","red","green","","417","","","","choice","","img/green_ll/choose11.jpg","1","205","green","0.5","0.5","0.5","l","",""
"animation","45","49298","0.0-5.0-2.20","63f477547d2302b4346299f4","bdp_lott","Sun Apr 09 2023 19:07:33 GMT-0500 (Central Daylight Time)","245874","red","green","","","","","","","","","","205","","","","","","[{""stimulus"":""img/green_ll/1.jpg"",""time"":66},{""stimulus"":""img/green_ll/2.jpg"",""time"":101},{""stimulus"":""img/green_ll/3.jpg"",""time"":166},{""stimulus"":""img/green_ll/4.jpg"",""time"":202},{""stimulus"":""img/green_ll/5.jpg"",""time"":257},{""stimulus"":""img/green_ll/6.jpg"",""time"":316},{""stimulus"":""img/green_ll/7.jpg"",""time"":358},{""stimulus"":""img/green_ll/8.jpg"",""time"":407},{""stimulus"":""img/green_ll/9.jpg"",""time"":466},{""stimulus"":""img/green_ll/10.jpg"",""time"":508},{""stimulus"":""img/green_ll/11.jpg"",""time"":557}]","[]"
"image-keyboard-response","46","49654","0.0-5.0-1.21","63f477547d2302b4346299f4","bdp_lott","Sun Apr 09 2023 19:07:33 GMT-0500 (Central Daylight Time)","245874","red","green","","355","","","","choice","","img/green_ll/choose11.jpg","1","204","green","0.5","0.5","0.5","w","",""
"animation","47","50257","0.0-5.0-2.21","63f477547d2302b4346299f4","bdp_lott","Sun Apr 09 2023 19:07:33 GMT-0500 (Central Daylight Time)","245874","red","green","","","","","","","","","","204","","","","","","[{""stimulus"":""img/green_wl/1.jpg"",""time"":62},{""stimulus"":""img/green_wl/2.jpg"",""time"":104},{""stimulus"":""img/green_wl/3.jpg"",""time"":152},{""stimulus"":""img/green_wl/4.jpg"",""time"":220},{""stimulus"":""img/green_wl/5.jpg"",""time"":252},{""stimulus"":""img/green_wl/6.jpg"",""time"":303},{""stimulus"":""img/green_wl/7.jpg"",""time"":352},{""stimulus"":""img/green_wl/8.jpg"",""time"":402},{""stimulus"":""img/green_wl/9.jpg"",""time"":452},{""stimulus"":""img/green_wl/10.jpg"",""time"":502},{""stimulus"":""img/green_wl/11.jpg"",""time"":551}]","[]"
"image-keyboard-response","48","50800","0.0-5.0-1.22","63f477547d2302b4346299f4","bdp_lott","Sun Apr 09 2023 19:07:33 GMT-0500 (Central Daylight Time)","245874","red","green","","542","","","","choice","","img/green_wl/choose11.jpg","1","203","green","0.5","0.5","0.5","w","",""
"animation","49","51401","0.0-5.0-2.22","63f477547d2302b4346299f4","bdp_lott","Sun Apr 09 2023 19:07:33 GMT-0500 (Central Daylight Time)","245874","red","green","","","","","","","","","","203","","","","","","[{""stimulus"":""img/green_wl/1.jpg"",""time"":55},{""stimulus"":""img/green_wl/2.jpg"",""time"":108},{""stimulus"":""img/green_wl/3.jpg"",""time"":155},{""stimulus"":""img/green_wl/4.jpg"",""time"":208},{""stimulus"":""img/green_wl/5.jpg"",""time"":256},{""stimulus"":""img/green_wl/6.jpg"",""time"":315},{""stimulus"":""img/green_wl/7.jpg"",""time"":356},{""stimulus"":""img/green_wl/8.jpg"",""time"":407},{""stimulus"":""img/green_wl/9.jpg"",""time"":457},{""stimulus"":""img/green_wl/10.jpg"",""time"":515},{""stimulus"":""img/green_wl/11.jpg"",""time"":564}]","[]"
"image-keyboard-response","50","51723","0.0-5.0-1.23","63f477547d2302b4346299f4","bdp_lott","Sun Apr 09 2023 19:07:33 GMT-0500 (Central Daylight Time)","245874","red","green","","321","","","","choice","","img/green_wl/choose11.jpg","1","202","green","0.5","0.5","0.5","w","",""
"animation","51","52323","0.0-5.0-2.23","63f477547d2302b4346299f4","bdp_lott","Sun Apr 09 2023 19:07:33 GMT-0500 (Central Daylight Time)","245874","red","green","","","","","","","","","","202","","","","","","[{""stimulus"":""img/green_wl/1.jpg"",""time"":57},{""stimulus"":""img/green_wl/2.jpg"",""time"":107},{""stimulus"":""img/green_wl/3.jpg"",""time"":158},{""stimulus"":""img/green_wl/4.jpg"",""time"":224},{""stimulus"":""img/green_wl/5.jpg"",""time"":251},{""stimulus"":""img/green_wl/6.jpg"",""time"":301},{""stimulus"":""img/green_wl/7.jpg"",""time"":351},{""stimulus"":""img/green_wl/8.jpg"",""time"":401},{""stimulus"":""img/green_wl/9.jpg"",""time"":451},{""stimulus"":""img/green_wl/10.jpg"",""time"":501},{""stimulus"":""img/green_wl/11.jpg"",""time"":551}]","[]"
"image-keyboard-response","52","52685","0.0-5.0-1.24","63f477547d2302b4346299f4","bdp_lott","Sun Apr 09 2023 19:07:33 GMT-0500 (Central Daylight Time)","245874","red","green","","361","","","","choice","","img/green_wl/choose11.jpg","1","201","green","0.5","0.5","0.5","w","",""
"animation","53","53290","0.0-5.0-2.24","63f477547d2302b4346299f4","bdp_lott","Sun Apr 09 2023 19:07:33 GMT-0500 (Central Daylight Time)","245874","red","green","","","","","","","","","","201","","","","","","[{""stimulus"":""img/green_wl/1.jpg"",""time"":64},{""stimulus"":""img/green_wl/2.jpg"",""time"":113},{""stimulus"":""img/green_wl/3.jpg"",""time"":162},{""stimulus"":""img/green_wl/4.jpg"",""time"":221},{""stimulus"":""img/green_wl/5.jpg"",""time"":256},{""stimulus"":""img/green_wl/6.jpg"",""time"":305},{""stimulus"":""img/green_wl/7.jpg"",""time"":356},{""stimulus"":""img/green_wl/8.jpg"",""time"":405},{""stimulus"":""img/green_wl/9.jpg"",""time"":456},{""stimulus"":""img/green_wl/10.jpg"",""time"":505},{""stimulus"":""img/green_wl/11.jpg"",""time"":555}]","[]"
"image-keyboard-response","54","53839","0.0-5.0-1.25","63f477547d2302b4346299f4","bdp_lott","Sun Apr 09 2023 19:07:33 GMT-0500 (Central Daylight Time)","245874","red","green","","548","","","","choice","","img/green_wl/choose11.jpg","1","200","green","0.5","0.5","0.5","w","",""
"animation","55","54440","0.0-5.0-2.25","63f477547d2302b4346299f4","bdp_lott","Sun Apr 09 2023 19:07:33 GMT-0500 (Central Daylight Time)","245874","red","green","","","","","","","","","","200","","","","","","[{""stimulus"":""img/green_wl/1.jpg"",""time"":69},{""stimulus"":""img/green_wl/2.jpg"",""time"":102},{""stimulus"":""img/green_wl/3.jpg"",""time"":151},{""stimulus"":""img/green_wl/4.jpg"",""time"":201},{""stimulus"":""img/green_wl/5.jpg"",""time"":252},{""stimulus"":""img/green_wl/6.jpg"",""time"":301},{""stimulus"":""img/green_wl/7.jpg"",""time"":351},{""stimulus"":""img/green_wl/8.jpg"",""time"":401},{""stimulus"":""img/green_wl/9.jpg"",""time"":451},{""stimulus"":""img/green_wl/10.jpg"",""time"":502},{""stimulus"":""img/green_wl/11.jpg"",""time"":552}]","[]"
"image-keyboard-response","56","54951","0.0-5.0-1.26","63f477547d2302b4346299f4","bdp_lott","Sun Apr 09 2023 19:07:33 GMT-0500 (Central Daylight Time)","245874","red","green","","510","","","","choice","","img/green_wl/choose11.jpg","1","199","green","0.5","0.5","0.5","w","",""
"animation","57","55557","0.0-5.0-2.26","63f477547d2302b4346299f4","bdp_lott","Sun Apr 09 2023 19:07:33 GMT-0500 (Central Daylight Time)","245874","red","green","","","","","","","","","","199","","","","","","[{""stimulus"":""img/green_wl/1.jpg"",""time"":51},{""stimulus"":""img/green_wl/2.jpg"",""time"":114},{""stimulus"":""img/green_wl/3.jpg"",""time"":173},{""stimulus"":""img/green_wl/4.jpg"",""time"":205},{""stimulus"":""img/green_wl/5.jpg"",""time"":251},{""stimulus"":""img/green_wl/6.jpg"",""time"":305},{""stimulus"":""img/green_wl/7.jpg"",""time"":355},{""stimulus"":""img/green_wl/8.jpg"",""time"":422},{""stimulus"":""img/green_wl/9.jpg"",""time"":456},{""stimulus"":""img/green_wl/10.jpg"",""time"":507},{""stimulus"":""img/green_wl/11.jpg"",""time"":556}]","[]"
"image-keyboard-response","58","56035","0.0-5.0-1.27","63f477547d2302b4346299f4","bdp_lott","Sun Apr 09 2023 19:07:33 GMT-0500 (Central Daylight Time)","245874","red","green","","478","","","","choice","","img/green_wl/choose11.jpg","1","198","green","0.5","0.5","0.5","w","",""
"animation","59","56640","0.0-5.0-2.27","63f477547d2302b4346299f4","bdp_lott","Sun Apr 09 2023 19:07:33 GMT-0500 (Central Daylight Time)","245874","red","green","","","","","","","","","","198","","","","","","[{""stimulus"":""img/green_wl/1.jpg"",""time"":63},{""stimulus"":""img/green_wl/2.jpg"",""time"":106},{""stimulus"":""img/green_wl/3.jpg"",""time"":152},{""stimulus"":""img/green_wl/4.jpg"",""time"":204},{""stimulus"":""img/green_wl/5.jpg"",""time"":251},{""stimulus"":""img/green_wl/6.jpg"",""time"":304},{""stimulus"":""img/green_wl/7.jpg"",""time"":371},{""stimulus"":""img/green_wl/8.jpg"",""time"":405},{""stimulus"":""img/green_wl/9.jpg"",""time"":455},{""stimulus"":""img/green_wl/10.jpg"",""time"":506},{""stimulus"":""img/green_wl/11.jpg"",""time"":555}]","[]"
"image-keyboard-response","60","57072","0.0-5.0-1.28","63f477547d2302b4346299f4","bdp_lott","Sun Apr 09 2023 19:07:33 GMT-0500 (Central Daylight Time)","245874","red","green","","431","","","","choice","","img/green_wl/choose11.jpg","1","197","green","0.5","0.5","0.5","w","",""
"animation","61","57673","0.0-5.0-2.28","63f477547d2302b4346299f4","bdp_lott","Sun Apr 09 2023 19:07:33 GMT-0500 (Central Daylight Time)","245874","red","green","","","","","","","","","","197","","","","","","[{""stimulus"":""img/green_wl/1.jpg"",""time"":52},{""stimulus"":""img/green_wl/2.jpg"",""time"":108},{""stimulus"":""img/green_wl/3.jpg"",""time"":158},{""stimulus"":""img/green_wl/4.jpg"",""time"":208},{""stimulus"":""img/green_wl/5.jpg"",""time"":253},{""stimulus"":""img/green_wl/6.jpg"",""time"":318},{""stimulus"":""img/green_wl/7.jpg"",""time"":351},{""stimulus"":""img/green_wl/8.jpg"",""time"":401},{""stimulus"":""img/green_wl/9.jpg"",""time"":452},{""stimulus"":""img/green_wl/10.jpg"",""time"":502},{""stimulus"":""img/green_wl/11.jpg"",""time"":551}]","[]"
"image-keyboard-response","62","58135","0.0-5.0-1.29","63f477547d2302b4346299f4","bdp_lott","Sun Apr 09 2023 19:07:33 GMT-0500 (Central Daylight Time)","245874","red","green","","461","","","","choice","","img/green_wl/choose11.jpg","1","196","green","0.5","0.5","0.5","w","",""
"animation","63","58739","0.0-5.0-2.29","63f477547d2302b4346299f4","bdp_lott","Sun Apr 09 2023 19:07:33 GMT-0500 (Central Daylight Time)","245874","red","green","","","","","","","","","","196","","","","","","[{""stimulus"":""img/green_wl/1.jpg"",""time"":52},{""stimulus"":""img/green_wl/2.jpg"",""time"":123},{""stimulus"":""img/green_wl/3.jpg"",""time"":152},{""stimulus"":""img/green_wl/4.jpg"",""time"":204},{""stimulus"":""img/green_wl/5.jpg"",""time"":274},{""stimulus"":""img/green_wl/6.jpg"",""time"":305},{""stimulus"":""img/green_wl/7.jpg"",""time"":356},{""stimulus"":""img/green_wl/8.jpg"",""time"":405},{""stimulus"":""img/green_wl/9.jpg"",""time"":455},{""stimulus"":""img/green_wl/10.jpg"",""time"":505},{""stimulus"":""img/green_wl/11.jpg"",""time"":555}]","[]"
"image-keyboard-response","64","59205","0.0-5.0-1.30","63f477547d2302b4346299f4","bdp_lott","Sun Apr 09 2023 19:07:33 GMT-0500 (Central Daylight Time)","245874","red","green","","465","","","","choice","","img/green_wl/choose11.jpg","1","195","green","0.5","0.5","0.5","w","",""
"animation","65","59807","0.0-5.0-2.30","63f477547d2302b4346299f4","bdp_lott","Sun Apr 09 2023 19:07:33 GMT-0500 (Central Daylight Time)","245874","red","green","","","","","","","","","","195","","","","","","[{""stimulus"":""img/green_wl/1.jpg"",""time"":56},{""stimulus"":""img/green_wl/2.jpg"",""time"":102},{""stimulus"":""img/green_wl/3.jpg"",""time"":151},{""stimulus"":""img/green_wl/4.jpg"",""time"":201},{""stimulus"":""img/green_wl/5.jpg"",""time"":258},{""stimulus"":""img/green_wl/6.jpg"",""time"":301},{""stimulus"":""img/green_wl/7.jpg"",""time"":367},{""stimulus"":""img/green_wl/8.jpg"",""time"":402},{""stimulus"":""img/green_wl/9.jpg"",""time"":452},{""stimulus"":""img/green_wl/10.jpg"",""time"":501},{""stimulus"":""img/green_wl/11.jpg"",""time"":552}]","[]"
"image-keyboard-response","66","60259","0.0-5.0-1.31","63f477547d2302b4346299f4","bdp_lott","Sun Apr 09 2023 19:07:33 GMT-0500 (Central Daylight Time)","245874","red","green","","451","","","","choice","","img/green_wl/choose11.jpg","1","194","green","0.5","0.5","0.5","l","",""
"animation","67","60871","0.0-5.0-2.31","63f477547d2302b4346299f4","bdp_lott","Sun Apr 09 2023 19:07:33 GMT-0500 (Central Daylight Time)","245874","red","green","","","","","","","","","","194","","","","","","[{""stimulus"":""img/green_ll/1.jpg"",""time"":65},{""stimulus"":""img/green_ll/2.jpg"",""time"":105},{""stimulus"":""img/green_ll/3.jpg"",""time"":155},{""stimulus"":""img/green_ll/4.jpg"",""time"":204},{""stimulus"":""img/green_ll/5.jpg"",""time"":253},{""stimulus"":""img/green_ll/6.jpg"",""time"":313},{""stimulus"":""img/green_ll/7.jpg"",""time"":365},{""stimulus"":""img/green_ll/8.jpg"",""time"":411},{""stimulus"":""img/green_ll/9.jpg"",""time"":463},{""stimulus"":""img/green_ll/10.jpg"",""time"":514},{""stimulus"":""img/green_ll/11.jpg"",""time"":565}]","[]"
"image-keyboard-response","68","61414","0.0-5.0-1.32","63f477547d2302b4346299f4","bdp_lott","Sun Apr 09 2023 19:07:33 GMT-0500 (Central Daylight Time)","245874","red","green","","542","","","","choice","","img/green_ll/choose11.jpg","1","193","green","0.5","0.5","0.5","l","",""
"animation","69","62017","0.0-5.0-2.32","63f477547d2302b4346299f4","bdp_lott","Sun Apr 09 2023 19:07:33 GMT-0500 (Central Daylight Time)","245874","red","green","","","","","","","","","","193","","","","","","[{""stimulus"":""img/green_ll/1.jpg"",""time"":51},{""stimulus"":""img/green_ll/2.jpg"",""time"":114},{""stimulus"":""img/green_ll/3.jpg"",""time"":156},{""stimulus"":""img/green_ll/4.jpg"",""time"":204},{""stimulus"":""img/green_ll/5.jpg"",""time"":250},{""stimulus"":""img/green_ll/6.jpg"",""time"":305},{""stimulus"":""img/green_ll/7.jpg"",""time"":357},{""stimulus"":""img/green_ll/8.jpg"",""time"":406},{""stimulus"":""img/green_ll/9.jpg"",""time"":474},{""stimulus"":""img/green_ll/10.jpg"",""time"":506},{""stimulus"":""img/green_ll/11.jpg"",""time"":550}]","[]"
"image-keyboard-response","70","62578","0.0-5.0-1.33","63f477547d2302b4346299f4","bdp_lott","Sun Apr 09 2023 19:07:33 GMT-0500 (Central Daylight Time)","245874","red","green","","560","","","","choice","","img/green_ll/choose11.jpg","1","192","green","0.5","0.5","0.5","w","",""
"animation","71","63180","0.0-5.0-2.33","63f477547d2302b4346299f4","bdp_lott","Sun Apr 09 2023 19:07:33 GMT-0500 (Central Daylight Time)","245874","red","green","","","","","","","","","","192","","","","","","[{""stimulus"":""img/green_wl/1.jpg"",""time"":57},{""stimulus"":""img/green_wl/2.jpg"",""time"":111},{""stimulus"":""img/green_wl/3.jpg"",""time"":153},{""stimulus"":""img/green_wl/4.jpg"",""time"":202},{""stimulus"":""img/green_wl/5.jpg"",""time"":252},{""stimulus"":""img/green_wl/6.jpg"",""time"":310},{""stimulus"":""img/green_wl/7.jpg"",""time"":352},{""stimulus"":""img/green_wl/8.jpg"",""time"":411},{""stimulus"":""img/green_wl/9.jpg"",""time"":452},{""stimulus"":""img/green_wl/10.jpg"",""time"":510},{""stimulus"":""img/green_wl/11.jpg"",""time"":562}]","[]"
"image-keyboard-response","72","63695","0.0-5.0-1.34","63f477547d2302b4346299f4","bdp_lott","Sun Apr 09 2023 19:07:33 GMT-0500 (Central Daylight Time)","245874","red","green","","515","","","","choice","","img/green_wl/choose11.jpg","1","191","green","0.5","0.5","0.5","l","",""
"animation","73","64305","0.0-5.0-2.34","63f477547d2302b4346299f4","bdp_lott","Sun Apr 09 2023 19:07:33 GMT-0500 (Central Daylight Time)","245874","red","green","","","","","","","","","","191","","","","","","[{""stimulus"":""img/green_ll/1.jpg"",""time"":69},{""stimulus"":""img/green_ll/2.jpg"",""time"":103},{""stimulus"":""img/green_ll/3.jpg"",""time"":169},{""stimulus"":""img/green_ll/4.jpg"",""time"":202},{""stimulus"":""img/green_ll/5.jpg"",""time"":262},{""stimulus"":""img/green_ll/6.jpg"",""time"":303},{""stimulus"":""img/green_ll/7.jpg"",""time"":352},{""stimulus"":""img/green_ll/8.jpg"",""time"":411},{""stimulus"":""img/green_ll/9.jpg"",""time"":453},{""stimulus"":""img/green_ll/10.jpg"",""time"":502},{""stimulus"":""img/green_ll/11.jpg"",""time"":552}]","[]"
"image-keyboard-response","74","64860","0.0-5.0-1.35","63f477547d2302b4346299f4","bdp_lott","Sun Apr 09 2023 19:07:33 GMT-0500 (Central Daylight Time)","245874","red","green","","554","","","","choice","","img/green_ll/choose11.jpg","1","190","green","0.5","0.5","0.5","l","",""
"animation","75","65472","0.0-5.0-2.35","63f477547d2302b4346299f4","bdp_lott","Sun Apr 09 2023 19:07:33 GMT-0500 (Central Daylight Time)","245874","red","green","","","","","","","","","","190","","","","","","[{""stimulus"":""img/green_ll/1.jpg"",""time"":59},{""stimulus"":""img/green_ll/2.jpg"",""time"":101},{""stimulus"":""img/green_ll/3.jpg"",""time"":153},{""stimulus"":""img/green_ll/4.jpg"",""time"":217},{""stimulus"":""img/green_ll/5.jpg"",""time"":261},{""stimulus"":""img/green_ll/6.jpg"",""time"":309},{""stimulus"":""img/green_ll/7.jpg"",""time"":361},{""stimulus"":""img/green_ll/8.jpg"",""time"":409},{""stimulus"":""img/green_ll/9.jpg"",""time"":462},{""stimulus"":""img/green_ll/10.jpg"",""time"":510},{""stimulus"":""img/green_ll/11.jpg"",""time"":562}]","[]"
"image-keyboard-response","76","65863","0.0-5.0-1.36","63f477547d2302b4346299f4","bdp_lott","Sun Apr 09 2023 19:07:33 GMT-0500 (Central Daylight Time)","245874","red","green","","390","","","","choice","","img/green_ll/choose11.jpg","1","189","green","0.5","0.5","0.5","w","",""
"animation","77","66465","0.0-5.0-2.36","63f477547d2302b4346299f4","bdp_lott","Sun Apr 09 2023 19:07:33 GMT-0500 (Central Daylight Time)","245874","red","green","","","","","","","","","","189","","","","","","[{""stimulus"":""img/green_wl/1.jpg"",""time"":60},{""stimulus"":""img/green_wl/2.jpg"",""time"":108},{""stimulus"":""img/green_wl/3.jpg"",""time"":159},{""stimulus"":""img/green_wl/4.jpg"",""time"":200},{""stimulus"":""img/green_wl/5.jpg"",""time"":258},{""stimulus"":""img/green_wl/6.jpg"",""time"":310},{""stimulus"":""img/green_wl/7.jpg"",""time"":360},{""stimulus"":""img/green_wl/8.jpg"",""time"":408},{""stimulus"":""img/green_wl/9.jpg"",""time"":452},{""stimulus"":""img/green_wl/10.jpg"",""time"":501},{""stimulus"":""img/green_wl/11.jpg"",""time"":551}]","[]"
"image-keyboard-response","78","66894","0.0-5.0-1.37","63f477547d2302b4346299f4","bdp_lott","Sun Apr 09 2023 19:07:33 GMT-0500 (Central Daylight Time)","245874","red","green","","428","","","","choice","","img/green_wl/choose11.jpg","1","188","green","0.5","0.5","0.5","w","",""
"animation","79","67501","0.0-5.0-2.37","63f477547d2302b4346299f4","bdp_lott","Sun Apr 09 2023 19:07:33 GMT-0500 (Central Daylight Time)","245874","red","green","","","","","","","","","","188","","","","","","[{""stimulus"":""img/green_wl/1.jpg"",""time"":59},{""stimulus"":""img/green_wl/2.jpg"",""time"":111},{""stimulus"":""img/green_wl/3.jpg"",""time"":154},{""stimulus"":""img/green_wl/4.jpg"",""time"":203},{""stimulus"":""img/green_wl/5.jpg"",""time"":252},{""stimulus"":""img/green_wl/6.jpg"",""time"":303},{""stimulus"":""img/green_wl/7.jpg"",""time"":362},{""stimulus"":""img/green_wl/8.jpg"",""time"":404},{""stimulus"":""img/green_wl/9.jpg"",""time"":462},{""stimulus"":""img/green_wl/10.jpg"",""time"":505},{""stimulus"":""img/green_wl/11.jpg"",""time"":553}]","[]"
"image-keyboard-response","80","67918","0.0-5.0-1.38","63f477547d2302b4346299f4","bdp_lott","Sun Apr 09 2023 19:07:33 GMT-0500 (Central Daylight Time)","245874","red","green","","417","","","","choice","","img/green_wl/choose11.jpg","1","187","green","0.5","0.5","0.5","w","",""
"animation","81","68520","0.0-5.0-2.38","63f477547d2302b4346299f4","bdp_lott","Sun Apr 09 2023 19:07:33 GMT-0500 (Central Daylight Time)","245874","red","green","","","","","","","","","","187","","","","","","[{""stimulus"":""img/green_wl/1.jpg"",""time"":67},{""stimulus"":""img/green_wl/2.jpg"",""time"":105},{""stimulus"":""img/green_wl/3.jpg"",""time"":155},{""stimulus"":""img/green_wl/4.jpg"",""time"":203},{""stimulus"":""img/green_wl/5.jpg"",""time"":259},{""stimulus"":""img/green_wl/6.jpg"",""time"":304},{""stimulus"":""img/green_wl/7.jpg"",""time"":351},{""stimulus"":""img/green_wl/8.jpg"",""time"":418},{""stimulus"":""img/green_wl/9.jpg"",""time"":455},{""stimulus"":""img/green_wl/10.jpg"",""time"":505},{""stimulus"":""img/green_wl/11.jpg"",""time"":555}]","[]"
"image-keyboard-response","82","68951","0.0-5.0-1.39","63f477547d2302b4346299f4","bdp_lott","Sun Apr 09 2023 19:07:33 GMT-0500 (Central Daylight Time)","245874","red","green","","430","","","","choice","","img/green_wl/choose11.jpg","1","186","green","0.5","0.5","0.5","l","",""
"animation","83","69556","0.0-5.0-2.39","63f477547d2302b4346299f4","bdp_lott","Sun Apr 09 2023 19:07:33 GMT-0500 (Central Daylight Time)","245874","red","green","","","","","","","","","","186","","","","","","[{""stimulus"":""img/green_ll/1.jpg"",""time"":63},{""stimulus"":""img/green_ll/2.jpg"",""time"":112},{""stimulus"":""img/green_ll/3.jpg"",""time"":174},{""stimulus"":""img/green_ll/4.jpg"",""time"":202},{""stimulus"":""img/green_ll/5.jpg"",""time"":257},{""stimulus"":""img/green_ll/6.jpg"",""time"":311},{""stimulus"":""img/green_ll/7.jpg"",""time"":354},{""stimulus"":""img/green_ll/8.jpg"",""time"":403},{""stimulus"":""img/green_ll/9.jpg"",""time"":453},{""stimulus"":""img/green_ll/10.jpg"",""time"":504},{""stimulus"":""img/green_ll/11.jpg"",""time"":554}]","[]"
"image-keyboard-response","84","70355","0.0-5.0-1.40","63f477547d2302b4346299f4","bdp_lott","Sun Apr 09 2023 19:07:33 GMT-0500 (Central Daylight Time)","245874","red","green","","797","","","","choice","","img/green_ll/choose11.jpg","2","185","red","0.5","0.5","0.5","l","",""
"animation","85","70956","0.0-5.0-2.40","63f477547d2302b4346299f4","bdp_lott","Sun Apr 09 2023 19:07:33 GMT-0500 (Central Daylight Time)","245874","red","green","","","","","","","","","","185","","","","","","[{""stimulus"":""img/red_ll/1.jpg"",""time"":62},{""stimulus"":""img/red_ll/2.jpg"",""time"":124},{""stimulus"":""img/red_ll/3.jpg"",""time"":151},{""stimulus"":""img/red_ll/4.jpg"",""time"":202},{""stimulus"":""img/red_ll/5.jpg"",""time"":251},{""stimulus"":""img/red_ll/6.jpg"",""time"":301},{""stimulus"":""img/red_ll/7.jpg"",""time"":351},{""stimulus"":""img/red_ll/8.jpg"",""time"":401},{""stimulus"":""img/red_ll/9.jpg"",""time"":451},{""stimulus"":""img/red_ll/10.jpg"",""time"":501},{""stimulus"":""img/red_ll/11.jpg"",""time"":552}]","[]"
"image-keyboard-response","86","71314","0.0-5.0-1.41","63f477547d2302b4346299f4","bdp_lott","Sun Apr 09 2023 19:07:33 GMT-0500 (Central Daylight Time)","245874","red","green","","357","","","","choice","","img/red_ll/choose11.jpg","2","184","red","0.5","0.5","0.5","w","",""
"animation","87","71921","0.0-5.0-2.41","63f477547d2302b4346299f4","bdp_lott","Sun Apr 09 2023 19:07:33 GMT-0500 (Central Daylight Time)","245874","red","green","","","","","","","","","","184","","","","","","[{""stimulus"":""img/red_lw/1.jpg"",""time"":53},{""stimulus"":""img/red_lw/2.jpg"",""time"":115},{""stimulus"":""img/red_lw/3.jpg"",""time"":163},{""stimulus"":""img/red_lw/4.jpg"",""time"":201},{""stimulus"":""img/red_lw/5.jpg"",""time"":258},{""stimulus"":""img/red_lw/6.jpg"",""time"":308},{""stimulus"":""img/red_lw/7.jpg"",""time"":351},{""stimulus"":""img/red_lw/8.jpg"",""time"":408},{""stimulus"":""img/red_lw/9.jpg"",""time"":457},{""stimulus"":""img/red_lw/10.jpg"",""time"":507},{""stimulus"":""img/red_lw/11.jpg"",""time"":558}]","[]"
"image-keyboard-response","88","72357","0.0-5.0-1.42","63f477547d2302b4346299f4","bdp_lott","Sun Apr 09 2023 19:07:33 GMT-0500 (Central Daylight Time)","245874","red","green","","435","","","","choice","","img/red_lw/choose11.jpg","2","183","red","0.5","0.5","0.5","l","",""
"animation","89","72972","0.0-5.0-2.42","63f477547d2302b4346299f4","bdp_lott","Sun Apr 09 2023 19:07:33 GMT-0500 (Central Daylight Time)","245874","red","green","","","","","","","","","","183","","","","","","[{""stimulus"":""img/red_ll/1.jpg"",""time"":63},{""stimulus"":""img/red_ll/2.jpg"",""time"":106},{""stimulus"":""img/red_ll/3.jpg"",""time"":165},{""stimulus"":""img/red_ll/4.jpg"",""time"":214},{""stimulus"":""img/red_ll/5.jpg"",""time"":265},{""stimulus"":""img/red_ll/6.jpg"",""time"":314},{""stimulus"":""img/red_ll/7.jpg"",""time"":366},{""stimulus"":""img/red_ll/8.jpg"",""time"":406},{""stimulus"":""img/red_ll/9.jpg"",""time"":465},{""stimulus"":""img/red_ll/10.jpg"",""time"":514},{""stimulus"":""img/red_ll/11.jpg"",""time"":566}]","[]"
"image-keyboard-response","90","73738","0.0-5.0-1.43","63f477547d2302b4346299f4","bdp_lott","Sun Apr 09 2023 19:07:33 GMT-0500 (Central Daylight Time)","245874","red","green","","766","","","","choice","","img/red_ll/choose11.jpg","2","182","red","0.5","0.5","0.5","l","",""
"animation","91","74339","0.0-5.0-2.43","63f477547d2302b4346299f4","bdp_lott","Sun Apr 09 2023 19:07:33 GMT-0500 (Central Daylight Time)","245874","red","green","","","","","","","","","","182","","","","","","[{""stimulus"":""img/red_ll/1.jpg"",""time"":58},{""stimulus"":""img/red_ll/2.jpg"",""time"":109},{""stimulus"":""img/red_ll/3.jpg"",""time"":158},{""stimulus"":""img/red_ll/4.jpg"",""time"":202},{""stimulus"":""img/red_ll/5.jpg"",""time"":274},{""stimulus"":""img/red_ll/6.jpg"",""time"":301},{""stimulus"":""img/red_ll/7.jpg"",""time"":352},{""stimulus"":""img/red_ll/8.jpg"",""time"":402},{""stimulus"":""img/red_ll/9.jpg"",""time"":451},{""stimulus"":""img/red_ll/10.jpg"",""time"":501},{""stimulus"":""img/red_ll/11.jpg"",""time"":551}]","[]"
"image-keyboard-response","92","74772","0.0-5.0-1.44","63f477547d2302b4346299f4","bdp_lott","Sun Apr 09 2023 19:07:33 GMT-0500 (Central Daylight Time)","245874","red","green","","432","","","","choice","","img/red_ll/choose11.jpg","2","181","red","0.5","0.5","0.5","w","",""
"animation","93","75380","0.0-5.0-2.44","63f477547d2302b4346299f4","bdp_lott","Sun Apr 09 2023 19:07:33 GMT-0500 (Central Daylight Time)","245874","red","green","","","","","","","","","","181","","","","","","[{""stimulus"":""img/red_lw/1.jpg"",""time"":54},{""stimulus"":""img/red_lw/2.jpg"",""time"":107},{""stimulus"":""img/red_lw/3.jpg"",""time"":157},{""stimulus"":""img/red_lw/4.jpg"",""time"":207},{""stimulus"":""img/red_lw/5.jpg"",""time"":254},{""stimulus"":""img/red_lw/6.jpg"",""time"":316},{""stimulus"":""img/red_lw/7.jpg"",""time"":354},{""stimulus"":""img/red_lw/8.jpg"",""time"":407},{""stimulus"":""img/red_lw/9.jpg"",""time"":462},{""stimulus"":""img/red_lw/10.jpg"",""time"":515},{""stimulus"":""img/red_lw/11.jpg"",""time"":558}]","[]"
"image-keyboard-response","94","75801","0.0-5.0-1.45","63f477547d2302b4346299f4","bdp_lott","Sun Apr 09 2023 19:07:33 GMT-0500 (Central Daylight Time)","245874","red","green","","420","","","","choice","","img/red_lw/choose11.jpg","2","180","red","0.5","0.5","0.5","w","",""
"animation","95","76404","0.0-5.0-2.45","63f477547d2302b4346299f4","bdp_lott","Sun Apr 09 2023 19:07:33 GMT-0500 (Central Daylight Time)","245874","red","green","","","","","","","","","","180","","","","","","[{""stimulus"":""img/red_lw/1.jpg"",""time"":60},{""stimulus"":""img/red_lw/2.jpg"",""time"":104},{""stimulus"":""img/red_lw/3.jpg"",""time"":151},{""stimulus"":""img/red_lw/4.jpg"",""time"":205},{""stimulus"":""img/red_lw/5.jpg"",""time"":276},{""stimulus"":""img/red_lw/6.jpg"",""time"":305},{""stimulus"":""img/red_lw/7.jpg"",""time"":355},{""stimulus"":""img/red_lw/8.jpg"",""time"":401},{""stimulus"":""img/red_lw/9.jpg"",""time"":454},{""stimulus"":""img/red_lw/10.jpg"",""time"":504},{""stimulus"":""img/red_lw/11.jpg"",""time"":554}]","[]"
"image-keyboard-response","96","76878","0.0-5.0-1.46","63f477547d2302b4346299f4","bdp_lott","Sun Apr 09 2023 19:07:33 GMT-0500 (Central Daylight Time)","245874","red","green","","472","","","","choice","","img/red_lw/choose11.jpg","2","179","red","0.5","0.5","0.5","w","",""
"animation","97","77479","0.0-5.0-2.46","63f477547d2302b4346299f4","bdp_lott","Sun Apr 09 2023 19:07:33 GMT-0500 (Central Daylight Time)","245874","red","green","","","","","","","","","","179","","","","","","[{""stimulus"":""img/red_lw/1.jpg"",""time"":66},{""stimulus"":""img/red_lw/2.jpg"",""time"":102},{""stimulus"":""img/red_lw/3.jpg"",""time"":153},{""stimulus"":""img/red_lw/4.jpg"",""time"":202},{""stimulus"":""img/red_lw/5.jpg"",""time"":252},{""stimulus"":""img/red_lw/6.jpg"",""time"":302},{""stimulus"":""img/red_lw/7.jpg"",""time"":360},{""stimulus"":""img/red_lw/8.jpg"",""time"":403},{""stimulus"":""img/red_lw/9.jpg"",""time"":452},{""stimulus"":""img/red_lw/10.jpg"",""time"":510},{""stimulus"":""img/red_lw/11.jpg"",""time"":552}]","[]"
"image-keyboard-response","98","77953","0.0-5.0-1.47","63f477547d2302b4346299f4","bdp_lott","Sun Apr 09 2023 19:07:33 GMT-0500 (Central Daylight Time)","245874","red","green","","473","","","","choice","","img/red_lw/choose11.jpg","2","178","red","0.5","0.5","0.5","w","",""
"animation","99","78554","0.0-5.0-2.47","63f477547d2302b4346299f4","bdp_lott","Sun Apr 09 2023 19:07:33 GMT-0500 (Central Daylight Time)","245874","red","green","","","","","","","","","","178","","","","","","[{""stimulus"":""img/red_lw/1.jpg"",""time"":57},{""stimulus"":""img/red_lw/2.jpg"",""time"":101},{""stimulus"":""img/red_lw/3.jpg"",""time"":152},{""stimulus"":""img/red_lw/4.jpg"",""time"":210},{""stimulus"":""img/red_lw/5.jpg"",""time"":268},{""stimulus"":""img/red_lw/6.jpg"",""time"":302},{""stimulus"":""img/red_lw/7.jpg"",""time"":352},{""stimulus"":""img/red_lw/8.jpg"",""time"":402},{""stimulus"":""img/red_lw/9.jpg"",""time"":459},{""stimulus"":""img/red_lw/10.jpg"",""time"":503},{""stimulus"":""img/red_lw/11.jpg"",""time"":553}]","[]"
"image-keyboard-response","100","79019","0.0-5.0-1.48","63f477547d2302b4346299f4","bdp_lott","Sun Apr 09 2023 19:07:33 GMT-0500 (Central Daylight Time)","245874","red","green","","464","","","","choice","","img/red_lw/choose11.jpg","2","177","red","0.5","0.5","0.5","l","",""
"animation","101","79622","0.0-5.0-2.48","63f477547d2302b4346299f4","bdp_lott","Sun Apr 09 2023 19:07:33 GMT-0500 (Central Daylight Time)","245874","red","green","","","","","","","","","","177","","","","","","[{""stimulus"":""img/red_ll/1.jpg"",""time"":52},{""stimulus"":""img/red_ll/2.jpg"",""time"":109},{""stimulus"":""img/red_ll/3.jpg"",""time"":151},{""stimulus"":""img/red_ll/4.jpg"",""time"":202},{""stimulus"":""img/red_ll/5.jpg"",""time"":251},{""stimulus"":""img/red_ll/6.jpg"",""time"":302},{""stimulus"":""img/red_ll/7.jpg"",""time"":351},{""stimulus"":""img/red_ll/8.jpg"",""time"":407},{""stimulus"":""img/red_ll/9.jpg"",""time"":452},{""stimulus"":""img/red_ll/10.jpg"",""time"":501},{""stimulus"":""img/red_ll/11.jpg"",""time"":551}]","[]"
"image-keyboard-response","102","80078","0.0-5.0-1.49","63f477547d2302b4346299f4","bdp_lott","Sun Apr 09 2023 19:07:33 GMT-0500 (Central Daylight Time)","245874","red","green","","455","","","","choice","","img/red_ll/choose11.jpg","2","176","red","0.5","0.5","0.5","w","",""
"animation","103","80689","0.0-5.0-2.49","63f477547d2302b4346299f4","bdp_lott","Sun Apr 09 2023 19:07:33 GMT-0500 (Central Daylight Time)","245874","red","green","","","","","","","","","","176","","","","","","[{""stimulus"":""img/red_lw/1.jpg"",""time"":58},{""stimulus"":""img/red_lw/2.jpg"",""time"":110},{""stimulus"":""img/red_lw/3.jpg"",""time"":152},{""stimulus"":""img/red_lw/4.jpg"",""time"":202},{""stimulus"":""img/red_lw/5.jpg"",""time"":254},{""stimulus"":""img/red_lw/6.jpg"",""time"":303},{""stimulus"":""img/red_lw/7.jpg"",""time"":352},{""stimulus"":""img/red_lw/8.jpg"",""time"":410},{""stimulus"":""img/red_lw/9.jpg"",""time"":451},{""stimulus"":""img/red_lw/10.jpg"",""time"":510},{""stimulus"":""img/red_lw/11.jpg"",""time"":560}]","[]"
"image-keyboard-response","104","81077","0.0-5.0-1.50","63f477547d2302b4346299f4","bdp_lott","Sun Apr 09 2023 19:07:33 GMT-0500 (Central Daylight Time)","245874","red","green","","386","","","","choice","","img/red_lw/choose11.jpg","2","175","red","0.5","0.5","0.5","w","",""
"animation","105","81687","0.0-5.0-2.50","63f477547d2302b4346299f4","bdp_lott","Sun Apr 09 2023 19:07:33 GMT-0500 (Central Daylight Time)","245874","red","green","","","","","","","","","","175","","","","","","[{""stimulus"":""img/red_lw/1.jpg"",""time"":52},{""stimulus"":""img/red_lw/2.jpg"",""time"":102},{""stimulus"":""img/red_lw/3.jpg"",""time"":153},{""stimulus"":""img/red_lw/4.jpg"",""time"":202},{""stimulus"":""img/red_lw/5.jpg"",""time"":252},{""stimulus"":""img/red_lw/6.jpg"",""time"":303},{""stimulus"":""img/red_lw/7.jpg"",""time"":352},{""stimulus"":""img/red_lw/8.jpg"",""time"":403},{""stimulus"":""img/red_lw/9.jpg"",""time"":470},{""stimulus"":""img/red_lw/10.jpg"",""time"":503},{""stimulus"":""img/red_lw/11.jpg"",""time"":554}]","[]"
"image-keyboard-response","106","82242","0.0-5.0-1.51","63f477547d2302b4346299f4","bdp_lott","Sun Apr 09 2023 19:07:33 GMT-0500 (Central Daylight Time)","245874","red","green","","553","","","","choice","","img/red_lw/choose11.jpg","2","174","red","0.5","0.5","0.5","w","",""
"animation","107","82847","0.0-5.0-2.51","63f477547d2302b4346299f4","bdp_lott","Sun Apr 09 2023 19:07:33 GMT-0500 (Central Daylight Time)","245874","red","green","","","","","","","","","","174","","","","","","[{""stimulus"":""img/red_lw/1.jpg"",""time"":58},{""stimulus"":""img/red_lw/2.jpg"",""time"":113},{""stimulus"":""img/red_lw/3.jpg"",""time"":155},{""stimulus"":""img/red_lw/4.jpg"",""time"":204},{""stimulus"":""img/red_lw/5.jpg"",""time"":263},{""stimulus"":""img/red_lw/6.jpg"",""time"":305},{""stimulus"":""img/red_lw/7.jpg"",""time"":363},{""stimulus"":""img/red_lw/8.jpg"",""time"":405},{""stimulus"":""img/red_lw/9.jpg"",""time"":454},{""stimulus"":""img/red_lw/10.jpg"",""time"":504},{""stimulus"":""img/red_lw/11.jpg"",""time"":563}]","[]"
"image-keyboard-response","108","83319","0.0-5.0-1.52","63f477547d2302b4346299f4","bdp_lott","Sun Apr 09 2023 19:07:33 GMT-0500 (Central Daylight Time)","245874","red","green","","471","","","","choice","","img/red_lw/choose11.jpg","2","173","red","0.5","0.5","0.5","w","",""
"animation","109","83922","0.0-5.0-2.52","63f477547d2302b4346299f4","bdp_lott","Sun Apr 09 2023 19:07:33 GMT-0500 (Central Daylight Time)","245874","red","green","","","","","","","","","","173","","","","","","[{""stimulus"":""img/red_lw/1.jpg"",""time"":51},{""stimulus"":""img/red_lw/2.jpg"",""time"":104},{""stimulus"":""img/red_lw/3.jpg"",""time"":153},{""stimulus"":""img/red_lw/4.jpg"",""time"":203},{""stimulus"":""img/red_lw/5.jpg"",""time"":254},{""stimulus"":""img/red_lw/6.jpg"",""time"":303},{""stimulus"":""img/red_lw/7.jpg"",""time"":353},{""stimulus"":""img/red_lw/8.jpg"",""time"":401},{""stimulus"":""img/red_lw/9.jpg"",""time"":474},{""stimulus"":""img/red_lw/10.jpg"",""time"":503},{""stimulus"":""img/red_lw/11.jpg"",""time"":553}]","[]"
"image-keyboard-response","110","84495","0.0-5.0-1.53","63f477547d2302b4346299f4","bdp_lott","Sun Apr 09 2023 19:07:33 GMT-0500 (Central Daylight Time)","245874","red","green","","572","","","","choice","","img/red_lw/choose11.jpg","2","172","red","0.5","0.5","0.5","w","",""
"animation","111","85105","0.0-5.0-2.53","63f477547d2302b4346299f4","bdp_lott","Sun Apr 09 2023 19:07:33 GMT-0500 (Central Daylight Time)","245874","red","green","","","","","","","","","","172","","","","","","[{""stimulus"":""img/red_lw/1.jpg"",""time"":65},{""stimulus"":""img/red_lw/2.jpg"",""time"":103},{""stimulus"":""img/red_lw/3.jpg"",""time"":159},{""stimulus"":""img/red_lw/4.jpg"",""time"":206},{""stimulus"":""img/red_lw/5.jpg"",""time"":260},{""stimulus"":""img/red_lw/6.jpg"",""time"":302},{""stimulus"":""img/red_lw/7.jpg"",""time"":353},{""stimulus"":""img/red_lw/8.jpg"",""time"":409},{""stimulus"":""img/red_lw/9.jpg"",""time"":451},{""stimulus"":""img/red_lw/10.jpg"",""time"":501},{""stimulus"":""img/red_lw/11.jpg"",""time"":551}]","[]"
"image-keyboard-response","112","85617","0.0-5.0-1.54","63f477547d2302b4346299f4","bdp_lott","Sun Apr 09 2023 19:07:33 GMT-0500 (Central Daylight Time)","245874","red","green","","512","","","","choice","","img/red_lw/choose11.jpg","2","171","red","0.5","0.5","0.5","w","",""
"animation","113","86220","0.0-5.0-2.54","63f477547d2302b4346299f4","bdp_lott","Sun Apr 09 2023 19:07:33 GMT-0500 (Central Daylight Time)","245874","red","green","","","","","","","","","","171","","","","","","[{""stimulus"":""img/red_lw/1.jpg"",""time"":52},{""stimulus"":""img/red_lw/2.jpg"",""time"":111},{""stimulus"":""img/red_lw/3.jpg"",""time"":162},{""stimulus"":""img/red_lw/4.jpg"",""time"":204},{""stimulus"":""img/red_lw/5.jpg"",""time"":254},{""stimulus"":""img/red_lw/6.jpg"",""time"":303},{""stimulus"":""img/red_lw/7.jpg"",""time"":355},{""stimulus"":""img/red_lw/8.jpg"",""time"":403},{""stimulus"":""img/red_lw/9.jpg"",""time"":459},{""stimulus"":""img/red_lw/10.jpg"",""time"":504},{""stimulus"":""img/red_lw/11.jpg"",""time"":559}]","[]"
"image-keyboard-response","114","86639","0.0-5.0-1.55","63f477547d2302b4346299f4","bdp_lott","Sun Apr 09 2023 19:07:33 GMT-0500 (Central Daylight Time)","245874","red","green","","418","","","","choice","","img/red_lw/choose11.jpg","2","170","red","0.5","0.5","0.5","l","",""
"animation","115","87246","0.0-5.0-2.55","63f477547d2302b4346299f4","bdp_lott","Sun Apr 09 2023 19:07:33 GMT-0500 (Central Daylight Time)","245874","red","green","","","","","","","","","","170","","","","","","[{""stimulus"":""img/red_ll/1.jpg"",""time"":65},{""stimulus"":""img/red_ll/2.jpg"",""time"":107},{""stimulus"":""img/red_ll/3.jpg"",""time"":157},{""stimulus"":""img/red_ll/4.jpg"",""time"":207},{""stimulus"":""img/red_ll/5.jpg"",""time"":257},{""stimulus"":""img/red_ll/6.jpg"",""time"":316},{""stimulus"":""img/red_ll/7.jpg"",""time"":358},{""stimulus"":""img/red_ll/8.jpg"",""time"":404},{""stimulus"":""img/red_ll/9.jpg"",""time"":458},{""stimulus"":""img/red_ll/10.jpg"",""time"":516},{""stimulus"":""img/red_ll/11.jpg"",""time"":557}]","[]"
"image-keyboard-response","116","87857","0.0-5.0-1.56","63f477547d2302b4346299f4","bdp_lott","Sun Apr 09 2023 19:07:33 GMT-0500 (Central Daylight Time)","245874","red","green","","610","","","","choice","","img/red_ll/choose11.jpg","1","169","green","0.5","0.5","0.5","l","",""
"animation","117","88471","0.0-5.0-2.56","63f477547d2302b4346299f4","bdp_lott","Sun Apr 09 2023 19:07:33 GMT-0500 (Central Daylight Time)","245874","red","green","","","","","","","","","","169","","","","","","[{""stimulus"":""img/green_ll/1.jpg"",""time"":60},{""stimulus"":""img/green_ll/2.jpg"",""time"":113},{""stimulus"":""img/green_ll/3.jpg"",""time"":155},{""stimulus"":""img/green_ll/4.jpg"",""time"":213},{""stimulus"":""img/green_ll/5.jpg"",""time"":255},{""stimulus"":""img/green_ll/6.jpg"",""time"":304},{""stimulus"":""img/green_ll/7.jpg"",""time"":355},{""stimulus"":""img/green_ll/8.jpg"",""time"":404},{""stimulus"":""img/green_ll/9.jpg"",""time"":454},{""stimulus"":""img/green_ll/10.jpg"",""time"":514},{""stimulus"":""img/green_ll/11.jpg"",""time"":555}]","[]"
"image-keyboard-response","118","88848","0.0-5.0-1.57","63f477547d2302b4346299f4","bdp_lott","Sun Apr 09 2023 19:07:33 GMT-0500 (Central Daylight Time)","245874","red","green","","376","","","","choice","","img/green_ll/choose11.jpg","1","168","green","0.5","0.5","0.5","w","",""
"animation","119","89454","0.0-5.0-2.57","63f477547d2302b4346299f4","bdp_lott","Sun Apr 09 2023 19:07:33 GMT-0500 (Central Daylight Time)","245874","red","green","","","","","","","","","","168","","","","","","[{""stimulus"":""img/green_wl/1.jpg"",""time"":57},{""stimulus"":""img/green_wl/2.jpg"",""time"":101},{""stimulus"":""img/green_wl/3.jpg"",""time"":158},{""stimulus"":""img/green_wl/4.jpg"",""time"":207},{""stimulus"":""img/green_wl/5.jpg"",""time"":258},{""stimulus"":""img/green_wl/6.jpg"",""time"":301},{""stimulus"":""img/green_wl/7.jpg"",""time"":358},{""stimulus"":""img/green_wl/8.jpg"",""time"":406},{""stimulus"":""img/green_wl/9.jpg"",""time"":457},{""stimulus"":""img/green_wl/10.jpg"",""time"":504},{""stimulus"":""img/green_wl/11.jpg"",""time"":558}]","[]"
"image-keyboard-response","120","90054","0.0-5.0-1.58","63f477547d2302b4346299f4","bdp_lott","Sun Apr 09 2023 19:07:33 GMT-0500 (Central Daylight Time)","245874","red","green","","599","","","","choice","","img/green_wl/choose11.jpg","1","167","green","0.5","0.5","0.5","l","",""
"animation","121","90655","0.0-5.0-2.58","63f477547d2302b4346299f4","bdp_lott","Sun Apr 09 2023 19:07:33 GMT-0500 (Central Daylight Time)","245874","red","green","","","","","","","","","","167","","","","","","[{""stimulus"":""img/green_ll/1.jpg"",""time"":57},{""stimulus"":""img/green_ll/2.jpg"",""time"":109},{""stimulus"":""img/green_ll/3.jpg"",""time"":151},{""stimulus"":""img/green_ll/4.jpg"",""time"":201},{""stimulus"":""img/green_ll/5.jpg"",""time"":251},{""stimulus"":""img/green_ll/6.jpg"",""time"":301},{""stimulus"":""img/green_ll/7.jpg"",""time"":352},{""stimulus"":""img/green_ll/8.jpg"",""time"":401},{""stimulus"":""img/green_ll/9.jpg"",""time"":451},{""stimulus"":""img/green_ll/10.jpg"",""time"":501},{""stimulus"":""img/green_ll/11.jpg"",""time"":551}]","[]"
"image-keyboard-response","122","91311","0.0-5.0-1.59","63f477547d2302b4346299f4","bdp_lott","Sun Apr 09 2023 19:07:33 GMT-0500 (Central Daylight Time)","245874","red","green","","655","","","","choice","","img/green_ll/choose11.jpg","1","166","green","0.5","0.5","0.5","l","",""
"animation","123","91912","0.0-5.0-2.59","63f477547d2302b4346299f4","bdp_lott","Sun Apr 09 2023 19:07:33 GMT-0500 (Central Daylight Time)","245874","red","green","","","","","","","","","","166","","","","","","[{""stimulus"":""img/green_ll/1.jpg"",""time"":51},{""stimulus"":""img/green_ll/2.jpg"",""time"":102},{""stimulus"":""img/green_ll/3.jpg"",""time"":152},{""stimulus"":""img/green_ll/4.jpg"",""time"":217},{""stimulus"":""img/green_ll/5.jpg"",""time"":251},{""stimulus"":""img/green_ll/6.jpg"",""time"":310},{""stimulus"":""img/green_ll/7.jpg"",""time"":360},{""stimulus"":""img/green_ll/8.jpg"",""time"":401},{""stimulus"":""img/green_ll/9.jpg"",""time"":451},{""stimulus"":""img/green_ll/10.jpg"",""time"":503},{""stimulus"":""img/green_ll/11.jpg"",""time"":551}]","[]"
"image-keyboard-response","124","92266","0.0-5.0-1.60","63f477547d2302b4346299f4","bdp_lott","Sun Apr 09 2023 19:07:33 GMT-0500 (Central Daylight Time)","245874","red","green","","353","","","","choice","","img/green_ll/choose11.jpg","1","165","green","0.5","0.5","0.5","l","",""
"animation","125","92871","0.0-5.0-2.60","63f477547d2302b4346299f4","bdp_lott","Sun Apr 09 2023 19:07:33 GMT-0500 (Central Daylight Time)","245874","red","green","","","","","","","","","","165","","","","","","[{""stimulus"":""img/green_ll/1.jpg"",""time"":51},{""stimulus"":""img/green_ll/2.jpg"",""time"":103},{""stimulus"":""img/green_ll/3.jpg"",""time"":154},{""stimulus"":""img/green_ll/4.jpg"",""time"":204},{""stimulus"":""img/green_ll/5.jpg"",""time"":255},{""stimulus"":""img/green_ll/6.jpg"",""time"":303},{""stimulus"":""img/green_ll/7.jpg"",""time"":355},{""stimulus"":""img/green_ll/8.jpg"",""time"":405},{""stimulus"":""img/green_ll/9.jpg"",""time"":455},{""stimulus"":""img/green_ll/10.jpg"",""time"":505},{""stimulus"":""img/green_ll/11.jpg"",""time"":555}]","[]"
"image-keyboard-response","126","93286","0.0-5.0-1.61","63f477547d2302b4346299f4","bdp_lott","Sun Apr 09 2023 19:07:33 GMT-0500 (Central Daylight Time)","245874","red","green","","414","","","","choice","","img/green_ll/choose11.jpg","2","164","red","0.5","0.5","0.5","w","",""
"animation","127","93888","0.0-5.0-2.61","63f477547d2302b4346299f4","bdp_lott","Sun Apr 09 2023 19:07:33 GMT-0500 (Central Daylight Time)","245874","red","green","","","","","","","","","","164","","","","","","[{""stimulus"":""img/red_lw/1.jpg"",""time"":60},{""stimulus"":""img/red_lw/2.jpg"",""time"":102},{""stimulus"":""img/red_lw/3.jpg"",""time"":151},{""stimulus"":""img/red_lw/4.jpg"",""time"":205},{""stimulus"":""img/red_lw/5.jpg"",""time"":251},{""stimulus"":""img/red_lw/6.jpg"",""time"":302},{""stimulus"":""img/red_lw/7.jpg"",""time"":351},{""stimulus"":""img/red_lw/8.jpg"",""time"":403},{""stimulus"":""img/red_lw/9.jpg"",""time"":452},{""stimulus"":""img/red_lw/10.jpg"",""time"":502},{""stimulus"":""img/red_lw/11.jpg"",""time"":550}]","[]"
"image-keyboard-response","128","94362","0.0-5.0-1.62","63f477547d2302b4346299f4","bdp_lott","Sun Apr 09 2023 19:07:33 GMT-0500 (Central Daylight Time)","245874","red","green","","473","","","","choice","","img/red_lw/choose11.jpg","2","163","red","0.5","0.5","0.5","w","",""
"animation","129","94971","0.0-5.0-2.62","63f477547d2302b4346299f4","bdp_lott","Sun Apr 09 2023 19:07:33 GMT-0500 (Central Daylight Time)","245874","red","green","","","","","","","","","","163","","","","","","[{""stimulus"":""img/red_lw/1.jpg"",""time"":50},{""stimulus"":""img/red_lw/2.jpg"",""time"":101},{""stimulus"":""img/red_lw/3.jpg"",""time"":151},{""stimulus"":""img/red_lw/4.jpg"",""time"":217},{""stimulus"":""img/red_lw/5.jpg"",""time"":258},{""stimulus"":""img/red_lw/6.jpg"",""time"":309},{""stimulus"":""img/red_lw/7.jpg"",""time"":352},{""stimulus"":""img/red_lw/8.jpg"",""time"":411},{""stimulus"":""img/red_lw/9.jpg"",""time"":458},{""stimulus"":""img/red_lw/10.jpg"",""time"":509},{""stimulus"":""img/red_lw/11.jpg"",""time"":551}]","[]"
"image-keyboard-response","130","95376","0.0-5.0-1.63","63f477547d2302b4346299f4","bdp_lott","Sun Apr 09 2023 19:07:33 GMT-0500 (Central Daylight Time)","245874","red","green","","404","","","","choice","","img/red_lw/choose11.jpg","2","162","red","0.5","0.5","0.5","w","",""
"animation","131","95979","0.0-5.0-2.63","63f477547d2302b4346299f4","bdp_lott","Sun Apr 09 2023 19:07:33 GMT-0500 (Central Daylight Time)","245874","red","green","","","","","","","","","","162","","","","","","[{""stimulus"":""img/red_lw/1.jpg"",""time"":51},{""stimulus"":""img/red_lw/2.jpg"",""time"":103},{""stimulus"":""img/red_lw/3.jpg"",""time"":153},{""stimulus"":""img/red_lw/4.jpg"",""time"":203},{""stimulus"":""img/red_lw/5.jpg"",""time"":252},{""stimulus"":""img/red_lw/6.jpg"",""time"":320},{""stimulus"":""img/red_lw/7.jpg"",""time"":356},{""stimulus"":""img/red_lw/8.jpg"",""time"":419},{""stimulus"":""img/red_lw/9.jpg"",""time"":452},{""stimulus"":""img/red_lw/10.jpg"",""time"":503},{""stimulus"":""img/red_lw/11.jpg"",""time"":561}]","[]"
"image-keyboard-response","132","96386","0.0-5.0-1.64","63f477547d2302b4346299f4","bdp_lott","Sun Apr 09 2023 19:07:33 GMT-0500 (Central Daylight Time)","245874","red","green","","406","","","","choice","","img/red_lw/choose11.jpg","2","161","red","0.5","0.5","0.5","l","",""
"animation","133","96988","0.0-5.0-2.64","63f477547d2302b4346299f4","bdp_lott","Sun Apr 09 2023 19:07:33 GMT-0500 (Central Daylight Time)","245874","red","green","","","","","","","","","","161","","","","","","[{""stimulus"":""img/red_ll/1.jpg"",""time"":64},{""stimulus"":""img/red_ll/2.jpg"",""time"":102},{""stimulus"":""img/red_ll/3.jpg"",""time"":153},{""stimulus"":""img/red_ll/4.jpg"",""time"":203},{""stimulus"":""img/red_ll/5.jpg"",""time"":252},{""stimulus"":""img/red_ll/6.jpg"",""time"":302},{""stimulus"":""img/red_ll/7.jpg"",""time"":352},{""stimulus"":""img/red_ll/8.jpg"",""time"":402},{""stimulus"":""img/red_ll/9.jpg"",""time"":452},{""stimulus"":""img/red_ll/10.jpg"",""time"":502},{""stimulus"":""img/red_ll/11.jpg"",""time"":552}]","[]"
"image-keyboard-response","134","97532","0.0-5.0-1.65","63f477547d2302b4346299f4","bdp_lott","Sun Apr 09 2023 19:07:33 GMT-0500 (Central Daylight Time)","245874","red","green","","543","","","","choice","","img/red_ll/choose11.jpg","2","160","red","0.5","0.5","0.5","w","",""
"animation","135","98136","0.0-5.0-2.65","63f477547d2302b4346299f4","bdp_lott","Sun Apr 09 2023 19:07:33 GMT-0500 (Central Daylight Time)","245874","red","green","","","","","","","","","","160","","","","","","[{""stimulus"":""img/red_lw/1.jpg"",""time"":63},{""stimulus"":""img/red_lw/2.jpg"",""time"":114},{""stimulus"":""img/red_lw/3.jpg"",""time"":154},{""stimulus"":""img/red_lw/4.jpg"",""time"":206},{""stimulus"":""img/red_lw/5.jpg"",""time"":256},{""stimulus"":""img/red_lw/6.jpg"",""time"":314},{""stimulus"":""img/red_lw/7.jpg"",""time"":363},{""stimulus"":""img/red_lw/8.jpg"",""time"":406},{""stimulus"":""img/red_lw/9.jpg"",""time"":451},{""stimulus"":""img/red_lw/10.jpg"",""time"":508},{""stimulus"":""img/red_lw/11.jpg"",""time"":556}]","[]"
"image-keyboard-response","136","98372","0.0-5.0-1.66","63f477547d2302b4346299f4","bdp_lott","Sun Apr 09 2023 19:07:33 GMT-0500 (Central Daylight Time)","245874","red","green","","234","","","","choice","","img/red_lw/choose11.jpg","2","159","red","0.5","0.5","0.5","w","",""
"animation","137","98978","0.0-5.0-2.66","63f477547d2302b4346299f4","bdp_lott","Sun Apr 09 2023 19:07:33 GMT-0500 (Central Daylight Time)","245874","red","green","","","","","","","","","","159","","","","","","[{""stimulus"":""img/red_lw/1.jpg"",""time"":54},{""stimulus"":""img/red_lw/2.jpg"",""time"":105},{""stimulus"":""img/red_lw/3.jpg"",""time"":156},{""stimulus"":""img/red_lw/4.jpg"",""time"":205},{""stimulus"":""img/red_lw/5.jpg"",""time"":261},{""stimulus"":""img/red_lw/6.jpg"",""time"":305},{""stimulus"":""img/red_lw/7.jpg"",""time"":362},{""stimulus"":""img/red_lw/8.jpg"",""time"":406},{""stimulus"":""img/red_lw/9.jpg"",""time"":452},{""stimulus"":""img/red_lw/10.jpg"",""time"":506},{""stimulus"":""img/red_lw/11.jpg"",""time"":553}]","[]"
"image-keyboard-response","138","99332","0.0-5.0-1.67","63f477547d2302b4346299f4","bdp_lott","Sun Apr 09 2023 19:07:33 GMT-0500 (Central Daylight Time)","245874","red","green","","353","","","","choice","","img/red_lw/choose11.jpg","2","158","red","0.5","0.5","0.5","l","",""
"animation","139","99934","0.0-5.0-2.67","63f477547d2302b4346299f4","bdp_lott","Sun Apr 09 2023 19:07:33 GMT-0500 (Central Daylight Time)","245874","red","green","","","","","","","","","","158","","","","","","[{""stimulus"":""img/red_ll/1.jpg"",""time"":55},{""stimulus"":""img/red_ll/2.jpg"",""time"":106},{""stimulus"":""img/red_ll/3.jpg"",""time"":156},{""stimulus"":""img/red_ll/4.jpg"",""time"":206},{""stimulus"":""img/red_ll/5.jpg"",""time"":255},{""stimulus"":""img/red_ll/6.jpg"",""time"":305},{""stimulus"":""img/red_ll/7.jpg"",""time"":355},{""stimulus"":""img/red_ll/8.jpg"",""time"":404},{""stimulus"":""img/red_ll/9.jpg"",""time"":457},{""stimulus"":""img/red_ll/10.jpg"",""time"":502},{""stimulus"":""img/red_ll/11.jpg"",""time"":554}]","[]"
"image-keyboard-response","140","100774","0.0-5.0-1.68","63f477547d2302b4346299f4","bdp_lott","Sun Apr 09 2023 19:07:33 GMT-0500 (Central Daylight Time)","245874","red","green","","840","","","","choice","","img/red_ll/choose11.jpg","1","157","green","0.5","0.5","0.5","w","",""
"animation","141","101386","0.0-5.0-2.68","63f477547d2302b4346299f4","bdp_lott","Sun Apr 09 2023 19:07:33 GMT-0500 (Central Daylight Time)","245874","red","green","","","","","","","","","","157","","","","","","[{""stimulus"":""img/green_wl/1.jpg"",""time"":57},{""stimulus"":""img/green_wl/2.jpg"",""time"":103},{""stimulus"":""img/green_wl/3.jpg"",""time"":171},{""stimulus"":""img/green_wl/4.jpg"",""time"":204},{""stimulus"":""img/green_wl/5.jpg"",""time"":255},{""stimulus"":""img/green_wl/6.jpg"",""time"":315},{""stimulus"":""img/green_wl/7.jpg"",""time"":355},{""stimulus"":""img/green_wl/8.jpg"",""time"":406},{""stimulus"":""img/green_wl/9.jpg"",""time"":457},{""stimulus"":""img/green_wl/10.jpg"",""time"":506},{""stimulus"":""img/green_wl/11.jpg"",""time"":562}]","[]"
"image-keyboard-response","142","101667","0.0-5.0-1.69","63f477547d2302b4346299f4","bdp_lott","Sun Apr 09 2023 19:07:33 GMT-0500 (Central Daylight Time)","245874","red","green","","280","","","","choice","","img/green_wl/choose11.jpg","1","156","green","0.5","0.5","0.5","w","",""
"animation","143","102275","0.0-5.0-2.69","63f477547d2302b4346299f4","bdp_lott","Sun Apr 09 2023 19:07:33 GMT-0500 (Central Daylight Time)","245874","red","green","","","","","","","","","","156","","","","","","[{""stimulus"":""img/green_wl/1.jpg"",""time"":58},{""stimulus"":""img/green_wl/2.jpg"",""time"":100},{""stimulus"":""img/green_wl/3.jpg"",""time"":151},{""stimulus"":""img/green_wl/4.jpg"",""time"":225},{""stimulus"":""img/green_wl/5.jpg"",""time"":252},{""stimulus"":""img/green_wl/6.jpg"",""time"":304},{""stimulus"":""img/green_wl/7.jpg"",""time"":353},{""stimulus"":""img/green_wl/8.jpg"",""time"":403},{""stimulus"":""img/green_wl/9.jpg"",""time"":454},{""stimulus"":""img/green_wl/10.jpg"",""time"":504},{""stimulus"":""img/green_wl/11.jpg"",""time"":554}]","[]"
"image-keyboard-response","144","102758","0.0-5.0-1.70","63f477547d2302b4346299f4","bdp_lott","Sun Apr 09 2023 19:07:33 GMT-0500 (Central Daylight Time)","245874","red","green","","482","","","","choice","","img/green_wl/choose11.jpg","1","155","green","0.5","0.5","0.5","w","",""
"animation","145","103360","0.0-5.0-2.70","63f477547d2302b4346299f4","bdp_lott","Sun Apr 09 2023 19:07:33 GMT-0500 (Central Daylight Time)","245874","red","green","","","","","","","","","","155","","","","","","[{""stimulus"":""img/green_wl/1.jpg"",""time"":51},{""stimulus"":""img/green_wl/2.jpg"",""time"":104},{""stimulus"":""img/green_wl/3.jpg"",""time"":163},{""stimulus"":""img/green_wl/4.jpg"",""time"":205},{""stimulus"":""img/green_wl/5.jpg"",""time"":254},{""stimulus"":""img/green_wl/6.jpg"",""time"":312},{""stimulus"":""img/green_wl/7.jpg"",""time"":364},{""stimulus"":""img/green_wl/8.jpg"",""time"":404},{""stimulus"":""img/green_wl/9.jpg"",""time"":454},{""stimulus"":""img/green_wl/10.jpg"",""time"":504},{""stimulus"":""img/green_wl/11.jpg"",""time"":555}]","[]"
"image-keyboard-response","146","103676","0.0-5.0-1.71","63f477547d2302b4346299f4","bdp_lott","Sun Apr 09 2023 19:07:33 GMT-0500 (Central Daylight Time)","245874","red","green","","316","","","","choice","","img/green_wl/choose11.jpg","1","154","green","0.5","0.5","0.5","w","",""
"animation","147","104278","0.0-5.0-2.71","63f477547d2302b4346299f4","bdp_lott","Sun Apr 09 2023 19:07:33 GMT-0500 (Central Daylight Time)","245874","red","green","","","","","","","","","","154","","","","","","[{""stimulus"":""img/green_wl/1.jpg"",""time"":51},{""stimulus"":""img/green_wl/2.jpg"",""time"":104},{""stimulus"":""img/green_wl/3.jpg"",""time"":153},{""stimulus"":""img/green_wl/4.jpg"",""time"":221},{""stimulus"":""img/green_wl/5.jpg"",""time"":254},{""stimulus"":""img/green_wl/6.jpg"",""time"":313},{""stimulus"":""img/green_wl/7.jpg"",""time"":365},{""stimulus"":""img/green_wl/8.jpg"",""time"":402},{""stimulus"":""img/green_wl/9.jpg"",""time"":458},{""stimulus"":""img/green_wl/10.jpg"",""time"":505},{""stimulus"":""img/green_wl/11.jpg"",""time"":553}]","[]"
"image-keyboard-response","148","104647","0.0-5.0-1.72","63f477547d2302b4346299f4","bdp_lott","Sun Apr 09 2023 19:07:33 GMT-0500 (Central Daylight Time)","245874","red","green","","369","","","","choice","","img/green_wl/choose11.jpg","1","153","green","0.5","0.5","0.5","l","",""
"animation","149","105252","0.0-5.0-2.72","63f477547d2302b4346299f4","bdp_lott","Sun Apr 09 2023 19:07:33 GMT-0500 (Central Daylight Time)","245874","red","green","","","","","","","","","","153","","","","","","[{""stimulus"":""img/green_ll/1.jpg"",""time"":51},{""stimulus"":""img/green_ll/2.jpg"",""time"":114},{""stimulus"":""img/green_ll/3.jpg"",""time"":165},{""stimulus"":""img/green_ll/4.jpg"",""time"":207},{""stimulus"":""img/green_ll/5.jpg"",""time"":254},{""stimulus"":""img/green_ll/6.jpg"",""time"":304},{""stimulus"":""img/green_ll/7.jpg"",""time"":356},{""stimulus"":""img/green_ll/8.jpg"",""time"":406},{""stimulus"":""img/green_ll/9.jpg"",""time"":452},{""stimulus"":""img/green_ll/10.jpg"",""time"":503},{""stimulus"":""img/green_ll/11.jpg"",""time"":558}]","[]"
"image-keyboard-response","150","105815","0.0-5.0-1.73","63f477547d2302b4346299f4","bdp_lott","Sun Apr 09 2023 19:07:33 GMT-0500 (Central Daylight Time)","245874","red","green","","562","","","","choice","","img/green_ll/choose11.jpg","1","152","green","0.5","0.5","0.5","w","",""
"animation","151","106415","0.0-5.0-2.73","63f477547d2302b4346299f4","bdp_lott","Sun Apr 09 2023 19:07:33 GMT-0500 (Central Daylight Time)","245874","red","green","","","","","","","","","","152","","","","","","[{""stimulus"":""img/green_wl/1.jpg"",""time"":63},{""stimulus"":""img/green_wl/2.jpg"",""time"":101},{""stimulus"":""img/green_wl/3.jpg"",""time"":163},{""stimulus"":""img/green_wl/4.jpg"",""time"":206},{""stimulus"":""img/green_wl/5.jpg"",""time"":256},{""stimulus"":""img/green_wl/6.jpg"",""time"":306},{""stimulus"":""img/green_wl/7.jpg"",""time"":355},{""stimulus"":""img/green_wl/8.jpg"",""time"":405},{""stimulus"":""img/green_wl/9.jpg"",""time"":450},{""stimulus"":""img/green_wl/10.jpg"",""time"":523},{""stimulus"":""img/green_wl/11.jpg"",""time"":552}]","[]"
"image-keyboard-response","152","106898","0.0-5.0-1.74","63f477547d2302b4346299f4","bdp_lott","Sun Apr 09 2023 19:07:33 GMT-0500 (Central Daylight Time)","245874","red","green","","482","","","","choice","","img/green_wl/choose11.jpg","1","151","green","0.5","0.5","0.5","w","",""
"animation","153","107504","0.0-5.0-2.74","63f477547d2302b4346299f4","bdp_lott","Sun Apr 09 2023 19:07:33 GMT-0500 (Central Daylight Time)","245874","red","green","","","","","","","","","","151","","","","","","[{""stimulus"":""img/green_wl/1.jpg"",""time"":56},{""stimulus"":""img/green_wl/2.jpg"",""time"":106},{""stimulus"":""img/green_wl/3.jpg"",""time"":151},{""stimulus"":""img/green_wl/4.jpg"",""time"":222},{""stimulus"":""img/green_wl/5.jpg"",""time"":256},{""stimulus"":""img/green_wl/6.jpg"",""time"":306},{""stimulus"":""img/green_wl/7.jpg"",""time"":356},{""stimulus"":""img/green_wl/8.jpg"",""time"":406},{""stimulus"":""img/green_wl/9.jpg"",""time"":457},{""stimulus"":""img/green_wl/10.jpg"",""time"":504},{""stimulus"":""img/green_wl/11.jpg"",""time"":554}]","[]"
"image-keyboard-response","154","107765","0.0-5.0-1.75","63f477547d2302b4346299f4","bdp_lott","Sun Apr 09 2023 19:07:33 GMT-0500 (Central Daylight Time)","245874","red","green","","260","","","","choice","","img/green_wl/choose11.jpg","1","150","green","0.5","0.5","0.5","w","",""
"animation","155","108370","0.0-5.0-2.75","63f477547d2302b4346299f4","bdp_lott","Sun Apr 09 2023 19:07:33 GMT-0500 (Central Daylight Time)","245874","red","green","","","","","","","","","","150","","","","","","[{""stimulus"":""img/green_wl/1.jpg"",""time"":63},{""stimulus"":""img/green_wl/2.jpg"",""time"":105},{""stimulus"":""img/green_wl/3.jpg"",""time"":155},{""stimulus"":""img/green_wl/4.jpg"",""time"":204},{""stimulus"":""img/green_wl/5.jpg"",""time"":255},{""stimulus"":""img/green_wl/6.jpg"",""time"":300},{""stimulus"":""img/green_wl/7.jpg"",""time"":355},{""stimulus"":""img/green_wl/8.jpg"",""time"":408},{""stimulus"":""img/green_wl/9.jpg"",""time"":453},{""stimulus"":""img/green_wl/10.jpg"",""time"":513},{""stimulus"":""img/green_wl/11.jpg"",""time"":555}]","[]"
"image-keyboard-response","156","108640","0.0-5.0-1.76","63f477547d2302b4346299f4","bdp_lott","Sun Apr 09 2023 19:07:33 GMT-0500 (Central Daylight Time)","245874","red","green","","269","","","","choice","","img/green_wl/choose11.jpg","1","149","green","0.5","0.1","0.1","l","",""
"animation","157","109253","0.0-5.0-2.76","63f477547d2302b4346299f4","bdp_lott","Sun Apr 09 2023 19:07:33 GMT-0500 (Central Daylight Time)","245874","red","green","","","","","","","","","","149","","","","","","[{""stimulus"":""img/green_ll/1.jpg"",""time"":51},{""stimulus"":""img/green_ll/2.jpg"",""time"":101},{""stimulus"":""img/green_ll/3.jpg"",""time"":159},{""stimulus"":""img/green_ll/4.jpg"",""time"":221},{""stimulus"":""img/green_ll/5.jpg"",""time"":255},{""stimulus"":""img/green_ll/6.jpg"",""time"":305},{""stimulus"":""img/green_ll/7.jpg"",""time"":355},{""stimulus"":""img/green_ll/8.jpg"",""time"":408},{""stimulus"":""img/green_ll/9.jpg"",""time"":455},{""stimulus"":""img/green_ll/10.jpg"",""time"":514},{""stimulus"":""img/green_ll/11.jpg"",""time"":555}]","[]"
"image-keyboard-response","158","109803","0.0-5.0-1.77","63f477547d2302b4346299f4","bdp_lott","Sun Apr 09 2023 19:07:33 GMT-0500 (Central Daylight Time)","245874","red","green","","549","","","","choice","","img/green_ll/choose11.jpg","1","148","green","0.5","0.1","0.1","l","",""
"animation","159","110406","0.0-5.0-2.77","63f477547d2302b4346299f4","bdp_lott","Sun Apr 09 2023 19:07:33 GMT-0500 (Central Daylight Time)","245874","red","green","","","","","","","","","","148","","","","","","[{""stimulus"":""img/green_ll/1.jpg"",""time"":54},{""stimulus"":""img/green_ll/2.jpg"",""time"":109},{""stimulus"":""img/green_ll/3.jpg"",""time"":159},{""stimulus"":""img/green_ll/4.jpg"",""time"":218},{""stimulus"":""img/green_ll/5.jpg"",""time"":252},{""stimulus"":""img/green_ll/6.jpg"",""time"":302},{""stimulus"":""img/green_ll/7.jpg"",""time"":351},{""stimulus"":""img/green_ll/8.jpg"",""time"":401},{""stimulus"":""img/green_ll/9.jpg"",""time"":451},{""stimulus"":""img/green_ll/10.jpg"",""time"":501},{""stimulus"":""img/green_ll/11.jpg"",""time"":551}]","[]"
"image-keyboard-response","160","110875","0.0-5.0-1.78","63f477547d2302b4346299f4","bdp_lott","Sun Apr 09 2023 19:07:33 GMT-0500 (Central Daylight Time)","245874","red","green","","468","","","","choice","","img/green_ll/choose11.jpg","1","147","green","0.5","0.1","0.1","w","",""
"animation","161","111478","0.0-5.0-2.78","63f477547d2302b4346299f4","bdp_lott","Sun Apr 09 2023 19:07:33 GMT-0500 (Central Daylight Time)","245874","red","green","","","","","","","","","","147","","","","","","[{""stimulus"":""img/green_wl/1.jpg"",""time"":61},{""stimulus"":""img/green_wl/2.jpg"",""time"":115},{""stimulus"":""img/green_wl/3.jpg"",""time"":152},{""stimulus"":""img/green_wl/4.jpg"",""time"":210},{""stimulus"":""img/green_wl/5.jpg"",""time"":261},{""stimulus"":""img/green_wl/6.jpg"",""time"":302},{""stimulus"":""img/green_wl/7.jpg"",""time"":353},{""stimulus"":""img/green_wl/8.jpg"",""time"":402},{""stimulus"":""img/green_wl/9.jpg"",""time"":456},{""stimulus"":""img/green_wl/10.jpg"",""time"":512},{""stimulus"":""img/green_wl/11.jpg"",""time"":552}]","[]"
"image-keyboard-response","162","111910","0.0-5.0-1.79","63f477547d2302b4346299f4","bdp_lott","Sun Apr 09 2023 19:07:33 GMT-0500 (Central Daylight Time)","245874","red","green","","430","","","","choice","","img/green_wl/choose11.jpg","1","146","green","0.5","0.1","0.1","l","",""
"animation","163","112511","0.0-5.0-2.79","63f477547d2302b4346299f4","bdp_lott","Sun Apr 09 2023 19:07:33 GMT-0500 (Central Daylight Time)","245874","red","green","","","","","","","","","","146","","","","","","[{""stimulus"":""img/green_ll/1.jpg"",""time"":59},{""stimulus"":""img/green_ll/2.jpg"",""time"":105},{""stimulus"":""img/green_ll/3.jpg"",""time"":152},{""stimulus"":""img/green_ll/4.jpg"",""time"":217},{""stimulus"":""img/green_ll/5.jpg"",""time"":252},{""stimulus"":""img/green_ll/6.jpg"",""time"":302},{""stimulus"":""img/green_ll/7.jpg"",""time"":351},{""stimulus"":""img/green_ll/8.jpg"",""time"":402},{""stimulus"":""img/green_ll/9.jpg"",""time"":460},{""stimulus"":""img/green_ll/10.jpg"",""time"":503},{""stimulus"":""img/green_ll/11.jpg"",""time"":560}]","[]"
"image-keyboard-response","164","112767","0.0-5.0-1.80","63f477547d2302b4346299f4","bdp_lott","Sun Apr 09 2023 19:07:33 GMT-0500 (Central Daylight Time)","245874","red","green","","255","","","","choice","","img/green_ll/choose11.jpg","1","145","green","0.5","0.1","0.1","l","",""
"animation","165","113370","0.0-5.0-2.80","63f477547d2302b4346299f4","bdp_lott","Sun Apr 09 2023 19:07:33 GMT-0500 (Central Daylight Time)","245874","red","green","","","","","","","","","","145","","","","","","[{""stimulus"":""img/green_ll/1.jpg"",""time"":52},{""stimulus"":""img/green_ll/2.jpg"",""time"":104},{""stimulus"":""img/green_ll/3.jpg"",""time"":154},{""stimulus"":""img/green_ll/4.jpg"",""time"":204},{""stimulus"":""img/green_ll/5.jpg"",""time"":254},{""stimulus"":""img/green_ll/6.jpg"",""time"":304},{""stimulus"":""img/green_ll/7.jpg"",""time"":354},{""stimulus"":""img/green_ll/8.jpg"",""time"":401},{""stimulus"":""img/green_ll/9.jpg"",""time"":464},{""stimulus"":""img/green_ll/10.jpg"",""time"":523},{""stimulus"":""img/green_ll/11.jpg"",""time"":553}]","[]"
"image-keyboard-response","166","113694","0.0-5.0-1.81","63f477547d2302b4346299f4","bdp_lott","Sun Apr 09 2023 19:07:33 GMT-0500 (Central Daylight Time)","245874","red","green","","323","","","","choice","","img/green_ll/choose11.jpg","1","144","green","0.5","0.1","0.1","l","",""
"animation","167","114303","0.0-5.0-2.81","63f477547d2302b4346299f4","bdp_lott","Sun Apr 09 2023 19:07:33 GMT-0500 (Central Daylight Time)","245874","red","green","","","","","","","","","","144","","","","","","[{""stimulus"":""img/green_ll/1.jpg"",""time"":57},{""stimulus"":""img/green_ll/2.jpg"",""time"":102},{""stimulus"":""img/green_ll/3.jpg"",""time"":152},{""stimulus"":""img/green_ll/4.jpg"",""time"":210},{""stimulus"":""img/green_ll/5.jpg"",""time"":252},{""stimulus"":""img/green_ll/6.jpg"",""time"":310},{""stimulus"":""img/green_ll/7.jpg"",""time"":351},{""stimulus"":""img/green_ll/8.jpg"",""time"":409},{""stimulus"":""img/green_ll/9.jpg"",""time"":456},{""stimulus"":""img/green_ll/10.jpg"",""time"":509},{""stimulus"":""img/green_ll/11.jpg"",""time"":562}]","[]"
"image-keyboard-response","168","114670","0.0-5.0-1.82","63f477547d2302b4346299f4","bdp_lott","Sun Apr 09 2023 19:07:33 GMT-0500 (Central Daylight Time)","245874","red","green","","367","","","","choice","","img/green_ll/choose11.jpg","1","143","green","0.5","0.1","0.1","l","",""
"animation","169","115271","0.0-5.0-2.82","63f477547d2302b4346299f4","bdp_lott","Sun Apr 09 2023 19:07:33 GMT-0500 (Central Daylight Time)","245874","red","green","","","","","","","","","","143","","","","","","[{""stimulus"":""img/green_ll/1.jpg"",""time"":58},{""stimulus"":""img/green_ll/2.jpg"",""time"":108},{""stimulus"":""img/green_ll/3.jpg"",""time"":172},{""stimulus"":""img/green_ll/4.jpg"",""time"":201},{""stimulus"":""img/green_ll/5.jpg"",""time"":251},{""stimulus"":""img/green_ll/6.jpg"",""time"":301},{""stimulus"":""img/green_ll/7.jpg"",""time"":351},{""stimulus"":""img/green_ll/8.jpg"",""time"":401},{""stimulus"":""img/green_ll/9.jpg"",""time"":451},{""stimulus"":""img/green_ll/10.jpg"",""time"":501},{""stimulus"":""img/green_ll/11.jpg"",""time"":551}]","[]"
"image-keyboard-response","170","115693","0.0-5.0-1.83","63f477547d2302b4346299f4","bdp_lott","Sun Apr 09 2023 19:07:33 GMT-0500 (Central Daylight Time)","245874","red","green","","422","","","","choice","","img/green_ll/choose11.jpg","1","142","green","0.5","0.1","0.1","l","",""
"animation","171","116296","0.0-5.0-2.83","63f477547d2302b4346299f4","bdp_lott","Sun Apr 09 2023 19:07:33 GMT-0500 (Central Daylight Time)","245874","red","green","","","","","","","","","","142","","","","","","[{""stimulus"":""img/green_ll/1.jpg"",""time"":60},{""stimulus"":""img/green_ll/2.jpg"",""time"":102},{""stimulus"":""img/green_ll/3.jpg"",""time"":152},{""stimulus"":""img/green_ll/4.jpg"",""time"":203},{""stimulus"":""img/green_ll/5.jpg"",""time"":252},{""stimulus"":""img/green_ll/6.jpg"",""time"":303},{""stimulus"":""img/green_ll/7.jpg"",""time"":352},{""stimulus"":""img/green_ll/8.jpg"",""time"":402},{""stimulus"":""img/green_ll/9.jpg"",""time"":461},{""stimulus"":""img/green_ll/10.jpg"",""time"":503},{""stimulus"":""img/green_ll/11.jpg"",""time"":551}]","[]"
"image-keyboard-response","172","116675","0.0-5.0-1.84","63f477547d2302b4346299f4","bdp_lott","Sun Apr 09 2023 19:07:33 GMT-0500 (Central Daylight Time)","245874","red","green","","378","","","","choice","","img/green_ll/choose11.jpg","1","141","green","0.5","0.1","0.1","l","",""
"animation","173","117282","0.0-5.0-2.84","63f477547d2302b4346299f4","bdp_lott","Sun Apr 09 2023 19:07:33 GMT-0500 (Central Daylight Time)","245874","red","green","","","","","","","","","","141","","","","","","[{""stimulus"":""img/green_ll/1.jpg"",""time"":69},{""stimulus"":""img/green_ll/2.jpg"",""time"":104},{""stimulus"":""img/green_ll/3.jpg"",""time"":153},{""stimulus"":""img/green_ll/4.jpg"",""time"":204},{""stimulus"":""img/green_ll/5.jpg"",""time"":261},{""stimulus"":""img/green_ll/6.jpg"",""time"":313},{""stimulus"":""img/green_ll/7.jpg"",""time"":361},{""stimulus"":""img/green_ll/8.jpg"",""time"":403},{""stimulus"":""img/green_ll/9.jpg"",""time"":455},{""stimulus"":""img/green_ll/10.jpg"",""time"":503},{""stimulus"":""img/green_ll/11.jpg"",""time"":562}]","[]"
"image-keyboard-response","174","117607","0.0-5.0-1.85","63f477547d2302b4346299f4","bdp_lott","Sun Apr 09 2023 19:07:33 GMT-0500 (Central Daylight Time)","245874","red","green","","323","","","","choice","","img/green_ll/choose11.jpg","1","140","green","0.5","0.1","0.1","l","",""
"animation","175","118218","0.0-5.0-2.85","63f477547d2302b4346299f4","bdp_lott","Sun Apr 09 2023 19:07:33 GMT-0500 (Central Daylight Time)","245874","red","green","","","","","","","","","","140","","","","","","[{""stimulus"":""img/green_ll/1.jpg"",""time"":67},{""stimulus"":""img/green_ll/2.jpg"",""time"":104},{""stimulus"":""img/green_ll/3.jpg"",""time"":160},{""stimulus"":""img/green_ll/4.jpg"",""time"":206},{""stimulus"":""img/green_ll/5.jpg"",""time"":254},{""stimulus"":""img/green_ll/6.jpg"",""time"":304},{""stimulus"":""img/green_ll/7.jpg"",""time"":371},{""stimulus"":""img/green_ll/8.jpg"",""time"":405},{""stimulus"":""img/green_ll/9.jpg"",""time"":470},{""stimulus"":""img/green_ll/10.jpg"",""time"":506},{""stimulus"":""img/green_ll/11.jpg"",""time"":554}]","[]"
"image-keyboard-response","176","118549","0.0-5.0-1.86","63f477547d2302b4346299f4","bdp_lott","Sun Apr 09 2023 19:07:33 GMT-0500 (Central Daylight Time)","245874","red","green","","331","","","","choice","","img/green_ll/choose11.jpg","1","139","green","0.5","0.1","0.1","l","",""
"animation","177","119153","0.0-5.0-2.86","63f477547d2302b4346299f4","bdp_lott","Sun Apr 09 2023 19:07:33 GMT-0500 (Central Daylight Time)","245874","red","green","","","","","","","","","","139","","","","","","[{""stimulus"":""img/green_ll/1.jpg"",""time"":64},{""stimulus"":""img/green_ll/2.jpg"",""time"":113},{""stimulus"":""img/green_ll/3.jpg"",""time"":153},{""stimulus"":""img/green_ll/4.jpg"",""time"":201},{""stimulus"":""img/green_ll/5.jpg"",""time"":254},{""stimulus"":""img/green_ll/6.jpg"",""time"":301},{""stimulus"":""img/green_ll/7.jpg"",""time"":355},{""stimulus"":""img/green_ll/8.jpg"",""time"":408},{""stimulus"":""img/green_ll/9.jpg"",""time"":475},{""stimulus"":""img/green_ll/10.jpg"",""time"":504},{""stimulus"":""img/green_ll/11.jpg"",""time"":553}]","[]"
"image-keyboard-response","178","119461","0.0-5.0-1.87","63f477547d2302b4346299f4","bdp_lott","Sun Apr 09 2023 19:07:33 GMT-0500 (Central Daylight Time)","245874","red","green","","307","","","","choice","","img/green_ll/choose11.jpg","1","138","green","0.5","0.1","0.1","l","",""
"animation","179","120071","0.0-5.0-2.87","63f477547d2302b4346299f4","bdp_lott","Sun Apr 09 2023 19:07:33 GMT-0500 (Central Daylight Time)","245874","red","green","","","","","","","","","","138","","","","","","[{""stimulus"":""img/green_ll/1.jpg"",""time"":57},{""stimulus"":""img/green_ll/2.jpg"",""time"":101},{""stimulus"":""img/green_ll/3.jpg"",""time"":166},{""stimulus"":""img/green_ll/4.jpg"",""time"":208},{""stimulus"":""img/green_ll/5.jpg"",""time"":259},{""stimulus"":""img/green_ll/6.jpg"",""time"":309},{""stimulus"":""img/green_ll/7.jpg"",""time"":359},{""stimulus"":""img/green_ll/8.jpg"",""time"":410},{""stimulus"":""img/green_ll/9.jpg"",""time"":460},{""stimulus"":""img/green_ll/10.jpg"",""time"":510},{""stimulus"":""img/green_ll/11.jpg"",""time"":560}]","[]"
"image-keyboard-response","180","120279","0.0-5.0-1.88","63f477547d2302b4346299f4","bdp_lott","Sun Apr 09 2023 19:07:33 GMT-0500 (Central Daylight Time)","245874","red","green","","208","","","","choice","","img/green_ll/choose11.jpg","1","137","green","0.5","0.1","0.1","l","",""
"animation","181","120887","0.0-5.0-2.88","63f477547d2302b4346299f4","bdp_lott","Sun Apr 09 2023 19:07:33 GMT-0500 (Central Daylight Time)","245874","red","green","","","","","","","","","","137","","","","","","[{""stimulus"":""img/green_ll/1.jpg"",""time"":54},{""stimulus"":""img/green_ll/2.jpg"",""time"":107},{""stimulus"":""img/green_ll/3.jpg"",""time"":159},{""stimulus"":""img/green_ll/4.jpg"",""time"":205},{""stimulus"":""img/green_ll/5.jpg"",""time"":257},{""stimulus"":""img/green_ll/6.jpg"",""time"":301},{""stimulus"":""img/green_ll/7.jpg"",""time"":365},{""stimulus"":""img/green_ll/8.jpg"",""time"":416},{""stimulus"":""img/green_ll/9.jpg"",""time"":458},{""stimulus"":""img/green_ll/10.jpg"",""time"":515},{""stimulus"":""img/green_ll/11.jpg"",""time"":557}]","[]"
"image-keyboard-response","182","121079","0.0-5.0-1.89","63f477547d2302b4346299f4","bdp_lott","Sun Apr 09 2023 19:07:33 GMT-0500 (Central Daylight Time)","245874","red","green","","192","","","","choice","","img/green_ll/choose11.jpg","1","136","green","0.5","0.1","0.1","l","",""
"animation","183","121686","0.0-5.0-2.89","63f477547d2302b4346299f4","bdp_lott","Sun Apr 09 2023 19:07:33 GMT-0500 (Central Daylight Time)","245874","red","green","","","","","","","","","","136","","","","","","[{""stimulus"":""img/green_ll/1.jpg"",""time"":56},{""stimulus"":""img/green_ll/2.jpg"",""time"":108},{""stimulus"":""img/green_ll/3.jpg"",""time"":158},{""stimulus"":""img/green_ll/4.jpg"",""time"":201},{""stimulus"":""img/green_ll/5.jpg"",""time"":251},{""stimulus"":""img/green_ll/6.jpg"",""time"":315},{""stimulus"":""img/green_ll/7.jpg"",""time"":366},{""stimulus"":""img/green_ll/8.jpg"",""time"":407},{""stimulus"":""img/green_ll/9.jpg"",""time"":460},{""stimulus"":""img/green_ll/10.jpg"",""time"":506},{""stimulus"":""img/green_ll/11.jpg"",""time"":554}]","[]"
"image-keyboard-response","184","121908","0.0-5.0-1.90","63f477547d2302b4346299f4","bdp_lott","Sun Apr 09 2023 19:07:33 GMT-0500 (Central Daylight Time)","245874","red","green","","221","","","","choice","","img/green_ll/choose11.jpg","1","135","green","0.5","0.1","0.1","l","",""
"animation","185","122519","0.0-5.0-2.90","63f477547d2302b4346299f4","bdp_lott","Sun Apr 09 2023 19:07:33 GMT-0500 (Central Daylight Time)","245874","red","green","","","","","","","","","","135","","","","","","[{""stimulus"":""img/green_ll/1.jpg"",""time"":67},{""stimulus"":""img/green_ll/2.jpg"",""time"":104},{""stimulus"":""img/green_ll/3.jpg"",""time"":159},{""stimulus"":""img/green_ll/4.jpg"",""time"":203},{""stimulus"":""img/green_ll/5.jpg"",""time"":259},{""stimulus"":""img/green_ll/6.jpg"",""time"":303},{""stimulus"":""img/green_ll/7.jpg"",""time"":367},{""stimulus"":""img/green_ll/8.jpg"",""time"":403},{""stimulus"":""img/green_ll/9.jpg"",""time"":459},{""stimulus"":""img/green_ll/10.jpg"",""time"":512},{""stimulus"":""img/green_ll/11.jpg"",""time"":554}]","[]"
"image-keyboard-response","186","122736","0.0-5.0-1.91","63f477547d2302b4346299f4","bdp_lott","Sun Apr 09 2023 19:07:33 GMT-0500 (Central Daylight Time)","245874","red","green","","216","","","","choice","","img/green_ll/choose11.jpg","1","134","green","0.5","0.1","0.1","l","",""
"animation","187","123337","0.0-5.0-2.91","63f477547d2302b4346299f4","bdp_lott","Sun Apr 09 2023 19:07:33 GMT-0500 (Central Daylight Time)","245874","red","green","","","","","","","","","","134","","","","","","[{""stimulus"":""img/green_ll/1.jpg"",""time"":58},{""stimulus"":""img/green_ll/2.jpg"",""time"":108},{""stimulus"":""img/green_ll/3.jpg"",""time"":158},{""stimulus"":""img/green_ll/4.jpg"",""time"":209},{""stimulus"":""img/green_ll/5.jpg"",""time"":267},{""stimulus"":""img/green_ll/6.jpg"",""time"":302},{""stimulus"":""img/green_ll/7.jpg"",""time"":351},{""stimulus"":""img/green_ll/8.jpg"",""time"":401},{""stimulus"":""img/green_ll/9.jpg"",""time"":451},{""stimulus"":""img/green_ll/10.jpg"",""time"":501},{""stimulus"":""img/green_ll/11.jpg"",""time"":551}]","[]"
"image-keyboard-response","188","123559","0.0-5.0-1.92","63f477547d2302b4346299f4","bdp_lott","Sun Apr 09 2023 19:07:33 GMT-0500 (Central Daylight Time)","245874","red","green","","221","","","","choice","","img/green_ll/choose11.jpg","1","133","green","0.5","0.1","0.1","l","",""
"animation","189","124164","0.0-5.0-2.92","63f477547d2302b4346299f4","bdp_lott","Sun Apr 09 2023 19:07:33 GMT-0500 (Central Daylight Time)","245874","red","green","","","","","","","","","","133","","","","","","[{""stimulus"":""img/green_ll/1.jpg"",""time"":58},{""stimulus"":""img/green_ll/2.jpg"",""time"":111},{""stimulus"":""img/green_ll/3.jpg"",""time"":153},{""stimulus"":""img/green_ll/4.jpg"",""time"":211},{""stimulus"":""img/green_ll/5.jpg"",""time"":253},{""stimulus"":""img/green_ll/6.jpg"",""time"":311},{""stimulus"":""img/green_ll/7.jpg"",""time"":361},{""stimulus"":""img/green_ll/8.jpg"",""time"":403},{""stimulus"":""img/green_ll/9.jpg"",""time"":454},{""stimulus"":""img/green_ll/10.jpg"",""time"":502},{""stimulus"":""img/green_ll/11.jpg"",""time"":552}]","[]"
"image-keyboard-response","190","124371","0.0-5.0-1.93","63f477547d2302b4346299f4","bdp_lott","Sun Apr 09 2023 19:07:33 GMT-0500 (Central Daylight Time)","245874","red","green","","207","","","","choice","","img/green_ll/choose11.jpg","1","132","green","0.5","0.1","0.1","l","",""
