"trial_type","trial_index","time_elapsed","internal_node_id","subject_id","task","startTime","totalTime","fairMachine","unfairMachine","view_history","rt","event","trial","time","trialtype","success","stimulus","key_press","roundsLeft","chosen","pFairMachWin","pUnfairMachWin","pTrialWin","outcome","animation_sequence","responses"
"pavlovia","0","4","0.0-0.0","63b6ef9027eb90f292852ee4","bdp_lott","Sun Mar 26 2023 22:31:40 GMT-0400 (Eastern Daylight Time)","257885","red","green","","","","","","","","","","","","","","","","",""
"instructions","1","2933","0.0-1.0","63b6ef9027eb90f292852ee4","bdp_lott","Sun Mar 26 2023 22:31:40 GMT-0400 (Eastern Daylight Time)","257885","red","green","[{""page_index"":0,""viewing_time"":2927}]","2928","","","","","","","","","","","","","","",""
"","","","","63b6ef9027eb90f292852ee4","bdp_lott","Sun Mar 26 2023 22:31:40 GMT-0400 (Eastern Daylight Time)","257885","red","green","","","fullscreenenter","2","4932","fullscreenenter","","","","","","","","","","",""
"fullscreen","2","5898","0.0-2.0","63b6ef9027eb90f292852ee4","bdp_lott","Sun Mar 26 2023 22:31:40 GMT-0400 (Eastern Daylight Time)","257885","red","green","","","","","","","true","","","","","","","","","",""
"instructions","3","33111","0.0-4.0","63b6ef9027eb90f292852ee4","bdp_lott","Sun Mar 26 2023 22:31:40 GMT-0400 (Eastern Daylight Time)","257885","red","green","[{""page_index"":0,""viewing_time"":27212}]","27212","","","","","","","","","","","","","","",""
"image-keyboard-response","4","34395","0.0-5.0-1.0","63b6ef9027eb90f292852ee4","bdp_lott","Sun Mar 26 2023 22:31:40 GMT-0400 (Eastern Daylight Time)","257885","red","green","","1281","","","","choice","","img/red_ll/initchoose11.jpg","1","225","green","0.5","0.5","0.5","l","",""
"animation","5","34997","0.0-5.0-2.0","63b6ef9027eb90f292852ee4","bdp_lott","Sun Mar 26 2023 22:31:40 GMT-0400 (Eastern Daylight Time)","257885","red","green","","","","","","","","","","225","","","","","","[{""stimulus"":""img/green_ll/1.jpg"",""time"":52},{""stimulus"":""img/green_ll/2.jpg"",""time"":102},{""stimulus"":""img/green_ll/3.jpg"",""time"":152},{""stimulus"":""img/green_ll/4.jpg"",""time"":202},{""stimulus"":""img/green_ll/5.jpg"",""time"":251},{""stimulus"":""img/green_ll/6.jpg"",""time"":301},{""stimulus"":""img/green_ll/7.jpg"",""time"":352},{""stimulus"":""img/green_ll/8.jpg"",""time"":402},{""stimulus"":""img/green_ll/9.jpg"",""time"":452},{""stimulus"":""img/green_ll/10.jpg"",""time"":502},{""stimulus"":""img/green_ll/11.jpg"",""time"":553}]","[]"
"image-keyboard-response","6","37455","0.0-5.0-1.1","63b6ef9027eb90f292852ee4","bdp_lott","Sun Mar 26 2023 22:31:40 GMT-0400 (Eastern Daylight Time)","257885","red","green","","2455","","","","choice","","img/green_ll/choose11.jpg","2","224","red","0.5","0.5","0.5","w","",""
"animation","7","38057","0.0-5.0-2.1","63b6ef9027eb90f292852ee4","bdp_lott","Sun Mar 26 2023 22:31:40 GMT-0400 (Eastern Daylight Time)","257885","red","green","","","","","","","","","","224","","","","","","[{""stimulus"":""img/red_lw/1.jpg"",""time"":51},{""stimulus"":""img/red_lw/2.jpg"",""time"":102},{""stimulus"":""img/red_lw/3.jpg"",""time"":153},{""stimulus"":""img/red_lw/4.jpg"",""time"":203},{""stimulus"":""img/red_lw/5.jpg"",""time"":251},{""stimulus"":""img/red_lw/6.jpg"",""time"":302},{""stimulus"":""img/red_lw/7.jpg"",""time"":352},{""stimulus"":""img/red_lw/8.jpg"",""time"":402},{""stimulus"":""img/red_lw/9.jpg"",""time"":452},{""stimulus"":""img/red_lw/10.jpg"",""time"":501},{""stimulus"":""img/red_lw/11.jpg"",""time"":551}]","[]"
"image-keyboard-response","8","39297","0.0-5.0-1.2","63b6ef9027eb90f292852ee4","bdp_lott","Sun Mar 26 2023 22:31:40 GMT-0400 (Eastern Daylight Time)","257885","red","green","","1237","","","","choice","","img/red_lw/choose11.jpg","2","223","red","0.5","0.5","0.5","w","",""
"animation","9","39899","0.0-5.0-2.2","63b6ef9027eb90f292852ee4","bdp_lott","Sun Mar 26 2023 22:31:40 GMT-0400 (Eastern Daylight Time)","257885","red","green","","","","","","","","","","223","","","","","","[{""stimulus"":""img/red_lw/1.jpg"",""time"":52},{""stimulus"":""img/red_lw/2.jpg"",""time"":101},{""stimulus"":""img/red_lw/3.jpg"",""time"":151},{""stimulus"":""img/red_lw/4.jpg"",""time"":202},{""stimulus"":""img/red_lw/5.jpg"",""time"":251},{""stimulus"":""img/red_lw/6.jpg"",""time"":301},{""stimulus"":""img/red_lw/7.jpg"",""time"":351},{""stimulus"":""img/red_lw/8.jpg"",""time"":401},{""stimulus"":""img/red_lw/9.jpg"",""time"":451},{""stimulus"":""img/red_lw/10.jpg"",""time"":501},{""stimulus"":""img/red_lw/11.jpg"",""time"":551}]","[]"
"image-keyboard-response","10","41300","0.0-5.0-1.3","63b6ef9027eb90f292852ee4","bdp_lott","Sun Mar 26 2023 22:31:40 GMT-0400 (Eastern Daylight Time)","257885","red","green","","1399","","","","choice","","img/red_lw/choose11.jpg","2","222","red","0.5","0.5","0.5","l","",""
"animation","11","41901","0.0-5.0-2.3","63b6ef9027eb90f292852ee4","bdp_lott","Sun Mar 26 2023 22:31:40 GMT-0400 (Eastern Daylight Time)","257885","red","green","","","","","","","","","","222","","","","","","[{""stimulus"":""img/red_ll/1.jpg"",""time"":52},{""stimulus"":""img/red_ll/2.jpg"",""time"":102},{""stimulus"":""img/red_ll/3.jpg"",""time"":156},{""stimulus"":""img/red_ll/4.jpg"",""time"":202},{""stimulus"":""img/red_ll/5.jpg"",""time"":251},{""stimulus"":""img/red_ll/6.jpg"",""time"":302},{""stimulus"":""img/red_ll/7.jpg"",""time"":351},{""stimulus"":""img/red_ll/8.jpg"",""time"":401},{""stimulus"":""img/red_ll/9.jpg"",""time"":451},{""stimulus"":""img/red_ll/10.jpg"",""time"":502},{""stimulus"":""img/red_ll/11.jpg"",""time"":552}]","[]"
"image-keyboard-response","12","42521","0.0-5.0-1.4","63b6ef9027eb90f292852ee4","bdp_lott","Sun Mar 26 2023 22:31:40 GMT-0400 (Eastern Daylight Time)","257885","red","green","","618","","","","choice","","img/red_ll/choose11.jpg","1","221","green","0.5","0.5","0.5","l","",""
"animation","13","43123","0.0-5.0-2.4","63b6ef9027eb90f292852ee4","bdp_lott","Sun Mar 26 2023 22:31:40 GMT-0400 (Eastern Daylight Time)","257885","red","green","","","","","","","","","","221","","","","","","[{""stimulus"":""img/green_ll/1.jpg"",""time"":53},{""stimulus"":""img/green_ll/2.jpg"",""time"":101},{""stimulus"":""img/green_ll/3.jpg"",""time"":151},{""stimulus"":""img/green_ll/4.jpg"",""time"":201},{""stimulus"":""img/green_ll/5.jpg"",""time"":252},{""stimulus"":""img/green_ll/6.jpg"",""time"":301},{""stimulus"":""img/green_ll/7.jpg"",""time"":353},{""stimulus"":""img/green_ll/8.jpg"",""time"":401},{""stimulus"":""img/green_ll/9.jpg"",""time"":452},{""stimulus"":""img/green_ll/10.jpg"",""time"":501},{""stimulus"":""img/green_ll/11.jpg"",""time"":551}]","[]"
"image-keyboard-response","14","43617","0.0-5.0-1.5","63b6ef9027eb90f292852ee4","bdp_lott","Sun Mar 26 2023 22:31:40 GMT-0400 (Eastern Daylight Time)","257885","red","green","","492","","","","choice","","img/green_ll/choose11.jpg","2","220","red","0.5","0.5","0.5","l","",""
"animation","15","44218","0.0-5.0-2.5","63b6ef9027eb90f292852ee4","bdp_lott","Sun Mar 26 2023 22:31:40 GMT-0400 (Eastern Daylight Time)","257885","red","green","","","","","","","","","","220","","","","","","[{""stimulus"":""img/red_ll/1.jpg"",""time"":52},{""stimulus"":""img/red_ll/2.jpg"",""time"":101},{""stimulus"":""img/red_ll/3.jpg"",""time"":152},{""stimulus"":""img/red_ll/4.jpg"",""time"":202},{""stimulus"":""img/red_ll/5.jpg"",""time"":252},{""stimulus"":""img/red_ll/6.jpg"",""time"":301},{""stimulus"":""img/red_ll/7.jpg"",""time"":351},{""stimulus"":""img/red_ll/8.jpg"",""time"":401},{""stimulus"":""img/red_ll/9.jpg"",""time"":452},{""stimulus"":""img/red_ll/10.jpg"",""time"":501},{""stimulus"":""img/red_ll/11.jpg"",""time"":551}]","[]"
"image-keyboard-response","16","44741","0.0-5.0-1.6","63b6ef9027eb90f292852ee4","bdp_lott","Sun Mar 26 2023 22:31:40 GMT-0400 (Eastern Daylight Time)","257885","red","green","","520","","","","choice","","img/red_ll/choose11.jpg","1","219","green","0.5","0.5","0.5","l","",""
"animation","17","45344","0.0-5.0-2.6","63b6ef9027eb90f292852ee4","bdp_lott","Sun Mar 26 2023 22:31:40 GMT-0400 (Eastern Daylight Time)","257885","red","green","","","","","","","","","","219","","","","","","[{""stimulus"":""img/green_ll/1.jpg"",""time"":52},{""stimulus"":""img/green_ll/2.jpg"",""time"":101},{""stimulus"":""img/green_ll/3.jpg"",""time"":151},{""stimulus"":""img/green_ll/4.jpg"",""time"":201},{""stimulus"":""img/green_ll/5.jpg"",""time"":251},{""stimulus"":""img/green_ll/6.jpg"",""time"":302},{""stimulus"":""img/green_ll/7.jpg"",""time"":351},{""stimulus"":""img/green_ll/8.jpg"",""time"":400},{""stimulus"":""img/green_ll/9.jpg"",""time"":451},{""stimulus"":""img/green_ll/10.jpg"",""time"":501},{""stimulus"":""img/green_ll/11.jpg"",""time"":552}]","[]"
"image-keyboard-response","18","46139","0.0-5.0-1.7","63b6ef9027eb90f292852ee4","bdp_lott","Sun Mar 26 2023 22:31:40 GMT-0400 (Eastern Daylight Time)","257885","red","green","","794","","","","choice","","img/green_ll/choose11.jpg","2","218","red","0.5","0.5","0.5","l","",""
"animation","19","46750","0.0-5.0-2.7","63b6ef9027eb90f292852ee4","bdp_lott","Sun Mar 26 2023 22:31:40 GMT-0400 (Eastern Daylight Time)","257885","red","green","","","","","","","","","","218","","","","","","[{""stimulus"":""img/red_ll/1.jpg"",""time"":52},{""stimulus"":""img/red_ll/2.jpg"",""time"":101},{""stimulus"":""img/red_ll/3.jpg"",""time"":158},{""stimulus"":""img/red_ll/4.jpg"",""time"":201},{""stimulus"":""img/red_ll/5.jpg"",""time"":251},{""stimulus"":""img/red_ll/6.jpg"",""time"":302},{""stimulus"":""img/red_ll/7.jpg"",""time"":352},{""stimulus"":""img/red_ll/8.jpg"",""time"":401},{""stimulus"":""img/red_ll/9.jpg"",""time"":452},{""stimulus"":""img/red_ll/10.jpg"",""time"":502},{""stimulus"":""img/red_ll/11.jpg"",""time"":551}]","[]"
"image-keyboard-response","20","47344","0.0-5.0-1.8","63b6ef9027eb90f292852ee4","bdp_lott","Sun Mar 26 2023 22:31:40 GMT-0400 (Eastern Daylight Time)","257885","red","green","","591","","","","choice","","img/red_ll/choose11.jpg","1","217","green","0.5","0.5","0.5","l","",""
"animation","21","47945","0.0-5.0-2.8","63b6ef9027eb90f292852ee4","bdp_lott","Sun Mar 26 2023 22:31:40 GMT-0400 (Eastern Daylight Time)","257885","red","green","","","","","","","","","","217","","","","","","[{""stimulus"":""img/green_ll/1.jpg"",""time"":52},{""stimulus"":""img/green_ll/2.jpg"",""time"":102},{""stimulus"":""img/green_ll/3.jpg"",""time"":152},{""stimulus"":""img/green_ll/4.jpg"",""time"":203},{""stimulus"":""img/green_ll/5.jpg"",""time"":254},{""stimulus"":""img/green_ll/6.jpg"",""time"":302},{""stimulus"":""img/green_ll/7.jpg"",""time"":351},{""stimulus"":""img/green_ll/8.jpg"",""time"":402},{""stimulus"":""img/green_ll/9.jpg"",""time"":453},{""stimulus"":""img/green_ll/10.jpg"",""time"":501},{""stimulus"":""img/green_ll/11.jpg"",""time"":553}]","[]"
"image-keyboard-response","22","48434","0.0-5.0-1.9","63b6ef9027eb90f292852ee4","bdp_lott","Sun Mar 26 2023 22:31:40 GMT-0400 (Eastern Daylight Time)","257885","red","green","","487","","","","choice","","img/green_ll/choose11.jpg","1","216","green","0.5","0.5","0.5","w","",""
"animation","23","49035","0.0-5.0-2.9","63b6ef9027eb90f292852ee4","bdp_lott","Sun Mar 26 2023 22:31:40 GMT-0400 (Eastern Daylight Time)","257885","red","green","","","","","","","","","","216","","","","","","[{""stimulus"":""img/green_wl/1.jpg"",""time"":52},{""stimulus"":""img/green_wl/2.jpg"",""time"":101},{""stimulus"":""img/green_wl/3.jpg"",""time"":152},{""stimulus"":""img/green_wl/4.jpg"",""time"":201},{""stimulus"":""img/green_wl/5.jpg"",""time"":252},{""stimulus"":""img/green_wl/6.jpg"",""time"":302},{""stimulus"":""img/green_wl/7.jpg"",""time"":352},{""stimulus"":""img/green_wl/8.jpg"",""time"":402},{""stimulus"":""img/green_wl/9.jpg"",""time"":452},{""stimulus"":""img/green_wl/10.jpg"",""time"":502},{""stimulus"":""img/green_wl/11.jpg"",""time"":551}]","[]"
"image-keyboard-response","24","49676","0.0-5.0-1.10","63b6ef9027eb90f292852ee4","bdp_lott","Sun Mar 26 2023 22:31:40 GMT-0400 (Eastern Daylight Time)","257885","red","green","","639","","","","choice","","img/green_wl/choose11.jpg","1","215","green","0.5","0.5","0.5","l","",""
"animation","25","50278","0.0-5.0-2.10","63b6ef9027eb90f292852ee4","bdp_lott","Sun Mar 26 2023 22:31:40 GMT-0400 (Eastern Daylight Time)","257885","red","green","","","","","","","","","","215","","","","","","[{""stimulus"":""img/green_ll/1.jpg"",""time"":52},{""stimulus"":""img/green_ll/2.jpg"",""time"":102},{""stimulus"":""img/green_ll/3.jpg"",""time"":153},{""stimulus"":""img/green_ll/4.jpg"",""time"":202},{""stimulus"":""img/green_ll/5.jpg"",""time"":252},{""stimulus"":""img/green_ll/6.jpg"",""time"":302},{""stimulus"":""img/green_ll/7.jpg"",""time"":352},{""stimulus"":""img/green_ll/8.jpg"",""time"":402},{""stimulus"":""img/green_ll/9.jpg"",""time"":451},{""stimulus"":""img/green_ll/10.jpg"",""time"":501},{""stimulus"":""img/green_ll/11.jpg"",""time"":552}]","[]"
"image-keyboard-response","26","51001","0.0-5.0-1.11","63b6ef9027eb90f292852ee4","bdp_lott","Sun Mar 26 2023 22:31:40 GMT-0400 (Eastern Daylight Time)","257885","red","green","","722","","","","choice","","img/green_ll/choose11.jpg","2","214","red","0.5","0.5","0.5","l","",""
"animation","27","51604","0.0-5.0-2.11","63b6ef9027eb90f292852ee4","bdp_lott","Sun Mar 26 2023 22:31:40 GMT-0400 (Eastern Daylight Time)","257885","red","green","","","","","","","","","","214","","","","","","[{""stimulus"":""img/red_ll/1.jpg"",""time"":52},{""stimulus"":""img/red_ll/2.jpg"",""time"":102},{""stimulus"":""img/red_ll/3.jpg"",""time"":152},{""stimulus"":""img/red_ll/4.jpg"",""time"":203},{""stimulus"":""img/red_ll/5.jpg"",""time"":253},{""stimulus"":""img/red_ll/6.jpg"",""time"":302},{""stimulus"":""img/red_ll/7.jpg"",""time"":352},{""stimulus"":""img/red_ll/8.jpg"",""time"":402},{""stimulus"":""img/red_ll/9.jpg"",""time"":453},{""stimulus"":""img/red_ll/10.jpg"",""time"":502},{""stimulus"":""img/red_ll/11.jpg"",""time"":552}]","[]"
"image-keyboard-response","28","52085","0.0-5.0-1.12","63b6ef9027eb90f292852ee4","bdp_lott","Sun Mar 26 2023 22:31:40 GMT-0400 (Eastern Daylight Time)","257885","red","green","","478","","","","choice","","img/red_ll/choose11.jpg","2","213","red","0.5","0.5","0.5","l","",""
"animation","29","52686","0.0-5.0-2.12","63b6ef9027eb90f292852ee4","bdp_lott","Sun Mar 26 2023 22:31:40 GMT-0400 (Eastern Daylight Time)","257885","red","green","","","","","","","","","","213","","","","","","[{""stimulus"":""img/red_ll/1.jpg"",""time"":52},{""stimulus"":""img/red_ll/2.jpg"",""time"":102},{""stimulus"":""img/red_ll/3.jpg"",""time"":152},{""stimulus"":""img/red_ll/4.jpg"",""time"":201},{""stimulus"":""img/red_ll/5.jpg"",""time"":251},{""stimulus"":""img/red_ll/6.jpg"",""time"":302},{""stimulus"":""img/red_ll/7.jpg"",""time"":352},{""stimulus"":""img/red_ll/8.jpg"",""time"":402},{""stimulus"":""img/red_ll/9.jpg"",""time"":451},{""stimulus"":""img/red_ll/10.jpg"",""time"":501},{""stimulus"":""img/red_ll/11.jpg"",""time"":552}]","[]"
"image-keyboard-response","30","53042","0.0-5.0-1.13","63b6ef9027eb90f292852ee4","bdp_lott","Sun Mar 26 2023 22:31:40 GMT-0400 (Eastern Daylight Time)","257885","red","green","","355","","","","choice","","img/red_ll/choose11.jpg","1","212","green","0.5","0.5","0.5","w","",""
"animation","31","53644","0.0-5.0-2.13","63b6ef9027eb90f292852ee4","bdp_lott","Sun Mar 26 2023 22:31:40 GMT-0400 (Eastern Daylight Time)","257885","red","green","","","","","","","","","","212","","","","","","[{""stimulus"":""img/green_wl/1.jpg"",""time"":51},{""stimulus"":""img/green_wl/2.jpg"",""time"":103},{""stimulus"":""img/green_wl/3.jpg"",""time"":152},{""stimulus"":""img/green_wl/4.jpg"",""time"":202},{""stimulus"":""img/green_wl/5.jpg"",""time"":252},{""stimulus"":""img/green_wl/6.jpg"",""time"":302},{""stimulus"":""img/green_wl/7.jpg"",""time"":352},{""stimulus"":""img/green_wl/8.jpg"",""time"":402},{""stimulus"":""img/green_wl/9.jpg"",""time"":452},{""stimulus"":""img/green_wl/10.jpg"",""time"":503},{""stimulus"":""img/green_wl/11.jpg"",""time"":551}]","[]"
"image-keyboard-response","32","54359","0.0-5.0-1.14","63b6ef9027eb90f292852ee4","bdp_lott","Sun Mar 26 2023 22:31:40 GMT-0400 (Eastern Daylight Time)","257885","red","green","","713","","","","choice","","img/green_wl/choose11.jpg","1","211","green","0.5","0.5","0.5","l","",""
"animation","33","54960","0.0-5.0-2.14","63b6ef9027eb90f292852ee4","bdp_lott","Sun Mar 26 2023 22:31:40 GMT-0400 (Eastern Daylight Time)","257885","red","green","","","","","","","","","","211","","","","","","[{""stimulus"":""img/green_ll/1.jpg"",""time"":51},{""stimulus"":""img/green_ll/2.jpg"",""time"":102},{""stimulus"":""img/green_ll/3.jpg"",""time"":151},{""stimulus"":""img/green_ll/4.jpg"",""time"":201},{""stimulus"":""img/green_ll/5.jpg"",""time"":251},{""stimulus"":""img/green_ll/6.jpg"",""time"":301},{""stimulus"":""img/green_ll/7.jpg"",""time"":352},{""stimulus"":""img/green_ll/8.jpg"",""time"":401},{""stimulus"":""img/green_ll/9.jpg"",""time"":452},{""stimulus"":""img/green_ll/10.jpg"",""time"":502},{""stimulus"":""img/green_ll/11.jpg"",""time"":553}]","[]"
"image-keyboard-response","34","55546","0.0-5.0-1.15","63b6ef9027eb90f292852ee4","bdp_lott","Sun Mar 26 2023 22:31:40 GMT-0400 (Eastern Daylight Time)","257885","red","green","","584","","","","choice","","img/green_ll/choose11.jpg","1","210","green","0.5","0.5","0.5","l","",""
"animation","35","56148","0.0-5.0-2.15","63b6ef9027eb90f292852ee4","bdp_lott","Sun Mar 26 2023 22:31:40 GMT-0400 (Eastern Daylight Time)","257885","red","green","","","","","","","","","","210","","","","","","[{""stimulus"":""img/green_ll/1.jpg"",""time"":51},{""stimulus"":""img/green_ll/2.jpg"",""time"":103},{""stimulus"":""img/green_ll/3.jpg"",""time"":152},{""stimulus"":""img/green_ll/4.jpg"",""time"":203},{""stimulus"":""img/green_ll/5.jpg"",""time"":253},{""stimulus"":""img/green_ll/6.jpg"",""time"":302},{""stimulus"":""img/green_ll/7.jpg"",""time"":352},{""stimulus"":""img/green_ll/8.jpg"",""time"":401},{""stimulus"":""img/green_ll/9.jpg"",""time"":452},{""stimulus"":""img/green_ll/10.jpg"",""time"":501},{""stimulus"":""img/green_ll/11.jpg"",""time"":552}]","[]"
"image-keyboard-response","36","56605","0.0-5.0-1.16","63b6ef9027eb90f292852ee4","bdp_lott","Sun Mar 26 2023 22:31:40 GMT-0400 (Eastern Daylight Time)","257885","red","green","","454","","","","choice","","img/green_ll/choose11.jpg","2","209","red","0.5","0.5","0.5","w","",""
"animation","37","57206","0.0-5.0-2.16","63b6ef9027eb90f292852ee4","bdp_lott","Sun Mar 26 2023 22:31:40 GMT-0400 (Eastern Daylight Time)","257885","red","green","","","","","","","","","","209","","","","","","[{""stimulus"":""img/red_lw/1.jpg"",""time"":52},{""stimulus"":""img/red_lw/2.jpg"",""time"":102},{""stimulus"":""img/red_lw/3.jpg"",""time"":152},{""stimulus"":""img/red_lw/4.jpg"",""time"":202},{""stimulus"":""img/red_lw/5.jpg"",""time"":252},{""stimulus"":""img/red_lw/6.jpg"",""time"":301},{""stimulus"":""img/red_lw/7.jpg"",""time"":351},{""stimulus"":""img/red_lw/8.jpg"",""time"":402},{""stimulus"":""img/red_lw/9.jpg"",""time"":451},{""stimulus"":""img/red_lw/10.jpg"",""time"":503},{""stimulus"":""img/red_lw/11.jpg"",""time"":553}]","[]"
"image-keyboard-response","38","57916","0.0-5.0-1.17","63b6ef9027eb90f292852ee4","bdp_lott","Sun Mar 26 2023 22:31:40 GMT-0400 (Eastern Daylight Time)","257885","red","green","","709","","","","choice","","img/red_lw/choose11.jpg","2","208","red","0.5","0.5","0.5","w","",""
"animation","39","58519","0.0-5.0-2.17","63b6ef9027eb90f292852ee4","bdp_lott","Sun Mar 26 2023 22:31:40 GMT-0400 (Eastern Daylight Time)","257885","red","green","","","","","","","","","","208","","","","","","[{""stimulus"":""img/red_lw/1.jpg"",""time"":51},{""stimulus"":""img/red_lw/2.jpg"",""time"":101},{""stimulus"":""img/red_lw/3.jpg"",""time"":152},{""stimulus"":""img/red_lw/4.jpg"",""time"":202},{""stimulus"":""img/red_lw/5.jpg"",""time"":252},{""stimulus"":""img/red_lw/6.jpg"",""time"":301},{""stimulus"":""img/red_lw/7.jpg"",""time"":352},{""stimulus"":""img/red_lw/8.jpg"",""time"":401},{""stimulus"":""img/red_lw/9.jpg"",""time"":452},{""stimulus"":""img/red_lw/10.jpg"",""time"":501},{""stimulus"":""img/red_lw/11.jpg"",""time"":551}]","[]"
"image-keyboard-response","40","59049","0.0-5.0-1.18","63b6ef9027eb90f292852ee4","bdp_lott","Sun Mar 26 2023 22:31:40 GMT-0400 (Eastern Daylight Time)","257885","red","green","","528","","","","choice","","img/red_lw/choose11.jpg","2","207","red","0.5","0.5","0.5","w","",""
"animation","41","59649","0.0-5.0-2.18","63b6ef9027eb90f292852ee4","bdp_lott","Sun Mar 26 2023 22:31:40 GMT-0400 (Eastern Daylight Time)","257885","red","green","","","","","","","","","","207","","","","","","[{""stimulus"":""img/red_lw/1.jpg"",""time"":51},{""stimulus"":""img/red_lw/2.jpg"",""time"":101},{""stimulus"":""img/red_lw/3.jpg"",""time"":151},{""stimulus"":""img/red_lw/4.jpg"",""time"":202},{""stimulus"":""img/red_lw/5.jpg"",""time"":262},{""stimulus"":""img/red_lw/6.jpg"",""time"":301},{""stimulus"":""img/red_lw/7.jpg"",""time"":351},{""stimulus"":""img/red_lw/8.jpg"",""time"":401},{""stimulus"":""img/red_lw/9.jpg"",""time"":452},{""stimulus"":""img/red_lw/10.jpg"",""time"":513},{""stimulus"":""img/red_lw/11.jpg"",""time"":551}]","[]"
"image-keyboard-response","42","60228","0.0-5.0-1.19","63b6ef9027eb90f292852ee4","bdp_lott","Sun Mar 26 2023 22:31:40 GMT-0400 (Eastern Daylight Time)","257885","red","green","","577","","","","choice","","img/red_lw/choose11.jpg","2","206","red","0.5","0.5","0.5","l","",""
"animation","43","60829","0.0-5.0-2.19","63b6ef9027eb90f292852ee4","bdp_lott","Sun Mar 26 2023 22:31:40 GMT-0400 (Eastern Daylight Time)","257885","red","green","","","","","","","","","","206","","","","","","[{""stimulus"":""img/red_ll/1.jpg"",""time"":53},{""stimulus"":""img/red_ll/2.jpg"",""time"":102},{""stimulus"":""img/red_ll/3.jpg"",""time"":152},{""stimulus"":""img/red_ll/4.jpg"",""time"":202},{""stimulus"":""img/red_ll/5.jpg"",""time"":252},{""stimulus"":""img/red_ll/6.jpg"",""time"":301},{""stimulus"":""img/red_ll/7.jpg"",""time"":352},{""stimulus"":""img/red_ll/8.jpg"",""time"":402},{""stimulus"":""img/red_ll/9.jpg"",""time"":453},{""stimulus"":""img/red_ll/10.jpg"",""time"":501},{""stimulus"":""img/red_ll/11.jpg"",""time"":552}]","[]"
"image-keyboard-response","44","61426","0.0-5.0-1.20","63b6ef9027eb90f292852ee4","bdp_lott","Sun Mar 26 2023 22:31:40 GMT-0400 (Eastern Daylight Time)","257885","red","green","","596","","","","choice","","img/red_ll/choose11.jpg","2","205","red","0.5","0.5","0.5","w","",""
"animation","45","62027","0.0-5.0-2.20","63b6ef9027eb90f292852ee4","bdp_lott","Sun Mar 26 2023 22:31:40 GMT-0400 (Eastern Daylight Time)","257885","red","green","","","","","","","","","","205","","","","","","[{""stimulus"":""img/red_lw/1.jpg"",""time"":52},{""stimulus"":""img/red_lw/2.jpg"",""time"":101},{""stimulus"":""img/red_lw/3.jpg"",""time"":152},{""stimulus"":""img/red_lw/4.jpg"",""time"":202},{""stimulus"":""img/red_lw/5.jpg"",""time"":251},{""stimulus"":""img/red_lw/6.jpg"",""time"":302},{""stimulus"":""img/red_lw/7.jpg"",""time"":353},{""stimulus"":""img/red_lw/8.jpg"",""time"":401},{""stimulus"":""img/red_lw/9.jpg"",""time"":451},{""stimulus"":""img/red_lw/10.jpg"",""time"":501},{""stimulus"":""img/red_lw/11.jpg"",""time"":553}]","[]"
"image-keyboard-response","46","62596","0.0-5.0-1.21","63b6ef9027eb90f292852ee4","bdp_lott","Sun Mar 26 2023 22:31:40 GMT-0400 (Eastern Daylight Time)","257885","red","green","","567","","","","choice","","img/red_lw/choose11.jpg","2","204","red","0.5","0.5","0.5","l","",""
"animation","47","63197","0.0-5.0-2.21","63b6ef9027eb90f292852ee4","bdp_lott","Sun Mar 26 2023 22:31:40 GMT-0400 (Eastern Daylight Time)","257885","red","green","","","","","","","","","","204","","","","","","[{""stimulus"":""img/red_ll/1.jpg"",""time"":52},{""stimulus"":""img/red_ll/2.jpg"",""time"":101},{""stimulus"":""img/red_ll/3.jpg"",""time"":153},{""stimulus"":""img/red_ll/4.jpg"",""time"":202},{""stimulus"":""img/red_ll/5.jpg"",""time"":251},{""stimulus"":""img/red_ll/6.jpg"",""time"":302},{""stimulus"":""img/red_ll/7.jpg"",""time"":352},{""stimulus"":""img/red_ll/8.jpg"",""time"":401},{""stimulus"":""img/red_ll/9.jpg"",""time"":451},{""stimulus"":""img/red_ll/10.jpg"",""time"":501},{""stimulus"":""img/red_ll/11.jpg"",""time"":551}]","[]"
"image-keyboard-response","48","63725","0.0-5.0-1.22","63b6ef9027eb90f292852ee4","bdp_lott","Sun Mar 26 2023 22:31:40 GMT-0400 (Eastern Daylight Time)","257885","red","green","","526","","","","choice","","img/red_ll/choose11.jpg","2","203","red","0.5","0.5","0.5","l","",""
"animation","49","64325","0.0-5.0-2.22","63b6ef9027eb90f292852ee4","bdp_lott","Sun Mar 26 2023 22:31:40 GMT-0400 (Eastern Daylight Time)","257885","red","green","","","","","","","","","","203","","","","","","[{""stimulus"":""img/red_ll/1.jpg"",""time"":52},{""stimulus"":""img/red_ll/2.jpg"",""time"":101},{""stimulus"":""img/red_ll/3.jpg"",""time"":151},{""stimulus"":""img/red_ll/4.jpg"",""time"":202},{""stimulus"":""img/red_ll/5.jpg"",""time"":252},{""stimulus"":""img/red_ll/6.jpg"",""time"":301},{""stimulus"":""img/red_ll/7.jpg"",""time"":352},{""stimulus"":""img/red_ll/8.jpg"",""time"":401},{""stimulus"":""img/red_ll/9.jpg"",""time"":453},{""stimulus"":""img/red_ll/10.jpg"",""time"":502},{""stimulus"":""img/red_ll/11.jpg"",""time"":551}]","[]"
"image-keyboard-response","50","64599","0.0-5.0-1.23","63b6ef9027eb90f292852ee4","bdp_lott","Sun Mar 26 2023 22:31:40 GMT-0400 (Eastern Daylight Time)","257885","red","green","","271","","","","choice","","img/red_ll/choose11.jpg","1","202","green","0.5","0.5","0.5","l","",""
"animation","51","65200","0.0-5.0-2.23","63b6ef9027eb90f292852ee4","bdp_lott","Sun Mar 26 2023 22:31:40 GMT-0400 (Eastern Daylight Time)","257885","red","green","","","","","","","","","","202","","","","","","[{""stimulus"":""img/green_ll/1.jpg"",""time"":53},{""stimulus"":""img/green_ll/2.jpg"",""time"":102},{""stimulus"":""img/green_ll/3.jpg"",""time"":152},{""stimulus"":""img/green_ll/4.jpg"",""time"":201},{""stimulus"":""img/green_ll/5.jpg"",""time"":251},{""stimulus"":""img/green_ll/6.jpg"",""time"":301},{""stimulus"":""img/green_ll/7.jpg"",""time"":352},{""stimulus"":""img/green_ll/8.jpg"",""time"":402},{""stimulus"":""img/green_ll/9.jpg"",""time"":452},{""stimulus"":""img/green_ll/10.jpg"",""time"":502},{""stimulus"":""img/green_ll/11.jpg"",""time"":552}]","[]"
"image-keyboard-response","52","65745","0.0-5.0-1.24","63b6ef9027eb90f292852ee4","bdp_lott","Sun Mar 26 2023 22:31:40 GMT-0400 (Eastern Daylight Time)","257885","red","green","","542","","","","choice","","img/green_ll/choose11.jpg","1","201","green","0.5","0.5","0.5","l","",""
"animation","53","66346","0.0-5.0-2.24","63b6ef9027eb90f292852ee4","bdp_lott","Sun Mar 26 2023 22:31:40 GMT-0400 (Eastern Daylight Time)","257885","red","green","","","","","","","","","","201","","","","","","[{""stimulus"":""img/green_ll/1.jpg"",""time"":53},{""stimulus"":""img/green_ll/2.jpg"",""time"":102},{""stimulus"":""img/green_ll/3.jpg"",""time"":153},{""stimulus"":""img/green_ll/4.jpg"",""time"":201},{""stimulus"":""img/green_ll/5.jpg"",""time"":252},{""stimulus"":""img/green_ll/6.jpg"",""time"":302},{""stimulus"":""img/green_ll/7.jpg"",""time"":351},{""stimulus"":""img/green_ll/8.jpg"",""time"":401},{""stimulus"":""img/green_ll/9.jpg"",""time"":451},{""stimulus"":""img/green_ll/10.jpg"",""time"":502},{""stimulus"":""img/green_ll/11.jpg"",""time"":551}]","[]"
"image-keyboard-response","54","66772","0.0-5.0-1.25","63b6ef9027eb90f292852ee4","bdp_lott","Sun Mar 26 2023 22:31:40 GMT-0400 (Eastern Daylight Time)","257885","red","green","","425","","","","choice","","img/green_ll/choose11.jpg","1","200","green","0.5","0.5","0.5","w","",""
"animation","55","67374","0.0-5.0-2.25","63b6ef9027eb90f292852ee4","bdp_lott","Sun Mar 26 2023 22:31:40 GMT-0400 (Eastern Daylight Time)","257885","red","green","","","","","","","","","","200","","","","","","[{""stimulus"":""img/green_wl/1.jpg"",""time"":52},{""stimulus"":""img/green_wl/2.jpg"",""time"":101},{""stimulus"":""img/green_wl/3.jpg"",""time"":152},{""stimulus"":""img/green_wl/4.jpg"",""time"":201},{""stimulus"":""img/green_wl/5.jpg"",""time"":251},{""stimulus"":""img/green_wl/6.jpg"",""time"":302},{""stimulus"":""img/green_wl/7.jpg"",""time"":352},{""stimulus"":""img/green_wl/8.jpg"",""time"":401},{""stimulus"":""img/green_wl/9.jpg"",""time"":452},{""stimulus"":""img/green_wl/10.jpg"",""time"":502},{""stimulus"":""img/green_wl/11.jpg"",""time"":553}]","[]"
"image-keyboard-response","56","67699","0.0-5.0-1.26","63b6ef9027eb90f292852ee4","bdp_lott","Sun Mar 26 2023 22:31:40 GMT-0400 (Eastern Daylight Time)","257885","red","green","","323","","","","choice","","img/green_wl/choose11.jpg","2","199","red","0.5","0.5","0.5","l","",""
"animation","57","68301","0.0-5.0-2.26","63b6ef9027eb90f292852ee4","bdp_lott","Sun Mar 26 2023 22:31:40 GMT-0400 (Eastern Daylight Time)","257885","red","green","","","","","","","","","","199","","","","","","[{""stimulus"":""img/red_wl/1.jpg"",""time"":51},{""stimulus"":""img/red_wl/2.jpg"",""time"":101},{""stimulus"":""img/red_wl/3.jpg"",""time"":151},{""stimulus"":""img/red_wl/4.jpg"",""time"":201},{""stimulus"":""img/red_wl/5.jpg"",""time"":251},{""stimulus"":""img/red_wl/6.jpg"",""time"":301},{""stimulus"":""img/red_wl/7.jpg"",""time"":352},{""stimulus"":""img/red_wl/8.jpg"",""time"":402},{""stimulus"":""img/red_wl/9.jpg"",""time"":451},{""stimulus"":""img/red_wl/10.jpg"",""time"":502},{""stimulus"":""img/red_wl/11.jpg"",""time"":551}]","[]"
"image-keyboard-response","58","68727","0.0-5.0-1.27","63b6ef9027eb90f292852ee4","bdp_lott","Sun Mar 26 2023 22:31:40 GMT-0400 (Eastern Daylight Time)","257885","red","green","","424","","","","choice","","img/red_wl/choose11.jpg","1","198","green","0.5","0.5","0.5","l","",""
"animation","59","69328","0.0-5.0-2.27","63b6ef9027eb90f292852ee4","bdp_lott","Sun Mar 26 2023 22:31:40 GMT-0400 (Eastern Daylight Time)","257885","red","green","","","","","","","","","","198","","","","","","[{""stimulus"":""img/green_ll/1.jpg"",""time"":52},{""stimulus"":""img/green_ll/2.jpg"",""time"":102},{""stimulus"":""img/green_ll/3.jpg"",""time"":158},{""stimulus"":""img/green_ll/4.jpg"",""time"":201},{""stimulus"":""img/green_ll/5.jpg"",""time"":251},{""stimulus"":""img/green_ll/6.jpg"",""time"":302},{""stimulus"":""img/green_ll/7.jpg"",""time"":352},{""stimulus"":""img/green_ll/8.jpg"",""time"":402},{""stimulus"":""img/green_ll/9.jpg"",""time"":451},{""stimulus"":""img/green_ll/10.jpg"",""time"":501},{""stimulus"":""img/green_ll/11.jpg"",""time"":551}]","[]"
"image-keyboard-response","60","69754","0.0-5.0-1.28","63b6ef9027eb90f292852ee4","bdp_lott","Sun Mar 26 2023 22:31:40 GMT-0400 (Eastern Daylight Time)","257885","red","green","","424","","","","choice","","img/green_ll/choose11.jpg","1","197","green","0.5","0.5","0.5","l","",""
"animation","61","70355","0.0-5.0-2.28","63b6ef9027eb90f292852ee4","bdp_lott","Sun Mar 26 2023 22:31:40 GMT-0400 (Eastern Daylight Time)","257885","red","green","","","","","","","","","","197","","","","","","[{""stimulus"":""img/green_ll/1.jpg"",""time"":52},{""stimulus"":""img/green_ll/2.jpg"",""time"":100},{""stimulus"":""img/green_ll/3.jpg"",""time"":152},{""stimulus"":""img/green_ll/4.jpg"",""time"":200},{""stimulus"":""img/green_ll/5.jpg"",""time"":251},{""stimulus"":""img/green_ll/6.jpg"",""time"":300},{""stimulus"":""img/green_ll/7.jpg"",""time"":350},{""stimulus"":""img/green_ll/8.jpg"",""time"":400},{""stimulus"":""img/green_ll/9.jpg"",""time"":450},{""stimulus"":""img/green_ll/10.jpg"",""time"":501},{""stimulus"":""img/green_ll/11.jpg"",""time"":551}]","[]"
"image-keyboard-response","62","70988","0.0-5.0-1.29","63b6ef9027eb90f292852ee4","bdp_lott","Sun Mar 26 2023 22:31:40 GMT-0400 (Eastern Daylight Time)","257885","red","green","","633","","","","choice","","img/green_ll/choose11.jpg","2","196","red","0.5","0.5","0.5","w","",""
"animation","63","71590","0.0-5.0-2.29","63b6ef9027eb90f292852ee4","bdp_lott","Sun Mar 26 2023 22:31:40 GMT-0400 (Eastern Daylight Time)","257885","red","green","","","","","","","","","","196","","","","","","[{""stimulus"":""img/red_lw/1.jpg"",""time"":52},{""stimulus"":""img/red_lw/2.jpg"",""time"":102},{""stimulus"":""img/red_lw/3.jpg"",""time"":153},{""stimulus"":""img/red_lw/4.jpg"",""time"":202},{""stimulus"":""img/red_lw/5.jpg"",""time"":252},{""stimulus"":""img/red_lw/6.jpg"",""time"":301},{""stimulus"":""img/red_lw/7.jpg"",""time"":351},{""stimulus"":""img/red_lw/8.jpg"",""time"":402},{""stimulus"":""img/red_lw/9.jpg"",""time"":452},{""stimulus"":""img/red_lw/10.jpg"",""time"":503},{""stimulus"":""img/red_lw/11.jpg"",""time"":553}]","[]"
"image-keyboard-response","64","72094","0.0-5.0-1.30","63b6ef9027eb90f292852ee4","bdp_lott","Sun Mar 26 2023 22:31:40 GMT-0400 (Eastern Daylight Time)","257885","red","green","","503","","","","choice","","img/red_lw/choose11.jpg","2","195","red","0.5","0.5","0.5","w","",""
"animation","65","72695","0.0-5.0-2.30","63b6ef9027eb90f292852ee4","bdp_lott","Sun Mar 26 2023 22:31:40 GMT-0400 (Eastern Daylight Time)","257885","red","green","","","","","","","","","","195","","","","","","[{""stimulus"":""img/red_lw/1.jpg"",""time"":51},{""stimulus"":""img/red_lw/2.jpg"",""time"":102},{""stimulus"":""img/red_lw/3.jpg"",""time"":151},{""stimulus"":""img/red_lw/4.jpg"",""time"":201},{""stimulus"":""img/red_lw/5.jpg"",""time"":251},{""stimulus"":""img/red_lw/6.jpg"",""time"":301},{""stimulus"":""img/red_lw/7.jpg"",""time"":351},{""stimulus"":""img/red_lw/8.jpg"",""time"":401},{""stimulus"":""img/red_lw/9.jpg"",""time"":452},{""stimulus"":""img/red_lw/10.jpg"",""time"":502},{""stimulus"":""img/red_lw/11.jpg"",""time"":552}]","[]"
"image-keyboard-response","66","73104","0.0-5.0-1.31","63b6ef9027eb90f292852ee4","bdp_lott","Sun Mar 26 2023 22:31:40 GMT-0400 (Eastern Daylight Time)","257885","red","green","","408","","","","choice","","img/red_lw/choose11.jpg","2","194","red","0.5","0.5","0.5","l","",""
"animation","67","73705","0.0-5.0-2.31","63b6ef9027eb90f292852ee4","bdp_lott","Sun Mar 26 2023 22:31:40 GMT-0400 (Eastern Daylight Time)","257885","red","green","","","","","","","","","","194","","","","","","[{""stimulus"":""img/red_ll/1.jpg"",""time"":51},{""stimulus"":""img/red_ll/2.jpg"",""time"":101},{""stimulus"":""img/red_ll/3.jpg"",""time"":151},{""stimulus"":""img/red_ll/4.jpg"",""time"":201},{""stimulus"":""img/red_ll/5.jpg"",""time"":252},{""stimulus"":""img/red_ll/6.jpg"",""time"":301},{""stimulus"":""img/red_ll/7.jpg"",""time"":351},{""stimulus"":""img/red_ll/8.jpg"",""time"":401},{""stimulus"":""img/red_ll/9.jpg"",""time"":452},{""stimulus"":""img/red_ll/10.jpg"",""time"":501},{""stimulus"":""img/red_ll/11.jpg"",""time"":551}]","[]"
"image-keyboard-response","68","74178","0.0-5.0-1.32","63b6ef9027eb90f292852ee4","bdp_lott","Sun Mar 26 2023 22:31:40 GMT-0400 (Eastern Daylight Time)","257885","red","green","","472","","","","choice","","img/red_ll/choose11.jpg","2","193","red","0.5","0.5","0.5","w","",""
"animation","69","74779","0.0-5.0-2.32","63b6ef9027eb90f292852ee4","bdp_lott","Sun Mar 26 2023 22:31:40 GMT-0400 (Eastern Daylight Time)","257885","red","green","","","","","","","","","","193","","","","","","[{""stimulus"":""img/red_lw/1.jpg"",""time"":52},{""stimulus"":""img/red_lw/2.jpg"",""time"":102},{""stimulus"":""img/red_lw/3.jpg"",""time"":152},{""stimulus"":""img/red_lw/4.jpg"",""time"":201},{""stimulus"":""img/red_lw/5.jpg"",""time"":252},{""stimulus"":""img/red_lw/6.jpg"",""time"":301},{""stimulus"":""img/red_lw/7.jpg"",""time"":351},{""stimulus"":""img/red_lw/8.jpg"",""time"":401},{""stimulus"":""img/red_lw/9.jpg"",""time"":452},{""stimulus"":""img/red_lw/10.jpg"",""time"":501},{""stimulus"":""img/red_lw/11.jpg"",""time"":553}]","[]"
"image-keyboard-response","70","75246","0.0-5.0-1.33","63b6ef9027eb90f292852ee4","bdp_lott","Sun Mar 26 2023 22:31:40 GMT-0400 (Eastern Daylight Time)","257885","red","green","","466","","","","choice","","img/red_lw/choose11.jpg","2","192","red","0.5","0.5","0.5","l","",""
"animation","71","75847","0.0-5.0-2.33","63b6ef9027eb90f292852ee4","bdp_lott","Sun Mar 26 2023 22:31:40 GMT-0400 (Eastern Daylight Time)","257885","red","green","","","","","","","","","","192","","","","","","[{""stimulus"":""img/red_ll/1.jpg"",""time"":52},{""stimulus"":""img/red_ll/2.jpg"",""time"":102},{""stimulus"":""img/red_ll/3.jpg"",""time"":151},{""stimulus"":""img/red_ll/4.jpg"",""time"":202},{""stimulus"":""img/red_ll/5.jpg"",""time"":251},{""stimulus"":""img/red_ll/6.jpg"",""time"":301},{""stimulus"":""img/red_ll/7.jpg"",""time"":352},{""stimulus"":""img/red_ll/8.jpg"",""time"":401},{""stimulus"":""img/red_ll/9.jpg"",""time"":452},{""stimulus"":""img/red_ll/10.jpg"",""time"":501},{""stimulus"":""img/red_ll/11.jpg"",""time"":551}]","[]"
"image-keyboard-response","72","76620","0.0-5.0-1.34","63b6ef9027eb90f292852ee4","bdp_lott","Sun Mar 26 2023 22:31:40 GMT-0400 (Eastern Daylight Time)","257885","red","green","","772","","","","choice","","img/red_ll/choose11.jpg","1","191","green","0.5","0.5","0.5","l","",""
"animation","73","77222","0.0-5.0-2.34","63b6ef9027eb90f292852ee4","bdp_lott","Sun Mar 26 2023 22:31:40 GMT-0400 (Eastern Daylight Time)","257885","red","green","","","","","","","","","","191","","","","","","[{""stimulus"":""img/green_ll/1.jpg"",""time"":50},{""stimulus"":""img/green_ll/2.jpg"",""time"":101},{""stimulus"":""img/green_ll/3.jpg"",""time"":151},{""stimulus"":""img/green_ll/4.jpg"",""time"":201},{""stimulus"":""img/green_ll/5.jpg"",""time"":251},{""stimulus"":""img/green_ll/6.jpg"",""time"":300},{""stimulus"":""img/green_ll/7.jpg"",""time"":351},{""stimulus"":""img/green_ll/8.jpg"",""time"":401},{""stimulus"":""img/green_ll/9.jpg"",""time"":451},{""stimulus"":""img/green_ll/10.jpg"",""time"":500},{""stimulus"":""img/green_ll/11.jpg"",""time"":551}]","[]"
"image-keyboard-response","74","77751","0.0-5.0-1.35","63b6ef9027eb90f292852ee4","bdp_lott","Sun Mar 26 2023 22:31:40 GMT-0400 (Eastern Daylight Time)","257885","red","green","","528","","","","choice","","img/green_ll/choose11.jpg","2","190","red","0.5","0.5","0.5","l","",""
"animation","75","78352","0.0-5.0-2.35","63b6ef9027eb90f292852ee4","bdp_lott","Sun Mar 26 2023 22:31:40 GMT-0400 (Eastern Daylight Time)","257885","red","green","","","","","","","","","","190","","","","","","[{""stimulus"":""img/red_ll/1.jpg"",""time"":52},{""stimulus"":""img/red_ll/2.jpg"",""time"":101},{""stimulus"":""img/red_ll/3.jpg"",""time"":151},{""stimulus"":""img/red_ll/4.jpg"",""time"":201},{""stimulus"":""img/red_ll/5.jpg"",""time"":251},{""stimulus"":""img/red_ll/6.jpg"",""time"":301},{""stimulus"":""img/red_ll/7.jpg"",""time"":352},{""stimulus"":""img/red_ll/8.jpg"",""time"":401},{""stimulus"":""img/red_ll/9.jpg"",""time"":451},{""stimulus"":""img/red_ll/10.jpg"",""time"":501},{""stimulus"":""img/red_ll/11.jpg"",""time"":551}]","[]"
"image-keyboard-response","76","78901","0.0-5.0-1.36","63b6ef9027eb90f292852ee4","bdp_lott","Sun Mar 26 2023 22:31:40 GMT-0400 (Eastern Daylight Time)","257885","red","green","","548","","","","choice","","img/red_ll/choose11.jpg","2","189","red","0.5","0.5","0.5","w","",""
"animation","77","79502","0.0-5.0-2.36","63b6ef9027eb90f292852ee4","bdp_lott","Sun Mar 26 2023 22:31:40 GMT-0400 (Eastern Daylight Time)","257885","red","green","","","","","","","","","","189","","","","","","[{""stimulus"":""img/red_lw/1.jpg"",""time"":52},{""stimulus"":""img/red_lw/2.jpg"",""time"":103},{""stimulus"":""img/red_lw/3.jpg"",""time"":152},{""stimulus"":""img/red_lw/4.jpg"",""time"":202},{""stimulus"":""img/red_lw/5.jpg"",""time"":251},{""stimulus"":""img/red_lw/6.jpg"",""time"":302},{""stimulus"":""img/red_lw/7.jpg"",""time"":351},{""stimulus"":""img/red_lw/8.jpg"",""time"":402},{""stimulus"":""img/red_lw/9.jpg"",""time"":451},{""stimulus"":""img/red_lw/10.jpg"",""time"":501},{""stimulus"":""img/red_lw/11.jpg"",""time"":552}]","[]"
"image-keyboard-response","78","80098","0.0-5.0-1.37","63b6ef9027eb90f292852ee4","bdp_lott","Sun Mar 26 2023 22:31:40 GMT-0400 (Eastern Daylight Time)","257885","red","green","","595","","","","choice","","img/red_lw/choose11.jpg","2","188","red","0.5","0.5","0.5","w","",""
"animation","79","80699","0.0-5.0-2.37","63b6ef9027eb90f292852ee4","bdp_lott","Sun Mar 26 2023 22:31:40 GMT-0400 (Eastern Daylight Time)","257885","red","green","","","","","","","","","","188","","","","","","[{""stimulus"":""img/red_lw/1.jpg"",""time"":51},{""stimulus"":""img/red_lw/2.jpg"",""time"":101},{""stimulus"":""img/red_lw/3.jpg"",""time"":151},{""stimulus"":""img/red_lw/4.jpg"",""time"":201},{""stimulus"":""img/red_lw/5.jpg"",""time"":251},{""stimulus"":""img/red_lw/6.jpg"",""time"":301},{""stimulus"":""img/red_lw/7.jpg"",""time"":353},{""stimulus"":""img/red_lw/8.jpg"",""time"":401},{""stimulus"":""img/red_lw/9.jpg"",""time"":451},{""stimulus"":""img/red_lw/10.jpg"",""time"":502},{""stimulus"":""img/red_lw/11.jpg"",""time"":551}]","[]"
"image-keyboard-response","80","81273","0.0-5.0-1.38","63b6ef9027eb90f292852ee4","bdp_lott","Sun Mar 26 2023 22:31:40 GMT-0400 (Eastern Daylight Time)","257885","red","green","","574","","","","choice","","img/red_lw/choose11.jpg","2","187","red","0.5","0.5","0.5","l","",""
"animation","81","81874","0.0-5.0-2.38","63b6ef9027eb90f292852ee4","bdp_lott","Sun Mar 26 2023 22:31:40 GMT-0400 (Eastern Daylight Time)","257885","red","green","","","","","","","","","","187","","","","","","[{""stimulus"":""img/red_ll/1.jpg"",""time"":51},{""stimulus"":""img/red_ll/2.jpg"",""time"":102},{""stimulus"":""img/red_ll/3.jpg"",""time"":151},{""stimulus"":""img/red_ll/4.jpg"",""time"":201},{""stimulus"":""img/red_ll/5.jpg"",""time"":252},{""stimulus"":""img/red_ll/6.jpg"",""time"":302},{""stimulus"":""img/red_ll/7.jpg"",""time"":351},{""stimulus"":""img/red_ll/8.jpg"",""time"":401},{""stimulus"":""img/red_ll/9.jpg"",""time"":451},{""stimulus"":""img/red_ll/10.jpg"",""time"":501},{""stimulus"":""img/red_ll/11.jpg"",""time"":553}]","[]"
"image-keyboard-response","82","82472","0.0-5.0-1.39","63b6ef9027eb90f292852ee4","bdp_lott","Sun Mar 26 2023 22:31:40 GMT-0400 (Eastern Daylight Time)","257885","red","green","","598","","","","choice","","img/red_ll/choose11.jpg","2","186","red","0.5","0.5","0.5","w","",""
"animation","83","83073","0.0-5.0-2.39","63b6ef9027eb90f292852ee4","bdp_lott","Sun Mar 26 2023 22:31:40 GMT-0400 (Eastern Daylight Time)","257885","red","green","","","","","","","","","","186","","","","","","[{""stimulus"":""img/red_lw/1.jpg"",""time"":51},{""stimulus"":""img/red_lw/2.jpg"",""time"":101},{""stimulus"":""img/red_lw/3.jpg"",""time"":151},{""stimulus"":""img/red_lw/4.jpg"",""time"":201},{""stimulus"":""img/red_lw/5.jpg"",""time"":251},{""stimulus"":""img/red_lw/6.jpg"",""time"":301},{""stimulus"":""img/red_lw/7.jpg"",""time"":351},{""stimulus"":""img/red_lw/8.jpg"",""time"":402},{""stimulus"":""img/red_lw/9.jpg"",""time"":451},{""stimulus"":""img/red_lw/10.jpg"",""time"":500},{""stimulus"":""img/red_lw/11.jpg"",""time"":551}]","[]"
"image-keyboard-response","84","83982","0.0-5.0-1.40","63b6ef9027eb90f292852ee4","bdp_lott","Sun Mar 26 2023 22:31:40 GMT-0400 (Eastern Daylight Time)","257885","red","green","","909","","","","choice","","img/red_lw/choose11.jpg","2","185","red","0.5","0.5","0.5","w","",""
"animation","85","84583","0.0-5.0-2.40","63b6ef9027eb90f292852ee4","bdp_lott","Sun Mar 26 2023 22:31:40 GMT-0400 (Eastern Daylight Time)","257885","red","green","","","","","","","","","","185","","","","","","[{""stimulus"":""img/red_lw/1.jpg"",""time"":51},{""stimulus"":""img/red_lw/2.jpg"",""time"":102},{""stimulus"":""img/red_lw/3.jpg"",""time"":151},{""stimulus"":""img/red_lw/4.jpg"",""time"":202},{""stimulus"":""img/red_lw/5.jpg"",""time"":251},{""stimulus"":""img/red_lw/6.jpg"",""time"":301},{""stimulus"":""img/red_lw/7.jpg"",""time"":355},{""stimulus"":""img/red_lw/8.jpg"",""time"":401},{""stimulus"":""img/red_lw/9.jpg"",""time"":451},{""stimulus"":""img/red_lw/10.jpg"",""time"":501},{""stimulus"":""img/red_lw/11.jpg"",""time"":552}]","[]"
"image-keyboard-response","86","85221","0.0-5.0-1.41","63b6ef9027eb90f292852ee4","bdp_lott","Sun Mar 26 2023 22:31:40 GMT-0400 (Eastern Daylight Time)","257885","red","green","","637","","","","choice","","img/red_lw/choose11.jpg","2","184","red","0.5","0.5","0.5","l","",""
"animation","87","85823","0.0-5.0-2.41","63b6ef9027eb90f292852ee4","bdp_lott","Sun Mar 26 2023 22:31:40 GMT-0400 (Eastern Daylight Time)","257885","red","green","","","","","","","","","","184","","","","","","[{""stimulus"":""img/red_ll/1.jpg"",""time"":50},{""stimulus"":""img/red_ll/2.jpg"",""time"":101},{""stimulus"":""img/red_ll/3.jpg"",""time"":151},{""stimulus"":""img/red_ll/4.jpg"",""time"":201},{""stimulus"":""img/red_ll/5.jpg"",""time"":251},{""stimulus"":""img/red_ll/6.jpg"",""time"":302},{""stimulus"":""img/red_ll/7.jpg"",""time"":350},{""stimulus"":""img/red_ll/8.jpg"",""time"":401},{""stimulus"":""img/red_ll/9.jpg"",""time"":451},{""stimulus"":""img/red_ll/10.jpg"",""time"":501},{""stimulus"":""img/red_ll/11.jpg"",""time"":550}]","[]"
"image-keyboard-response","88","86299","0.0-5.0-1.42","63b6ef9027eb90f292852ee4","bdp_lott","Sun Mar 26 2023 22:31:40 GMT-0400 (Eastern Daylight Time)","257885","red","green","","476","","","","choice","","img/red_ll/choose11.jpg","2","183","red","0.5","0.5","0.5","l","",""
"animation","89","86900","0.0-5.0-2.42","63b6ef9027eb90f292852ee4","bdp_lott","Sun Mar 26 2023 22:31:40 GMT-0400 (Eastern Daylight Time)","257885","red","green","","","","","","","","","","183","","","","","","[{""stimulus"":""img/red_ll/1.jpg"",""time"":51},{""stimulus"":""img/red_ll/2.jpg"",""time"":101},{""stimulus"":""img/red_ll/3.jpg"",""time"":153},{""stimulus"":""img/red_ll/4.jpg"",""time"":201},{""stimulus"":""img/red_ll/5.jpg"",""time"":251},{""stimulus"":""img/red_ll/6.jpg"",""time"":301},{""stimulus"":""img/red_ll/7.jpg"",""time"":352},{""stimulus"":""img/red_ll/8.jpg"",""time"":402},{""stimulus"":""img/red_ll/9.jpg"",""time"":452},{""stimulus"":""img/red_ll/10.jpg"",""time"":503},{""stimulus"":""img/red_ll/11.jpg"",""time"":552}]","[]"
"image-keyboard-response","90","87303","0.0-5.0-1.43","63b6ef9027eb90f292852ee4","bdp_lott","Sun Mar 26 2023 22:31:40 GMT-0400 (Eastern Daylight Time)","257885","red","green","","402","","","","choice","","img/red_ll/choose11.jpg","2","182","red","0.5","0.5","0.5","l","",""
"animation","91","87904","0.0-5.0-2.43","63b6ef9027eb90f292852ee4","bdp_lott","Sun Mar 26 2023 22:31:40 GMT-0400 (Eastern Daylight Time)","257885","red","green","","","","","","","","","","182","","","","","","[{""stimulus"":""img/red_ll/1.jpg"",""time"":52},{""stimulus"":""img/red_ll/2.jpg"",""time"":102},{""stimulus"":""img/red_ll/3.jpg"",""time"":151},{""stimulus"":""img/red_ll/4.jpg"",""time"":201},{""stimulus"":""img/red_ll/5.jpg"",""time"":252},{""stimulus"":""img/red_ll/6.jpg"",""time"":301},{""stimulus"":""img/red_ll/7.jpg"",""time"":351},{""stimulus"":""img/red_ll/8.jpg"",""time"":402},{""stimulus"":""img/red_ll/9.jpg"",""time"":452},{""stimulus"":""img/red_ll/10.jpg"",""time"":501},{""stimulus"":""img/red_ll/11.jpg"",""time"":552}]","[]"
"image-keyboard-response","92","88084","0.0-5.0-1.44","63b6ef9027eb90f292852ee4","bdp_lott","Sun Mar 26 2023 22:31:40 GMT-0400 (Eastern Daylight Time)","257885","red","green","","179","","","","choice","","img/red_ll/choose11.jpg","1","181","green","0.5","0.5","0.5","l","",""
"animation","93","88685","0.0-5.0-2.44","63b6ef9027eb90f292852ee4","bdp_lott","Sun Mar 26 2023 22:31:40 GMT-0400 (Eastern Daylight Time)","257885","red","green","","","","","","","","","","181","","","","","","[{""stimulus"":""img/green_ll/1.jpg"",""time"":52},{""stimulus"":""img/green_ll/2.jpg"",""time"":101},{""stimulus"":""img/green_ll/3.jpg"",""time"":151},{""stimulus"":""img/green_ll/4.jpg"",""time"":202},{""stimulus"":""img/green_ll/5.jpg"",""time"":252},{""stimulus"":""img/green_ll/6.jpg"",""time"":301},{""stimulus"":""img/green_ll/7.jpg"",""time"":351},{""stimulus"":""img/green_ll/8.jpg"",""time"":402},{""stimulus"":""img/green_ll/9.jpg"",""time"":451},{""stimulus"":""img/green_ll/10.jpg"",""time"":501},{""stimulus"":""img/green_ll/11.jpg"",""time"":551}]","[]"
"image-keyboard-response","94","89218","0.0-5.0-1.45","63b6ef9027eb90f292852ee4","bdp_lott","Sun Mar 26 2023 22:31:40 GMT-0400 (Eastern Daylight Time)","257885","red","green","","532","","","","choice","","img/green_ll/choose11.jpg","1","180","green","0.5","0.5","0.5","w","",""
"animation","95","89820","0.0-5.0-2.45","63b6ef9027eb90f292852ee4","bdp_lott","Sun Mar 26 2023 22:31:40 GMT-0400 (Eastern Daylight Time)","257885","red","green","","","","","","","","","","180","","","","","","[{""stimulus"":""img/green_wl/1.jpg"",""time"":51},{""stimulus"":""img/green_wl/2.jpg"",""time"":101},{""stimulus"":""img/green_wl/3.jpg"",""time"":150},{""stimulus"":""img/green_wl/4.jpg"",""time"":201},{""stimulus"":""img/green_wl/5.jpg"",""time"":251},{""stimulus"":""img/green_wl/6.jpg"",""time"":301},{""stimulus"":""img/green_wl/7.jpg"",""time"":351},{""stimulus"":""img/green_wl/8.jpg"",""time"":402},{""stimulus"":""img/green_wl/9.jpg"",""time"":451},{""stimulus"":""img/green_wl/10.jpg"",""time"":500},{""stimulus"":""img/green_wl/11.jpg"",""time"":552}]","[]"
"image-keyboard-response","96","90318","0.0-5.0-1.46","63b6ef9027eb90f292852ee4","bdp_lott","Sun Mar 26 2023 22:31:40 GMT-0400 (Eastern Daylight Time)","257885","red","green","","498","","","","choice","","img/green_wl/choose11.jpg","1","179","green","0.5","0.5","0.5","l","",""
"animation","97","90919","0.0-5.0-2.46","63b6ef9027eb90f292852ee4","bdp_lott","Sun Mar 26 2023 22:31:40 GMT-0400 (Eastern Daylight Time)","257885","red","green","","","","","","","","","","179","","","","","","[{""stimulus"":""img/green_ll/1.jpg"",""time"":51},{""stimulus"":""img/green_ll/2.jpg"",""time"":102},{""stimulus"":""img/green_ll/3.jpg"",""time"":151},{""stimulus"":""img/green_ll/4.jpg"",""time"":200},{""stimulus"":""img/green_ll/5.jpg"",""time"":251},{""stimulus"":""img/green_ll/6.jpg"",""time"":301},{""stimulus"":""img/green_ll/7.jpg"",""time"":350},{""stimulus"":""img/green_ll/8.jpg"",""time"":400},{""stimulus"":""img/green_ll/9.jpg"",""time"":451},{""stimulus"":""img/green_ll/10.jpg"",""time"":501},{""stimulus"":""img/green_ll/11.jpg"",""time"":551}]","[]"
"image-keyboard-response","98","91277","0.0-5.0-1.47","63b6ef9027eb90f292852ee4","bdp_lott","Sun Mar 26 2023 22:31:40 GMT-0400 (Eastern Daylight Time)","257885","red","green","","357","","","","choice","","img/green_ll/choose11.jpg","1","178","green","0.5","0.5","0.5","w","",""
"animation","99","91879","0.0-5.0-2.47","63b6ef9027eb90f292852ee4","bdp_lott","Sun Mar 26 2023 22:31:40 GMT-0400 (Eastern Daylight Time)","257885","red","green","","","","","","","","","","178","","","","","","[{""stimulus"":""img/green_wl/1.jpg"",""time"":51},{""stimulus"":""img/green_wl/2.jpg"",""time"":101},{""stimulus"":""img/green_wl/3.jpg"",""time"":151},{""stimulus"":""img/green_wl/4.jpg"",""time"":201},{""stimulus"":""img/green_wl/5.jpg"",""time"":252},{""stimulus"":""img/green_wl/6.jpg"",""time"":301},{""stimulus"":""img/green_wl/7.jpg"",""time"":350},{""stimulus"":""img/green_wl/8.jpg"",""time"":401},{""stimulus"":""img/green_wl/9.jpg"",""time"":451},{""stimulus"":""img/green_wl/10.jpg"",""time"":501},{""stimulus"":""img/green_wl/11.jpg"",""time"":551}]","[]"
"image-keyboard-response","100","92179","0.0-5.0-1.48","63b6ef9027eb90f292852ee4","bdp_lott","Sun Mar 26 2023 22:31:40 GMT-0400 (Eastern Daylight Time)","257885","red","green","","299","","","","choice","","img/green_wl/choose11.jpg","1","177","green","0.5","0.5","0.5","l","",""
"animation","101","92780","0.0-5.0-2.48","63b6ef9027eb90f292852ee4","bdp_lott","Sun Mar 26 2023 22:31:40 GMT-0400 (Eastern Daylight Time)","257885","red","green","","","","","","","","","","177","","","","","","[{""stimulus"":""img/green_ll/1.jpg"",""time"":51},{""stimulus"":""img/green_ll/2.jpg"",""time"":101},{""stimulus"":""img/green_ll/3.jpg"",""time"":151},{""stimulus"":""img/green_ll/4.jpg"",""time"":200},{""stimulus"":""img/green_ll/5.jpg"",""time"":251},{""stimulus"":""img/green_ll/6.jpg"",""time"":300},{""stimulus"":""img/green_ll/7.jpg"",""time"":351},{""stimulus"":""img/green_ll/8.jpg"",""time"":400},{""stimulus"":""img/green_ll/9.jpg"",""time"":451},{""stimulus"":""img/green_ll/10.jpg"",""time"":500},{""stimulus"":""img/green_ll/11.jpg"",""time"":550}]","[]"
"image-keyboard-response","102","93074","0.0-5.0-1.49","63b6ef9027eb90f292852ee4","bdp_lott","Sun Mar 26 2023 22:31:40 GMT-0400 (Eastern Daylight Time)","257885","red","green","","293","","","","choice","","img/green_ll/choose11.jpg","1","176","green","0.5","0.5","0.5","w","",""
"animation","103","93675","0.0-5.0-2.49","63b6ef9027eb90f292852ee4","bdp_lott","Sun Mar 26 2023 22:31:40 GMT-0400 (Eastern Daylight Time)","257885","red","green","","","","","","","","","","176","","","","","","[{""stimulus"":""img/green_wl/1.jpg"",""time"":52},{""stimulus"":""img/green_wl/2.jpg"",""time"":101},{""stimulus"":""img/green_wl/3.jpg"",""time"":151},{""stimulus"":""img/green_wl/4.jpg"",""time"":202},{""stimulus"":""img/green_wl/5.jpg"",""time"":252},{""stimulus"":""img/green_wl/6.jpg"",""time"":302},{""stimulus"":""img/green_wl/7.jpg"",""time"":352},{""stimulus"":""img/green_wl/8.jpg"",""time"":401},{""stimulus"":""img/green_wl/9.jpg"",""time"":451},{""stimulus"":""img/green_wl/10.jpg"",""time"":501},{""stimulus"":""img/green_wl/11.jpg"",""time"":552}]","[]"
"image-keyboard-response","104","94038","0.0-5.0-1.50","63b6ef9027eb90f292852ee4","bdp_lott","Sun Mar 26 2023 22:31:40 GMT-0400 (Eastern Daylight Time)","257885","red","green","","363","","","","choice","","img/green_wl/choose11.jpg","1","175","green","0.5","0.5","0.5","l","",""
"animation","105","94639","0.0-5.0-2.50","63b6ef9027eb90f292852ee4","bdp_lott","Sun Mar 26 2023 22:31:40 GMT-0400 (Eastern Daylight Time)","257885","red","green","","","","","","","","","","175","","","","","","[{""stimulus"":""img/green_ll/1.jpg"",""time"":51},{""stimulus"":""img/green_ll/2.jpg"",""time"":101},{""stimulus"":""img/green_ll/3.jpg"",""time"":151},{""stimulus"":""img/green_ll/4.jpg"",""time"":201},{""stimulus"":""img/green_ll/5.jpg"",""time"":251},{""stimulus"":""img/green_ll/6.jpg"",""time"":301},{""stimulus"":""img/green_ll/7.jpg"",""time"":351},{""stimulus"":""img/green_ll/8.jpg"",""time"":401},{""stimulus"":""img/green_ll/9.jpg"",""time"":451},{""stimulus"":""img/green_ll/10.jpg"",""time"":501},{""stimulus"":""img/green_ll/11.jpg"",""time"":552}]","[]"
"image-keyboard-response","106","95002","0.0-5.0-1.51","63b6ef9027eb90f292852ee4","bdp_lott","Sun Mar 26 2023 22:31:40 GMT-0400 (Eastern Daylight Time)","257885","red","green","","362","","","","choice","","img/green_ll/choose11.jpg","1","174","green","0.5","0.5","0.5","w","",""
"animation","107","95610","0.0-5.0-2.51","63b6ef9027eb90f292852ee4","bdp_lott","Sun Mar 26 2023 22:31:40 GMT-0400 (Eastern Daylight Time)","257885","red","green","","","","","","","","","","174","","","","","","[{""stimulus"":""img/green_wl/1.jpg"",""time"":52},{""stimulus"":""img/green_wl/2.jpg"",""time"":101},{""stimulus"":""img/green_wl/3.jpg"",""time"":152},{""stimulus"":""img/green_wl/4.jpg"",""time"":202},{""stimulus"":""img/green_wl/5.jpg"",""time"":253},{""stimulus"":""img/green_wl/6.jpg"",""time"":302},{""stimulus"":""img/green_wl/7.jpg"",""time"":353},{""stimulus"":""img/green_wl/8.jpg"",""time"":402},{""stimulus"":""img/green_wl/9.jpg"",""time"":452},{""stimulus"":""img/green_wl/10.jpg"",""time"":502},{""stimulus"":""img/green_wl/11.jpg"",""time"":552}]","[]"
"image-keyboard-response","108","95944","0.0-5.0-1.52","63b6ef9027eb90f292852ee4","bdp_lott","Sun Mar 26 2023 22:31:40 GMT-0400 (Eastern Daylight Time)","257885","red","green","","334","","","","choice","","img/green_wl/choose11.jpg","1","173","green","0.5","0.5","0.5","w","",""
"animation","109","96545","0.0-5.0-2.52","63b6ef9027eb90f292852ee4","bdp_lott","Sun Mar 26 2023 22:31:40 GMT-0400 (Eastern Daylight Time)","257885","red","green","","","","","","","","","","173","","","","","","[{""stimulus"":""img/green_wl/1.jpg"",""time"":52},{""stimulus"":""img/green_wl/2.jpg"",""time"":101},{""stimulus"":""img/green_wl/3.jpg"",""time"":151},{""stimulus"":""img/green_wl/4.jpg"",""time"":201},{""stimulus"":""img/green_wl/5.jpg"",""time"":251},{""stimulus"":""img/green_wl/6.jpg"",""time"":301},{""stimulus"":""img/green_wl/7.jpg"",""time"":352},{""stimulus"":""img/green_wl/8.jpg"",""time"":401},{""stimulus"":""img/green_wl/9.jpg"",""time"":451},{""stimulus"":""img/green_wl/10.jpg"",""time"":501},{""stimulus"":""img/green_wl/11.jpg"",""time"":551}]","[]"
"image-keyboard-response","110","96824","0.0-5.0-1.53","63b6ef9027eb90f292852ee4","bdp_lott","Sun Mar 26 2023 22:31:40 GMT-0400 (Eastern Daylight Time)","257885","red","green","","278","","","","choice","","img/green_wl/choose11.jpg","1","172","green","0.5","0.5","0.5","l","",""
"animation","111","97425","0.0-5.0-2.53","63b6ef9027eb90f292852ee4","bdp_lott","Sun Mar 26 2023 22:31:40 GMT-0400 (Eastern Daylight Time)","257885","red","green","","","","","","","","","","172","","","","","","[{""stimulus"":""img/green_ll/1.jpg"",""time"":51},{""stimulus"":""img/green_ll/2.jpg"",""time"":101},{""stimulus"":""img/green_ll/3.jpg"",""time"":151},{""stimulus"":""img/green_ll/4.jpg"",""time"":201},{""stimulus"":""img/green_ll/5.jpg"",""time"":252},{""stimulus"":""img/green_ll/6.jpg"",""time"":302},{""stimulus"":""img/green_ll/7.jpg"",""time"":352},{""stimulus"":""img/green_ll/8.jpg"",""time"":402},{""stimulus"":""img/green_ll/9.jpg"",""time"":451},{""stimulus"":""img/green_ll/10.jpg"",""time"":501},{""stimulus"":""img/green_ll/11.jpg"",""time"":551}]","[]"
"image-keyboard-response","112","97953","0.0-5.0-1.54","63b6ef9027eb90f292852ee4","bdp_lott","Sun Mar 26 2023 22:31:40 GMT-0400 (Eastern Daylight Time)","257885","red","green","","528","","","","choice","","img/green_ll/choose11.jpg","1","171","green","0.5","0.5","0.5","l","",""
"animation","113","98554","0.0-5.0-2.54","63b6ef9027eb90f292852ee4","bdp_lott","Sun Mar 26 2023 22:31:40 GMT-0400 (Eastern Daylight Time)","257885","red","green","","","","","","","","","","171","","","","","","[{""stimulus"":""img/green_ll/1.jpg"",""time"":52},{""stimulus"":""img/green_ll/2.jpg"",""time"":102},{""stimulus"":""img/green_ll/3.jpg"",""time"":152},{""stimulus"":""img/green_ll/4.jpg"",""time"":202},{""stimulus"":""img/green_ll/5.jpg"",""time"":252},{""stimulus"":""img/green_ll/6.jpg"",""time"":301},{""stimulus"":""img/green_ll/7.jpg"",""time"":352},{""stimulus"":""img/green_ll/8.jpg"",""time"":402},{""stimulus"":""img/green_ll/9.jpg"",""time"":452},{""stimulus"":""img/green_ll/10.jpg"",""time"":503},{""stimulus"":""img/green_ll/11.jpg"",""time"":552}]","[]"
"image-keyboard-response","114","98999","0.0-5.0-1.55","63b6ef9027eb90f292852ee4","bdp_lott","Sun Mar 26 2023 22:31:40 GMT-0400 (Eastern Daylight Time)","257885","red","green","","443","","","","choice","","img/green_ll/choose11.jpg","1","170","green","0.5","0.5","0.5","w","",""
"animation","115","99600","0.0-5.0-2.55","63b6ef9027eb90f292852ee4","bdp_lott","Sun Mar 26 2023 22:31:40 GMT-0400 (Eastern Daylight Time)","257885","red","green","","","","","","","","","","170","","","","","","[{""stimulus"":""img/green_wl/1.jpg"",""time"":51},{""stimulus"":""img/green_wl/2.jpg"",""time"":101},{""stimulus"":""img/green_wl/3.jpg"",""time"":151},{""stimulus"":""img/green_wl/4.jpg"",""time"":201},{""stimulus"":""img/green_wl/5.jpg"",""time"":251},{""stimulus"":""img/green_wl/6.jpg"",""time"":302},{""stimulus"":""img/green_wl/7.jpg"",""time"":351},{""stimulus"":""img/green_wl/8.jpg"",""time"":402},{""stimulus"":""img/green_wl/9.jpg"",""time"":451},{""stimulus"":""img/green_wl/10.jpg"",""time"":501},{""stimulus"":""img/green_wl/11.jpg"",""time"":551}]","[]"
"image-keyboard-response","116","100112","0.0-5.0-1.56","63b6ef9027eb90f292852ee4","bdp_lott","Sun Mar 26 2023 22:31:40 GMT-0400 (Eastern Daylight Time)","257885","red","green","","511","","","","choice","","img/green_wl/choose11.jpg","1","169","green","0.5","0.5","0.5","l","",""
"animation","117","100712","0.0-5.0-2.56","63b6ef9027eb90f292852ee4","bdp_lott","Sun Mar 26 2023 22:31:40 GMT-0400 (Eastern Daylight Time)","257885","red","green","","","","","","","","","","169","","","","","","[{""stimulus"":""img/green_ll/1.jpg"",""time"":51},{""stimulus"":""img/green_ll/2.jpg"",""time"":102},{""stimulus"":""img/green_ll/3.jpg"",""time"":151},{""stimulus"":""img/green_ll/4.jpg"",""time"":201},{""stimulus"":""img/green_ll/5.jpg"",""time"":251},{""stimulus"":""img/green_ll/6.jpg"",""time"":301},{""stimulus"":""img/green_ll/7.jpg"",""time"":352},{""stimulus"":""img/green_ll/8.jpg"",""time"":402},{""stimulus"":""img/green_ll/9.jpg"",""time"":451},{""stimulus"":""img/green_ll/10.jpg"",""time"":501},{""stimulus"":""img/green_ll/11.jpg"",""time"":552}]","[]"
"image-keyboard-response","118","101305","0.0-5.0-1.57","63b6ef9027eb90f292852ee4","bdp_lott","Sun Mar 26 2023 22:31:40 GMT-0400 (Eastern Daylight Time)","257885","red","green","","592","","","","choice","","img/green_ll/choose11.jpg","1","168","green","0.5","0.5","0.5","w","",""
"animation","119","101907","0.0-5.0-2.57","63b6ef9027eb90f292852ee4","bdp_lott","Sun Mar 26 2023 22:31:40 GMT-0400 (Eastern Daylight Time)","257885","red","green","","","","","","","","","","168","","","","","","[{""stimulus"":""img/green_wl/1.jpg"",""time"":51},{""stimulus"":""img/green_wl/2.jpg"",""time"":102},{""stimulus"":""img/green_wl/3.jpg"",""time"":151},{""stimulus"":""img/green_wl/4.jpg"",""time"":202},{""stimulus"":""img/green_wl/5.jpg"",""time"":251},{""stimulus"":""img/green_wl/6.jpg"",""time"":302},{""stimulus"":""img/green_wl/7.jpg"",""time"":353},{""stimulus"":""img/green_wl/8.jpg"",""time"":401},{""stimulus"":""img/green_wl/9.jpg"",""time"":451},{""stimulus"":""img/green_wl/10.jpg"",""time"":501},{""stimulus"":""img/green_wl/11.jpg"",""time"":552}]","[]"
"image-keyboard-response","120","102708","0.0-5.0-1.58","63b6ef9027eb90f292852ee4","bdp_lott","Sun Mar 26 2023 22:31:40 GMT-0400 (Eastern Daylight Time)","257885","red","green","","801","","","","choice","","img/green_wl/choose11.jpg","1","167","green","0.5","0.5","0.5","l","",""
"animation","121","103308","0.0-5.0-2.58","63b6ef9027eb90f292852ee4","bdp_lott","Sun Mar 26 2023 22:31:40 GMT-0400 (Eastern Daylight Time)","257885","red","green","","","","","","","","","","167","","","","","","[{""stimulus"":""img/green_ll/1.jpg"",""time"":51},{""stimulus"":""img/green_ll/2.jpg"",""time"":101},{""stimulus"":""img/green_ll/3.jpg"",""time"":151},{""stimulus"":""img/green_ll/4.jpg"",""time"":201},{""stimulus"":""img/green_ll/5.jpg"",""time"":252},{""stimulus"":""img/green_ll/6.jpg"",""time"":301},{""stimulus"":""img/green_ll/7.jpg"",""time"":352},{""stimulus"":""img/green_ll/8.jpg"",""time"":401},{""stimulus"":""img/green_ll/9.jpg"",""time"":452},{""stimulus"":""img/green_ll/10.jpg"",""time"":502},{""stimulus"":""img/green_ll/11.jpg"",""time"":552}]","[]"
"image-keyboard-response","122","103825","0.0-5.0-1.59","63b6ef9027eb90f292852ee4","bdp_lott","Sun Mar 26 2023 22:31:40 GMT-0400 (Eastern Daylight Time)","257885","red","green","","516","","","","choice","","img/green_ll/choose11.jpg","1","166","green","0.5","0.5","0.5","w","",""
"animation","123","104426","0.0-5.0-2.59","63b6ef9027eb90f292852ee4","bdp_lott","Sun Mar 26 2023 22:31:40 GMT-0400 (Eastern Daylight Time)","257885","red","green","","","","","","","","","","166","","","","","","[{""stimulus"":""img/green_wl/1.jpg"",""time"":53},{""stimulus"":""img/green_wl/2.jpg"",""time"":101},{""stimulus"":""img/green_wl/3.jpg"",""time"":152},{""stimulus"":""img/green_wl/4.jpg"",""time"":201},{""stimulus"":""img/green_wl/5.jpg"",""time"":251},{""stimulus"":""img/green_wl/6.jpg"",""time"":301},{""stimulus"":""img/green_wl/7.jpg"",""time"":351},{""stimulus"":""img/green_wl/8.jpg"",""time"":401},{""stimulus"":""img/green_wl/9.jpg"",""time"":452},{""stimulus"":""img/green_wl/10.jpg"",""time"":501},{""stimulus"":""img/green_wl/11.jpg"",""time"":551}]","[]"
"image-keyboard-response","124","104821","0.0-5.0-1.60","63b6ef9027eb90f292852ee4","bdp_lott","Sun Mar 26 2023 22:31:40 GMT-0400 (Eastern Daylight Time)","257885","red","green","","394","","","","choice","","img/green_wl/choose11.jpg","1","165","green","0.5","0.5","0.5","w","",""
"animation","125","105422","0.0-5.0-2.60","63b6ef9027eb90f292852ee4","bdp_lott","Sun Mar 26 2023 22:31:40 GMT-0400 (Eastern Daylight Time)","257885","red","green","","","","","","","","","","165","","","","","","[{""stimulus"":""img/green_wl/1.jpg"",""time"":51},{""stimulus"":""img/green_wl/2.jpg"",""time"":100},{""stimulus"":""img/green_wl/3.jpg"",""time"":151},{""stimulus"":""img/green_wl/4.jpg"",""time"":201},{""stimulus"":""img/green_wl/5.jpg"",""time"":256},{""stimulus"":""img/green_wl/6.jpg"",""time"":301},{""stimulus"":""img/green_wl/7.jpg"",""time"":351},{""stimulus"":""img/green_wl/8.jpg"",""time"":401},{""stimulus"":""img/green_wl/9.jpg"",""time"":451},{""stimulus"":""img/green_wl/10.jpg"",""time"":502},{""stimulus"":""img/green_wl/11.jpg"",""time"":552}]","[]"
"image-keyboard-response","126","105858","0.0-5.0-1.61","63b6ef9027eb90f292852ee4","bdp_lott","Sun Mar 26 2023 22:31:40 GMT-0400 (Eastern Daylight Time)","257885","red","green","","435","","","","choice","","img/green_wl/choose11.jpg","1","164","green","0.5","0.5","0.5","w","",""
"animation","127","106459","0.0-5.0-2.61","63b6ef9027eb90f292852ee4","bdp_lott","Sun Mar 26 2023 22:31:40 GMT-0400 (Eastern Daylight Time)","257885","red","green","","","","","","","","","","164","","","","","","[{""stimulus"":""img/green_wl/1.jpg"",""time"":51},{""stimulus"":""img/green_wl/2.jpg"",""time"":101},{""stimulus"":""img/green_wl/3.jpg"",""time"":152},{""stimulus"":""img/green_wl/4.jpg"",""time"":202},{""stimulus"":""img/green_wl/5.jpg"",""time"":251},{""stimulus"":""img/green_wl/6.jpg"",""time"":301},{""stimulus"":""img/green_wl/7.jpg"",""time"":351},{""stimulus"":""img/green_wl/8.jpg"",""time"":401},{""stimulus"":""img/green_wl/9.jpg"",""time"":451},{""stimulus"":""img/green_wl/10.jpg"",""time"":502},{""stimulus"":""img/green_wl/11.jpg"",""time"":551}]","[]"
"image-keyboard-response","128","106822","0.0-5.0-1.62","63b6ef9027eb90f292852ee4","bdp_lott","Sun Mar 26 2023 22:31:40 GMT-0400 (Eastern Daylight Time)","257885","red","green","","362","","","","choice","","img/green_wl/choose11.jpg","1","163","green","0.5","0.5","0.5","l","",""
"animation","129","107423","0.0-5.0-2.62","63b6ef9027eb90f292852ee4","bdp_lott","Sun Mar 26 2023 22:31:40 GMT-0400 (Eastern Daylight Time)","257885","red","green","","","","","","","","","","163","","","","","","[{""stimulus"":""img/green_ll/1.jpg"",""time"":50},{""stimulus"":""img/green_ll/2.jpg"",""time"":101},{""stimulus"":""img/green_ll/3.jpg"",""time"":151},{""stimulus"":""img/green_ll/4.jpg"",""time"":200},{""stimulus"":""img/green_ll/5.jpg"",""time"":251},{""stimulus"":""img/green_ll/6.jpg"",""time"":301},{""stimulus"":""img/green_ll/7.jpg"",""time"":352},{""stimulus"":""img/green_ll/8.jpg"",""time"":400},{""stimulus"":""img/green_ll/9.jpg"",""time"":451},{""stimulus"":""img/green_ll/10.jpg"",""time"":502},{""stimulus"":""img/green_ll/11.jpg"",""time"":551}]","[]"
"image-keyboard-response","130","107884","0.0-5.0-1.63","63b6ef9027eb90f292852ee4","bdp_lott","Sun Mar 26 2023 22:31:40 GMT-0400 (Eastern Daylight Time)","257885","red","green","","461","","","","choice","","img/green_ll/choose11.jpg","1","162","green","0.5","0.5","0.5","l","",""
"animation","131","108485","0.0-5.0-2.63","63b6ef9027eb90f292852ee4","bdp_lott","Sun Mar 26 2023 22:31:40 GMT-0400 (Eastern Daylight Time)","257885","red","green","","","","","","","","","","162","","","","","","[{""stimulus"":""img/green_ll/1.jpg"",""time"":52},{""stimulus"":""img/green_ll/2.jpg"",""time"":102},{""stimulus"":""img/green_ll/3.jpg"",""time"":151},{""stimulus"":""img/green_ll/4.jpg"",""time"":201},{""stimulus"":""img/green_ll/5.jpg"",""time"":253},{""stimulus"":""img/green_ll/6.jpg"",""time"":301},{""stimulus"":""img/green_ll/7.jpg"",""time"":351},{""stimulus"":""img/green_ll/8.jpg"",""time"":401},{""stimulus"":""img/green_ll/9.jpg"",""time"":453},{""stimulus"":""img/green_ll/10.jpg"",""time"":502},{""stimulus"":""img/green_ll/11.jpg"",""time"":552}]","[]"
"image-keyboard-response","132","108876","0.0-5.0-1.64","63b6ef9027eb90f292852ee4","bdp_lott","Sun Mar 26 2023 22:31:40 GMT-0400 (Eastern Daylight Time)","257885","red","green","","390","","","","choice","","img/green_ll/choose11.jpg","1","161","green","0.5","0.5","0.5","l","",""
"animation","133","109477","0.0-5.0-2.64","63b6ef9027eb90f292852ee4","bdp_lott","Sun Mar 26 2023 22:31:40 GMT-0400 (Eastern Daylight Time)","257885","red","green","","","","","","","","","","161","","","","","","[{""stimulus"":""img/green_ll/1.jpg"",""time"":51},{""stimulus"":""img/green_ll/2.jpg"",""time"":100},{""stimulus"":""img/green_ll/3.jpg"",""time"":151},{""stimulus"":""img/green_ll/4.jpg"",""time"":201},{""stimulus"":""img/green_ll/5.jpg"",""time"":251},{""stimulus"":""img/green_ll/6.jpg"",""time"":301},{""stimulus"":""img/green_ll/7.jpg"",""time"":351},{""stimulus"":""img/green_ll/8.jpg"",""time"":401},{""stimulus"":""img/green_ll/9.jpg"",""time"":451},{""stimulus"":""img/green_ll/10.jpg"",""time"":501},{""stimulus"":""img/green_ll/11.jpg"",""time"":551}]","[]"
"image-keyboard-response","134","109875","0.0-5.0-1.65","63b6ef9027eb90f292852ee4","bdp_lott","Sun Mar 26 2023 22:31:40 GMT-0400 (Eastern Daylight Time)","257885","red","green","","397","","","","choice","","img/green_ll/choose11.jpg","1","160","green","0.5","0.5","0.5","w","",""
"animation","135","110477","0.0-5.0-2.65","63b6ef9027eb90f292852ee4","bdp_lott","Sun Mar 26 2023 22:31:40 GMT-0400 (Eastern Daylight Time)","257885","red","green","","","","","","","","","","160","","","","","","[{""stimulus"":""img/green_wl/1.jpg"",""time"":51},{""stimulus"":""img/green_wl/2.jpg"",""time"":102},{""stimulus"":""img/green_wl/3.jpg"",""time"":150},{""stimulus"":""img/green_wl/4.jpg"",""time"":201},{""stimulus"":""img/green_wl/5.jpg"",""time"":251},{""stimulus"":""img/green_wl/6.jpg"",""time"":300},{""stimulus"":""img/green_wl/7.jpg"",""time"":350},{""stimulus"":""img/green_wl/8.jpg"",""time"":401},{""stimulus"":""img/green_wl/9.jpg"",""time"":450},{""stimulus"":""img/green_wl/10.jpg"",""time"":501},{""stimulus"":""img/green_wl/11.jpg"",""time"":551}]","[]"
"image-keyboard-response","136","110938","0.0-5.0-1.66","63b6ef9027eb90f292852ee4","bdp_lott","Sun Mar 26 2023 22:31:40 GMT-0400 (Eastern Daylight Time)","257885","red","green","","460","","","","choice","","img/green_wl/choose11.jpg","1","159","green","0.5","0.5","0.5","w","",""
"animation","137","111539","0.0-5.0-2.66","63b6ef9027eb90f292852ee4","bdp_lott","Sun Mar 26 2023 22:31:40 GMT-0400 (Eastern Daylight Time)","257885","red","green","","","","","","","","","","159","","","","","","[{""stimulus"":""img/green_wl/1.jpg"",""time"":52},{""stimulus"":""img/green_wl/2.jpg"",""time"":100},{""stimulus"":""img/green_wl/3.jpg"",""time"":151},{""stimulus"":""img/green_wl/4.jpg"",""time"":201},{""stimulus"":""img/green_wl/5.jpg"",""time"":251},{""stimulus"":""img/green_wl/6.jpg"",""time"":301},{""stimulus"":""img/green_wl/7.jpg"",""time"":350},{""stimulus"":""img/green_wl/8.jpg"",""time"":402},{""stimulus"":""img/green_wl/9.jpg"",""time"":452},{""stimulus"":""img/green_wl/10.jpg"",""time"":501},{""stimulus"":""img/green_wl/11.jpg"",""time"":551}]","[]"
"image-keyboard-response","138","112096","0.0-5.0-1.67","63b6ef9027eb90f292852ee4","bdp_lott","Sun Mar 26 2023 22:31:40 GMT-0400 (Eastern Daylight Time)","257885","red","green","","556","","","","choice","","img/green_wl/choose11.jpg","1","158","green","0.5","0.5","0.5","w","",""
"animation","139","112696","0.0-5.0-2.67","63b6ef9027eb90f292852ee4","bdp_lott","Sun Mar 26 2023 22:31:40 GMT-0400 (Eastern Daylight Time)","257885","red","green","","","","","","","","","","158","","","","","","[{""stimulus"":""img/green_wl/1.jpg"",""time"":51},{""stimulus"":""img/green_wl/2.jpg"",""time"":101},{""stimulus"":""img/green_wl/3.jpg"",""time"":152},{""stimulus"":""img/green_wl/4.jpg"",""time"":201},{""stimulus"":""img/green_wl/5.jpg"",""time"":251},{""stimulus"":""img/green_wl/6.jpg"",""time"":301},{""stimulus"":""img/green_wl/7.jpg"",""time"":351},{""stimulus"":""img/green_wl/8.jpg"",""time"":401},{""stimulus"":""img/green_wl/9.jpg"",""time"":450},{""stimulus"":""img/green_wl/10.jpg"",""time"":501},{""stimulus"":""img/green_wl/11.jpg"",""time"":551}]","[]"
"image-keyboard-response","140","112996","0.0-5.0-1.68","63b6ef9027eb90f292852ee4","bdp_lott","Sun Mar 26 2023 22:31:40 GMT-0400 (Eastern Daylight Time)","257885","red","green","","299","","","","choice","","img/green_wl/choose11.jpg","1","157","green","0.5","0.5","0.5","l","",""
"animation","141","113597","0.0-5.0-2.68","63b6ef9027eb90f292852ee4","bdp_lott","Sun Mar 26 2023 22:31:40 GMT-0400 (Eastern Daylight Time)","257885","red","green","","","","","","","","","","157","","","","","","[{""stimulus"":""img/green_ll/1.jpg"",""time"":51},{""stimulus"":""img/green_ll/2.jpg"",""time"":101},{""stimulus"":""img/green_ll/3.jpg"",""time"":151},{""stimulus"":""img/green_ll/4.jpg"",""time"":201},{""stimulus"":""img/green_ll/5.jpg"",""time"":252},{""stimulus"":""img/green_ll/6.jpg"",""time"":302},{""stimulus"":""img/green_ll/7.jpg"",""time"":351},{""stimulus"":""img/green_ll/8.jpg"",""time"":401},{""stimulus"":""img/green_ll/9.jpg"",""time"":451},{""stimulus"":""img/green_ll/10.jpg"",""time"":501},{""stimulus"":""img/green_ll/11.jpg"",""time"":551}]","[]"
"image-keyboard-response","142","113910","0.0-5.0-1.69","63b6ef9027eb90f292852ee4","bdp_lott","Sun Mar 26 2023 22:31:40 GMT-0400 (Eastern Daylight Time)","257885","red","green","","311","","","","choice","","img/green_ll/choose11.jpg","1","156","green","0.5","0.5","0.5","l","",""
"animation","143","114512","0.0-5.0-2.69","63b6ef9027eb90f292852ee4","bdp_lott","Sun Mar 26 2023 22:31:40 GMT-0400 (Eastern Daylight Time)","257885","red","green","","","","","","","","","","156","","","","","","[{""stimulus"":""img/green_ll/1.jpg"",""time"":51},{""stimulus"":""img/green_ll/2.jpg"",""time"":102},{""stimulus"":""img/green_ll/3.jpg"",""time"":151},{""stimulus"":""img/green_ll/4.jpg"",""time"":201},{""stimulus"":""img/green_ll/5.jpg"",""time"":251},{""stimulus"":""img/green_ll/6.jpg"",""time"":301},{""stimulus"":""img/green_ll/7.jpg"",""time"":351},{""stimulus"":""img/green_ll/8.jpg"",""time"":401},{""stimulus"":""img/green_ll/9.jpg"",""time"":451},{""stimulus"":""img/green_ll/10.jpg"",""time"":501},{""stimulus"":""img/green_ll/11.jpg"",""time"":551}]","[]"
"image-keyboard-response","144","114964","0.0-5.0-1.70","63b6ef9027eb90f292852ee4","bdp_lott","Sun Mar 26 2023 22:31:40 GMT-0400 (Eastern Daylight Time)","257885","red","green","","452","","","","choice","","img/green_ll/choose11.jpg","1","155","green","0.5","0.5","0.5","w","",""
"animation","145","115565","0.0-5.0-2.70","63b6ef9027eb90f292852ee4","bdp_lott","Sun Mar 26 2023 22:31:40 GMT-0400 (Eastern Daylight Time)","257885","red","green","","","","","","","","","","155","","","","","","[{""stimulus"":""img/green_wl/1.jpg"",""time"":51},{""stimulus"":""img/green_wl/2.jpg"",""time"":102},{""stimulus"":""img/green_wl/3.jpg"",""time"":150},{""stimulus"":""img/green_wl/4.jpg"",""time"":200},{""stimulus"":""img/green_wl/5.jpg"",""time"":251},{""stimulus"":""img/green_wl/6.jpg"",""time"":301},{""stimulus"":""img/green_wl/7.jpg"",""time"":351},{""stimulus"":""img/green_wl/8.jpg"",""time"":400},{""stimulus"":""img/green_wl/9.jpg"",""time"":451},{""stimulus"":""img/green_wl/10.jpg"",""time"":501},{""stimulus"":""img/green_wl/11.jpg"",""time"":551}]","[]"
"image-keyboard-response","146","115845","0.0-5.0-1.71","63b6ef9027eb90f292852ee4","bdp_lott","Sun Mar 26 2023 22:31:40 GMT-0400 (Eastern Daylight Time)","257885","red","green","","279","","","","choice","","img/green_wl/choose11.jpg","1","154","green","0.5","0.5","0.5","l","",""
"animation","147","116446","0.0-5.0-2.71","63b6ef9027eb90f292852ee4","bdp_lott","Sun Mar 26 2023 22:31:40 GMT-0400 (Eastern Daylight Time)","257885","red","green","","","","","","","","","","154","","","","","","[{""stimulus"":""img/green_ll/1.jpg"",""time"":52},{""stimulus"":""img/green_ll/2.jpg"",""time"":101},{""stimulus"":""img/green_ll/3.jpg"",""time"":152},{""stimulus"":""img/green_ll/4.jpg"",""time"":201},{""stimulus"":""img/green_ll/5.jpg"",""time"":252},{""stimulus"":""img/green_ll/6.jpg"",""time"":301},{""stimulus"":""img/green_ll/7.jpg"",""time"":351},{""stimulus"":""img/green_ll/8.jpg"",""time"":401},{""stimulus"":""img/green_ll/9.jpg"",""time"":451},{""stimulus"":""img/green_ll/10.jpg"",""time"":501},{""stimulus"":""img/green_ll/11.jpg"",""time"":551}]","[]"
"image-keyboard-response","148","116895","0.0-5.0-1.72","63b6ef9027eb90f292852ee4","bdp_lott","Sun Mar 26 2023 22:31:40 GMT-0400 (Eastern Daylight Time)","257885","red","green","","448","","","","choice","","img/green_ll/choose11.jpg","1","153","green","0.5","0.5","0.5","w","",""
"animation","149","117497","0.0-5.0-2.72","63b6ef9027eb90f292852ee4","bdp_lott","Sun Mar 26 2023 22:31:40 GMT-0400 (Eastern Daylight Time)","257885","red","green","","","","","","","","","","153","","","","","","[{""stimulus"":""img/green_wl/1.jpg"",""time"":51},{""stimulus"":""img/green_wl/2.jpg"",""time"":100},{""stimulus"":""img/green_wl/3.jpg"",""time"":157},{""stimulus"":""img/green_wl/4.jpg"",""time"":200},{""stimulus"":""img/green_wl/5.jpg"",""time"":251},{""stimulus"":""img/green_wl/6.jpg"",""time"":301},{""stimulus"":""img/green_wl/7.jpg"",""time"":350},{""stimulus"":""img/green_wl/8.jpg"",""time"":401},{""stimulus"":""img/green_wl/9.jpg"",""time"":451},{""stimulus"":""img/green_wl/10.jpg"",""time"":501},{""stimulus"":""img/green_wl/11.jpg"",""time"":551}]","[]"
"image-keyboard-response","150","117852","0.0-5.0-1.73","63b6ef9027eb90f292852ee4","bdp_lott","Sun Mar 26 2023 22:31:40 GMT-0400 (Eastern Daylight Time)","257885","red","green","","355","","","","choice","","img/green_wl/choose11.jpg","1","152","green","0.5","0.5","0.5","w","",""
"animation","151","118453","0.0-5.0-2.73","63b6ef9027eb90f292852ee4","bdp_lott","Sun Mar 26 2023 22:31:40 GMT-0400 (Eastern Daylight Time)","257885","red","green","","","","","","","","","","152","","","","","","[{""stimulus"":""img/green_wl/1.jpg"",""time"":51},{""stimulus"":""img/green_wl/2.jpg"",""time"":102},{""stimulus"":""img/green_wl/3.jpg"",""time"":151},{""stimulus"":""img/green_wl/4.jpg"",""time"":202},{""stimulus"":""img/green_wl/5.jpg"",""time"":251},{""stimulus"":""img/green_wl/6.jpg"",""time"":302},{""stimulus"":""img/green_wl/7.jpg"",""time"":352},{""stimulus"":""img/green_wl/8.jpg"",""time"":402},{""stimulus"":""img/green_wl/9.jpg"",""time"":452},{""stimulus"":""img/green_wl/10.jpg"",""time"":502},{""stimulus"":""img/green_wl/11.jpg"",""time"":552}]","[]"
"image-keyboard-response","152","118849","0.0-5.0-1.74","63b6ef9027eb90f292852ee4","bdp_lott","Sun Mar 26 2023 22:31:40 GMT-0400 (Eastern Daylight Time)","257885","red","green","","395","","","","choice","","img/green_wl/choose11.jpg","1","151","green","0.5","0.5","0.5","w","",""
"animation","153","119451","0.0-5.0-2.74","63b6ef9027eb90f292852ee4","bdp_lott","Sun Mar 26 2023 22:31:40 GMT-0400 (Eastern Daylight Time)","257885","red","green","","","","","","","","","","151","","","","","","[{""stimulus"":""img/green_wl/1.jpg"",""time"":51},{""stimulus"":""img/green_wl/2.jpg"",""time"":102},{""stimulus"":""img/green_wl/3.jpg"",""time"":150},{""stimulus"":""img/green_wl/4.jpg"",""time"":201},{""stimulus"":""img/green_wl/5.jpg"",""time"":250},{""stimulus"":""img/green_wl/6.jpg"",""time"":301},{""stimulus"":""img/green_wl/7.jpg"",""time"":350},{""stimulus"":""img/green_wl/8.jpg"",""time"":402},{""stimulus"":""img/green_wl/9.jpg"",""time"":451},{""stimulus"":""img/green_wl/10.jpg"",""time"":500},{""stimulus"":""img/green_wl/11.jpg"",""time"":551}]","[]"
"image-keyboard-response","154","119820","0.0-5.0-1.75","63b6ef9027eb90f292852ee4","bdp_lott","Sun Mar 26 2023 22:31:40 GMT-0400 (Eastern Daylight Time)","257885","red","green","","368","","","","choice","","img/green_wl/choose11.jpg","1","150","green","0.5","0.5","0.5","l","",""
"animation","155","120421","0.0-5.0-2.75","63b6ef9027eb90f292852ee4","bdp_lott","Sun Mar 26 2023 22:31:40 GMT-0400 (Eastern Daylight Time)","257885","red","green","","","","","","","","","","150","","","","","","[{""stimulus"":""img/green_ll/1.jpg"",""time"":51},{""stimulus"":""img/green_ll/2.jpg"",""time"":102},{""stimulus"":""img/green_ll/3.jpg"",""time"":151},{""stimulus"":""img/green_ll/4.jpg"",""time"":201},{""stimulus"":""img/green_ll/5.jpg"",""time"":250},{""stimulus"":""img/green_ll/6.jpg"",""time"":301},{""stimulus"":""img/green_ll/7.jpg"",""time"":351},{""stimulus"":""img/green_ll/8.jpg"",""time"":401},{""stimulus"":""img/green_ll/9.jpg"",""time"":451},{""stimulus"":""img/green_ll/10.jpg"",""time"":501},{""stimulus"":""img/green_ll/11.jpg"",""time"":550}]","[]"
"image-keyboard-response","156","120873","0.0-5.0-1.76","63b6ef9027eb90f292852ee4","bdp_lott","Sun Mar 26 2023 22:31:40 GMT-0400 (Eastern Daylight Time)","257885","red","green","","450","","","","choice","","img/green_ll/choose11.jpg","1","149","green","0.5","0.1","0.1","l","",""
"animation","157","121474","0.0-5.0-2.76","63b6ef9027eb90f292852ee4","bdp_lott","Sun Mar 26 2023 22:31:40 GMT-0400 (Eastern Daylight Time)","257885","red","green","","","","","","","","","","149","","","","","","[{""stimulus"":""img/green_ll/1.jpg"",""time"":51},{""stimulus"":""img/green_ll/2.jpg"",""time"":100},{""stimulus"":""img/green_ll/3.jpg"",""time"":151},{""stimulus"":""img/green_ll/4.jpg"",""time"":202},{""stimulus"":""img/green_ll/5.jpg"",""time"":251},{""stimulus"":""img/green_ll/6.jpg"",""time"":301},{""stimulus"":""img/green_ll/7.jpg"",""time"":351},{""stimulus"":""img/green_ll/8.jpg"",""time"":402},{""stimulus"":""img/green_ll/9.jpg"",""time"":451},{""stimulus"":""img/green_ll/10.jpg"",""time"":501},{""stimulus"":""img/green_ll/11.jpg"",""time"":551}]","[]"
"image-keyboard-response","158","121836","0.0-5.0-1.77","63b6ef9027eb90f292852ee4","bdp_lott","Sun Mar 26 2023 22:31:40 GMT-0400 (Eastern Daylight Time)","257885","red","green","","361","","","","choice","","img/green_ll/choose11.jpg","1","148","green","0.5","0.1","0.1","l","",""
"animation","159","122437","0.0-5.0-2.77","63b6ef9027eb90f292852ee4","bdp_lott","Sun Mar 26 2023 22:31:40 GMT-0400 (Eastern Daylight Time)","257885","red","green","","","","","","","","","","148","","","","","","[{""stimulus"":""img/green_ll/1.jpg"",""time"":52},{""stimulus"":""img/green_ll/2.jpg"",""time"":101},{""stimulus"":""img/green_ll/3.jpg"",""time"":152},{""stimulus"":""img/green_ll/4.jpg"",""time"":201},{""stimulus"":""img/green_ll/5.jpg"",""time"":251},{""stimulus"":""img/green_ll/6.jpg"",""time"":302},{""stimulus"":""img/green_ll/7.jpg"",""time"":351},{""stimulus"":""img/green_ll/8.jpg"",""time"":402},{""stimulus"":""img/green_ll/9.jpg"",""time"":451},{""stimulus"":""img/green_ll/10.jpg"",""time"":502},{""stimulus"":""img/green_ll/11.jpg"",""time"":552}]","[]"
"image-keyboard-response","160","122794","0.0-5.0-1.78","63b6ef9027eb90f292852ee4","bdp_lott","Sun Mar 26 2023 22:31:40 GMT-0400 (Eastern Daylight Time)","257885","red","green","","357","","","","choice","","img/green_ll/choose11.jpg","1","147","green","0.5","0.1","0.1","l","",""
"animation","161","123395","0.0-5.0-2.78","63b6ef9027eb90f292852ee4","bdp_lott","Sun Mar 26 2023 22:31:40 GMT-0400 (Eastern Daylight Time)","257885","red","green","","","","","","","","","","147","","","","","","[{""stimulus"":""img/green_ll/1.jpg"",""time"":51},{""stimulus"":""img/green_ll/2.jpg"",""time"":101},{""stimulus"":""img/green_ll/3.jpg"",""time"":152},{""stimulus"":""img/green_ll/4.jpg"",""time"":201},{""stimulus"":""img/green_ll/5.jpg"",""time"":252},{""stimulus"":""img/green_ll/6.jpg"",""time"":301},{""stimulus"":""img/green_ll/7.jpg"",""time"":351},{""stimulus"":""img/green_ll/8.jpg"",""time"":401},{""stimulus"":""img/green_ll/9.jpg"",""time"":453},{""stimulus"":""img/green_ll/10.jpg"",""time"":501},{""stimulus"":""img/green_ll/11.jpg"",""time"":551}]","[]"
"image-keyboard-response","162","123558","0.0-5.0-1.79","63b6ef9027eb90f292852ee4","bdp_lott","Sun Mar 26 2023 22:31:40 GMT-0400 (Eastern Daylight Time)","257885","red","green","","162","","","","choice","","img/green_ll/choose11.jpg","1","146","green","0.5","0.1","0.1","l","",""
"animation","163","124159","0.0-5.0-2.79","63b6ef9027eb90f292852ee4","bdp_lott","Sun Mar 26 2023 22:31:40 GMT-0400 (Eastern Daylight Time)","257885","red","green","","","","","","","","","","146","","","","","","[{""stimulus"":""img/green_ll/1.jpg"",""time"":51},{""stimulus"":""img/green_ll/2.jpg"",""time"":101},{""stimulus"":""img/green_ll/3.jpg"",""time"":151},{""stimulus"":""img/green_ll/4.jpg"",""time"":201},{""stimulus"":""img/green_ll/5.jpg"",""time"":252},{""stimulus"":""img/green_ll/6.jpg"",""time"":302},{""stimulus"":""img/green_ll/7.jpg"",""time"":352},{""stimulus"":""img/green_ll/8.jpg"",""time"":401},{""stimulus"":""img/green_ll/9.jpg"",""time"":452},{""stimulus"":""img/green_ll/10.jpg"",""time"":501},{""stimulus"":""img/green_ll/11.jpg"",""time"":551}]","[]"
"image-keyboard-response","164","124439","0.0-5.0-1.80","63b6ef9027eb90f292852ee4","bdp_lott","Sun Mar 26 2023 22:31:40 GMT-0400 (Eastern Daylight Time)","257885","red","green","","279","","","","choice","","img/green_ll/choose11.jpg","2","145","red","0.5","0.1","0.5","w","",""
"animation","165","125041","0.0-5.0-2.80","63b6ef9027eb90f292852ee4","bdp_lott","Sun Mar 26 2023 22:31:40 GMT-0400 (Eastern Daylight Time)","257885","red","green","","","","","","","","","","145","","","","","","[{""stimulus"":""img/red_lw/1.jpg"",""time"":52},{""stimulus"":""img/red_lw/2.jpg"",""time"":101},{""stimulus"":""img/red_lw/3.jpg"",""time"":151},{""stimulus"":""img/red_lw/4.jpg"",""time"":202},{""stimulus"":""img/red_lw/5.jpg"",""time"":251},{""stimulus"":""img/red_lw/6.jpg"",""time"":302},{""stimulus"":""img/red_lw/7.jpg"",""time"":352},{""stimulus"":""img/red_lw/8.jpg"",""time"":401},{""stimulus"":""img/red_lw/9.jpg"",""time"":452},{""stimulus"":""img/red_lw/10.jpg"",""time"":502},{""stimulus"":""img/red_lw/11.jpg"",""time"":551}]","[]"
"image-keyboard-response","166","125291","0.0-5.0-1.81","63b6ef9027eb90f292852ee4","bdp_lott","Sun Mar 26 2023 22:31:40 GMT-0400 (Eastern Daylight Time)","257885","red","green","","249","","","","choice","","img/red_lw/choose11.jpg","2","144","red","0.5","0.1","0.5","w","",""
"animation","167","125892","0.0-5.0-2.81","63b6ef9027eb90f292852ee4","bdp_lott","Sun Mar 26 2023 22:31:40 GMT-0400 (Eastern Daylight Time)","257885","red","green","","","","","","","","","","144","","","","","","[{""stimulus"":""img/red_lw/1.jpg"",""time"":52},{""stimulus"":""img/red_lw/2.jpg"",""time"":102},{""stimulus"":""img/red_lw/3.jpg"",""time"":151},{""stimulus"":""img/red_lw/4.jpg"",""time"":201},{""stimulus"":""img/red_lw/5.jpg"",""time"":251},{""stimulus"":""img/red_lw/6.jpg"",""time"":302},{""stimulus"":""img/red_lw/7.jpg"",""time"":352},{""stimulus"":""img/red_lw/8.jpg"",""time"":401},{""stimulus"":""img/red_lw/9.jpg"",""time"":452},{""stimulus"":""img/red_lw/10.jpg"",""time"":501},{""stimulus"":""img/red_lw/11.jpg"",""time"":551}]","[]"
"image-keyboard-response","168","126534","0.0-5.0-1.82","63b6ef9027eb90f292852ee4","bdp_lott","Sun Mar 26 2023 22:31:40 GMT-0400 (Eastern Daylight Time)","257885","red","green","","642","","","","choice","","img/red_lw/choose11.jpg","2","143","red","0.5","0.1","0.5","l","",""
"animation","169","127135","0.0-5.0-2.82","63b6ef9027eb90f292852ee4","bdp_lott","Sun Mar 26 2023 22:31:40 GMT-0400 (Eastern Daylight Time)","257885","red","green","","","","","","","","","","143","","","","","","[{""stimulus"":""img/red_ll/1.jpg"",""time"":52},{""stimulus"":""img/red_ll/2.jpg"",""time"":101},{""stimulus"":""img/red_ll/3.jpg"",""time"":152},{""stimulus"":""img/red_ll/4.jpg"",""time"":202},{""stimulus"":""img/red_ll/5.jpg"",""time"":252},{""stimulus"":""img/red_ll/6.jpg"",""time"":302},{""stimulus"":""img/red_ll/7.jpg"",""time"":352},{""stimulus"":""img/red_ll/8.jpg"",""time"":402},{""stimulus"":""img/red_ll/9.jpg"",""time"":451},{""stimulus"":""img/red_ll/10.jpg"",""time"":502},{""stimulus"":""img/red_ll/11.jpg"",""time"":551}]","[]"
"image-keyboard-response","170","127434","0.0-5.0-1.83","63b6ef9027eb90f292852ee4","bdp_lott","Sun Mar 26 2023 22:31:40 GMT-0400 (Eastern Daylight Time)","257885","red","green","","298","","","","choice","","img/red_ll/choose11.jpg","2","142","red","0.5","0.1","0.5","w","",""
"animation","171","128036","0.0-5.0-2.83","63b6ef9027eb90f292852ee4","bdp_lott","Sun Mar 26 2023 22:31:40 GMT-0400 (Eastern Daylight Time)","257885","red","green","","","","","","","","","","142","","","","","","[{""stimulus"":""img/red_lw/1.jpg"",""time"":51},{""stimulus"":""img/red_lw/2.jpg"",""time"":101},{""stimulus"":""img/red_lw/3.jpg"",""time"":151},{""stimulus"":""img/red_lw/4.jpg"",""time"":201},{""stimulus"":""img/red_lw/5.jpg"",""time"":251},{""stimulus"":""img/red_lw/6.jpg"",""time"":302},{""stimulus"":""img/red_lw/7.jpg"",""time"":351},{""stimulus"":""img/red_lw/8.jpg"",""time"":401},{""stimulus"":""img/red_lw/9.jpg"",""time"":451},{""stimulus"":""img/red_lw/10.jpg"",""time"":502},{""stimulus"":""img/red_lw/11.jpg"",""time"":552}]","[]"
"image-keyboard-response","172","128349","0.0-5.0-1.84","63b6ef9027eb90f292852ee4","bdp_lott","Sun Mar 26 2023 22:31:40 GMT-0400 (Eastern Daylight Time)","257885","red","green","","312","","","","choice","","img/red_lw/choose11.jpg","2","141","red","0.5","0.1","0.5","l","",""
"animation","173","128949","0.0-5.0-2.84","63b6ef9027eb90f292852ee4","bdp_lott","Sun Mar 26 2023 22:31:40 GMT-0400 (Eastern Daylight Time)","257885","red","green","","","","","","","","","","141","","","","","","[{""stimulus"":""img/red_ll/1.jpg"",""time"":51},{""stimulus"":""img/red_ll/2.jpg"",""time"":101},{""stimulus"":""img/red_ll/3.jpg"",""time"":152},{""stimulus"":""img/red_ll/4.jpg"",""time"":201},{""stimulus"":""img/red_ll/5.jpg"",""time"":261},{""stimulus"":""img/red_ll/6.jpg"",""time"":302},{""stimulus"":""img/red_ll/7.jpg"",""time"":351},{""stimulus"":""img/red_ll/8.jpg"",""time"":402},{""stimulus"":""img/red_ll/9.jpg"",""time"":452},{""stimulus"":""img/red_ll/10.jpg"",""time"":502},{""stimulus"":""img/red_ll/11.jpg"",""time"":550}]","[]"
"image-keyboard-response","174","129317","0.0-5.0-1.85","63b6ef9027eb90f292852ee4","bdp_lott","Sun Mar 26 2023 22:31:40 GMT-0400 (Eastern Daylight Time)","257885","red","green","","367","","","","choice","","img/red_ll/choose11.jpg","2","140","red","0.5","0.1","0.5","w","",""
"animation","175","129917","0.0-5.0-2.85","63b6ef9027eb90f292852ee4","bdp_lott","Sun Mar 26 2023 22:31:40 GMT-0400 (Eastern Daylight Time)","257885","red","green","","","","","","","","","","140","","","","","","[{""stimulus"":""img/red_lw/1.jpg"",""time"":52},{""stimulus"":""img/red_lw/2.jpg"",""time"":101},{""stimulus"":""img/red_lw/3.jpg"",""time"":151},{""stimulus"":""img/red_lw/4.jpg"",""time"":201},{""stimulus"":""img/red_lw/5.jpg"",""time"":251},{""stimulus"":""img/red_lw/6.jpg"",""time"":301},{""stimulus"":""img/red_lw/7.jpg"",""time"":351},{""stimulus"":""img/red_lw/8.jpg"",""time"":401},{""stimulus"":""img/red_lw/9.jpg"",""time"":451},{""stimulus"":""img/red_lw/10.jpg"",""time"":501},{""stimulus"":""img/red_lw/11.jpg"",""time"":551}]","[]"
"image-keyboard-response","176","130206","0.0-5.0-1.86","63b6ef9027eb90f292852ee4","bdp_lott","Sun Mar 26 2023 22:31:40 GMT-0400 (Eastern Daylight Time)","257885","red","green","","288","","","","choice","","img/red_lw/choose11.jpg","2","139","red","0.5","0.1","0.5","l","",""
"animation","177","130807","0.0-5.0-2.86","63b6ef9027eb90f292852ee4","bdp_lott","Sun Mar 26 2023 22:31:40 GMT-0400 (Eastern Daylight Time)","257885","red","green","","","","","","","","","","139","","","","","","[{""stimulus"":""img/red_ll/1.jpg"",""time"":51},{""stimulus"":""img/red_ll/2.jpg"",""time"":101},{""stimulus"":""img/red_ll/3.jpg"",""time"":151},{""stimulus"":""img/red_ll/4.jpg"",""time"":201},{""stimulus"":""img/red_ll/5.jpg"",""time"":251},{""stimulus"":""img/red_ll/6.jpg"",""time"":302},{""stimulus"":""img/red_ll/7.jpg"",""time"":351},{""stimulus"":""img/red_ll/8.jpg"",""time"":401},{""stimulus"":""img/red_ll/9.jpg"",""time"":451},{""stimulus"":""img/red_ll/10.jpg"",""time"":502},{""stimulus"":""img/red_ll/11.jpg"",""time"":551}]","[]"
"image-keyboard-response","178","131069","0.0-5.0-1.87","63b6ef9027eb90f292852ee4","bdp_lott","Sun Mar 26 2023 22:31:40 GMT-0400 (Eastern Daylight Time)","257885","red","green","","261","","","","choice","","img/red_ll/choose11.jpg","2","138","red","0.5","0.1","0.5","l","",""
"animation","179","131670","0.0-5.0-2.87","63b6ef9027eb90f292852ee4","bdp_lott","Sun Mar 26 2023 22:31:40 GMT-0400 (Eastern Daylight Time)","257885","red","green","","","","","","","","","","138","","","","","","[{""stimulus"":""img/red_ll/1.jpg"",""time"":51},{""stimulus"":""img/red_ll/2.jpg"",""time"":101},{""stimulus"":""img/red_ll/3.jpg"",""time"":151},{""stimulus"":""img/red_ll/4.jpg"",""time"":201},{""stimulus"":""img/red_ll/5.jpg"",""time"":252},{""stimulus"":""img/red_ll/6.jpg"",""time"":301},{""stimulus"":""img/red_ll/7.jpg"",""time"":351},{""stimulus"":""img/red_ll/8.jpg"",""time"":401},{""stimulus"":""img/red_ll/9.jpg"",""time"":451},{""stimulus"":""img/red_ll/10.jpg"",""time"":501},{""stimulus"":""img/red_ll/11.jpg"",""time"":552}]","[]"
"image-keyboard-response","180","131901","0.0-5.0-1.88","63b6ef9027eb90f292852ee4","bdp_lott","Sun Mar 26 2023 22:31:40 GMT-0400 (Eastern Daylight Time)","257885","red","green","","230","","","","choice","","img/red_ll/choose11.jpg","2","137","red","0.5","0.1","0.5","l","",""
"animation","181","132501","0.0-5.0-2.88","63b6ef9027eb90f292852ee4","bdp_lott","Sun Mar 26 2023 22:31:40 GMT-0400 (Eastern Daylight Time)","257885","red","green","","","","","","","","","","137","","","","","","[{""stimulus"":""img/red_ll/1.jpg"",""time"":52},{""stimulus"":""img/red_ll/2.jpg"",""time"":101},{""stimulus"":""img/red_ll/3.jpg"",""time"":151},{""stimulus"":""img/red_ll/4.jpg"",""time"":201},{""stimulus"":""img/red_ll/5.jpg"",""time"":251},{""stimulus"":""img/red_ll/6.jpg"",""time"":308},{""stimulus"":""img/red_ll/7.jpg"",""time"":351},{""stimulus"":""img/red_ll/8.jpg"",""time"":402},{""stimulus"":""img/red_ll/9.jpg"",""time"":451},{""stimulus"":""img/red_ll/10.jpg"",""time"":500},{""stimulus"":""img/red_ll/11.jpg"",""time"":551}]","[]"
"image-keyboard-response","182","132731","0.0-5.0-1.89","63b6ef9027eb90f292852ee4","bdp_lott","Sun Mar 26 2023 22:31:40 GMT-0400 (Eastern Daylight Time)","257885","red","green","","229","","","","choice","","img/red_ll/choose11.jpg","2","136","red","0.5","0.1","0.5","w","",""
"animation","183","133332","0.0-5.0-2.89","63b6ef9027eb90f292852ee4","bdp_lott","Sun Mar 26 2023 22:31:40 GMT-0400 (Eastern Daylight Time)","257885","red","green","","","","","","","","","","136","","","","","","[{""stimulus"":""img/red_lw/1.jpg"",""time"":51},{""stimulus"":""img/red_lw/2.jpg"",""time"":101},{""stimulus"":""img/red_lw/3.jpg"",""time"":152},{""stimulus"":""img/red_lw/4.jpg"",""time"":201},{""stimulus"":""img/red_lw/5.jpg"",""time"":252},{""stimulus"":""img/red_lw/6.jpg"",""time"":302},{""stimulus"":""img/red_lw/7.jpg"",""time"":351},{""stimulus"":""img/red_lw/8.jpg"",""time"":401},{""stimulus"":""img/red_lw/9.jpg"",""time"":453},{""stimulus"":""img/red_lw/10.jpg"",""time"":501},{""stimulus"":""img/red_lw/11.jpg"",""time"":551}]","[]"
"image-keyboard-response","184","133527","0.0-5.0-1.90","63b6ef9027eb90f292852ee4","bdp_lott","Sun Mar 26 2023 22:31:40 GMT-0400 (Eastern Daylight Time)","257885","red","green","","195","","","","choice","","img/red_lw/choose11.jpg","2","135","red","0.5","0.1","0.5","w","",""
"animation","185","134129","0.0-5.0-2.90","63b6ef9027eb90f292852ee4","bdp_lott","Sun Mar 26 2023 22:31:40 GMT-0400 (Eastern Daylight Time)","257885","red","green","","","","","","","","","","135","","","","","","[{""stimulus"":""img/red_lw/1.jpg"",""time"":52},{""stimulus"":""img/red_lw/2.jpg"",""time"":102},{""stimulus"":""img/red_lw/3.jpg"",""time"":151},{""stimulus"":""img/red_lw/4.jpg"",""time"":201},{""stimulus"":""img/red_lw/5.jpg"",""time"":252},{""stimulus"":""img/red_lw/6.jpg"",""time"":302},{""stimulus"":""img/red_lw/7.jpg"",""time"":351},{""stimulus"":""img/red_lw/8.jpg"",""time"":401},{""stimulus"":""img/red_lw/9.jpg"",""time"":451},{""stimulus"":""img/red_lw/10.jpg"",""time"":502},{""stimulus"":""img/red_lw/11.jpg"",""time"":551}]","[]"
"image-keyboard-response","186","134333","0.0-5.0-1.91","63b6ef9027eb90f292852ee4","bdp_lott","Sun Mar 26 2023 22:31:40 GMT-0400 (Eastern Daylight Time)","257885","red","green","","204","","","","choice","","img/red_lw/choose11.jpg","2","134","red","0.5","0.1","0.5","l","",""
"animation","187","134935","0.0-5.0-2.91","63b6ef9027eb90f292852ee4","bdp_lott","Sun Mar 26 2023 22:31:40 GMT-0400 (Eastern Daylight Time)","257885","red","green","","","","","","","","","","134","","","","","","[{""stimulus"":""img/red_ll/1.jpg"",""time"":51},{""stimulus"":""img/red_ll/2.jpg"",""time"":101},{""stimulus"":""img/red_ll/3.jpg"",""time"":151},{""stimulus"":""img/red_ll/4.jpg"",""time"":201},{""stimulus"":""img/red_ll/5.jpg"",""time"":252},{""stimulus"":""img/red_ll/6.jpg"",""time"":302},{""stimulus"":""img/red_ll/7.jpg"",""time"":351},{""stimulus"":""img/red_ll/8.jpg"",""time"":401},{""stimulus"":""img/red_ll/9.jpg"",""time"":452},{""stimulus"":""img/red_ll/10.jpg"",""time"":502},{""stimulus"":""img/red_ll/11.jpg"",""time"":551}]","[]"
"image-keyboard-response","188","135179","0.0-5.0-1.92","63b6ef9027eb90f292852ee4","bdp_lott","Sun Mar 26 2023 22:31:40 GMT-0400 (Eastern Daylight Time)","257885","red","green","","243","","","","choice","","img/red_ll/choose11.jpg","2","133","red","0.5","0.1","0.5","l","",""
"animation","189","135780","0.0-5.0-2.92","63b6ef9027eb90f292852ee4","bdp_lott","Sun Mar 26 2023 22:31:40 GMT-0400 (Eastern Daylight Time)","257885","red","green","","","","","","","","","","133","","","","","","[{""stimulus"":""img/red_ll/1.jpg"",""time"":51},{""stimulus"":""img/red_ll/2.jpg"",""time"":100},{""stimulus"":""img/red_ll/3.jpg"",""time"":151},{""stimulus"":""img/red_ll/4.jpg"",""time"":200},{""stimulus"":""img/red_ll/5.jpg"",""time"":251},{""stimulus"":""img/red_ll/6.jpg"",""time"":300},{""stimulus"":""img/red_ll/7.jpg"",""time"":351},{""stimulus"":""img/red_ll/8.jpg"",""time"":401},{""stimulus"":""img/red_ll/9.jpg"",""time"":450},{""stimulus"":""img/red_ll/10.jpg"",""time"":501},{""stimulus"":""img/red_ll/11.jpg"",""time"":551}]","[]"
"image-keyboard-response","190","136121","0.0-5.0-1.93","63b6ef9027eb90f292852ee4","bdp_lott","Sun Mar 26 2023 22:31:40 GMT-0400 (Eastern Daylight Time)","257885","red","green","","341","","","","choice","","img/red_ll/choose11.jpg","2","132","red","0.5","0.1","0.5","l","",""
