"trial_type","trial_index","time_elapsed","internal_node_id","subject_id","task","startTime","totalTime","fairMachine","unfairMachine","view_history","rt","event","trial","time","trialtype","success","stimulus","key_press","roundsLeft","chosen","pFairMachWin","pUnfairMachWin","pTrialWin","outcome","animation_sequence","responses"
"pavlovia","0","5","0.0-0.0","63ced2da9cad1ae3f98ce914","bdp_lott","Sun Mar 26 2023 13:30:55 GMT-0700 (Pacific Daylight Time)","217802","green","red","","","","","","","","","","","","","","","","",""
"instructions","1","2036","0.0-1.0","63ced2da9cad1ae3f98ce914","bdp_lott","Sun Mar 26 2023 13:30:55 GMT-0700 (Pacific Daylight Time)","217802","green","red","[{""page_index"":0,""viewing_time"":2030}]","2030","","","","","","","","","","","","","","",""
"","","","","63ced2da9cad1ae3f98ce914","bdp_lott","Sun Mar 26 2023 13:30:55 GMT-0700 (Pacific Daylight Time)","217802","green","red","","","fullscreenenter","2","4810","fullscreenenter","","","","","","","","","","",""
"fullscreen","2","5806","0.0-2.0","63ced2da9cad1ae3f98ce914","bdp_lott","Sun Mar 26 2023 13:30:55 GMT-0700 (Pacific Daylight Time)","217802","green","red","","","","","","","true","","","","","","","","","",""
"instructions","3","24513","0.0-4.0","63ced2da9cad1ae3f98ce914","bdp_lott","Sun Mar 26 2023 13:30:55 GMT-0700 (Pacific Daylight Time)","217802","green","red","[{""page_index"":0,""viewing_time"":18706}]","18706","","","","","","","","","","","","","","",""
"image-keyboard-response","4","27945","0.0-5.0-1.0","63ced2da9cad1ae3f98ce914","bdp_lott","Sun Mar 26 2023 13:30:55 GMT-0700 (Pacific Daylight Time)","217802","green","red","","3430","","","","choice","","img/red_ll/initchoose11.jpg","1","225","green","0.5","0.5","0.5","w","",""
"animation","5","28548","0.0-5.0-2.0","63ced2da9cad1ae3f98ce914","bdp_lott","Sun Mar 26 2023 13:30:55 GMT-0700 (Pacific Daylight Time)","217802","green","red","","","","","","","","","","225","","","","","","[{""stimulus"":""img/green_wl/1.jpg"",""time"":62},{""stimulus"":""img/green_wl/2.jpg"",""time"":108},{""stimulus"":""img/green_wl/3.jpg"",""time"":155},{""stimulus"":""img/green_wl/4.jpg"",""time"":203},{""stimulus"":""img/green_wl/5.jpg"",""time"":259},{""stimulus"":""img/green_wl/6.jpg"",""time"":309},{""stimulus"":""img/green_wl/7.jpg"",""time"":358},{""stimulus"":""img/green_wl/8.jpg"",""time"":404},{""stimulus"":""img/green_wl/9.jpg"",""time"":463},{""stimulus"":""img/green_wl/10.jpg"",""time"":509},{""stimulus"":""img/green_wl/11.jpg"",""time"":555}]","[]"
"image-keyboard-response","6","29926","0.0-5.0-1.1","63ced2da9cad1ae3f98ce914","bdp_lott","Sun Mar 26 2023 13:30:55 GMT-0700 (Pacific Daylight Time)","217802","green","red","","1377","","","","choice","","img/green_wl/choose11.jpg","2","224","red","0.5","0.5","0.5","w","",""
"animation","7","30533","0.0-5.0-2.1","63ced2da9cad1ae3f98ce914","bdp_lott","Sun Mar 26 2023 13:30:55 GMT-0700 (Pacific Daylight Time)","217802","green","red","","","","","","","","","","224","","","","","","[{""stimulus"":""img/red_ww/1.jpg"",""time"":56},{""stimulus"":""img/red_ww/2.jpg"",""time"":102},{""stimulus"":""img/red_ww/3.jpg"",""time"":160},{""stimulus"":""img/red_ww/4.jpg"",""time"":208},{""stimulus"":""img/red_ww/5.jpg"",""time"":259},{""stimulus"":""img/red_ww/6.jpg"",""time"":305},{""stimulus"":""img/red_ww/7.jpg"",""time"":359},{""stimulus"":""img/red_ww/8.jpg"",""time"":410},{""stimulus"":""img/red_ww/9.jpg"",""time"":455},{""stimulus"":""img/red_ww/10.jpg"",""time"":503},{""stimulus"":""img/red_ww/11.jpg"",""time"":561}]","[]"
"image-keyboard-response","8","31281","0.0-5.0-1.2","63ced2da9cad1ae3f98ce914","bdp_lott","Sun Mar 26 2023 13:30:55 GMT-0700 (Pacific Daylight Time)","217802","green","red","","747","","","","choice","","img/red_ww/choose11.jpg","1","223","green","0.5","0.5","0.5","w","",""
"animation","9","31886","0.0-5.0-2.2","63ced2da9cad1ae3f98ce914","bdp_lott","Sun Mar 26 2023 13:30:55 GMT-0700 (Pacific Daylight Time)","217802","green","red","","","","","","","","","","223","","","","","","[{""stimulus"":""img/green_ww/1.jpg"",""time"":51},{""stimulus"":""img/green_ww/2.jpg"",""time"":111},{""stimulus"":""img/green_ww/3.jpg"",""time"":158},{""stimulus"":""img/green_ww/4.jpg"",""time"":204},{""stimulus"":""img/green_ww/5.jpg"",""time"":256},{""stimulus"":""img/green_ww/6.jpg"",""time"":308},{""stimulus"":""img/green_ww/7.jpg"",""time"":355},{""stimulus"":""img/green_ww/8.jpg"",""time"":408},{""stimulus"":""img/green_ww/9.jpg"",""time"":454},{""stimulus"":""img/green_ww/10.jpg"",""time"":512},{""stimulus"":""img/green_ww/11.jpg"",""time"":558}]","[]"
"image-keyboard-response","10","32441","0.0-5.0-1.3","63ced2da9cad1ae3f98ce914","bdp_lott","Sun Mar 26 2023 13:30:55 GMT-0700 (Pacific Daylight Time)","217802","green","red","","554","","","","choice","","img/green_ww/choose11.jpg","2","222","red","0.5","0.5","0.5","l","",""
"animation","11","33047","0.0-5.0-2.3","63ced2da9cad1ae3f98ce914","bdp_lott","Sun Mar 26 2023 13:30:55 GMT-0700 (Pacific Daylight Time)","217802","green","red","","","","","","","","","","222","","","","","","[{""stimulus"":""img/red_wl/1.jpg"",""time"":54},{""stimulus"":""img/red_wl/2.jpg"",""time"":101},{""stimulus"":""img/red_wl/3.jpg"",""time"":159},{""stimulus"":""img/red_wl/4.jpg"",""time"":205},{""stimulus"":""img/red_wl/5.jpg"",""time"":252},{""stimulus"":""img/red_wl/6.jpg"",""time"":310},{""stimulus"":""img/red_wl/7.jpg"",""time"":356},{""stimulus"":""img/red_wl/8.jpg"",""time"":408},{""stimulus"":""img/red_wl/9.jpg"",""time"":455},{""stimulus"":""img/red_wl/10.jpg"",""time"":507},{""stimulus"":""img/red_wl/11.jpg"",""time"":559}]","[]"
"image-keyboard-response","12","33650","0.0-5.0-1.4","63ced2da9cad1ae3f98ce914","bdp_lott","Sun Mar 26 2023 13:30:55 GMT-0700 (Pacific Daylight Time)","217802","green","red","","603","","","","choice","","img/red_wl/choose11.jpg","1","221","green","0.5","0.5","0.5","l","",""
"animation","13","34254","0.0-5.0-2.4","63ced2da9cad1ae3f98ce914","bdp_lott","Sun Mar 26 2023 13:30:55 GMT-0700 (Pacific Daylight Time)","217802","green","red","","","","","","","","","","221","","","","","","[{""stimulus"":""img/green_ll/1.jpg"",""time"":59},{""stimulus"":""img/green_ll/2.jpg"",""time"":111},{""stimulus"":""img/green_ll/3.jpg"",""time"":157},{""stimulus"":""img/green_ll/4.jpg"",""time"":204},{""stimulus"":""img/green_ll/5.jpg"",""time"":254},{""stimulus"":""img/green_ll/6.jpg"",""time"":308},{""stimulus"":""img/green_ll/7.jpg"",""time"":359},{""stimulus"":""img/green_ll/8.jpg"",""time"":407},{""stimulus"":""img/green_ll/9.jpg"",""time"":459},{""stimulus"":""img/green_ll/10.jpg"",""time"":511},{""stimulus"":""img/green_ll/11.jpg"",""time"":558}]","[]"
"image-keyboard-response","14","34779","0.0-5.0-1.5","63ced2da9cad1ae3f98ce914","bdp_lott","Sun Mar 26 2023 13:30:55 GMT-0700 (Pacific Daylight Time)","217802","green","red","","524","","","","choice","","img/green_ll/choose11.jpg","2","220","red","0.5","0.5","0.5","w","",""
"animation","15","35381","0.0-5.0-2.5","63ced2da9cad1ae3f98ce914","bdp_lott","Sun Mar 26 2023 13:30:55 GMT-0700 (Pacific Daylight Time)","217802","green","red","","","","","","","","","","220","","","","","","[{""stimulus"":""img/red_lw/1.jpg"",""time"":61},{""stimulus"":""img/red_lw/2.jpg"",""time"":107},{""stimulus"":""img/red_lw/3.jpg"",""time"":154},{""stimulus"":""img/red_lw/4.jpg"",""time"":203},{""stimulus"":""img/red_lw/5.jpg"",""time"":258},{""stimulus"":""img/red_lw/6.jpg"",""time"":304},{""stimulus"":""img/red_lw/7.jpg"",""time"":357},{""stimulus"":""img/red_lw/8.jpg"",""time"":402},{""stimulus"":""img/red_lw/9.jpg"",""time"":461},{""stimulus"":""img/red_lw/10.jpg"",""time"":508},{""stimulus"":""img/red_lw/11.jpg"",""time"":552}]","[]"
"image-keyboard-response","16","36128","0.0-5.0-1.6","63ced2da9cad1ae3f98ce914","bdp_lott","Sun Mar 26 2023 13:30:55 GMT-0700 (Pacific Daylight Time)","217802","green","red","","747","","","","choice","","img/red_lw/choose11.jpg","1","219","green","0.5","0.5","0.5","l","",""
"animation","17","36733","0.0-5.0-2.6","63ced2da9cad1ae3f98ce914","bdp_lott","Sun Mar 26 2023 13:30:55 GMT-0700 (Pacific Daylight Time)","217802","green","red","","","","","","","","","","219","","","","","","[{""stimulus"":""img/green_lw/1.jpg"",""time"":54},{""stimulus"":""img/green_lw/2.jpg"",""time"":105},{""stimulus"":""img/green_lw/3.jpg"",""time"":159},{""stimulus"":""img/green_lw/4.jpg"",""time"":204},{""stimulus"":""img/green_lw/5.jpg"",""time"":257},{""stimulus"":""img/green_lw/6.jpg"",""time"":309},{""stimulus"":""img/green_lw/7.jpg"",""time"":359},{""stimulus"":""img/green_lw/8.jpg"",""time"":408},{""stimulus"":""img/green_lw/9.jpg"",""time"":452},{""stimulus"":""img/green_lw/10.jpg"",""time"":501},{""stimulus"":""img/green_lw/11.jpg"",""time"":559}]","[]"
"image-keyboard-response","18","37337","0.0-5.0-1.7","63ced2da9cad1ae3f98ce914","bdp_lott","Sun Mar 26 2023 13:30:55 GMT-0700 (Pacific Daylight Time)","217802","green","red","","604","","","","choice","","img/green_lw/choose11.jpg","2","218","red","0.5","0.5","0.5","l","",""
"animation","19","37940","0.0-5.0-2.7","63ced2da9cad1ae3f98ce914","bdp_lott","Sun Mar 26 2023 13:30:55 GMT-0700 (Pacific Daylight Time)","217802","green","red","","","","","","","","","","218","","","","","","[{""stimulus"":""img/red_ll/1.jpg"",""time"":52},{""stimulus"":""img/red_ll/2.jpg"",""time"":110},{""stimulus"":""img/red_ll/3.jpg"",""time"":157},{""stimulus"":""img/red_ll/4.jpg"",""time"":206},{""stimulus"":""img/red_ll/5.jpg"",""time"":255},{""stimulus"":""img/red_ll/6.jpg"",""time"":308},{""stimulus"":""img/red_ll/7.jpg"",""time"":360},{""stimulus"":""img/red_ll/8.jpg"",""time"":406},{""stimulus"":""img/red_ll/9.jpg"",""time"":453},{""stimulus"":""img/red_ll/10.jpg"",""time"":511},{""stimulus"":""img/red_ll/11.jpg"",""time"":557}]","[]"
"image-keyboard-response","20","38485","0.0-5.0-1.8","63ced2da9cad1ae3f98ce914","bdp_lott","Sun Mar 26 2023 13:30:55 GMT-0700 (Pacific Daylight Time)","217802","green","red","","544","","","","choice","","img/red_ll/choose11.jpg","1","217","green","0.5","0.5","0.5","l","",""
"animation","21","39096","0.0-5.0-2.8","63ced2da9cad1ae3f98ce914","bdp_lott","Sun Mar 26 2023 13:30:55 GMT-0700 (Pacific Daylight Time)","217802","green","red","","","","","","","","","","217","","","","","","[{""stimulus"":""img/green_ll/1.jpg"",""time"":59},{""stimulus"":""img/green_ll/2.jpg"",""time"":105},{""stimulus"":""img/green_ll/3.jpg"",""time"":152},{""stimulus"":""img/green_ll/4.jpg"",""time"":210},{""stimulus"":""img/green_ll/5.jpg"",""time"":251},{""stimulus"":""img/green_ll/6.jpg"",""time"":309},{""stimulus"":""img/green_ll/7.jpg"",""time"":355},{""stimulus"":""img/green_ll/8.jpg"",""time"":408},{""stimulus"":""img/green_ll/9.jpg"",""time"":460},{""stimulus"":""img/green_ll/10.jpg"",""time"":506},{""stimulus"":""img/green_ll/11.jpg"",""time"":553}]","[]"
"image-keyboard-response","22","39560","0.0-5.0-1.9","63ced2da9cad1ae3f98ce914","bdp_lott","Sun Mar 26 2023 13:30:55 GMT-0700 (Pacific Daylight Time)","217802","green","red","","464","","","","choice","","img/green_ll/choose11.jpg","2","216","red","0.5","0.5","0.5","w","",""
"animation","23","40166","0.0-5.0-2.9","63ced2da9cad1ae3f98ce914","bdp_lott","Sun Mar 26 2023 13:30:55 GMT-0700 (Pacific Daylight Time)","217802","green","red","","","","","","","","","","216","","","","","","[{""stimulus"":""img/red_lw/1.jpg"",""time"":53},{""stimulus"":""img/red_lw/2.jpg"",""time"":105},{""stimulus"":""img/red_lw/3.jpg"",""time"":157},{""stimulus"":""img/red_lw/4.jpg"",""time"":209},{""stimulus"":""img/red_lw/5.jpg"",""time"":256},{""stimulus"":""img/red_lw/6.jpg"",""time"":314},{""stimulus"":""img/red_lw/7.jpg"",""time"":360},{""stimulus"":""img/red_lw/8.jpg"",""time"":407},{""stimulus"":""img/red_lw/9.jpg"",""time"":453},{""stimulus"":""img/red_lw/10.jpg"",""time"":505},{""stimulus"":""img/red_lw/11.jpg"",""time"":558}]","[]"
"image-keyboard-response","24","41145","0.0-5.0-1.10","63ced2da9cad1ae3f98ce914","bdp_lott","Sun Mar 26 2023 13:30:55 GMT-0700 (Pacific Daylight Time)","217802","green","red","","978","","","","choice","","img/red_lw/choose11.jpg","2","215","red","0.5","0.5","0.5","l","",""
"animation","25","41749","0.0-5.0-2.10","63ced2da9cad1ae3f98ce914","bdp_lott","Sun Mar 26 2023 13:30:55 GMT-0700 (Pacific Daylight Time)","217802","green","red","","","","","","","","","","215","","","","","","[{""stimulus"":""img/red_ll/1.jpg"",""time"":52},{""stimulus"":""img/red_ll/2.jpg"",""time"":110},{""stimulus"":""img/red_ll/3.jpg"",""time"":157},{""stimulus"":""img/red_ll/4.jpg"",""time"":204},{""stimulus"":""img/red_ll/5.jpg"",""time"":255},{""stimulus"":""img/red_ll/6.jpg"",""time"":308},{""stimulus"":""img/red_ll/7.jpg"",""time"":360},{""stimulus"":""img/red_ll/8.jpg"",""time"":406},{""stimulus"":""img/red_ll/9.jpg"",""time"":453},{""stimulus"":""img/red_ll/10.jpg"",""time"":511},{""stimulus"":""img/red_ll/11.jpg"",""time"":557}]","[]"
"image-keyboard-response","26","42194","0.0-5.0-1.11","63ced2da9cad1ae3f98ce914","bdp_lott","Sun Mar 26 2023 13:30:55 GMT-0700 (Pacific Daylight Time)","217802","green","red","","445","","","","choice","","img/red_ll/choose11.jpg","1","214","green","0.5","0.5","0.5","w","",""
"animation","27","42799","0.0-5.0-2.11","63ced2da9cad1ae3f98ce914","bdp_lott","Sun Mar 26 2023 13:30:55 GMT-0700 (Pacific Daylight Time)","217802","green","red","","","","","","","","","","214","","","","","","[{""stimulus"":""img/green_wl/1.jpg"",""time"":58},{""stimulus"":""img/green_wl/2.jpg"",""time"":111},{""stimulus"":""img/green_wl/3.jpg"",""time"":158},{""stimulus"":""img/green_wl/4.jpg"",""time"":204},{""stimulus"":""img/green_wl/5.jpg"",""time"":250},{""stimulus"":""img/green_wl/6.jpg"",""time"":308},{""stimulus"":""img/green_wl/7.jpg"",""time"":355},{""stimulus"":""img/green_wl/8.jpg"",""time"":405},{""stimulus"":""img/green_wl/9.jpg"",""time"":459},{""stimulus"":""img/green_wl/10.jpg"",""time"":506},{""stimulus"":""img/green_wl/11.jpg"",""time"":558}]","[]"
"image-keyboard-response","28","43425","0.0-5.0-1.12","63ced2da9cad1ae3f98ce914","bdp_lott","Sun Mar 26 2023 13:30:55 GMT-0700 (Pacific Daylight Time)","217802","green","red","","625","","","","choice","","img/green_wl/choose11.jpg","1","213","green","0.5","0.5","0.5","w","",""
"animation","29","44030","0.0-5.0-2.12","63ced2da9cad1ae3f98ce914","bdp_lott","Sun Mar 26 2023 13:30:55 GMT-0700 (Pacific Daylight Time)","217802","green","red","","","","","","","","","","213","","","","","","[{""stimulus"":""img/green_wl/1.jpg"",""time"":53},{""stimulus"":""img/green_wl/2.jpg"",""time"":111},{""stimulus"":""img/green_wl/3.jpg"",""time"":152},{""stimulus"":""img/green_wl/4.jpg"",""time"":204},{""stimulus"":""img/green_wl/5.jpg"",""time"":255},{""stimulus"":""img/green_wl/6.jpg"",""time"":308},{""stimulus"":""img/green_wl/7.jpg"",""time"":355},{""stimulus"":""img/green_wl/8.jpg"",""time"":407},{""stimulus"":""img/green_wl/9.jpg"",""time"":453},{""stimulus"":""img/green_wl/10.jpg"",""time"":511},{""stimulus"":""img/green_wl/11.jpg"",""time"":558}]","[]"
"image-keyboard-response","30","44457","0.0-5.0-1.13","63ced2da9cad1ae3f98ce914","bdp_lott","Sun Mar 26 2023 13:30:55 GMT-0700 (Pacific Daylight Time)","217802","green","red","","425","","","","choice","","img/green_wl/choose11.jpg","2","212","red","0.5","0.5","0.5","w","",""
"animation","31","45064","0.0-5.0-2.13","63ced2da9cad1ae3f98ce914","bdp_lott","Sun Mar 26 2023 13:30:55 GMT-0700 (Pacific Daylight Time)","217802","green","red","","","","","","","","","","212","","","","","","[{""stimulus"":""img/red_ww/1.jpg"",""time"":55},{""stimulus"":""img/red_ww/2.jpg"",""time"":112},{""stimulus"":""img/red_ww/3.jpg"",""time"":160},{""stimulus"":""img/red_ww/4.jpg"",""time"":206},{""stimulus"":""img/red_ww/5.jpg"",""time"":252},{""stimulus"":""img/red_ww/6.jpg"",""time"":310},{""stimulus"":""img/red_ww/7.jpg"",""time"":357},{""stimulus"":""img/red_ww/8.jpg"",""time"":409},{""stimulus"":""img/red_ww/9.jpg"",""time"":455},{""stimulus"":""img/red_ww/10.jpg"",""time"":508},{""stimulus"":""img/red_ww/11.jpg"",""time"":560}]","[]"
"image-keyboard-response","32","45495","0.0-5.0-1.14","63ced2da9cad1ae3f98ce914","bdp_lott","Sun Mar 26 2023 13:30:55 GMT-0700 (Pacific Daylight Time)","217802","green","red","","431","","","","choice","","img/red_ww/choose11.jpg","2","211","red","0.5","0.5","0.5","l","",""
"animation","33","46102","0.0-5.0-2.14","63ced2da9cad1ae3f98ce914","bdp_lott","Sun Mar 26 2023 13:30:55 GMT-0700 (Pacific Daylight Time)","217802","green","red","","","","","","","","","","211","","","","","","[{""stimulus"":""img/red_wl/1.jpg"",""time"":55},{""stimulus"":""img/red_wl/2.jpg"",""time"":102},{""stimulus"":""img/red_wl/3.jpg"",""time"":159},{""stimulus"":""img/red_wl/4.jpg"",""time"":206},{""stimulus"":""img/red_wl/5.jpg"",""time"":253},{""stimulus"":""img/red_wl/6.jpg"",""time"":305},{""stimulus"":""img/red_wl/7.jpg"",""time"":357},{""stimulus"":""img/red_wl/8.jpg"",""time"":410},{""stimulus"":""img/red_wl/9.jpg"",""time"":456},{""stimulus"":""img/red_wl/10.jpg"",""time"":502},{""stimulus"":""img/red_wl/11.jpg"",""time"":560}]","[]"
"image-keyboard-response","34","46521","0.0-5.0-1.15","63ced2da9cad1ae3f98ce914","bdp_lott","Sun Mar 26 2023 13:30:55 GMT-0700 (Pacific Daylight Time)","217802","green","red","","418","","","","choice","","img/red_wl/choose11.jpg","1","210","green","0.5","0.5","0.5","l","",""
"animation","35","47130","0.0-5.0-2.15","63ced2da9cad1ae3f98ce914","bdp_lott","Sun Mar 26 2023 13:30:55 GMT-0700 (Pacific Daylight Time)","217802","green","red","","","","","","","","","","210","","","","","","[{""stimulus"":""img/green_ll/1.jpg"",""time"":51},{""stimulus"":""img/green_ll/2.jpg"",""time"":109},{""stimulus"":""img/green_ll/3.jpg"",""time"":155},{""stimulus"":""img/green_ll/4.jpg"",""time"":208},{""stimulus"":""img/green_ll/5.jpg"",""time"":254},{""stimulus"":""img/green_ll/6.jpg"",""time"":312},{""stimulus"":""img/green_ll/7.jpg"",""time"":359},{""stimulus"":""img/green_ll/8.jpg"",""time"":405},{""stimulus"":""img/green_ll/9.jpg"",""time"":452},{""stimulus"":""img/green_ll/10.jpg"",""time"":510},{""stimulus"":""img/green_ll/11.jpg"",""time"":556}]","[]"
"image-keyboard-response","36","47361","0.0-5.0-1.16","63ced2da9cad1ae3f98ce914","bdp_lott","Sun Mar 26 2023 13:30:55 GMT-0700 (Pacific Daylight Time)","217802","green","red","","231","","","","choice","","img/green_ll/choose11.jpg","1","209","green","0.5","0.5","0.5","l","",""
"animation","37","47966","0.0-5.0-2.16","63ced2da9cad1ae3f98ce914","bdp_lott","Sun Mar 26 2023 13:30:55 GMT-0700 (Pacific Daylight Time)","217802","green","red","","","","","","","","","","209","","","","","","[{""stimulus"":""img/green_ll/1.jpg"",""time"":53},{""stimulus"":""img/green_ll/2.jpg"",""time"":111},{""stimulus"":""img/green_ll/3.jpg"",""time"":157},{""stimulus"":""img/green_ll/4.jpg"",""time"":203},{""stimulus"":""img/green_ll/5.jpg"",""time"":256},{""stimulus"":""img/green_ll/6.jpg"",""time"":308},{""stimulus"":""img/green_ll/7.jpg"",""time"":360},{""stimulus"":""img/green_ll/8.jpg"",""time"":407},{""stimulus"":""img/green_ll/9.jpg"",""time"":453},{""stimulus"":""img/green_ll/10.jpg"",""time"":511},{""stimulus"":""img/green_ll/11.jpg"",""time"":558}]","[]"
"image-keyboard-response","38","48369","0.0-5.0-1.17","63ced2da9cad1ae3f98ce914","bdp_lott","Sun Mar 26 2023 13:30:55 GMT-0700 (Pacific Daylight Time)","217802","green","red","","403","","","","choice","","img/green_ll/choose11.jpg","2","208","red","0.5","0.5","0.5","w","",""
"animation","39","48976","0.0-5.0-2.17","63ced2da9cad1ae3f98ce914","bdp_lott","Sun Mar 26 2023 13:30:55 GMT-0700 (Pacific Daylight Time)","217802","green","red","","","","","","","","","","208","","","","","","[{""stimulus"":""img/red_lw/1.jpg"",""time"":56},{""stimulus"":""img/red_lw/2.jpg"",""time"":108},{""stimulus"":""img/red_lw/3.jpg"",""time"":160},{""stimulus"":""img/red_lw/4.jpg"",""time"":207},{""stimulus"":""img/red_lw/5.jpg"",""time"":253},{""stimulus"":""img/red_lw/6.jpg"",""time"":311},{""stimulus"":""img/red_lw/7.jpg"",""time"":357},{""stimulus"":""img/red_lw/8.jpg"",""time"":404},{""stimulus"":""img/red_lw/9.jpg"",""time"":456},{""stimulus"":""img/red_lw/10.jpg"",""time"":509},{""stimulus"":""img/red_lw/11.jpg"",""time"":561}]","[]"
"image-keyboard-response","40","49155","0.0-5.0-1.18","63ced2da9cad1ae3f98ce914","bdp_lott","Sun Mar 26 2023 13:30:55 GMT-0700 (Pacific Daylight Time)","217802","green","red","","179","","","","choice","","img/red_lw/choose11.jpg","2","207","red","0.5","0.5","0.5","l","",""
"animation","41","49760","0.0-5.0-2.18","63ced2da9cad1ae3f98ce914","bdp_lott","Sun Mar 26 2023 13:30:55 GMT-0700 (Pacific Daylight Time)","217802","green","red","","","","","","","","","","207","","","","","","[{""stimulus"":""img/red_ll/1.jpg"",""time"":59},{""stimulus"":""img/red_ll/2.jpg"",""time"":106},{""stimulus"":""img/red_ll/3.jpg"",""time"":158},{""stimulus"":""img/red_ll/4.jpg"",""time"":204},{""stimulus"":""img/red_ll/5.jpg"",""time"":261},{""stimulus"":""img/red_ll/6.jpg"",""time"":308},{""stimulus"":""img/red_ll/7.jpg"",""time"":355},{""stimulus"":""img/red_ll/8.jpg"",""time"":406},{""stimulus"":""img/red_ll/9.jpg"",""time"":460},{""stimulus"":""img/red_ll/10.jpg"",""time"":506},{""stimulus"":""img/red_ll/11.jpg"",""time"":558}]","[]"
"image-keyboard-response","42","50203","0.0-5.0-1.19","63ced2da9cad1ae3f98ce914","bdp_lott","Sun Mar 26 2023 13:30:55 GMT-0700 (Pacific Daylight Time)","217802","green","red","","443","","","","choice","","img/red_ll/choose11.jpg","1","206","green","0.5","0.5","0.5","w","",""
"animation","43","50805","0.0-5.0-2.19","63ced2da9cad1ae3f98ce914","bdp_lott","Sun Mar 26 2023 13:30:55 GMT-0700 (Pacific Daylight Time)","217802","green","red","","","","","","","","","","206","","","","","","[{""stimulus"":""img/green_wl/1.jpg"",""time"":61},{""stimulus"":""img/green_wl/2.jpg"",""time"":107},{""stimulus"":""img/green_wl/3.jpg"",""time"":154},{""stimulus"":""img/green_wl/4.jpg"",""time"":206},{""stimulus"":""img/green_wl/5.jpg"",""time"":258},{""stimulus"":""img/green_wl/6.jpg"",""time"":310},{""stimulus"":""img/green_wl/7.jpg"",""time"":357},{""stimulus"":""img/green_wl/8.jpg"",""time"":404},{""stimulus"":""img/green_wl/9.jpg"",""time"":460},{""stimulus"":""img/green_wl/10.jpg"",""time"":508},{""stimulus"":""img/green_wl/11.jpg"",""time"":554}]","[]"
"image-keyboard-response","44","50952","0.0-5.0-1.20","63ced2da9cad1ae3f98ce914","bdp_lott","Sun Mar 26 2023 13:30:55 GMT-0700 (Pacific Daylight Time)","217802","green","red","","147","","","","choice","","img/green_wl/choose11.jpg","2","205","red","0.5","0.5","0.5","w","",""
"animation","45","51559","0.0-5.0-2.20","63ced2da9cad1ae3f98ce914","bdp_lott","Sun Mar 26 2023 13:30:55 GMT-0700 (Pacific Daylight Time)","217802","green","red","","","","","","","","","","205","","","","","","[{""stimulus"":""img/red_ww/1.jpg"",""time"":56},{""stimulus"":""img/red_ww/2.jpg"",""time"":103},{""stimulus"":""img/red_ww/3.jpg"",""time"":159},{""stimulus"":""img/red_ww/4.jpg"",""time"":207},{""stimulus"":""img/red_ww/5.jpg"",""time"":253},{""stimulus"":""img/red_ww/6.jpg"",""time"":311},{""stimulus"":""img/red_ww/7.jpg"",""time"":358},{""stimulus"":""img/red_ww/8.jpg"",""time"":410},{""stimulus"":""img/red_ww/9.jpg"",""time"":457},{""stimulus"":""img/red_ww/10.jpg"",""time"":503},{""stimulus"":""img/red_ww/11.jpg"",""time"":561}]","[]"
"image-keyboard-response","46","51716","0.0-5.0-1.21","63ced2da9cad1ae3f98ce914","bdp_lott","Sun Mar 26 2023 13:30:55 GMT-0700 (Pacific Daylight Time)","217802","green","red","","156","","","","choice","","img/red_ww/choose11.jpg","1","204","green","0.5","0.5","0.5","l","",""
"animation","47","52326","0.0-5.0-2.21","63ced2da9cad1ae3f98ce914","bdp_lott","Sun Mar 26 2023 13:30:55 GMT-0700 (Pacific Daylight Time)","217802","green","red","","","","","","","","","","204","","","","","","[{""stimulus"":""img/green_lw/1.jpg"",""time"":57},{""stimulus"":""img/green_lw/2.jpg"",""time"":104},{""stimulus"":""img/green_lw/3.jpg"",""time"":151},{""stimulus"":""img/green_lw/4.jpg"",""time"":208},{""stimulus"":""img/green_lw/5.jpg"",""time"":260},{""stimulus"":""img/green_lw/6.jpg"",""time"":307},{""stimulus"":""img/green_lw/7.jpg"",""time"":353},{""stimulus"":""img/green_lw/8.jpg"",""time"":412},{""stimulus"":""img/green_lw/9.jpg"",""time"":452},{""stimulus"":""img/green_lw/10.jpg"",""time"":504},{""stimulus"":""img/green_lw/11.jpg"",""time"":557}]","[]"
"image-keyboard-response","48","52555","0.0-5.0-1.22","63ced2da9cad1ae3f98ce914","bdp_lott","Sun Mar 26 2023 13:30:55 GMT-0700 (Pacific Daylight Time)","217802","green","red","","229","","","","choice","","img/green_lw/choose11.jpg","2","203","red","0.5","0.5","0.5","w","",""
"animation","49","53161","0.0-5.0-2.22","63ced2da9cad1ae3f98ce914","bdp_lott","Sun Mar 26 2023 13:30:55 GMT-0700 (Pacific Daylight Time)","217802","green","red","","","","","","","","","","203","","","","","","[{""stimulus"":""img/red_lw/1.jpg"",""time"":61},{""stimulus"":""img/red_lw/2.jpg"",""time"":108},{""stimulus"":""img/red_lw/3.jpg"",""time"":154},{""stimulus"":""img/red_lw/4.jpg"",""time"":206},{""stimulus"":""img/red_lw/5.jpg"",""time"":258},{""stimulus"":""img/red_lw/6.jpg"",""time"":311},{""stimulus"":""img/red_lw/7.jpg"",""time"":357},{""stimulus"":""img/red_lw/8.jpg"",""time"":404},{""stimulus"":""img/red_lw/9.jpg"",""time"":462},{""stimulus"":""img/red_lw/10.jpg"",""time"":508},{""stimulus"":""img/red_lw/11.jpg"",""time"":554}]","[]"
"image-keyboard-response","50","53318","0.0-5.0-1.23","63ced2da9cad1ae3f98ce914","bdp_lott","Sun Mar 26 2023 13:30:55 GMT-0700 (Pacific Daylight Time)","217802","green","red","","155","","","","choice","","img/red_lw/choose11.jpg","1","202","green","0.5","0.5","0.5","w","",""
"animation","51","53928","0.0-5.0-2.23","63ced2da9cad1ae3f98ce914","bdp_lott","Sun Mar 26 2023 13:30:55 GMT-0700 (Pacific Daylight Time)","217802","green","red","","","","","","","","","","202","","","","","","[{""stimulus"":""img/green_ww/1.jpg"",""time"":59},{""stimulus"":""img/green_ww/2.jpg"",""time"":105},{""stimulus"":""img/green_ww/3.jpg"",""time"":151},{""stimulus"":""img/green_ww/4.jpg"",""time"":210},{""stimulus"":""img/green_ww/5.jpg"",""time"":256},{""stimulus"":""img/green_ww/6.jpg"",""time"":308},{""stimulus"":""img/green_ww/7.jpg"",""time"":355},{""stimulus"":""img/green_ww/8.jpg"",""time"":410},{""stimulus"":""img/green_ww/9.jpg"",""time"":459},{""stimulus"":""img/green_ww/10.jpg"",""time"":506},{""stimulus"":""img/green_ww/11.jpg"",""time"":551}]","[]"
"image-keyboard-response","52","54070","0.0-5.0-1.24","63ced2da9cad1ae3f98ce914","bdp_lott","Sun Mar 26 2023 13:30:55 GMT-0700 (Pacific Daylight Time)","217802","green","red","","142","","","","choice","","img/green_ww/choose11.jpg","2","201","red","0.5","0.5","0.5","w","",""
"animation","53","54677","0.0-5.0-2.24","63ced2da9cad1ae3f98ce914","bdp_lott","Sun Mar 26 2023 13:30:55 GMT-0700 (Pacific Daylight Time)","217802","green","red","","","","","","","","","","201","","","","","","[{""stimulus"":""img/red_ww/1.jpg"",""time"":59},{""stimulus"":""img/red_ww/2.jpg"",""time"":107},{""stimulus"":""img/red_ww/3.jpg"",""time"":159},{""stimulus"":""img/red_ww/4.jpg"",""time"":211},{""stimulus"":""img/red_ww/5.jpg"",""time"":258},{""stimulus"":""img/red_ww/6.jpg"",""time"":304},{""stimulus"":""img/red_ww/7.jpg"",""time"":362},{""stimulus"":""img/red_ww/8.jpg"",""time"":408},{""stimulus"":""img/red_ww/9.jpg"",""time"":455},{""stimulus"":""img/red_ww/10.jpg"",""time"":507},{""stimulus"":""img/red_ww/11.jpg"",""time"":559}]","[]"
"image-keyboard-response","54","54747","0.0-5.0-1.25","63ced2da9cad1ae3f98ce914","bdp_lott","Sun Mar 26 2023 13:30:55 GMT-0700 (Pacific Daylight Time)","217802","green","red","","70","","","","choice","","img/red_ww/choose11.jpg","1","200","green","0.5","0.5","0.5","w","",""
"animation","55","55350","0.0-5.0-2.25","63ced2da9cad1ae3f98ce914","bdp_lott","Sun Mar 26 2023 13:30:55 GMT-0700 (Pacific Daylight Time)","217802","green","red","","","","","","","","","","200","","","","","","[{""stimulus"":""img/green_ww/1.jpg"",""time"":62},{""stimulus"":""img/green_ww/2.jpg"",""time"":109},{""stimulus"":""img/green_ww/3.jpg"",""time"":155},{""stimulus"":""img/green_ww/4.jpg"",""time"":202},{""stimulus"":""img/green_ww/5.jpg"",""time"":260},{""stimulus"":""img/green_ww/6.jpg"",""time"":306},{""stimulus"":""img/green_ww/7.jpg"",""time"":358},{""stimulus"":""img/green_ww/8.jpg"",""time"":405},{""stimulus"":""img/green_ww/9.jpg"",""time"":457},{""stimulus"":""img/green_ww/10.jpg"",""time"":509},{""stimulus"":""img/green_ww/11.jpg"",""time"":556}]","[]"
"image-keyboard-response","56","55453","0.0-5.0-1.26","63ced2da9cad1ae3f98ce914","bdp_lott","Sun Mar 26 2023 13:30:55 GMT-0700 (Pacific Daylight Time)","217802","green","red","","102","","","","choice","","img/green_ww/choose11.jpg","2","199","red","0.5","0.5","0.5","l","",""
"animation","57","56064","0.0-5.0-2.26","63ced2da9cad1ae3f98ce914","bdp_lott","Sun Mar 26 2023 13:30:55 GMT-0700 (Pacific Daylight Time)","217802","green","red","","","","","","","","","","199","","","","","","[{""stimulus"":""img/red_wl/1.jpg"",""time"":60},{""stimulus"":""img/red_wl/2.jpg"",""time"":109},{""stimulus"":""img/red_wl/3.jpg"",""time"":153},{""stimulus"":""img/red_wl/4.jpg"",""time"":211},{""stimulus"":""img/red_wl/5.jpg"",""time"":257},{""stimulus"":""img/red_wl/6.jpg"",""time"":309},{""stimulus"":""img/red_wl/7.jpg"",""time"":356},{""stimulus"":""img/red_wl/8.jpg"",""time"":408},{""stimulus"":""img/red_wl/9.jpg"",""time"":461},{""stimulus"":""img/red_wl/10.jpg"",""time"":507},{""stimulus"":""img/red_wl/11.jpg"",""time"":553}]","[]"
"image-keyboard-response","58","56128","0.0-5.0-1.27","63ced2da9cad1ae3f98ce914","bdp_lott","Sun Mar 26 2023 13:30:55 GMT-0700 (Pacific Daylight Time)","217802","green","red","","63","","","","choice","","img/red_wl/choose11.jpg","1","198","green","0.5","0.5","0.5","l","",""
"animation","59","56737","0.0-5.0-2.27","63ced2da9cad1ae3f98ce914","bdp_lott","Sun Mar 26 2023 13:30:55 GMT-0700 (Pacific Daylight Time)","217802","green","red","","","","","","","","","","198","","","","","","[{""stimulus"":""img/green_ll/1.jpg"",""time"":58},{""stimulus"":""img/green_ll/2.jpg"",""time"":105},{""stimulus"":""img/green_ll/3.jpg"",""time"":159},{""stimulus"":""img/green_ll/4.jpg"",""time"":209},{""stimulus"":""img/green_ll/5.jpg"",""time"":254},{""stimulus"":""img/green_ll/6.jpg"",""time"":302},{""stimulus"":""img/green_ll/7.jpg"",""time"":360},{""stimulus"":""img/green_ll/8.jpg"",""time"":406},{""stimulus"":""img/green_ll/9.jpg"",""time"":452},{""stimulus"":""img/green_ll/10.jpg"",""time"":505},{""stimulus"":""img/green_ll/11.jpg"",""time"":557}]","[]"
"image-keyboard-response","60","56754","0.0-5.0-1.28","63ced2da9cad1ae3f98ce914","bdp_lott","Sun Mar 26 2023 13:30:55 GMT-0700 (Pacific Daylight Time)","217802","green","red","","16","","","","choice","","img/green_ll/choose11.jpg","2","197","red","0.5","0.5","0.5","w","",""
"animation","61","57359","0.0-5.0-2.28","63ced2da9cad1ae3f98ce914","bdp_lott","Sun Mar 26 2023 13:30:55 GMT-0700 (Pacific Daylight Time)","217802","green","red","","","","","","","","","","197","","","","","","[{""stimulus"":""img/red_lw/1.jpg"",""time"":58},{""stimulus"":""img/red_lw/2.jpg"",""time"":110},{""stimulus"":""img/red_lw/3.jpg"",""time"":151},{""stimulus"":""img/red_lw/4.jpg"",""time"":203},{""stimulus"":""img/red_lw/5.jpg"",""time"":261},{""stimulus"":""img/red_lw/6.jpg"",""time"":307},{""stimulus"":""img/red_lw/7.jpg"",""time"":354},{""stimulus"":""img/red_lw/8.jpg"",""time"":407},{""stimulus"":""img/red_lw/9.jpg"",""time"":459},{""stimulus"":""img/red_lw/10.jpg"",""time"":510},{""stimulus"":""img/red_lw/11.jpg"",""time"":557}]","[]"
"image-keyboard-response","62","57433","0.0-5.0-1.29","63ced2da9cad1ae3f98ce914","bdp_lott","Sun Mar 26 2023 13:30:55 GMT-0700 (Pacific Daylight Time)","217802","green","red","","74","","","","choice","","img/red_lw/choose11.jpg","1","196","green","0.5","0.5","0.5","l","",""
"animation","63","58038","0.0-5.0-2.29","63ced2da9cad1ae3f98ce914","bdp_lott","Sun Mar 26 2023 13:30:55 GMT-0700 (Pacific Daylight Time)","217802","green","red","","","","","","","","","","196","","","","","","[{""stimulus"":""img/green_lw/1.jpg"",""time"":54},{""stimulus"":""img/green_lw/2.jpg"",""time"":110},{""stimulus"":""img/green_lw/3.jpg"",""time"":158},{""stimulus"":""img/green_lw/4.jpg"",""time"":205},{""stimulus"":""img/green_lw/5.jpg"",""time"":257},{""stimulus"":""img/green_lw/6.jpg"",""time"":309},{""stimulus"":""img/green_lw/7.jpg"",""time"":357},{""stimulus"":""img/green_lw/8.jpg"",""time"":408},{""stimulus"":""img/green_lw/9.jpg"",""time"":454},{""stimulus"":""img/green_lw/10.jpg"",""time"":501},{""stimulus"":""img/green_lw/11.jpg"",""time"":559}]","[]"
"image-keyboard-response","64","58139","0.0-5.0-1.30","63ced2da9cad1ae3f98ce914","bdp_lott","Sun Mar 26 2023 13:30:55 GMT-0700 (Pacific Daylight Time)","217802","green","red","","101","","","","choice","","img/green_lw/choose11.jpg","2","195","red","0.5","0.5","0.5","l","",""
"animation","65","58746","0.0-5.0-2.30","63ced2da9cad1ae3f98ce914","bdp_lott","Sun Mar 26 2023 13:30:55 GMT-0700 (Pacific Daylight Time)","217802","green","red","","","","","","","","","","195","","","","","","[{""stimulus"":""img/red_ll/1.jpg"",""time"":61},{""stimulus"":""img/red_ll/2.jpg"",""time"":106},{""stimulus"":""img/red_ll/3.jpg"",""time"":154},{""stimulus"":""img/red_ll/4.jpg"",""time"":206},{""stimulus"":""img/red_ll/5.jpg"",""time"":252},{""stimulus"":""img/red_ll/6.jpg"",""time"":310},{""stimulus"":""img/red_ll/7.jpg"",""time"":357},{""stimulus"":""img/red_ll/8.jpg"",""time"":403},{""stimulus"":""img/red_ll/9.jpg"",""time"":458},{""stimulus"":""img/red_ll/10.jpg"",""time"":508},{""stimulus"":""img/red_ll/11.jpg"",""time"":554}]","[]"
"image-keyboard-response","66","58848","0.0-5.0-1.31","63ced2da9cad1ae3f98ce914","bdp_lott","Sun Mar 26 2023 13:30:55 GMT-0700 (Pacific Daylight Time)","217802","green","red","","102","","","","choice","","img/red_ll/choose11.jpg","1","194","green","0.5","0.5","0.5","l","",""
"animation","67","59455","0.0-5.0-2.31","63ced2da9cad1ae3f98ce914","bdp_lott","Sun Mar 26 2023 13:30:55 GMT-0700 (Pacific Daylight Time)","217802","green","red","","","","","","","","","","194","","","","","","[{""stimulus"":""img/green_ll/1.jpg"",""time"":55},{""stimulus"":""img/green_ll/2.jpg"",""time"":102},{""stimulus"":""img/green_ll/3.jpg"",""time"":159},{""stimulus"":""img/green_ll/4.jpg"",""time"":206},{""stimulus"":""img/green_ll/5.jpg"",""time"":256},{""stimulus"":""img/green_ll/6.jpg"",""time"":305},{""stimulus"":""img/green_ll/7.jpg"",""time"":357},{""stimulus"":""img/green_ll/8.jpg"",""time"":409},{""stimulus"":""img/green_ll/9.jpg"",""time"":456},{""stimulus"":""img/green_ll/10.jpg"",""time"":501},{""stimulus"":""img/green_ll/11.jpg"",""time"":559}]","[]"
"image-keyboard-response","68","59593","0.0-5.0-1.32","63ced2da9cad1ae3f98ce914","bdp_lott","Sun Mar 26 2023 13:30:55 GMT-0700 (Pacific Daylight Time)","217802","green","red","","138","","","","choice","","img/green_ll/choose11.jpg","2","193","red","0.5","0.5","0.5","w","",""
"animation","69","60197","0.0-5.0-2.32","63ced2da9cad1ae3f98ce914","bdp_lott","Sun Mar 26 2023 13:30:55 GMT-0700 (Pacific Daylight Time)","217802","green","red","","","","","","","","","","193","","","","","","[{""stimulus"":""img/red_lw/1.jpg"",""time"":53},{""stimulus"":""img/red_lw/2.jpg"",""time"":111},{""stimulus"":""img/red_lw/3.jpg"",""time"":158},{""stimulus"":""img/red_lw/4.jpg"",""time"":204},{""stimulus"":""img/red_lw/5.jpg"",""time"":256},{""stimulus"":""img/red_lw/6.jpg"",""time"":308},{""stimulus"":""img/red_lw/7.jpg"",""time"":361},{""stimulus"":""img/red_lw/8.jpg"",""time"":407},{""stimulus"":""img/red_lw/9.jpg"",""time"":454},{""stimulus"":""img/red_lw/10.jpg"",""time"":512},{""stimulus"":""img/red_lw/11.jpg"",""time"":558}]","[]"
"image-keyboard-response","70","60371","0.0-5.0-1.33","63ced2da9cad1ae3f98ce914","bdp_lott","Sun Mar 26 2023 13:30:55 GMT-0700 (Pacific Daylight Time)","217802","green","red","","173","","","","choice","","img/red_lw/choose11.jpg","1","192","green","0.5","0.5","0.5","l","",""
"animation","71","60975","0.0-5.0-2.33","63ced2da9cad1ae3f98ce914","bdp_lott","Sun Mar 26 2023 13:30:55 GMT-0700 (Pacific Daylight Time)","217802","green","red","","","","","","","","","","192","","","","","","[{""stimulus"":""img/green_lw/1.jpg"",""time"":59},{""stimulus"":""img/green_lw/2.jpg"",""time"":111},{""stimulus"":""img/green_lw/3.jpg"",""time"":156},{""stimulus"":""img/green_lw/4.jpg"",""time"":204},{""stimulus"":""img/green_lw/5.jpg"",""time"":262},{""stimulus"":""img/green_lw/6.jpg"",""time"":308},{""stimulus"":""img/green_lw/7.jpg"",""time"":355},{""stimulus"":""img/green_lw/8.jpg"",""time"":407},{""stimulus"":""img/green_lw/9.jpg"",""time"":459},{""stimulus"":""img/green_lw/10.jpg"",""time"":511},{""stimulus"":""img/green_lw/11.jpg"",""time"":558}]","[]"
"image-keyboard-response","72","61101","0.0-5.0-1.34","63ced2da9cad1ae3f98ce914","bdp_lott","Sun Mar 26 2023 13:30:55 GMT-0700 (Pacific Daylight Time)","217802","green","red","","125","","","","choice","","img/green_lw/choose11.jpg","2","191","red","0.5","0.5","0.5","l","",""
"animation","73","61713","0.0-5.0-2.34","63ced2da9cad1ae3f98ce914","bdp_lott","Sun Mar 26 2023 13:30:55 GMT-0700 (Pacific Daylight Time)","217802","green","red","","","","","","","","","","191","","","","","","[{""stimulus"":""img/red_ll/1.jpg"",""time"":60},{""stimulus"":""img/red_ll/2.jpg"",""time"":107},{""stimulus"":""img/red_ll/3.jpg"",""time"":152},{""stimulus"":""img/red_ll/4.jpg"",""time"":211},{""stimulus"":""img/red_ll/5.jpg"",""time"":258},{""stimulus"":""img/red_ll/6.jpg"",""time"":304},{""stimulus"":""img/red_ll/7.jpg"",""time"":356},{""stimulus"":""img/red_ll/8.jpg"",""time"":408},{""stimulus"":""img/red_ll/9.jpg"",""time"":461},{""stimulus"":""img/red_ll/10.jpg"",""time"":506},{""stimulus"":""img/red_ll/11.jpg"",""time"":554}]","[]"
"image-keyboard-response","74","61830","0.0-5.0-1.35","63ced2da9cad1ae3f98ce914","bdp_lott","Sun Mar 26 2023 13:30:55 GMT-0700 (Pacific Daylight Time)","217802","green","red","","117","","","","choice","","img/red_ll/choose11.jpg","1","190","green","0.5","0.5","0.5","w","",""
"animation","75","62437","0.0-5.0-2.35","63ced2da9cad1ae3f98ce914","bdp_lott","Sun Mar 26 2023 13:30:55 GMT-0700 (Pacific Daylight Time)","217802","green","red","","","","","","","","","","190","","","","","","[{""stimulus"":""img/green_wl/1.jpg"",""time"":56},{""stimulus"":""img/green_wl/2.jpg"",""time"":104},{""stimulus"":""img/green_wl/3.jpg"",""time"":156},{""stimulus"":""img/green_wl/4.jpg"",""time"":208},{""stimulus"":""img/green_wl/5.jpg"",""time"":260},{""stimulus"":""img/green_wl/6.jpg"",""time"":304},{""stimulus"":""img/green_wl/7.jpg"",""time"":353},{""stimulus"":""img/green_wl/8.jpg"",""time"":407},{""stimulus"":""img/green_wl/9.jpg"",""time"":457},{""stimulus"":""img/green_wl/10.jpg"",""time"":504},{""stimulus"":""img/green_wl/11.jpg"",""time"":556}]","[]"
"image-keyboard-response","76","62568","0.0-5.0-1.36","63ced2da9cad1ae3f98ce914","bdp_lott","Sun Mar 26 2023 13:30:55 GMT-0700 (Pacific Daylight Time)","217802","green","red","","130","","","","choice","","img/green_wl/choose11.jpg","2","189","red","0.5","0.5","0.5","l","",""
"animation","77","63175","0.0-5.0-2.36","63ced2da9cad1ae3f98ce914","bdp_lott","Sun Mar 26 2023 13:30:55 GMT-0700 (Pacific Daylight Time)","217802","green","red","","","","","","","","","","189","","","","","","[{""stimulus"":""img/red_wl/1.jpg"",""time"":56},{""stimulus"":""img/red_wl/2.jpg"",""time"":102},{""stimulus"":""img/red_wl/3.jpg"",""time"":161},{""stimulus"":""img/red_wl/4.jpg"",""time"":207},{""stimulus"":""img/red_wl/5.jpg"",""time"":254},{""stimulus"":""img/red_wl/6.jpg"",""time"":303},{""stimulus"":""img/red_wl/7.jpg"",""time"":358},{""stimulus"":""img/red_wl/8.jpg"",""time"":410},{""stimulus"":""img/red_wl/9.jpg"",""time"":457},{""stimulus"":""img/red_wl/10.jpg"",""time"":503},{""stimulus"":""img/red_wl/11.jpg"",""time"":561}]","[]"
"image-keyboard-response","78","63242","0.0-5.0-1.37","63ced2da9cad1ae3f98ce914","bdp_lott","Sun Mar 26 2023 13:30:55 GMT-0700 (Pacific Daylight Time)","217802","green","red","","66","","","","choice","","img/red_wl/choose11.jpg","1","188","green","0.5","0.5","0.5","l","",""
"animation","79","63849","0.0-5.0-2.37","63ced2da9cad1ae3f98ce914","bdp_lott","Sun Mar 26 2023 13:30:55 GMT-0700 (Pacific Daylight Time)","217802","green","red","","","","","","","","","","188","","","","","","[{""stimulus"":""img/green_ll/1.jpg"",""time"":56},{""stimulus"":""img/green_ll/2.jpg"",""time"":107},{""stimulus"":""img/green_ll/3.jpg"",""time"":160},{""stimulus"":""img/green_ll/4.jpg"",""time"":207},{""stimulus"":""img/green_ll/5.jpg"",""time"":253},{""stimulus"":""img/green_ll/6.jpg"",""time"":311},{""stimulus"":""img/green_ll/7.jpg"",""time"":358},{""stimulus"":""img/green_ll/8.jpg"",""time"":404},{""stimulus"":""img/green_ll/9.jpg"",""time"":456},{""stimulus"":""img/green_ll/10.jpg"",""time"":508},{""stimulus"":""img/green_ll/11.jpg"",""time"":560}]","[]"
"image-keyboard-response","80","64035","0.0-5.0-1.38","63ced2da9cad1ae3f98ce914","bdp_lott","Sun Mar 26 2023 13:30:55 GMT-0700 (Pacific Daylight Time)","217802","green","red","","186","","","","choice","","img/green_ll/choose11.jpg","2","187","red","0.5","0.5","0.5","l","",""
"animation","81","64638","0.0-5.0-2.38","63ced2da9cad1ae3f98ce914","bdp_lott","Sun Mar 26 2023 13:30:55 GMT-0700 (Pacific Daylight Time)","217802","green","red","","","","","","","","","","187","","","","","","[{""stimulus"":""img/red_ll/1.jpg"",""time"":61},{""stimulus"":""img/red_ll/2.jpg"",""time"":104},{""stimulus"":""img/red_ll/3.jpg"",""time"":157},{""stimulus"":""img/red_ll/4.jpg"",""time"":203},{""stimulus"":""img/red_ll/5.jpg"",""time"":261},{""stimulus"":""img/red_ll/6.jpg"",""time"":307},{""stimulus"":""img/red_ll/7.jpg"",""time"":354},{""stimulus"":""img/red_ll/8.jpg"",""time"":406},{""stimulus"":""img/red_ll/9.jpg"",""time"":459},{""stimulus"":""img/red_ll/10.jpg"",""time"":511},{""stimulus"":""img/red_ll/11.jpg"",""time"":557}]","[]"
"image-keyboard-response","82","64741","0.0-5.0-1.39","63ced2da9cad1ae3f98ce914","bdp_lott","Sun Mar 26 2023 13:30:55 GMT-0700 (Pacific Daylight Time)","217802","green","red","","102","","","","choice","","img/red_ll/choose11.jpg","1","186","green","0.5","0.5","0.5","w","",""
"animation","83","65352","0.0-5.0-2.39","63ced2da9cad1ae3f98ce914","bdp_lott","Sun Mar 26 2023 13:30:55 GMT-0700 (Pacific Daylight Time)","217802","green","red","","","","","","","","","","186","","","","","","[{""stimulus"":""img/green_wl/1.jpg"",""time"":60},{""stimulus"":""img/green_wl/2.jpg"",""time"":107},{""stimulus"":""img/green_wl/3.jpg"",""time"":153},{""stimulus"":""img/green_wl/4.jpg"",""time"":211},{""stimulus"":""img/green_wl/5.jpg"",""time"":257},{""stimulus"":""img/green_wl/6.jpg"",""time"":309},{""stimulus"":""img/green_wl/7.jpg"",""time"":356},{""stimulus"":""img/green_wl/8.jpg"",""time"":402},{""stimulus"":""img/green_wl/9.jpg"",""time"":461},{""stimulus"":""img/green_wl/10.jpg"",""time"":507},{""stimulus"":""img/green_wl/11.jpg"",""time"":554}]","[]"
"image-keyboard-response","84","65450","0.0-5.0-1.40","63ced2da9cad1ae3f98ce914","bdp_lott","Sun Mar 26 2023 13:30:55 GMT-0700 (Pacific Daylight Time)","217802","green","red","","97","","","","choice","","img/green_wl/choose11.jpg","2","185","red","0.5","0.5","0.5","l","",""
"animation","85","66055","0.0-5.0-2.40","63ced2da9cad1ae3f98ce914","bdp_lott","Sun Mar 26 2023 13:30:55 GMT-0700 (Pacific Daylight Time)","217802","green","red","","","","","","","","","","185","","","","","","[{""stimulus"":""img/red_wl/1.jpg"",""time"":54},{""stimulus"":""img/red_wl/2.jpg"",""time"":112},{""stimulus"":""img/red_wl/3.jpg"",""time"":158},{""stimulus"":""img/red_wl/4.jpg"",""time"":204},{""stimulus"":""img/red_wl/5.jpg"",""time"":256},{""stimulus"":""img/red_wl/6.jpg"",""time"":309},{""stimulus"":""img/red_wl/7.jpg"",""time"":355},{""stimulus"":""img/red_wl/8.jpg"",""time"":408},{""stimulus"":""img/red_wl/9.jpg"",""time"":454},{""stimulus"":""img/red_wl/10.jpg"",""time"":512},{""stimulus"":""img/red_wl/11.jpg"",""time"":559}]","[]"
"image-keyboard-response","86","66226","0.0-5.0-1.41","63ced2da9cad1ae3f98ce914","bdp_lott","Sun Mar 26 2023 13:30:55 GMT-0700 (Pacific Daylight Time)","217802","green","red","","170","","","","choice","","img/red_wl/choose11.jpg","1","184","green","0.5","0.5","0.5","l","",""
"animation","87","66833","0.0-5.0-2.41","63ced2da9cad1ae3f98ce914","bdp_lott","Sun Mar 26 2023 13:30:55 GMT-0700 (Pacific Daylight Time)","217802","green","red","","","","","","","","","","184","","","","","","[{""stimulus"":""img/green_ll/1.jpg"",""time"":55},{""stimulus"":""img/green_ll/2.jpg"",""time"":108},{""stimulus"":""img/green_ll/3.jpg"",""time"":160},{""stimulus"":""img/green_ll/4.jpg"",""time"":206},{""stimulus"":""img/green_ll/5.jpg"",""time"":253},{""stimulus"":""img/green_ll/6.jpg"",""time"":311},{""stimulus"":""img/green_ll/7.jpg"",""time"":352},{""stimulus"":""img/green_ll/8.jpg"",""time"":404},{""stimulus"":""img/green_ll/9.jpg"",""time"":456},{""stimulus"":""img/green_ll/10.jpg"",""time"":508},{""stimulus"":""img/green_ll/11.jpg"",""time"":560}]","[]"
"image-keyboard-response","88","67076","0.0-5.0-1.42","63ced2da9cad1ae3f98ce914","bdp_lott","Sun Mar 26 2023 13:30:55 GMT-0700 (Pacific Daylight Time)","217802","green","red","","243","","","","choice","","img/green_ll/choose11.jpg","2","183","red","0.5","0.5","0.5","w","",""
"animation","89","67679","0.0-5.0-2.42","63ced2da9cad1ae3f98ce914","bdp_lott","Sun Mar 26 2023 13:30:55 GMT-0700 (Pacific Daylight Time)","217802","green","red","","","","","","","","","","183","","","","","","[{""stimulus"":""img/red_lw/1.jpg"",""time"":58},{""stimulus"":""img/red_lw/2.jpg"",""time"":105},{""stimulus"":""img/red_lw/3.jpg"",""time"":157},{""stimulus"":""img/red_lw/4.jpg"",""time"":204},{""stimulus"":""img/red_lw/5.jpg"",""time"":254},{""stimulus"":""img/red_lw/6.jpg"",""time"":302},{""stimulus"":""img/red_lw/7.jpg"",""time"":355},{""stimulus"":""img/red_lw/8.jpg"",""time"":401},{""stimulus"":""img/red_lw/9.jpg"",""time"":459},{""stimulus"":""img/red_lw/10.jpg"",""time"":500},{""stimulus"":""img/red_lw/11.jpg"",""time"":558}]","[]"
"image-keyboard-response","90","67828","0.0-5.0-1.43","63ced2da9cad1ae3f98ce914","bdp_lott","Sun Mar 26 2023 13:30:55 GMT-0700 (Pacific Daylight Time)","217802","green","red","","148","","","","choice","","img/red_lw/choose11.jpg","1","182","green","0.5","0.5","0.5","w","",""
"animation","91","68429","0.0-5.0-2.43","63ced2da9cad1ae3f98ce914","bdp_lott","Sun Mar 26 2023 13:30:55 GMT-0700 (Pacific Daylight Time)","217802","green","red","","","","","","","","","","182","","","","","","[{""stimulus"":""img/green_ww/1.jpg"",""time"":61},{""stimulus"":""img/green_ww/2.jpg"",""time"":108},{""stimulus"":""img/green_ww/3.jpg"",""time"":154},{""stimulus"":""img/green_ww/4.jpg"",""time"":206},{""stimulus"":""img/green_ww/5.jpg"",""time"":259},{""stimulus"":""img/green_ww/6.jpg"",""time"":306},{""stimulus"":""img/green_ww/7.jpg"",""time"":358},{""stimulus"":""img/green_ww/8.jpg"",""time"":404},{""stimulus"":""img/green_ww/9.jpg"",""time"":458},{""stimulus"":""img/green_ww/10.jpg"",""time"":508},{""stimulus"":""img/green_ww/11.jpg"",""time"":555}]","[]"
"image-keyboard-response","92","68622","0.0-5.0-1.44","63ced2da9cad1ae3f98ce914","bdp_lott","Sun Mar 26 2023 13:30:55 GMT-0700 (Pacific Daylight Time)","217802","green","red","","192","","","","choice","","img/green_ww/choose11.jpg","2","181","red","0.5","0.5","0.5","w","",""
"animation","93","69229","0.0-5.0-2.44","63ced2da9cad1ae3f98ce914","bdp_lott","Sun Mar 26 2023 13:30:55 GMT-0700 (Pacific Daylight Time)","217802","green","red","","","","","","","","","","181","","","","","","[{""stimulus"":""img/red_ww/1.jpg"",""time"":57},{""stimulus"":""img/red_ww/2.jpg"",""time"":104},{""stimulus"":""img/red_ww/3.jpg"",""time"":156},{""stimulus"":""img/red_ww/4.jpg"",""time"":208},{""stimulus"":""img/red_ww/5.jpg"",""time"":257},{""stimulus"":""img/red_ww/6.jpg"",""time"":306},{""stimulus"":""img/red_ww/7.jpg"",""time"":353},{""stimulus"":""img/red_ww/8.jpg"",""time"":411},{""stimulus"":""img/red_ww/9.jpg"",""time"":457},{""stimulus"":""img/red_ww/10.jpg"",""time"":504},{""stimulus"":""img/red_ww/11.jpg"",""time"":556}]","[]"
"image-keyboard-response","94","69367","0.0-5.0-1.45","63ced2da9cad1ae3f98ce914","bdp_lott","Sun Mar 26 2023 13:30:55 GMT-0700 (Pacific Daylight Time)","217802","green","red","","137","","","","choice","","img/red_ww/choose11.jpg","1","180","green","0.5","0.5","0.5","l","",""
"animation","95","69973","0.0-5.0-2.45","63ced2da9cad1ae3f98ce914","bdp_lott","Sun Mar 26 2023 13:30:55 GMT-0700 (Pacific Daylight Time)","217802","green","red","","","","","","","","","","180","","","","","","[{""stimulus"":""img/green_lw/1.jpg"",""time"":58},{""stimulus"":""img/green_lw/2.jpg"",""time"":106},{""stimulus"":""img/green_lw/3.jpg"",""time"":158},{""stimulus"":""img/green_lw/4.jpg"",""time"":207},{""stimulus"":""img/green_lw/5.jpg"",""time"":257},{""stimulus"":""img/green_lw/6.jpg"",""time"":304},{""stimulus"":""img/green_lw/7.jpg"",""time"":362},{""stimulus"":""img/green_lw/8.jpg"",""time"":408},{""stimulus"":""img/green_lw/9.jpg"",""time"":455},{""stimulus"":""img/green_lw/10.jpg"",""time"":506},{""stimulus"":""img/green_lw/11.jpg"",""time"":559}]","[]"
"image-keyboard-response","96","70071","0.0-5.0-1.46","63ced2da9cad1ae3f98ce914","bdp_lott","Sun Mar 26 2023 13:30:55 GMT-0700 (Pacific Daylight Time)","217802","green","red","","97","","","","choice","","img/green_lw/choose11.jpg","2","179","red","0.5","0.5","0.5","l","",""
"animation","97","70681","0.0-5.0-2.46","63ced2da9cad1ae3f98ce914","bdp_lott","Sun Mar 26 2023 13:30:55 GMT-0700 (Pacific Daylight Time)","217802","green","red","","","","","","","","","","179","","","","","","[{""stimulus"":""img/red_ll/1.jpg"",""time"":59},{""stimulus"":""img/red_ll/2.jpg"",""time"":106},{""stimulus"":""img/red_ll/3.jpg"",""time"":164},{""stimulus"":""img/red_ll/4.jpg"",""time"":210},{""stimulus"":""img/red_ll/5.jpg"",""time"":257},{""stimulus"":""img/red_ll/6.jpg"",""time"":303},{""stimulus"":""img/red_ll/7.jpg"",""time"":361},{""stimulus"":""img/red_ll/8.jpg"",""time"":407},{""stimulus"":""img/red_ll/9.jpg"",""time"":459},{""stimulus"":""img/red_ll/10.jpg"",""time"":506},{""stimulus"":""img/red_ll/11.jpg"",""time"":558}]","[]"
"image-keyboard-response","98","70751","0.0-5.0-1.47","63ced2da9cad1ae3f98ce914","bdp_lott","Sun Mar 26 2023 13:30:55 GMT-0700 (Pacific Daylight Time)","217802","green","red","","69","","","","choice","","img/red_ll/choose11.jpg","1","178","green","0.5","0.5","0.5","l","",""
"animation","99","71361","0.0-5.0-2.47","63ced2da9cad1ae3f98ce914","bdp_lott","Sun Mar 26 2023 13:30:55 GMT-0700 (Pacific Daylight Time)","217802","green","red","","","","","","","","","","178","","","","","","[{""stimulus"":""img/green_ll/1.jpg"",""time"":58},{""stimulus"":""img/green_ll/2.jpg"",""time"":105},{""stimulus"":""img/green_ll/3.jpg"",""time"":163},{""stimulus"":""img/green_ll/4.jpg"",""time"":209},{""stimulus"":""img/green_ll/5.jpg"",""time"":256},{""stimulus"":""img/green_ll/6.jpg"",""time"":302},{""stimulus"":""img/green_ll/7.jpg"",""time"":360},{""stimulus"":""img/green_ll/8.jpg"",""time"":407},{""stimulus"":""img/green_ll/9.jpg"",""time"":459},{""stimulus"":""img/green_ll/10.jpg"",""time"":506},{""stimulus"":""img/green_ll/11.jpg"",""time"":563}]","[]"
"image-keyboard-response","100","71467","0.0-5.0-1.48","63ced2da9cad1ae3f98ce914","bdp_lott","Sun Mar 26 2023 13:30:55 GMT-0700 (Pacific Daylight Time)","217802","green","red","","106","","","","choice","","img/green_ll/choose11.jpg","2","177","red","0.5","0.5","0.5","w","",""
"animation","101","72070","0.0-5.0-2.48","63ced2da9cad1ae3f98ce914","bdp_lott","Sun Mar 26 2023 13:30:55 GMT-0700 (Pacific Daylight Time)","217802","green","red","","","","","","","","","","177","","","","","","[{""stimulus"":""img/red_lw/1.jpg"",""time"":62},{""stimulus"":""img/red_lw/2.jpg"",""time"":108},{""stimulus"":""img/red_lw/3.jpg"",""time"":155},{""stimulus"":""img/red_lw/4.jpg"",""time"":207},{""stimulus"":""img/red_lw/5.jpg"",""time"":260},{""stimulus"":""img/red_lw/6.jpg"",""time"":306},{""stimulus"":""img/red_lw/7.jpg"",""time"":358},{""stimulus"":""img/red_lw/8.jpg"",""time"":405},{""stimulus"":""img/red_lw/9.jpg"",""time"":463},{""stimulus"":""img/red_lw/10.jpg"",""time"":509},{""stimulus"":""img/red_lw/11.jpg"",""time"":556}]","[]"
"image-keyboard-response","102","72156","0.0-5.0-1.49","63ced2da9cad1ae3f98ce914","bdp_lott","Sun Mar 26 2023 13:30:55 GMT-0700 (Pacific Daylight Time)","217802","green","red","","86","","","","choice","","img/red_lw/choose11.jpg","1","176","green","0.5","0.5","0.5","l","",""
"animation","103","72760","0.0-5.0-2.49","63ced2da9cad1ae3f98ce914","bdp_lott","Sun Mar 26 2023 13:30:55 GMT-0700 (Pacific Daylight Time)","217802","green","red","","","","","","","","","","176","","","","","","[{""stimulus"":""img/green_lw/1.jpg"",""time"":58},{""stimulus"":""img/green_lw/2.jpg"",""time"":106},{""stimulus"":""img/green_lw/3.jpg"",""time"":154},{""stimulus"":""img/green_lw/4.jpg"",""time"":203},{""stimulus"":""img/green_lw/5.jpg"",""time"":262},{""stimulus"":""img/green_lw/6.jpg"",""time"":307},{""stimulus"":""img/green_lw/7.jpg"",""time"":354},{""stimulus"":""img/green_lw/8.jpg"",""time"":406},{""stimulus"":""img/green_lw/9.jpg"",""time"":459},{""stimulus"":""img/green_lw/10.jpg"",""time"":506},{""stimulus"":""img/green_lw/11.jpg"",""time"":558}]","[]"
"image-keyboard-response","104","72885","0.0-5.0-1.50","63ced2da9cad1ae3f98ce914","bdp_lott","Sun Mar 26 2023 13:30:55 GMT-0700 (Pacific Daylight Time)","217802","green","red","","125","","","","choice","","img/green_lw/choose11.jpg","2","175","red","0.5","0.5","0.5","w","",""
"animation","105","73485","0.0-5.0-2.50","63ced2da9cad1ae3f98ce914","bdp_lott","Sun Mar 26 2023 13:30:55 GMT-0700 (Pacific Daylight Time)","217802","green","red","","","","","","","","","","175","","","","","","[{""stimulus"":""img/red_lw/1.jpg"",""time"":61},{""stimulus"":""img/red_lw/2.jpg"",""time"":107},{""stimulus"":""img/red_lw/3.jpg"",""time"":153},{""stimulus"":""img/red_lw/4.jpg"",""time"":206},{""stimulus"":""img/red_lw/5.jpg"",""time"":252},{""stimulus"":""img/red_lw/6.jpg"",""time"":305},{""stimulus"":""img/red_lw/7.jpg"",""time"":357},{""stimulus"":""img/red_lw/8.jpg"",""time"":403},{""stimulus"":""img/red_lw/9.jpg"",""time"":451},{""stimulus"":""img/red_lw/10.jpg"",""time"":508},{""stimulus"":""img/red_lw/11.jpg"",""time"":554}]","[]"
"image-keyboard-response","106","73558","0.0-5.0-1.51","63ced2da9cad1ae3f98ce914","bdp_lott","Sun Mar 26 2023 13:30:55 GMT-0700 (Pacific Daylight Time)","217802","green","red","","72","","","","choice","","img/red_lw/choose11.jpg","1","174","green","0.5","0.5","0.5","l","",""
"animation","107","74170","0.0-5.0-2.51","63ced2da9cad1ae3f98ce914","bdp_lott","Sun Mar 26 2023 13:30:55 GMT-0700 (Pacific Daylight Time)","217802","green","red","","","","","","","","","","174","","","","","","[{""stimulus"":""img/green_lw/1.jpg"",""time"":56},{""stimulus"":""img/green_lw/2.jpg"",""time"":108},{""stimulus"":""img/green_lw/3.jpg"",""time"":154},{""stimulus"":""img/green_lw/4.jpg"",""time"":211},{""stimulus"":""img/green_lw/5.jpg"",""time"":258},{""stimulus"":""img/green_lw/6.jpg"",""time"":305},{""stimulus"":""img/green_lw/7.jpg"",""time"":351},{""stimulus"":""img/green_lw/8.jpg"",""time"":409},{""stimulus"":""img/green_lw/9.jpg"",""time"":456},{""stimulus"":""img/green_lw/10.jpg"",""time"":508},{""stimulus"":""img/green_lw/11.jpg"",""time"":554}]","[]"
"image-keyboard-response","108","74334","0.0-5.0-1.52","63ced2da9cad1ae3f98ce914","bdp_lott","Sun Mar 26 2023 13:30:55 GMT-0700 (Pacific Daylight Time)","217802","green","red","","162","","","","choice","","img/green_lw/choose11.jpg","2","173","red","0.5","0.5","0.5","w","",""
"animation","109","74942","0.0-5.0-2.52","63ced2da9cad1ae3f98ce914","bdp_lott","Sun Mar 26 2023 13:30:55 GMT-0700 (Pacific Daylight Time)","217802","green","red","","","","","","","","","","173","","","","","","[{""stimulus"":""img/red_lw/1.jpg"",""time"":57},{""stimulus"":""img/red_lw/2.jpg"",""time"":104},{""stimulus"":""img/red_lw/3.jpg"",""time"":155},{""stimulus"":""img/red_lw/4.jpg"",""time"":208},{""stimulus"":""img/red_lw/5.jpg"",""time"":259},{""stimulus"":""img/red_lw/6.jpg"",""time"":307},{""stimulus"":""img/red_lw/7.jpg"",""time"":353},{""stimulus"":""img/red_lw/8.jpg"",""time"":411},{""stimulus"":""img/red_lw/9.jpg"",""time"":458},{""stimulus"":""img/red_lw/10.jpg"",""time"":504},{""stimulus"":""img/red_lw/11.jpg"",""time"":555}]","[]"
"image-keyboard-response","110","75044","0.0-5.0-1.53","63ced2da9cad1ae3f98ce914","bdp_lott","Sun Mar 26 2023 13:30:55 GMT-0700 (Pacific Daylight Time)","217802","green","red","","101","","","","choice","","img/red_lw/choose11.jpg","1","172","green","0.5","0.5","0.5","w","",""
"animation","111","75650","0.0-5.0-2.53","63ced2da9cad1ae3f98ce914","bdp_lott","Sun Mar 26 2023 13:30:55 GMT-0700 (Pacific Daylight Time)","217802","green","red","","","","","","","","","","172","","","","","","[{""stimulus"":""img/green_ww/1.jpg"",""time"":60},{""stimulus"":""img/green_ww/2.jpg"",""time"":107},{""stimulus"":""img/green_ww/3.jpg"",""time"":154},{""stimulus"":""img/green_ww/4.jpg"",""time"":205},{""stimulus"":""img/green_ww/5.jpg"",""time"":258},{""stimulus"":""img/green_ww/6.jpg"",""time"":305},{""stimulus"":""img/green_ww/7.jpg"",""time"":356},{""stimulus"":""img/green_ww/8.jpg"",""time"":403},{""stimulus"":""img/green_ww/9.jpg"",""time"":460},{""stimulus"":""img/green_ww/10.jpg"",""time"":507},{""stimulus"":""img/green_ww/11.jpg"",""time"":557}]","[]"
"image-keyboard-response","112","75854","0.0-5.0-1.54","63ced2da9cad1ae3f98ce914","bdp_lott","Sun Mar 26 2023 13:30:55 GMT-0700 (Pacific Daylight Time)","217802","green","red","","203","","","","choice","","img/green_ww/choose11.jpg","2","171","red","0.5","0.5","0.5","l","",""
"animation","113","76463","0.0-5.0-2.54","63ced2da9cad1ae3f98ce914","bdp_lott","Sun Mar 26 2023 13:30:55 GMT-0700 (Pacific Daylight Time)","217802","green","red","","","","","","","","","","171","","","","","","[{""stimulus"":""img/red_wl/1.jpg"",""time"":58},{""stimulus"":""img/red_wl/2.jpg"",""time"":105},{""stimulus"":""img/red_wl/3.jpg"",""time"":153},{""stimulus"":""img/red_wl/4.jpg"",""time"":208},{""stimulus"":""img/red_wl/5.jpg"",""time"":256},{""stimulus"":""img/red_wl/6.jpg"",""time"":308},{""stimulus"":""img/red_wl/7.jpg"",""time"":354},{""stimulus"":""img/red_wl/8.jpg"",""time"":412},{""stimulus"":""img/red_wl/9.jpg"",""time"":459},{""stimulus"":""img/red_wl/10.jpg"",""time"":505},{""stimulus"":""img/red_wl/11.jpg"",""time"":555}]","[]"
"image-keyboard-response","114","76503","0.0-5.0-1.55","63ced2da9cad1ae3f98ce914","bdp_lott","Sun Mar 26 2023 13:30:55 GMT-0700 (Pacific Daylight Time)","217802","green","red","","39","","","","choice","","img/red_wl/choose11.jpg","1","170","green","0.5","0.5","0.5","w","",""
"animation","115","77113","0.0-5.0-2.55","63ced2da9cad1ae3f98ce914","bdp_lott","Sun Mar 26 2023 13:30:55 GMT-0700 (Pacific Daylight Time)","217802","green","red","","","","","","","","","","170","","","","","","[{""stimulus"":""img/green_wl/1.jpg"",""time"":59},{""stimulus"":""img/green_wl/2.jpg"",""time"":106},{""stimulus"":""img/green_wl/3.jpg"",""time"":152},{""stimulus"":""img/green_wl/4.jpg"",""time"":210},{""stimulus"":""img/green_wl/5.jpg"",""time"":256},{""stimulus"":""img/green_wl/6.jpg"",""time"":303},{""stimulus"":""img/green_wl/7.jpg"",""time"":355},{""stimulus"":""img/green_wl/8.jpg"",""time"":407},{""stimulus"":""img/green_wl/9.jpg"",""time"":460},{""stimulus"":""img/green_wl/10.jpg"",""time"":505},{""stimulus"":""img/green_wl/11.jpg"",""time"":553}]","[]"
"image-keyboard-response","116","77281","0.0-5.0-1.56","63ced2da9cad1ae3f98ce914","bdp_lott","Sun Mar 26 2023 13:30:55 GMT-0700 (Pacific Daylight Time)","217802","green","red","","168","","","","choice","","img/green_wl/choose11.jpg","2","169","red","0.5","0.5","0.5","l","",""
"animation","117","77886","0.0-5.0-2.56","63ced2da9cad1ae3f98ce914","bdp_lott","Sun Mar 26 2023 13:30:55 GMT-0700 (Pacific Daylight Time)","217802","green","red","","","","","","","","","","169","","","","","","[{""stimulus"":""img/red_wl/1.jpg"",""time"":51},{""stimulus"":""img/red_wl/2.jpg"",""time"":110},{""stimulus"":""img/red_wl/3.jpg"",""time"":157},{""stimulus"":""img/red_wl/4.jpg"",""time"":204},{""stimulus"":""img/red_wl/5.jpg"",""time"":255},{""stimulus"":""img/red_wl/6.jpg"",""time"":309},{""stimulus"":""img/red_wl/7.jpg"",""time"":360},{""stimulus"":""img/red_wl/8.jpg"",""time"":407},{""stimulus"":""img/red_wl/9.jpg"",""time"":453},{""stimulus"":""img/red_wl/10.jpg"",""time"":511},{""stimulus"":""img/red_wl/11.jpg"",""time"":558}]","[]"
"image-keyboard-response","118","77936","0.0-5.0-1.57","63ced2da9cad1ae3f98ce914","bdp_lott","Sun Mar 26 2023 13:30:55 GMT-0700 (Pacific Daylight Time)","217802","green","red","","50","","","","choice","","img/red_wl/choose11.jpg","1","168","green","0.5","0.5","0.5","l","",""
"animation","119","78542","0.0-5.0-2.57","63ced2da9cad1ae3f98ce914","bdp_lott","Sun Mar 26 2023 13:30:55 GMT-0700 (Pacific Daylight Time)","217802","green","red","","","","","","","","","","168","","","","","","[{""stimulus"":""img/green_ll/1.jpg"",""time"":54},{""stimulus"":""img/green_ll/2.jpg"",""time"":106},{""stimulus"":""img/green_ll/3.jpg"",""time"":159},{""stimulus"":""img/green_ll/4.jpg"",""time"":200},{""stimulus"":""img/green_ll/5.jpg"",""time"":258},{""stimulus"":""img/green_ll/6.jpg"",""time"":304},{""stimulus"":""img/green_ll/7.jpg"",""time"":362},{""stimulus"":""img/green_ll/8.jpg"",""time"":408},{""stimulus"":""img/green_ll/9.jpg"",""time"":455},{""stimulus"":""img/green_ll/10.jpg"",""time"":504},{""stimulus"":""img/green_ll/11.jpg"",""time"":559}]","[]"
"image-keyboard-response","120","78670","0.0-5.0-1.58","63ced2da9cad1ae3f98ce914","bdp_lott","Sun Mar 26 2023 13:30:55 GMT-0700 (Pacific Daylight Time)","217802","green","red","","127","","","","choice","","img/green_ll/choose11.jpg","2","167","red","0.5","0.5","0.5","w","",""
"animation","121","79279","0.0-5.0-2.58","63ced2da9cad1ae3f98ce914","bdp_lott","Sun Mar 26 2023 13:30:55 GMT-0700 (Pacific Daylight Time)","217802","green","red","","","","","","","","","","167","","","","","","[{""stimulus"":""img/red_lw/1.jpg"",""time"":58},{""stimulus"":""img/red_lw/2.jpg"",""time"":104},{""stimulus"":""img/red_lw/3.jpg"",""time"":156},{""stimulus"":""img/red_lw/4.jpg"",""time"":209},{""stimulus"":""img/red_lw/5.jpg"",""time"":257},{""stimulus"":""img/red_lw/6.jpg"",""time"":307},{""stimulus"":""img/red_lw/7.jpg"",""time"":354},{""stimulus"":""img/red_lw/8.jpg"",""time"":412},{""stimulus"":""img/red_lw/9.jpg"",""time"":458},{""stimulus"":""img/red_lw/10.jpg"",""time"":504},{""stimulus"":""img/red_lw/11.jpg"",""time"":552}]","[]"
"image-keyboard-response","122","79340","0.0-5.0-1.59","63ced2da9cad1ae3f98ce914","bdp_lott","Sun Mar 26 2023 13:30:55 GMT-0700 (Pacific Daylight Time)","217802","green","red","","60","","","","choice","","img/red_lw/choose11.jpg","1","166","green","0.5","0.5","0.5","l","",""
"animation","123","79945","0.0-5.0-2.59","63ced2da9cad1ae3f98ce914","bdp_lott","Sun Mar 26 2023 13:30:55 GMT-0700 (Pacific Daylight Time)","217802","green","red","","","","","","","","","","166","","","","","","[{""stimulus"":""img/green_lw/1.jpg"",""time"":60},{""stimulus"":""img/green_lw/2.jpg"",""time"":107},{""stimulus"":""img/green_lw/3.jpg"",""time"":154},{""stimulus"":""img/green_lw/4.jpg"",""time"":205},{""stimulus"":""img/green_lw/5.jpg"",""time"":258},{""stimulus"":""img/green_lw/6.jpg"",""time"":310},{""stimulus"":""img/green_lw/7.jpg"",""time"":356},{""stimulus"":""img/green_lw/8.jpg"",""time"":403},{""stimulus"":""img/green_lw/9.jpg"",""time"":461},{""stimulus"":""img/green_lw/10.jpg"",""time"":506},{""stimulus"":""img/green_lw/11.jpg"",""time"":554}]","[]"
"image-keyboard-response","124","80520","0.0-5.0-1.60","63ced2da9cad1ae3f98ce914","bdp_lott","Sun Mar 26 2023 13:30:55 GMT-0700 (Pacific Daylight Time)","217802","green","red","","574","","","","choice","","img/green_lw/choose11.jpg","1","165","green","0.5","0.5","0.5","l","",""
"animation","125","81127","0.0-5.0-2.60","63ced2da9cad1ae3f98ce914","bdp_lott","Sun Mar 26 2023 13:30:55 GMT-0700 (Pacific Daylight Time)","217802","green","red","","","","","","","","","","165","","","","","","[{""stimulus"":""img/green_lw/1.jpg"",""time"":54},{""stimulus"":""img/green_lw/2.jpg"",""time"":105},{""stimulus"":""img/green_lw/3.jpg"",""time"":158},{""stimulus"":""img/green_lw/4.jpg"",""time"":210},{""stimulus"":""img/green_lw/5.jpg"",""time"":259},{""stimulus"":""img/green_lw/6.jpg"",""time"":304},{""stimulus"":""img/green_lw/7.jpg"",""time"":361},{""stimulus"":""img/green_lw/8.jpg"",""time"":408},{""stimulus"":""img/green_lw/9.jpg"",""time"":454},{""stimulus"":""img/green_lw/10.jpg"",""time"":505},{""stimulus"":""img/green_lw/11.jpg"",""time"":558}]","[]"
"image-keyboard-response","126","81788","0.0-5.0-1.61","63ced2da9cad1ae3f98ce914","bdp_lott","Sun Mar 26 2023 13:30:55 GMT-0700 (Pacific Daylight Time)","217802","green","red","","660","","","","choice","","img/green_lw/choose11.jpg","2","164","red","0.5","0.5","0.5","l","",""
"animation","127","82391","0.0-5.0-2.61","63ced2da9cad1ae3f98ce914","bdp_lott","Sun Mar 26 2023 13:30:55 GMT-0700 (Pacific Daylight Time)","217802","green","red","","","","","","","","","","164","","","","","","[{""stimulus"":""img/red_ll/1.jpg"",""time"":63},{""stimulus"":""img/red_ll/2.jpg"",""time"":109},{""stimulus"":""img/red_ll/3.jpg"",""time"":156},{""stimulus"":""img/red_ll/4.jpg"",""time"":202},{""stimulus"":""img/red_ll/5.jpg"",""time"":260},{""stimulus"":""img/red_ll/6.jpg"",""time"":307},{""stimulus"":""img/red_ll/7.jpg"",""time"":352},{""stimulus"":""img/red_ll/8.jpg"",""time"":405},{""stimulus"":""img/red_ll/9.jpg"",""time"":458},{""stimulus"":""img/red_ll/10.jpg"",""time"":510},{""stimulus"":""img/red_ll/11.jpg"",""time"":556}]","[]"
"image-keyboard-response","128","82541","0.0-5.0-1.62","63ced2da9cad1ae3f98ce914","bdp_lott","Sun Mar 26 2023 13:30:55 GMT-0700 (Pacific Daylight Time)","217802","green","red","","150","","","","choice","","img/red_ll/choose11.jpg","2","163","red","0.5","0.5","0.5","l","",""
"animation","129","83151","0.0-5.0-2.62","63ced2da9cad1ae3f98ce914","bdp_lott","Sun Mar 26 2023 13:30:55 GMT-0700 (Pacific Daylight Time)","217802","green","red","","","","","","","","","","163","","","","","","[{""stimulus"":""img/red_ll/1.jpg"",""time"":58},{""stimulus"":""img/red_ll/2.jpg"",""time"":104},{""stimulus"":""img/red_ll/3.jpg"",""time"":156},{""stimulus"":""img/red_ll/4.jpg"",""time"":209},{""stimulus"":""img/red_ll/5.jpg"",""time"":261},{""stimulus"":""img/red_ll/6.jpg"",""time"":307},{""stimulus"":""img/red_ll/7.jpg"",""time"":353},{""stimulus"":""img/red_ll/8.jpg"",""time"":412},{""stimulus"":""img/red_ll/9.jpg"",""time"":457},{""stimulus"":""img/red_ll/10.jpg"",""time"":505},{""stimulus"":""img/red_ll/11.jpg"",""time"":557}]","[]"
"image-keyboard-response","130","83223","0.0-5.0-1.63","63ced2da9cad1ae3f98ce914","bdp_lott","Sun Mar 26 2023 13:30:55 GMT-0700 (Pacific Daylight Time)","217802","green","red","","71","","","","choice","","img/red_ll/choose11.jpg","2","162","red","0.5","0.5","0.5","l","",""
"animation","131","83830","0.0-5.0-2.63","63ced2da9cad1ae3f98ce914","bdp_lott","Sun Mar 26 2023 13:30:55 GMT-0700 (Pacific Daylight Time)","217802","green","red","","","","","","","","","","162","","","","","","[{""stimulus"":""img/red_ll/1.jpg"",""time"":56},{""stimulus"":""img/red_ll/2.jpg"",""time"":108},{""stimulus"":""img/red_ll/3.jpg"",""time"":155},{""stimulus"":""img/red_ll/4.jpg"",""time"":207},{""stimulus"":""img/red_ll/5.jpg"",""time"":259},{""stimulus"":""img/red_ll/6.jpg"",""time"":305},{""stimulus"":""img/red_ll/7.jpg"",""time"":352},{""stimulus"":""img/red_ll/8.jpg"",""time"":410},{""stimulus"":""img/red_ll/9.jpg"",""time"":456},{""stimulus"":""img/red_ll/10.jpg"",""time"":503},{""stimulus"":""img/red_ll/11.jpg"",""time"":555}]","[]"
"image-keyboard-response","132","83985","0.0-5.0-1.64","63ced2da9cad1ae3f98ce914","bdp_lott","Sun Mar 26 2023 13:30:55 GMT-0700 (Pacific Daylight Time)","217802","green","red","","154","","","","choice","","img/red_ll/choose11.jpg","1","161","green","0.5","0.5","0.5","w","",""
"animation","133","84591","0.0-5.0-2.64","63ced2da9cad1ae3f98ce914","bdp_lott","Sun Mar 26 2023 13:30:55 GMT-0700 (Pacific Daylight Time)","217802","green","red","","","","","","","","","","161","","","","","","[{""stimulus"":""img/green_wl/1.jpg"",""time"":53},{""stimulus"":""img/green_wl/2.jpg"",""time"":101},{""stimulus"":""img/green_wl/3.jpg"",""time"":151},{""stimulus"":""img/green_wl/4.jpg"",""time"":204},{""stimulus"":""img/green_wl/5.jpg"",""time"":257},{""stimulus"":""img/green_wl/6.jpg"",""time"":309},{""stimulus"":""img/green_wl/7.jpg"",""time"":361},{""stimulus"":""img/green_wl/8.jpg"",""time"":408},{""stimulus"":""img/green_wl/9.jpg"",""time"":456},{""stimulus"":""img/green_wl/10.jpg"",""time"":500},{""stimulus"":""img/green_wl/11.jpg"",""time"":558}]","[]"
"image-keyboard-response","134","84674","0.0-5.0-1.65","63ced2da9cad1ae3f98ce914","bdp_lott","Sun Mar 26 2023 13:30:55 GMT-0700 (Pacific Daylight Time)","217802","green","red","","83","","","","choice","","img/green_wl/choose11.jpg","1","160","green","0.5","0.5","0.5","l","",""
"animation","135","85281","0.0-5.0-2.65","63ced2da9cad1ae3f98ce914","bdp_lott","Sun Mar 26 2023 13:30:55 GMT-0700 (Pacific Daylight Time)","217802","green","red","","","","","","","","","","160","","","","","","[{""stimulus"":""img/green_ll/1.jpg"",""time"":55},{""stimulus"":""img/green_ll/2.jpg"",""time"":104},{""stimulus"":""img/green_ll/3.jpg"",""time"":160},{""stimulus"":""img/green_ll/4.jpg"",""time"":206},{""stimulus"":""img/green_ll/5.jpg"",""time"":253},{""stimulus"":""img/green_ll/6.jpg"",""time"":311},{""stimulus"":""img/green_ll/7.jpg"",""time"":357},{""stimulus"":""img/green_ll/8.jpg"",""time"":403},{""stimulus"":""img/green_ll/9.jpg"",""time"":456},{""stimulus"":""img/green_ll/10.jpg"",""time"":508},{""stimulus"":""img/green_ll/11.jpg"",""time"":559}]","[]"
"image-keyboard-response","136","85356","0.0-5.0-1.66","63ced2da9cad1ae3f98ce914","bdp_lott","Sun Mar 26 2023 13:30:55 GMT-0700 (Pacific Daylight Time)","217802","green","red","","74","","","","choice","","img/green_ll/choose11.jpg","1","159","green","0.5","0.5","0.5","l","",""
"animation","137","85961","0.0-5.0-2.66","63ced2da9cad1ae3f98ce914","bdp_lott","Sun Mar 26 2023 13:30:55 GMT-0700 (Pacific Daylight Time)","217802","green","red","","","","","","","","","","159","","","","","","[{""stimulus"":""img/green_ll/1.jpg"",""time"":59},{""stimulus"":""img/green_ll/2.jpg"",""time"":111},{""stimulus"":""img/green_ll/3.jpg"",""time"":158},{""stimulus"":""img/green_ll/4.jpg"",""time"":204},{""stimulus"":""img/green_ll/5.jpg"",""time"":262},{""stimulus"":""img/green_ll/6.jpg"",""time"":309},{""stimulus"":""img/green_ll/7.jpg"",""time"":355},{""stimulus"":""img/green_ll/8.jpg"",""time"":402},{""stimulus"":""img/green_ll/9.jpg"",""time"":460},{""stimulus"":""img/green_ll/10.jpg"",""time"":506},{""stimulus"":""img/green_ll/11.jpg"",""time"":558}]","[]"
"image-keyboard-response","138","86115","0.0-5.0-1.67","63ced2da9cad1ae3f98ce914","bdp_lott","Sun Mar 26 2023 13:30:55 GMT-0700 (Pacific Daylight Time)","217802","green","red","","153","","","","choice","","img/green_ll/choose11.jpg","1","158","green","0.5","0.5","0.5","w","",""
"animation","139","86721","0.0-5.0-2.67","63ced2da9cad1ae3f98ce914","bdp_lott","Sun Mar 26 2023 13:30:55 GMT-0700 (Pacific Daylight Time)","217802","green","red","","","","","","","","","","158","","","","","","[{""stimulus"":""img/green_wl/1.jpg"",""time"":60},{""stimulus"":""img/green_wl/2.jpg"",""time"":106},{""stimulus"":""img/green_wl/3.jpg"",""time"":157},{""stimulus"":""img/green_wl/4.jpg"",""time"":204},{""stimulus"":""img/green_wl/5.jpg"",""time"":263},{""stimulus"":""img/green_wl/6.jpg"",""time"":308},{""stimulus"":""img/green_wl/7.jpg"",""time"":355},{""stimulus"":""img/green_wl/8.jpg"",""time"":402},{""stimulus"":""img/green_wl/9.jpg"",""time"":460},{""stimulus"":""img/green_wl/10.jpg"",""time"":507},{""stimulus"":""img/green_wl/11.jpg"",""time"":554}]","[]"
"image-keyboard-response","140","86829","0.0-5.0-1.68","63ced2da9cad1ae3f98ce914","bdp_lott","Sun Mar 26 2023 13:30:55 GMT-0700 (Pacific Daylight Time)","217802","green","red","","107","","","","choice","","img/green_wl/choose11.jpg","1","157","green","0.5","0.5","0.5","w","",""
"animation","141","87432","0.0-5.0-2.68","63ced2da9cad1ae3f98ce914","bdp_lott","Sun Mar 26 2023 13:30:55 GMT-0700 (Pacific Daylight Time)","217802","green","red","","","","","","","","","","157","","","","","","[{""stimulus"":""img/green_wl/1.jpg"",""time"":61},{""stimulus"":""img/green_wl/2.jpg"",""time"":106},{""stimulus"":""img/green_wl/3.jpg"",""time"":154},{""stimulus"":""img/green_wl/4.jpg"",""time"":206},{""stimulus"":""img/green_wl/5.jpg"",""time"":258},{""stimulus"":""img/green_wl/6.jpg"",""time"":306},{""stimulus"":""img/green_wl/7.jpg"",""time"":356},{""stimulus"":""img/green_wl/8.jpg"",""time"":403},{""stimulus"":""img/green_wl/9.jpg"",""time"":460},{""stimulus"":""img/green_wl/10.jpg"",""time"":505},{""stimulus"":""img/green_wl/11.jpg"",""time"":553}]","[]"
"image-keyboard-response","142","87620","0.0-5.0-1.69","63ced2da9cad1ae3f98ce914","bdp_lott","Sun Mar 26 2023 13:30:55 GMT-0700 (Pacific Daylight Time)","217802","green","red","","188","","","","choice","","img/green_wl/choose11.jpg","1","156","green","0.5","0.5","0.5","w","",""
"animation","143","88224","0.0-5.0-2.69","63ced2da9cad1ae3f98ce914","bdp_lott","Sun Mar 26 2023 13:30:55 GMT-0700 (Pacific Daylight Time)","217802","green","red","","","","","","","","","","156","","","","","","[{""stimulus"":""img/green_wl/1.jpg"",""time"":59},{""stimulus"":""img/green_wl/2.jpg"",""time"":107},{""stimulus"":""img/green_wl/3.jpg"",""time"":157},{""stimulus"":""img/green_wl/4.jpg"",""time"":204},{""stimulus"":""img/green_wl/5.jpg"",""time"":262},{""stimulus"":""img/green_wl/6.jpg"",""time"":308},{""stimulus"":""img/green_wl/7.jpg"",""time"":355},{""stimulus"":""img/green_wl/8.jpg"",""time"":403},{""stimulus"":""img/green_wl/9.jpg"",""time"":462},{""stimulus"":""img/green_wl/10.jpg"",""time"":508},{""stimulus"":""img/green_wl/11.jpg"",""time"":558}]","[]"
"image-keyboard-response","144","88352","0.0-5.0-1.70","63ced2da9cad1ae3f98ce914","bdp_lott","Sun Mar 26 2023 13:30:55 GMT-0700 (Pacific Daylight Time)","217802","green","red","","128","","","","choice","","img/green_wl/choose11.jpg","1","155","green","0.5","0.5","0.5","l","",""
"animation","145","88961","0.0-5.0-2.70","63ced2da9cad1ae3f98ce914","bdp_lott","Sun Mar 26 2023 13:30:55 GMT-0700 (Pacific Daylight Time)","217802","green","red","","","","","","","","","","155","","","","","","[{""stimulus"":""img/green_ll/1.jpg"",""time"":54},{""stimulus"":""img/green_ll/2.jpg"",""time"":104},{""stimulus"":""img/green_ll/3.jpg"",""time"":157},{""stimulus"":""img/green_ll/4.jpg"",""time"":209},{""stimulus"":""img/green_ll/5.jpg"",""time"":254},{""stimulus"":""img/green_ll/6.jpg"",""time"":303},{""stimulus"":""img/green_ll/7.jpg"",""time"":359},{""stimulus"":""img/green_ll/8.jpg"",""time"":409},{""stimulus"":""img/green_ll/9.jpg"",""time"":454},{""stimulus"":""img/green_ll/10.jpg"",""time"":505},{""stimulus"":""img/green_ll/11.jpg"",""time"":557}]","[]"
"image-keyboard-response","146","89073","0.0-5.0-1.71","63ced2da9cad1ae3f98ce914","bdp_lott","Sun Mar 26 2023 13:30:55 GMT-0700 (Pacific Daylight Time)","217802","green","red","","111","","","","choice","","img/green_ll/choose11.jpg","1","154","green","0.5","0.5","0.5","w","",""
"animation","147","89681","0.0-5.0-2.71","63ced2da9cad1ae3f98ce914","bdp_lott","Sun Mar 26 2023 13:30:55 GMT-0700 (Pacific Daylight Time)","217802","green","red","","","","","","","","","","154","","","","","","[{""stimulus"":""img/green_wl/1.jpg"",""time"":57},{""stimulus"":""img/green_wl/2.jpg"",""time"":105},{""stimulus"":""img/green_wl/3.jpg"",""time"":162},{""stimulus"":""img/green_wl/4.jpg"",""time"":208},{""stimulus"":""img/green_wl/5.jpg"",""time"":254},{""stimulus"":""img/green_wl/6.jpg"",""time"":312},{""stimulus"":""img/green_wl/7.jpg"",""time"":361},{""stimulus"":""img/green_wl/8.jpg"",""time"":407},{""stimulus"":""img/green_wl/9.jpg"",""time"":457},{""stimulus"":""img/green_wl/10.jpg"",""time"":505},{""stimulus"":""img/green_wl/11.jpg"",""time"":557}]","[]"
"image-keyboard-response","148","89846","0.0-5.0-1.72","63ced2da9cad1ae3f98ce914","bdp_lott","Sun Mar 26 2023 13:30:55 GMT-0700 (Pacific Daylight Time)","217802","green","red","","164","","","","choice","","img/green_wl/choose11.jpg","1","153","green","0.5","0.5","0.5","l","",""
"animation","149","90454","0.0-5.0-2.72","63ced2da9cad1ae3f98ce914","bdp_lott","Sun Mar 26 2023 13:30:55 GMT-0700 (Pacific Daylight Time)","217802","green","red","","","","","","","","","","153","","","","","","[{""stimulus"":""img/green_ll/1.jpg"",""time"":57},{""stimulus"":""img/green_ll/2.jpg"",""time"":109},{""stimulus"":""img/green_ll/3.jpg"",""time"":155},{""stimulus"":""img/green_ll/4.jpg"",""time"":208},{""stimulus"":""img/green_ll/5.jpg"",""time"":259},{""stimulus"":""img/green_ll/6.jpg"",""time"":306},{""stimulus"":""img/green_ll/7.jpg"",""time"":356},{""stimulus"":""img/green_ll/8.jpg"",""time"":411},{""stimulus"":""img/green_ll/9.jpg"",""time"":457},{""stimulus"":""img/green_ll/10.jpg"",""time"":505},{""stimulus"":""img/green_ll/11.jpg"",""time"":555}]","[]"
"image-keyboard-response","150","90604","0.0-5.0-1.73","63ced2da9cad1ae3f98ce914","bdp_lott","Sun Mar 26 2023 13:30:55 GMT-0700 (Pacific Daylight Time)","217802","green","red","","150","","","","choice","","img/green_ll/choose11.jpg","1","152","green","0.5","0.5","0.5","w","",""
"animation","151","91208","0.0-5.0-2.73","63ced2da9cad1ae3f98ce914","bdp_lott","Sun Mar 26 2023 13:30:55 GMT-0700 (Pacific Daylight Time)","217802","green","red","","","","","","","","","","152","","","","","","[{""stimulus"":""img/green_wl/1.jpg"",""time"":58},{""stimulus"":""img/green_wl/2.jpg"",""time"":106},{""stimulus"":""img/green_wl/3.jpg"",""time"":157},{""stimulus"":""img/green_wl/4.jpg"",""time"":202},{""stimulus"":""img/green_wl/5.jpg"",""time"":261},{""stimulus"":""img/green_wl/6.jpg"",""time"":307},{""stimulus"":""img/green_wl/7.jpg"",""time"":357},{""stimulus"":""img/green_wl/8.jpg"",""time"":402},{""stimulus"":""img/green_wl/9.jpg"",""time"":458},{""stimulus"":""img/green_wl/10.jpg"",""time"":505},{""stimulus"":""img/green_wl/11.jpg"",""time"":557}]","[]"
"image-keyboard-response","152","91308","0.0-5.0-1.74","63ced2da9cad1ae3f98ce914","bdp_lott","Sun Mar 26 2023 13:30:55 GMT-0700 (Pacific Daylight Time)","217802","green","red","","100","","","","choice","","img/green_wl/choose11.jpg","2","151","red","0.5","0.5","0.5","w","",""
"animation","153","91911","0.0-5.0-2.74","63ced2da9cad1ae3f98ce914","bdp_lott","Sun Mar 26 2023 13:30:55 GMT-0700 (Pacific Daylight Time)","217802","green","red","","","","","","","","","","151","","","","","","[{""stimulus"":""img/red_ww/1.jpg"",""time"":60},{""stimulus"":""img/red_ww/2.jpg"",""time"":108},{""stimulus"":""img/red_ww/3.jpg"",""time"":156},{""stimulus"":""img/red_ww/4.jpg"",""time"":203},{""stimulus"":""img/red_ww/5.jpg"",""time"":260},{""stimulus"":""img/red_ww/6.jpg"",""time"":307},{""stimulus"":""img/red_ww/7.jpg"",""time"":354},{""stimulus"":""img/red_ww/8.jpg"",""time"":406},{""stimulus"":""img/red_ww/9.jpg"",""time"":458},{""stimulus"":""img/red_ww/10.jpg"",""time"":510},{""stimulus"":""img/red_ww/11.jpg"",""time"":557}]","[]"
"image-keyboard-response","154","92063","0.0-5.0-1.75","63ced2da9cad1ae3f98ce914","bdp_lott","Sun Mar 26 2023 13:30:55 GMT-0700 (Pacific Daylight Time)","217802","green","red","","152","","","","choice","","img/red_ww/choose11.jpg","2","150","red","0.5","0.5","0.5","w","",""
"animation","155","92671","0.0-5.0-2.75","63ced2da9cad1ae3f98ce914","bdp_lott","Sun Mar 26 2023 13:30:55 GMT-0700 (Pacific Daylight Time)","217802","green","red","","","","","","","","","","150","","","","","","[{""stimulus"":""img/red_ww/1.jpg"",""time"":57},{""stimulus"":""img/red_ww/2.jpg"",""time"":108},{""stimulus"":""img/red_ww/3.jpg"",""time"":155},{""stimulus"":""img/red_ww/4.jpg"",""time"":208},{""stimulus"":""img/red_ww/5.jpg"",""time"":259},{""stimulus"":""img/red_ww/6.jpg"",""time"":306},{""stimulus"":""img/red_ww/7.jpg"",""time"":353},{""stimulus"":""img/red_ww/8.jpg"",""time"":411},{""stimulus"":""img/red_ww/9.jpg"",""time"":457},{""stimulus"":""img/red_ww/10.jpg"",""time"":503},{""stimulus"":""img/red_ww/11.jpg"",""time"":554}]","[]"
"image-keyboard-response","156","92852","0.0-5.0-1.76","63ced2da9cad1ae3f98ce914","bdp_lott","Sun Mar 26 2023 13:30:55 GMT-0700 (Pacific Daylight Time)","217802","green","red","","181","","","","choice","","img/red_ww/choose11.jpg","2","149","red","0.5","0.1","0.1","l","",""
"animation","157","93454","0.0-5.0-2.76","63ced2da9cad1ae3f98ce914","bdp_lott","Sun Mar 26 2023 13:30:55 GMT-0700 (Pacific Daylight Time)","217802","green","red","","","","","","","","","","149","","","","","","[{""stimulus"":""img/red_wl/1.jpg"",""time"":58},{""stimulus"":""img/red_wl/2.jpg"",""time"":109},{""stimulus"":""img/red_wl/3.jpg"",""time"":155},{""stimulus"":""img/red_wl/4.jpg"",""time"":206},{""stimulus"":""img/red_wl/5.jpg"",""time"":261},{""stimulus"":""img/red_wl/6.jpg"",""time"":307},{""stimulus"":""img/red_wl/7.jpg"",""time"":358},{""stimulus"":""img/red_wl/8.jpg"",""time"":405},{""stimulus"":""img/red_wl/9.jpg"",""time"":458},{""stimulus"":""img/red_wl/10.jpg"",""time"":510},{""stimulus"":""img/red_wl/11.jpg"",""time"":557}]","[]"
"image-keyboard-response","158","93562","0.0-5.0-1.77","63ced2da9cad1ae3f98ce914","bdp_lott","Sun Mar 26 2023 13:30:55 GMT-0700 (Pacific Daylight Time)","217802","green","red","","107","","","","choice","","img/red_wl/choose11.jpg","2","148","red","0.5","0.1","0.1","l","",""
"animation","159","94168","0.0-5.0-2.77","63ced2da9cad1ae3f98ce914","bdp_lott","Sun Mar 26 2023 13:30:55 GMT-0700 (Pacific Daylight Time)","217802","green","red","","","","","","","","","","148","","","","","","[{""stimulus"":""img/red_wl/1.jpg"",""time"":56},{""stimulus"":""img/red_wl/2.jpg"",""time"":102},{""stimulus"":""img/red_wl/3.jpg"",""time"":159},{""stimulus"":""img/red_wl/4.jpg"",""time"":206},{""stimulus"":""img/red_wl/5.jpg"",""time"":256},{""stimulus"":""img/red_wl/6.jpg"",""time"":311},{""stimulus"":""img/red_wl/7.jpg"",""time"":358},{""stimulus"":""img/red_wl/8.jpg"",""time"":404},{""stimulus"":""img/red_wl/9.jpg"",""time"":455},{""stimulus"":""img/red_wl/10.jpg"",""time"":503},{""stimulus"":""img/red_wl/11.jpg"",""time"":560}]","[]"
"image-keyboard-response","160","94193","0.0-5.0-1.78","63ced2da9cad1ae3f98ce914","bdp_lott","Sun Mar 26 2023 13:30:55 GMT-0700 (Pacific Daylight Time)","217802","green","red","","24","","","","choice","","img/red_wl/choose11.jpg","2","147","red","0.5","0.1","0.1","w","",""
"animation","161","94802","0.0-5.0-2.78","63ced2da9cad1ae3f98ce914","bdp_lott","Sun Mar 26 2023 13:30:55 GMT-0700 (Pacific Daylight Time)","217802","green","red","","","","","","","","","","147","","","","","","[{""stimulus"":""img/red_ww/1.jpg"",""time"":58},{""stimulus"":""img/red_ww/2.jpg"",""time"":104},{""stimulus"":""img/red_ww/3.jpg"",""time"":153},{""stimulus"":""img/red_ww/4.jpg"",""time"":209},{""stimulus"":""img/red_ww/5.jpg"",""time"":254},{""stimulus"":""img/red_ww/6.jpg"",""time"":302},{""stimulus"":""img/red_ww/7.jpg"",""time"":360},{""stimulus"":""img/red_ww/8.jpg"",""time"":406},{""stimulus"":""img/red_ww/9.jpg"",""time"":457},{""stimulus"":""img/red_ww/10.jpg"",""time"":504},{""stimulus"":""img/red_ww/11.jpg"",""time"":558}]","[]"
"image-keyboard-response","162","95013","0.0-5.0-1.79","63ced2da9cad1ae3f98ce914","bdp_lott","Sun Mar 26 2023 13:30:55 GMT-0700 (Pacific Daylight Time)","217802","green","red","","209","","","","choice","","img/red_ww/choose11.jpg","2","146","red","0.5","0.1","0.1","l","",""
"animation","163","95614","0.0-5.0-2.79","63ced2da9cad1ae3f98ce914","bdp_lott","Sun Mar 26 2023 13:30:55 GMT-0700 (Pacific Daylight Time)","217802","green","red","","","","","","","","","","146","","","","","","[{""stimulus"":""img/red_wl/1.jpg"",""time"":51},{""stimulus"":""img/red_wl/2.jpg"",""time"":108},{""stimulus"":""img/red_wl/3.jpg"",""time"":155},{""stimulus"":""img/red_wl/4.jpg"",""time"":201},{""stimulus"":""img/red_wl/5.jpg"",""time"":258},{""stimulus"":""img/red_wl/6.jpg"",""time"":306},{""stimulus"":""img/red_wl/7.jpg"",""time"":358},{""stimulus"":""img/red_wl/8.jpg"",""time"":406},{""stimulus"":""img/red_wl/9.jpg"",""time"":458},{""stimulus"":""img/red_wl/10.jpg"",""time"":508},{""stimulus"":""img/red_wl/11.jpg"",""time"":555}]","[]"
"image-keyboard-response","164","95744","0.0-5.0-1.80","63ced2da9cad1ae3f98ce914","bdp_lott","Sun Mar 26 2023 13:30:55 GMT-0700 (Pacific Daylight Time)","217802","green","red","","128","","","","choice","","img/red_wl/choose11.jpg","2","145","red","0.5","0.1","0.1","l","",""
"animation","165","96352","0.0-5.0-2.80","63ced2da9cad1ae3f98ce914","bdp_lott","Sun Mar 26 2023 13:30:55 GMT-0700 (Pacific Daylight Time)","217802","green","red","","","","","","","","","","145","","","","","","[{""stimulus"":""img/red_wl/1.jpg"",""time"":56},{""stimulus"":""img/red_wl/2.jpg"",""time"":103},{""stimulus"":""img/red_wl/3.jpg"",""time"":155},{""stimulus"":""img/red_wl/4.jpg"",""time"":209},{""stimulus"":""img/red_wl/5.jpg"",""time"":255},{""stimulus"":""img/red_wl/6.jpg"",""time"":305},{""stimulus"":""img/red_wl/7.jpg"",""time"":362},{""stimulus"":""img/red_wl/8.jpg"",""time"":407},{""stimulus"":""img/red_wl/9.jpg"",""time"":457},{""stimulus"":""img/red_wl/10.jpg"",""time"":504},{""stimulus"":""img/red_wl/11.jpg"",""time"":561}]","[]"
"image-keyboard-response","166","96485","0.0-5.0-1.81","63ced2da9cad1ae3f98ce914","bdp_lott","Sun Mar 26 2023 13:30:55 GMT-0700 (Pacific Daylight Time)","217802","green","red","","132","","","","choice","","img/red_wl/choose11.jpg","2","144","red","0.5","0.1","0.1","l","",""
"animation","167","97089","0.0-5.0-2.81","63ced2da9cad1ae3f98ce914","bdp_lott","Sun Mar 26 2023 13:30:55 GMT-0700 (Pacific Daylight Time)","217802","green","red","","","","","","","","","","144","","","","","","[{""stimulus"":""img/red_wl/1.jpg"",""time"":57},{""stimulus"":""img/red_wl/2.jpg"",""time"":105},{""stimulus"":""img/red_wl/3.jpg"",""time"":156},{""stimulus"":""img/red_wl/4.jpg"",""time"":202},{""stimulus"":""img/red_wl/5.jpg"",""time"":260},{""stimulus"":""img/red_wl/6.jpg"",""time"":300},{""stimulus"":""img/red_wl/7.jpg"",""time"":353},{""stimulus"":""img/red_wl/8.jpg"",""time"":401},{""stimulus"":""img/red_wl/9.jpg"",""time"":457},{""stimulus"":""img/red_wl/10.jpg"",""time"":504},{""stimulus"":""img/red_wl/11.jpg"",""time"":556}]","[]"
"image-keyboard-response","168","97661","0.0-5.0-1.82","63ced2da9cad1ae3f98ce914","bdp_lott","Sun Mar 26 2023 13:30:55 GMT-0700 (Pacific Daylight Time)","217802","green","red","","571","","","","choice","","img/red_wl/choose11.jpg","2","143","red","0.5","0.1","0.1","l","",""
"animation","169","98267","0.0-5.0-2.82","63ced2da9cad1ae3f98ce914","bdp_lott","Sun Mar 26 2023 13:30:55 GMT-0700 (Pacific Daylight Time)","217802","green","red","","","","","","","","","","143","","","","","","[{""stimulus"":""img/red_wl/1.jpg"",""time"":60},{""stimulus"":""img/red_wl/2.jpg"",""time"":107},{""stimulus"":""img/red_wl/3.jpg"",""time"":153},{""stimulus"":""img/red_wl/4.jpg"",""time"":206},{""stimulus"":""img/red_wl/5.jpg"",""time"":258},{""stimulus"":""img/red_wl/6.jpg"",""time"":310},{""stimulus"":""img/red_wl/7.jpg"",""time"":357},{""stimulus"":""img/red_wl/8.jpg"",""time"":403},{""stimulus"":""img/red_wl/9.jpg"",""time"":461},{""stimulus"":""img/red_wl/10.jpg"",""time"":508},{""stimulus"":""img/red_wl/11.jpg"",""time"":554}]","[]"
"image-keyboard-response","170","98314","0.0-5.0-1.83","63ced2da9cad1ae3f98ce914","bdp_lott","Sun Mar 26 2023 13:30:55 GMT-0700 (Pacific Daylight Time)","217802","green","red","","46","","","","choice","","img/red_wl/choose11.jpg","2","142","red","0.5","0.1","0.1","l","",""
"animation","171","98918","0.0-5.0-2.83","63ced2da9cad1ae3f98ce914","bdp_lott","Sun Mar 26 2023 13:30:55 GMT-0700 (Pacific Daylight Time)","217802","green","red","","","","","","","","","","142","","","","","","[{""stimulus"":""img/red_wl/1.jpg"",""time"":53},{""stimulus"":""img/red_wl/2.jpg"",""time"":105},{""stimulus"":""img/red_wl/3.jpg"",""time"":157},{""stimulus"":""img/red_wl/4.jpg"",""time"":205},{""stimulus"":""img/red_wl/5.jpg"",""time"":256},{""stimulus"":""img/red_wl/6.jpg"",""time"":310},{""stimulus"":""img/red_wl/7.jpg"",""time"":359},{""stimulus"":""img/red_wl/8.jpg"",""time"":407},{""stimulus"":""img/red_wl/9.jpg"",""time"":453},{""stimulus"":""img/red_wl/10.jpg"",""time"":501},{""stimulus"":""img/red_wl/11.jpg"",""time"":557}]","[]"
"image-keyboard-response","172","98941","0.0-5.0-1.84","63ced2da9cad1ae3f98ce914","bdp_lott","Sun Mar 26 2023 13:30:55 GMT-0700 (Pacific Daylight Time)","217802","green","red","","22","","","","choice","","img/red_wl/choose11.jpg","2","141","red","0.5","0.1","0.1","l","",""
"animation","173","99545","0.0-5.0-2.84","63ced2da9cad1ae3f98ce914","bdp_lott","Sun Mar 26 2023 13:30:55 GMT-0700 (Pacific Daylight Time)","217802","green","red","","","","","","","","","","141","","","","","","[{""stimulus"":""img/red_wl/1.jpg"",""time"":58},{""stimulus"":""img/red_wl/2.jpg"",""time"":110},{""stimulus"":""img/red_wl/3.jpg"",""time"":157},{""stimulus"":""img/red_wl/4.jpg"",""time"":201},{""stimulus"":""img/red_wl/5.jpg"",""time"":261},{""stimulus"":""img/red_wl/6.jpg"",""time"":308},{""stimulus"":""img/red_wl/7.jpg"",""time"":355},{""stimulus"":""img/red_wl/8.jpg"",""time"":404},{""stimulus"":""img/red_wl/9.jpg"",""time"":459},{""stimulus"":""img/red_wl/10.jpg"",""time"":505},{""stimulus"":""img/red_wl/11.jpg"",""time"":557}]","[]"
"image-keyboard-response","174","99578","0.0-5.0-1.85","63ced2da9cad1ae3f98ce914","bdp_lott","Sun Mar 26 2023 13:30:55 GMT-0700 (Pacific Daylight Time)","217802","green","red","","32","","","","choice","","img/red_wl/choose11.jpg","1","140","green","0.5","0.1","0.5","l","",""
"animation","175","100185","0.0-5.0-2.85","63ced2da9cad1ae3f98ce914","bdp_lott","Sun Mar 26 2023 13:30:55 GMT-0700 (Pacific Daylight Time)","217802","green","red","","","","","","","","","","140","","","","","","[{""stimulus"":""img/green_ll/1.jpg"",""time"":54},{""stimulus"":""img/green_ll/2.jpg"",""time"":102},{""stimulus"":""img/green_ll/3.jpg"",""time"":157},{""stimulus"":""img/green_ll/4.jpg"",""time"":205},{""stimulus"":""img/green_ll/5.jpg"",""time"":257},{""stimulus"":""img/green_ll/6.jpg"",""time"":304},{""stimulus"":""img/green_ll/7.jpg"",""time"":356},{""stimulus"":""img/green_ll/8.jpg"",""time"":407},{""stimulus"":""img/green_ll/9.jpg"",""time"":454},{""stimulus"":""img/green_ll/10.jpg"",""time"":503},{""stimulus"":""img/green_ll/11.jpg"",""time"":559}]","[]"
"image-keyboard-response","176","100347","0.0-5.0-1.86","63ced2da9cad1ae3f98ce914","bdp_lott","Sun Mar 26 2023 13:30:55 GMT-0700 (Pacific Daylight Time)","217802","green","red","","161","","","","choice","","img/green_ll/choose11.jpg","1","139","green","0.5","0.1","0.5","w","",""
"animation","177","100951","0.0-5.0-2.86","63ced2da9cad1ae3f98ce914","bdp_lott","Sun Mar 26 2023 13:30:55 GMT-0700 (Pacific Daylight Time)","217802","green","red","","","","","","","","","","139","","","","","","[{""stimulus"":""img/green_wl/1.jpg"",""time"":51},{""stimulus"":""img/green_wl/2.jpg"",""time"":104},{""stimulus"":""img/green_wl/3.jpg"",""time"":156},{""stimulus"":""img/green_wl/4.jpg"",""time"":208},{""stimulus"":""img/green_wl/5.jpg"",""time"":255},{""stimulus"":""img/green_wl/6.jpg"",""time"":311},{""stimulus"":""img/green_wl/7.jpg"",""time"":359},{""stimulus"":""img/green_wl/8.jpg"",""time"":405},{""stimulus"":""img/green_wl/9.jpg"",""time"":452},{""stimulus"":""img/green_wl/10.jpg"",""time"":509},{""stimulus"":""img/green_wl/11.jpg"",""time"":556}]","[]"
"image-keyboard-response","178","101069","0.0-5.0-1.87","63ced2da9cad1ae3f98ce914","bdp_lott","Sun Mar 26 2023 13:30:55 GMT-0700 (Pacific Daylight Time)","217802","green","red","","117","","","","choice","","img/green_wl/choose11.jpg","1","138","green","0.5","0.1","0.5","l","",""
"animation","179","101674","0.0-5.0-2.87","63ced2da9cad1ae3f98ce914","bdp_lott","Sun Mar 26 2023 13:30:55 GMT-0700 (Pacific Daylight Time)","217802","green","red","","","","","","","","","","138","","","","","","[{""stimulus"":""img/green_ll/1.jpg"",""time"":60},{""stimulus"":""img/green_ll/2.jpg"",""time"":107},{""stimulus"":""img/green_ll/3.jpg"",""time"":153},{""stimulus"":""img/green_ll/4.jpg"",""time"":206},{""stimulus"":""img/green_ll/5.jpg"",""time"":261},{""stimulus"":""img/green_ll/6.jpg"",""time"":309},{""stimulus"":""img/green_ll/7.jpg"",""time"":356},{""stimulus"":""img/green_ll/8.jpg"",""time"":403},{""stimulus"":""img/green_ll/9.jpg"",""time"":461},{""stimulus"":""img/green_ll/10.jpg"",""time"":507},{""stimulus"":""img/green_ll/11.jpg"",""time"":554}]","[]"
"image-keyboard-response","180","101720","0.0-5.0-1.88","63ced2da9cad1ae3f98ce914","bdp_lott","Sun Mar 26 2023 13:30:55 GMT-0700 (Pacific Daylight Time)","217802","green","red","","45","","","","choice","","img/green_ll/choose11.jpg","1","137","green","0.5","0.1","0.5","w","",""
"animation","181","102328","0.0-5.0-2.88","63ced2da9cad1ae3f98ce914","bdp_lott","Sun Mar 26 2023 13:30:55 GMT-0700 (Pacific Daylight Time)","217802","green","red","","","","","","","","","","137","","","","","","[{""stimulus"":""img/green_wl/1.jpg"",""time"":55},{""stimulus"":""img/green_wl/2.jpg"",""time"":106},{""stimulus"":""img/green_wl/3.jpg"",""time"":155},{""stimulus"":""img/green_wl/4.jpg"",""time"":210},{""stimulus"":""img/green_wl/5.jpg"",""time"":256},{""stimulus"":""img/green_wl/6.jpg"",""time"":303},{""stimulus"":""img/green_wl/7.jpg"",""time"":362},{""stimulus"":""img/green_wl/8.jpg"",""time"":408},{""stimulus"":""img/green_wl/9.jpg"",""time"":459},{""stimulus"":""img/green_wl/10.jpg"",""time"":506},{""stimulus"":""img/green_wl/11.jpg"",""time"":559}]","[]"
"image-keyboard-response","182","102532","0.0-5.0-1.89","63ced2da9cad1ae3f98ce914","bdp_lott","Sun Mar 26 2023 13:30:55 GMT-0700 (Pacific Daylight Time)","217802","green","red","","203","","","","choice","","img/green_wl/choose11.jpg","1","136","green","0.5","0.1","0.5","w","",""
"animation","183","103149","0.0-5.0-2.89","63ced2da9cad1ae3f98ce914","bdp_lott","Sun Mar 26 2023 13:30:55 GMT-0700 (Pacific Daylight Time)","217802","green","red","","","","","","","","","","136","","","","","","[{""stimulus"":""img/green_wl/1.jpg"",""time"":60},{""stimulus"":""img/green_wl/2.jpg"",""time"":109},{""stimulus"":""img/green_wl/3.jpg"",""time"":154},{""stimulus"":""img/green_wl/4.jpg"",""time"":205},{""stimulus"":""img/green_wl/5.jpg"",""time"":258},{""stimulus"":""img/green_wl/6.jpg"",""time"":309},{""stimulus"":""img/green_wl/7.jpg"",""time"":356},{""stimulus"":""img/green_wl/8.jpg"",""time"":402},{""stimulus"":""img/green_wl/9.jpg"",""time"":460},{""stimulus"":""img/green_wl/10.jpg"",""time"":507},{""stimulus"":""img/green_wl/11.jpg"",""time"":557}]","[]"
"image-keyboard-response","184","103791","0.0-5.0-1.90","63ced2da9cad1ae3f98ce914","bdp_lott","Sun Mar 26 2023 13:30:55 GMT-0700 (Pacific Daylight Time)","217802","green","red","","641","","","","choice","","img/green_wl/choose11.jpg","1","135","green","0.5","0.1","0.5","w","",""
"animation","185","104398","0.0-5.0-2.90","63ced2da9cad1ae3f98ce914","bdp_lott","Sun Mar 26 2023 13:30:55 GMT-0700 (Pacific Daylight Time)","217802","green","red","","","","","","","","","","135","","","","","","[{""stimulus"":""img/green_wl/1.jpg"",""time"":56},{""stimulus"":""img/green_wl/2.jpg"",""time"":101},{""stimulus"":""img/green_wl/3.jpg"",""time"":153},{""stimulus"":""img/green_wl/4.jpg"",""time"":212},{""stimulus"":""img/green_wl/5.jpg"",""time"":258},{""stimulus"":""img/green_wl/6.jpg"",""time"":304},{""stimulus"":""img/green_wl/7.jpg"",""time"":352},{""stimulus"":""img/green_wl/8.jpg"",""time"":409},{""stimulus"":""img/green_wl/9.jpg"",""time"":456},{""stimulus"":""img/green_wl/10.jpg"",""time"":508},{""stimulus"":""img/green_wl/11.jpg"",""time"":554}]","[]"
"image-keyboard-response","186","104416","0.0-5.0-1.91","63ced2da9cad1ae3f98ce914","bdp_lott","Sun Mar 26 2023 13:30:55 GMT-0700 (Pacific Daylight Time)","217802","green","red","","17","","","","choice","","img/green_wl/choose11.jpg","1","134","green","0.5","0.1","0.5","l","",""
"animation","187","105024","0.0-5.0-2.91","63ced2da9cad1ae3f98ce914","bdp_lott","Sun Mar 26 2023 13:30:55 GMT-0700 (Pacific Daylight Time)","217802","green","red","","","","","","","","","","134","","","","","","[{""stimulus"":""img/green_ll/1.jpg"",""time"":57},{""stimulus"":""img/green_ll/2.jpg"",""time"":102},{""stimulus"":""img/green_ll/3.jpg"",""time"":161},{""stimulus"":""img/green_ll/4.jpg"",""time"":207},{""stimulus"":""img/green_ll/5.jpg"",""time"":257},{""stimulus"":""img/green_ll/6.jpg"",""time"":305},{""stimulus"":""img/green_ll/7.jpg"",""time"":358},{""stimulus"":""img/green_ll/8.jpg"",""time"":405},{""stimulus"":""img/green_ll/9.jpg"",""time"":457},{""stimulus"":""img/green_ll/10.jpg"",""time"":503},{""stimulus"":""img/green_ll/11.jpg"",""time"":561}]","[]"
"image-keyboard-response","188","105539","0.0-5.0-1.92","63ced2da9cad1ae3f98ce914","bdp_lott","Sun Mar 26 2023 13:30:55 GMT-0700 (Pacific Daylight Time)","217802","green","red","","514","","","","choice","","img/green_ll/choose11.jpg","1","133","green","0.5","0.1","0.5","l","",""
"animation","189","106140","0.0-5.0-2.92","63ced2da9cad1ae3f98ce914","bdp_lott","Sun Mar 26 2023 13:30:55 GMT-0700 (Pacific Daylight Time)","217802","green","red","","","","","","","","","","133","","","","","","[{""stimulus"":""img/green_ll/1.jpg"",""time"":54},{""stimulus"":""img/green_ll/2.jpg"",""time"":109},{""stimulus"":""img/green_ll/3.jpg"",""time"":159},{""stimulus"":""img/green_ll/4.jpg"",""time"":206},{""stimulus"":""img/green_ll/5.jpg"",""time"":252},{""stimulus"":""img/green_ll/6.jpg"",""time"":310},{""stimulus"":""img/green_ll/7.jpg"",""time"":357},{""stimulus"":""img/green_ll/8.jpg"",""time"":403},{""stimulus"":""img/green_ll/9.jpg"",""time"":455},{""stimulus"":""img/green_ll/10.jpg"",""time"":508},{""stimulus"":""img/green_ll/11.jpg"",""time"":560}]","[]"
"image-keyboard-response","190","106833","0.0-5.0-1.93","63ced2da9cad1ae3f98ce914","bdp_lott","Sun Mar 26 2023 13:30:55 GMT-0700 (Pacific Daylight Time)","217802","green","red","","693","","","","choice","","img/green_ll/choose11.jpg","1","132","green","0.5","0.1","0.5","w","",""
"animation","191","107440","0.0-5.0-2.93","63ced2da9cad1ae3f98ce914","bdp_lott","Sun Mar 26 2023 13:30:55 GMT-0700 (Pacific Daylight Time)","217802","green","red","","","","","","","","","","132","","","","","","[{""stimulus"":""img/green_wl/1.jpg"",""time"":56},{""stimulus"":""img/green_wl/2.jpg"",""time"":102},{""stimulus"":""img/green_wl/3.jpg"",""time"":160},{""stimulus"":""img/green_wl/4.jpg"",""time"":206},{""stimulus"":""img/green_wl/5.jpg"",""time"":255},{""stimulus"":""img/green_wl/6.jpg"",""time"":305},{""stimulus"":""img/green_wl/7.jpg"",""time"":362},{""stimulus"":""img/green_wl/8.jpg"",""time"":410},{""stimulus"":""img/green_wl/9.jpg"",""time"":455},{""stimulus"":""img/green_wl/10.jpg"",""time"":502},{""stimulus"":""img/green_wl/11.jpg"",""time"":561}]","[]"
