"trial_type","trial_index","time_elapsed","internal_node_id","subject_id","task","startTime","totalTime","fairMachine","unfairMachine","view_history","rt","event","trial","time","trialtype","success","stimulus","key_press","roundsLeft","chosen","pFairMachWin","pUnfairMachWin","pTrialWin","outcome","animation_sequence","responses"
"pavlovia","0","3","0.0-0.0","62b33e2a447824fbd0770025","bdp_lott","Thu Apr 13 2023 15:47:26 GMT-0400 (Eastern Daylight Time)","346361","red","green","","","","","","","","","","","","","","","","",""
"instructions","1","73845","0.0-1.0","62b33e2a447824fbd0770025","bdp_lott","Thu Apr 13 2023 15:47:26 GMT-0400 (Eastern Daylight Time)","346361","red","green","[{""page_index"":0,""viewing_time"":73842}]","73842","","","","","","","","","","","","","","",""
"","","","","62b33e2a447824fbd0770025","bdp_lott","Thu Apr 13 2023 15:47:26 GMT-0400 (Eastern Daylight Time)","346361","red","green","","","fullscreenenter","2","78819","fullscreenenter","","","","","","","","","","",""
"fullscreen","2","79797","0.0-2.0","62b33e2a447824fbd0770025","bdp_lott","Thu Apr 13 2023 15:47:26 GMT-0400 (Eastern Daylight Time)","346361","red","green","","","","","","","true","","","","","","","","","",""
"instructions","3","103023","0.0-4.0","62b33e2a447824fbd0770025","bdp_lott","Thu Apr 13 2023 15:47:26 GMT-0400 (Eastern Daylight Time)","346361","red","green","[{""page_index"":0,""viewing_time"":23225}]","23225","","","","","","","","","","","","","","",""
"image-keyboard-response","4","105128","0.0-5.0-1.0","62b33e2a447824fbd0770025","bdp_lott","Thu Apr 13 2023 15:47:26 GMT-0400 (Eastern Daylight Time)","346361","red","green","","2104","","","","choice","","img/red_ll/initchoose11.jpg","2","225","red","0.5","0.5","0.5","l","",""
"animation","5","105730","0.0-5.0-2.0","62b33e2a447824fbd0770025","bdp_lott","Thu Apr 13 2023 15:47:26 GMT-0400 (Eastern Daylight Time)","346361","red","green","","","","","","","","","","225","","","","","","[{""stimulus"":""img/red_ll/1.jpg"",""time"":65},{""stimulus"":""img/red_ll/2.jpg"",""time"":100},{""stimulus"":""img/red_ll/3.jpg"",""time"":150},{""stimulus"":""img/red_ll/4.jpg"",""time"":201},{""stimulus"":""img/red_ll/5.jpg"",""time"":250},{""stimulus"":""img/red_ll/6.jpg"",""time"":301},{""stimulus"":""img/red_ll/7.jpg"",""time"":366},{""stimulus"":""img/red_ll/8.jpg"",""time"":401},{""stimulus"":""img/red_ll/9.jpg"",""time"":466},{""stimulus"":""img/red_ll/10.jpg"",""time"":501},{""stimulus"":""img/red_ll/11.jpg"",""time"":551}]","[]"
"image-keyboard-response","6","107699","0.0-5.0-1.1","62b33e2a447824fbd0770025","bdp_lott","Thu Apr 13 2023 15:47:26 GMT-0400 (Eastern Daylight Time)","346361","red","green","","1968","","","","choice","","img/red_ll/choose11.jpg","1","224","green","0.5","0.5","0.5","l","",""
"animation","7","108300","0.0-5.0-2.1","62b33e2a447824fbd0770025","bdp_lott","Thu Apr 13 2023 15:47:26 GMT-0400 (Eastern Daylight Time)","346361","red","green","","","","","","","","","","224","","","","","","[{""stimulus"":""img/green_ll/1.jpg"",""time"":58},{""stimulus"":""img/green_ll/2.jpg"",""time"":101},{""stimulus"":""img/green_ll/3.jpg"",""time"":151},{""stimulus"":""img/green_ll/4.jpg"",""time"":201},{""stimulus"":""img/green_ll/5.jpg"",""time"":251},{""stimulus"":""img/green_ll/6.jpg"",""time"":309},{""stimulus"":""img/green_ll/7.jpg"",""time"":350},{""stimulus"":""img/green_ll/8.jpg"",""time"":408},{""stimulus"":""img/green_ll/9.jpg"",""time"":458},{""stimulus"":""img/green_ll/10.jpg"",""time"":507},{""stimulus"":""img/green_ll/11.jpg"",""time"":550}]","[]"
"image-keyboard-response","8","109864","0.0-5.0-1.2","62b33e2a447824fbd0770025","bdp_lott","Thu Apr 13 2023 15:47:26 GMT-0400 (Eastern Daylight Time)","346361","red","green","","1563","","","","choice","","img/green_ll/choose11.jpg","1","223","green","0.5","0.5","0.5","w","",""
"animation","9","110465","0.0-5.0-2.2","62b33e2a447824fbd0770025","bdp_lott","Thu Apr 13 2023 15:47:26 GMT-0400 (Eastern Daylight Time)","346361","red","green","","","","","","","","","","223","","","","","","[{""stimulus"":""img/green_wl/1.jpg"",""time"":58},{""stimulus"":""img/green_wl/2.jpg"",""time"":100},{""stimulus"":""img/green_wl/3.jpg"",""time"":151},{""stimulus"":""img/green_wl/4.jpg"",""time"":200},{""stimulus"":""img/green_wl/5.jpg"",""time"":251},{""stimulus"":""img/green_wl/6.jpg"",""time"":301},{""stimulus"":""img/green_wl/7.jpg"",""time"":351},{""stimulus"":""img/green_wl/8.jpg"",""time"":400},{""stimulus"":""img/green_wl/9.jpg"",""time"":458},{""stimulus"":""img/green_wl/10.jpg"",""time"":507},{""stimulus"":""img/green_wl/11.jpg"",""time"":550}]","[]"
"image-keyboard-response","10","111188","0.0-5.0-1.3","62b33e2a447824fbd0770025","bdp_lott","Thu Apr 13 2023 15:47:26 GMT-0400 (Eastern Daylight Time)","346361","red","green","","722","","","","choice","","img/green_wl/choose11.jpg","2","222","red","0.5","0.5","0.5","w","",""
"animation","11","111805","0.0-5.0-2.3","62b33e2a447824fbd0770025","bdp_lott","Thu Apr 13 2023 15:47:26 GMT-0400 (Eastern Daylight Time)","346361","red","green","","","","","","","","","","222","","","","","","[{""stimulus"":""img/red_ww/1.jpg"",""time"":52},{""stimulus"":""img/red_ww/2.jpg"",""time"":100},{""stimulus"":""img/red_ww/3.jpg"",""time"":168},{""stimulus"":""img/red_ww/4.jpg"",""time"":202},{""stimulus"":""img/red_ww/5.jpg"",""time"":251},{""stimulus"":""img/red_ww/6.jpg"",""time"":318},{""stimulus"":""img/red_ww/7.jpg"",""time"":352},{""stimulus"":""img/red_ww/8.jpg"",""time"":401},{""stimulus"":""img/red_ww/9.jpg"",""time"":452},{""stimulus"":""img/red_ww/10.jpg"",""time"":501},{""stimulus"":""img/red_ww/11.jpg"",""time"":551}]","[]"
"image-keyboard-response","12","115044","0.0-5.0-1.4","62b33e2a447824fbd0770025","bdp_lott","Thu Apr 13 2023 15:47:26 GMT-0400 (Eastern Daylight Time)","346361","red","green","","3238","","","","choice","","img/red_ww/choose11.jpg","1","221","green","0.5","0.5","0.5","l","",""
"animation","13","115645","0.0-5.0-2.4","62b33e2a447824fbd0770025","bdp_lott","Thu Apr 13 2023 15:47:26 GMT-0400 (Eastern Daylight Time)","346361","red","green","","","","","","","","","","221","","","","","","[{""stimulus"":""img/green_lw/1.jpg"",""time"":58},{""stimulus"":""img/green_lw/2.jpg"",""time"":101},{""stimulus"":""img/green_lw/3.jpg"",""time"":157},{""stimulus"":""img/green_lw/4.jpg"",""time"":202},{""stimulus"":""img/green_lw/5.jpg"",""time"":257},{""stimulus"":""img/green_lw/6.jpg"",""time"":301},{""stimulus"":""img/green_lw/7.jpg"",""time"":357},{""stimulus"":""img/green_lw/8.jpg"",""time"":401},{""stimulus"":""img/green_lw/9.jpg"",""time"":451},{""stimulus"":""img/green_lw/10.jpg"",""time"":501},{""stimulus"":""img/green_lw/11.jpg"",""time"":551}]","[]"
"image-keyboard-response","14","117172","0.0-5.0-1.5","62b33e2a447824fbd0770025","bdp_lott","Thu Apr 13 2023 15:47:26 GMT-0400 (Eastern Daylight Time)","346361","red","green","","1526","","","","choice","","img/green_lw/choose11.jpg","1","220","green","0.5","0.5","0.5","w","",""
"animation","15","117774","0.0-5.0-2.5","62b33e2a447824fbd0770025","bdp_lott","Thu Apr 13 2023 15:47:26 GMT-0400 (Eastern Daylight Time)","346361","red","green","","","","","","","","","","220","","","","","","[{""stimulus"":""img/green_ww/1.jpg"",""time"":60},{""stimulus"":""img/green_ww/2.jpg"",""time"":101},{""stimulus"":""img/green_ww/3.jpg"",""time"":150},{""stimulus"":""img/green_ww/4.jpg"",""time"":201},{""stimulus"":""img/green_ww/5.jpg"",""time"":251},{""stimulus"":""img/green_ww/6.jpg"",""time"":301},{""stimulus"":""img/green_ww/7.jpg"",""time"":351},{""stimulus"":""img/green_ww/8.jpg"",""time"":400},{""stimulus"":""img/green_ww/9.jpg"",""time"":451},{""stimulus"":""img/green_ww/10.jpg"",""time"":501},{""stimulus"":""img/green_ww/11.jpg"",""time"":551}]","[]"
"image-keyboard-response","16","120526","0.0-5.0-1.6","62b33e2a447824fbd0770025","bdp_lott","Thu Apr 13 2023 15:47:26 GMT-0400 (Eastern Daylight Time)","346361","red","green","","2751","","","","choice","","img/green_ww/choose11.jpg","2","219","red","0.5","0.5","0.5","l","",""
"animation","17","121127","0.0-5.0-2.6","62b33e2a447824fbd0770025","bdp_lott","Thu Apr 13 2023 15:47:26 GMT-0400 (Eastern Daylight Time)","346361","red","green","","","","","","","","","","219","","","","","","[{""stimulus"":""img/red_wl/1.jpg"",""time"":55},{""stimulus"":""img/red_wl/2.jpg"",""time"":101},{""stimulus"":""img/red_wl/3.jpg"",""time"":151},{""stimulus"":""img/red_wl/4.jpg"",""time"":201},{""stimulus"":""img/red_wl/5.jpg"",""time"":251},{""stimulus"":""img/red_wl/6.jpg"",""time"":301},{""stimulus"":""img/red_wl/7.jpg"",""time"":351},{""stimulus"":""img/red_wl/8.jpg"",""time"":401},{""stimulus"":""img/red_wl/9.jpg"",""time"":451},{""stimulus"":""img/red_wl/10.jpg"",""time"":501},{""stimulus"":""img/red_wl/11.jpg"",""time"":554}]","[]"
"image-keyboard-response","18","122102","0.0-5.0-1.7","62b33e2a447824fbd0770025","bdp_lott","Thu Apr 13 2023 15:47:26 GMT-0400 (Eastern Daylight Time)","346361","red","green","","974","","","","choice","","img/red_wl/choose11.jpg","2","218","red","0.5","0.5","0.5","l","",""
"animation","19","122703","0.0-5.0-2.7","62b33e2a447824fbd0770025","bdp_lott","Thu Apr 13 2023 15:47:26 GMT-0400 (Eastern Daylight Time)","346361","red","green","","","","","","","","","","218","","","","","","[{""stimulus"":""img/red_wl/1.jpg"",""time"":60},{""stimulus"":""img/red_wl/2.jpg"",""time"":101},{""stimulus"":""img/red_wl/3.jpg"",""time"":151},{""stimulus"":""img/red_wl/4.jpg"",""time"":201},{""stimulus"":""img/red_wl/5.jpg"",""time"":251},{""stimulus"":""img/red_wl/6.jpg"",""time"":311},{""stimulus"":""img/red_wl/7.jpg"",""time"":351},{""stimulus"":""img/red_wl/8.jpg"",""time"":401},{""stimulus"":""img/red_wl/9.jpg"",""time"":451},{""stimulus"":""img/red_wl/10.jpg"",""time"":501},{""stimulus"":""img/red_wl/11.jpg"",""time"":551}]","[]"
"image-keyboard-response","20","123770","0.0-5.0-1.8","62b33e2a447824fbd0770025","bdp_lott","Thu Apr 13 2023 15:47:26 GMT-0400 (Eastern Daylight Time)","346361","red","green","","1067","","","","choice","","img/red_wl/choose11.jpg","1","217","green","0.5","0.5","0.5","w","",""
"animation","21","124371","0.0-5.0-2.8","62b33e2a447824fbd0770025","bdp_lott","Thu Apr 13 2023 15:47:26 GMT-0400 (Eastern Daylight Time)","346361","red","green","","","","","","","","","","217","","","","","","[{""stimulus"":""img/green_wl/1.jpg"",""time"":57},{""stimulus"":""img/green_wl/2.jpg"",""time"":101},{""stimulus"":""img/green_wl/3.jpg"",""time"":151},{""stimulus"":""img/green_wl/4.jpg"",""time"":201},{""stimulus"":""img/green_wl/5.jpg"",""time"":251},{""stimulus"":""img/green_wl/6.jpg"",""time"":301},{""stimulus"":""img/green_wl/7.jpg"",""time"":357},{""stimulus"":""img/green_wl/8.jpg"",""time"":401},{""stimulus"":""img/green_wl/9.jpg"",""time"":450},{""stimulus"":""img/green_wl/10.jpg"",""time"":505},{""stimulus"":""img/green_wl/11.jpg"",""time"":550}]","[]"
"image-keyboard-response","22","125580","0.0-5.0-1.9","62b33e2a447824fbd0770025","bdp_lott","Thu Apr 13 2023 15:47:26 GMT-0400 (Eastern Daylight Time)","346361","red","green","","1208","","","","choice","","img/green_wl/choose11.jpg","1","216","green","0.5","0.5","0.5","w","",""
"animation","23","126181","0.0-5.0-2.9","62b33e2a447824fbd0770025","bdp_lott","Thu Apr 13 2023 15:47:26 GMT-0400 (Eastern Daylight Time)","346361","red","green","","","","","","","","","","216","","","","","","[{""stimulus"":""img/green_wl/1.jpg"",""time"":62},{""stimulus"":""img/green_wl/2.jpg"",""time"":101},{""stimulus"":""img/green_wl/3.jpg"",""time"":151},{""stimulus"":""img/green_wl/4.jpg"",""time"":201},{""stimulus"":""img/green_wl/5.jpg"",""time"":250},{""stimulus"":""img/green_wl/6.jpg"",""time"":301},{""stimulus"":""img/green_wl/7.jpg"",""time"":350},{""stimulus"":""img/green_wl/8.jpg"",""time"":412},{""stimulus"":""img/green_wl/9.jpg"",""time"":451},{""stimulus"":""img/green_wl/10.jpg"",""time"":501},{""stimulus"":""img/green_wl/11.jpg"",""time"":551}]","[]"
"image-keyboard-response","24","127159","0.0-5.0-1.10","62b33e2a447824fbd0770025","bdp_lott","Thu Apr 13 2023 15:47:26 GMT-0400 (Eastern Daylight Time)","346361","red","green","","977","","","","choice","","img/green_wl/choose11.jpg","2","215","red","0.5","0.5","0.5","w","",""
"animation","25","127760","0.0-5.0-2.10","62b33e2a447824fbd0770025","bdp_lott","Thu Apr 13 2023 15:47:26 GMT-0400 (Eastern Daylight Time)","346361","red","green","","","","","","","","","","215","","","","","","[{""stimulus"":""img/red_ww/1.jpg"",""time"":66},{""stimulus"":""img/red_ww/2.jpg"",""time"":101},{""stimulus"":""img/red_ww/3.jpg"",""time"":151},{""stimulus"":""img/red_ww/4.jpg"",""time"":201},{""stimulus"":""img/red_ww/5.jpg"",""time"":251},{""stimulus"":""img/red_ww/6.jpg"",""time"":301},{""stimulus"":""img/red_ww/7.jpg"",""time"":351},{""stimulus"":""img/red_ww/8.jpg"",""time"":401},{""stimulus"":""img/red_ww/9.jpg"",""time"":452},{""stimulus"":""img/red_ww/10.jpg"",""time"":500},{""stimulus"":""img/red_ww/11.jpg"",""time"":552}]","[]"
"image-keyboard-response","26","129584","0.0-5.0-1.11","62b33e2a447824fbd0770025","bdp_lott","Thu Apr 13 2023 15:47:26 GMT-0400 (Eastern Daylight Time)","346361","red","green","","1824","","","","choice","","img/red_ww/choose11.jpg","1","214","green","0.5","0.5","0.5","w","",""
"animation","27","130186","0.0-5.0-2.11","62b33e2a447824fbd0770025","bdp_lott","Thu Apr 13 2023 15:47:26 GMT-0400 (Eastern Daylight Time)","346361","red","green","","","","","","","","","","214","","","","","","[{""stimulus"":""img/green_ww/1.jpg"",""time"":55},{""stimulus"":""img/green_ww/2.jpg"",""time"":101},{""stimulus"":""img/green_ww/3.jpg"",""time"":152},{""stimulus"":""img/green_ww/4.jpg"",""time"":201},{""stimulus"":""img/green_ww/5.jpg"",""time"":254},{""stimulus"":""img/green_ww/6.jpg"",""time"":306},{""stimulus"":""img/green_ww/7.jpg"",""time"":351},{""stimulus"":""img/green_ww/8.jpg"",""time"":405},{""stimulus"":""img/green_ww/9.jpg"",""time"":455},{""stimulus"":""img/green_ww/10.jpg"",""time"":504},{""stimulus"":""img/green_ww/11.jpg"",""time"":551}]","[]"
"image-keyboard-response","28","130959","0.0-5.0-1.12","62b33e2a447824fbd0770025","bdp_lott","Thu Apr 13 2023 15:47:26 GMT-0400 (Eastern Daylight Time)","346361","red","green","","773","","","","choice","","img/green_ww/choose11.jpg","2","213","red","0.5","0.5","0.5","l","",""
"animation","29","131570","0.0-5.0-2.12","62b33e2a447824fbd0770025","bdp_lott","Thu Apr 13 2023 15:47:26 GMT-0400 (Eastern Daylight Time)","346361","red","green","","","","","","","","","","213","","","","","","[{""stimulus"":""img/red_wl/1.jpg"",""time"":62},{""stimulus"":""img/red_wl/2.jpg"",""time"":101},{""stimulus"":""img/red_wl/3.jpg"",""time"":151},{""stimulus"":""img/red_wl/4.jpg"",""time"":201},{""stimulus"":""img/red_wl/5.jpg"",""time"":251},{""stimulus"":""img/red_wl/6.jpg"",""time"":301},{""stimulus"":""img/red_wl/7.jpg"",""time"":363},{""stimulus"":""img/red_wl/8.jpg"",""time"":410},{""stimulus"":""img/red_wl/9.jpg"",""time"":461},{""stimulus"":""img/red_wl/10.jpg"",""time"":501},{""stimulus"":""img/red_wl/11.jpg"",""time"":551}]","[]"
"image-keyboard-response","30","132563","0.0-5.0-1.13","62b33e2a447824fbd0770025","bdp_lott","Thu Apr 13 2023 15:47:26 GMT-0400 (Eastern Daylight Time)","346361","red","green","","991","","","","choice","","img/red_wl/choose11.jpg","2","212","red","0.5","0.5","0.5","l","",""
"animation","31","133175","0.0-5.0-2.13","62b33e2a447824fbd0770025","bdp_lott","Thu Apr 13 2023 15:47:26 GMT-0400 (Eastern Daylight Time)","346361","red","green","","","","","","","","","","212","","","","","","[{""stimulus"":""img/red_wl/1.jpg"",""time"":57},{""stimulus"":""img/red_wl/2.jpg"",""time"":101},{""stimulus"":""img/red_wl/3.jpg"",""time"":162},{""stimulus"":""img/red_wl/4.jpg"",""time"":219},{""stimulus"":""img/red_wl/5.jpg"",""time"":262},{""stimulus"":""img/red_wl/6.jpg"",""time"":313},{""stimulus"":""img/red_wl/7.jpg"",""time"":363},{""stimulus"":""img/red_wl/8.jpg"",""time"":412},{""stimulus"":""img/red_wl/9.jpg"",""time"":462},{""stimulus"":""img/red_wl/10.jpg"",""time"":512},{""stimulus"":""img/red_wl/11.jpg"",""time"":567}]","[]"
"image-keyboard-response","32","133696","0.0-5.0-1.14","62b33e2a447824fbd0770025","bdp_lott","Thu Apr 13 2023 15:47:26 GMT-0400 (Eastern Daylight Time)","346361","red","green","","520","","","","choice","","img/red_wl/choose11.jpg","2","211","red","0.5","0.5","0.5","l","",""
"animation","33","134297","0.0-5.0-2.14","62b33e2a447824fbd0770025","bdp_lott","Thu Apr 13 2023 15:47:26 GMT-0400 (Eastern Daylight Time)","346361","red","green","","","","","","","","","","211","","","","","","[{""stimulus"":""img/red_wl/1.jpg"",""time"":53},{""stimulus"":""img/red_wl/2.jpg"",""time"":101},{""stimulus"":""img/red_wl/3.jpg"",""time"":150},{""stimulus"":""img/red_wl/4.jpg"",""time"":201},{""stimulus"":""img/red_wl/5.jpg"",""time"":251},{""stimulus"":""img/red_wl/6.jpg"",""time"":318},{""stimulus"":""img/red_wl/7.jpg"",""time"":351},{""stimulus"":""img/red_wl/8.jpg"",""time"":401},{""stimulus"":""img/red_wl/9.jpg"",""time"":451},{""stimulus"":""img/red_wl/10.jpg"",""time"":500},{""stimulus"":""img/red_wl/11.jpg"",""time"":552}]","[]"
"image-keyboard-response","34","134675","0.0-5.0-1.15","62b33e2a447824fbd0770025","bdp_lott","Thu Apr 13 2023 15:47:26 GMT-0400 (Eastern Daylight Time)","346361","red","green","","376","","","","choice","","img/red_wl/choose11.jpg","1","210","green","0.5","0.5","0.5","l","",""
"animation","35","135276","0.0-5.0-2.15","62b33e2a447824fbd0770025","bdp_lott","Thu Apr 13 2023 15:47:26 GMT-0400 (Eastern Daylight Time)","346361","red","green","","","","","","","","","","210","","","","","","[{""stimulus"":""img/green_ll/1.jpg"",""time"":54},{""stimulus"":""img/green_ll/2.jpg"",""time"":101},{""stimulus"":""img/green_ll/3.jpg"",""time"":154},{""stimulus"":""img/green_ll/4.jpg"",""time"":201},{""stimulus"":""img/green_ll/5.jpg"",""time"":255},{""stimulus"":""img/green_ll/6.jpg"",""time"":301},{""stimulus"":""img/green_ll/7.jpg"",""time"":355},{""stimulus"":""img/green_ll/8.jpg"",""time"":401},{""stimulus"":""img/green_ll/9.jpg"",""time"":454},{""stimulus"":""img/green_ll/10.jpg"",""time"":501},{""stimulus"":""img/green_ll/11.jpg"",""time"":551}]","[]"
"image-keyboard-response","36","135684","0.0-5.0-1.16","62b33e2a447824fbd0770025","bdp_lott","Thu Apr 13 2023 15:47:26 GMT-0400 (Eastern Daylight Time)","346361","red","green","","407","","","","choice","","img/green_ll/choose11.jpg","1","209","green","0.5","0.5","0.5","l","",""
"animation","37","136294","0.0-5.0-2.16","62b33e2a447824fbd0770025","bdp_lott","Thu Apr 13 2023 15:47:26 GMT-0400 (Eastern Daylight Time)","346361","red","green","","","","","","","","","","209","","","","","","[{""stimulus"":""img/green_ll/1.jpg"",""time"":61},{""stimulus"":""img/green_ll/2.jpg"",""time"":100},{""stimulus"":""img/green_ll/3.jpg"",""time"":151},{""stimulus"":""img/green_ll/4.jpg"",""time"":210},{""stimulus"":""img/green_ll/5.jpg"",""time"":250},{""stimulus"":""img/green_ll/6.jpg"",""time"":300},{""stimulus"":""img/green_ll/7.jpg"",""time"":350},{""stimulus"":""img/green_ll/8.jpg"",""time"":401},{""stimulus"":""img/green_ll/9.jpg"",""time"":461},{""stimulus"":""img/green_ll/10.jpg"",""time"":510},{""stimulus"":""img/green_ll/11.jpg"",""time"":557}]","[]"
"image-keyboard-response","38","136628","0.0-5.0-1.17","62b33e2a447824fbd0770025","bdp_lott","Thu Apr 13 2023 15:47:26 GMT-0400 (Eastern Daylight Time)","346361","red","green","","333","","","","choice","","img/green_ll/choose11.jpg","1","208","green","0.5","0.5","0.5","w","",""
"animation","39","137229","0.0-5.0-2.17","62b33e2a447824fbd0770025","bdp_lott","Thu Apr 13 2023 15:47:26 GMT-0400 (Eastern Daylight Time)","346361","red","green","","","","","","","","","","208","","","","","","[{""stimulus"":""img/green_wl/1.jpg"",""time"":66},{""stimulus"":""img/green_wl/2.jpg"",""time"":101},{""stimulus"":""img/green_wl/3.jpg"",""time"":152},{""stimulus"":""img/green_wl/4.jpg"",""time"":201},{""stimulus"":""img/green_wl/5.jpg"",""time"":252},{""stimulus"":""img/green_wl/6.jpg"",""time"":302},{""stimulus"":""img/green_wl/7.jpg"",""time"":351},{""stimulus"":""img/green_wl/8.jpg"",""time"":402},{""stimulus"":""img/green_wl/9.jpg"",""time"":452},{""stimulus"":""img/green_wl/10.jpg"",""time"":502},{""stimulus"":""img/green_wl/11.jpg"",""time"":551}]","[]"
"image-keyboard-response","40","137662","0.0-5.0-1.18","62b33e2a447824fbd0770025","bdp_lott","Thu Apr 13 2023 15:47:26 GMT-0400 (Eastern Daylight Time)","346361","red","green","","432","","","","choice","","img/green_wl/choose11.jpg","1","207","green","0.5","0.5","0.5","l","",""
"animation","41","138263","0.0-5.0-2.18","62b33e2a447824fbd0770025","bdp_lott","Thu Apr 13 2023 15:47:26 GMT-0400 (Eastern Daylight Time)","346361","red","green","","","","","","","","","","207","","","","","","[{""stimulus"":""img/green_ll/1.jpg"",""time"":55},{""stimulus"":""img/green_ll/2.jpg"",""time"":100},{""stimulus"":""img/green_ll/3.jpg"",""time"":165},{""stimulus"":""img/green_ll/4.jpg"",""time"":201},{""stimulus"":""img/green_ll/5.jpg"",""time"":251},{""stimulus"":""img/green_ll/6.jpg"",""time"":301},{""stimulus"":""img/green_ll/7.jpg"",""time"":350},{""stimulus"":""img/green_ll/8.jpg"",""time"":400},{""stimulus"":""img/green_ll/9.jpg"",""time"":451},{""stimulus"":""img/green_ll/10.jpg"",""time"":513},{""stimulus"":""img/green_ll/11.jpg"",""time"":550}]","[]"
"image-keyboard-response","42","138661","0.0-5.0-1.19","62b33e2a447824fbd0770025","bdp_lott","Thu Apr 13 2023 15:47:26 GMT-0400 (Eastern Daylight Time)","346361","red","green","","398","","","","choice","","img/green_ll/choose11.jpg","1","206","green","0.5","0.5","0.5","l","",""
"animation","43","139275","0.0-5.0-2.19","62b33e2a447824fbd0770025","bdp_lott","Thu Apr 13 2023 15:47:26 GMT-0400 (Eastern Daylight Time)","346361","red","green","","","","","","","","","","206","","","","","","[{""stimulus"":""img/green_ll/1.jpg"",""time"":65},{""stimulus"":""img/green_ll/2.jpg"",""time"":101},{""stimulus"":""img/green_ll/3.jpg"",""time"":152},{""stimulus"":""img/green_ll/4.jpg"",""time"":201},{""stimulus"":""img/green_ll/5.jpg"",""time"":251},{""stimulus"":""img/green_ll/6.jpg"",""time"":301},{""stimulus"":""img/green_ll/7.jpg"",""time"":352},{""stimulus"":""img/green_ll/8.jpg"",""time"":401},{""stimulus"":""img/green_ll/9.jpg"",""time"":452},{""stimulus"":""img/green_ll/10.jpg"",""time"":501},{""stimulus"":""img/green_ll/11.jpg"",""time"":551}]","[]"
"image-keyboard-response","44","139639","0.0-5.0-1.20","62b33e2a447824fbd0770025","bdp_lott","Thu Apr 13 2023 15:47:26 GMT-0400 (Eastern Daylight Time)","346361","red","green","","363","","","","choice","","img/green_ll/choose11.jpg","1","205","green","0.5","0.5","0.5","w","",""
"animation","45","140239","0.0-5.0-2.20","62b33e2a447824fbd0770025","bdp_lott","Thu Apr 13 2023 15:47:26 GMT-0400 (Eastern Daylight Time)","346361","red","green","","","","","","","","","","205","","","","","","[{""stimulus"":""img/green_wl/1.jpg"",""time"":53},{""stimulus"":""img/green_wl/2.jpg"",""time"":104},{""stimulus"":""img/green_wl/3.jpg"",""time"":152},{""stimulus"":""img/green_wl/4.jpg"",""time"":204},{""stimulus"":""img/green_wl/5.jpg"",""time"":251},{""stimulus"":""img/green_wl/6.jpg"",""time"":304},{""stimulus"":""img/green_wl/7.jpg"",""time"":352},{""stimulus"":""img/green_wl/8.jpg"",""time"":402},{""stimulus"":""img/green_wl/9.jpg"",""time"":451},{""stimulus"":""img/green_wl/10.jpg"",""time"":501},{""stimulus"":""img/green_wl/11.jpg"",""time"":553}]","[]"
"image-keyboard-response","46","140849","0.0-5.0-1.21","62b33e2a447824fbd0770025","bdp_lott","Thu Apr 13 2023 15:47:26 GMT-0400 (Eastern Daylight Time)","346361","red","green","","609","","","","choice","","img/green_wl/choose11.jpg","1","204","green","0.5","0.5","0.5","l","",""
"animation","47","141456","0.0-5.0-2.21","62b33e2a447824fbd0770025","bdp_lott","Thu Apr 13 2023 15:47:26 GMT-0400 (Eastern Daylight Time)","346361","red","green","","","","","","","","","","204","","","","","","[{""stimulus"":""img/green_ll/1.jpg"",""time"":58},{""stimulus"":""img/green_ll/2.jpg"",""time"":101},{""stimulus"":""img/green_ll/3.jpg"",""time"":151},{""stimulus"":""img/green_ll/4.jpg"",""time"":208},{""stimulus"":""img/green_ll/5.jpg"",""time"":250},{""stimulus"":""img/green_ll/6.jpg"",""time"":301},{""stimulus"":""img/green_ll/7.jpg"",""time"":350},{""stimulus"":""img/green_ll/8.jpg"",""time"":401},{""stimulus"":""img/green_ll/9.jpg"",""time"":450},{""stimulus"":""img/green_ll/10.jpg"",""time"":500},{""stimulus"":""img/green_ll/11.jpg"",""time"":550}]","[]"
"image-keyboard-response","48","141824","0.0-5.0-1.22","62b33e2a447824fbd0770025","bdp_lott","Thu Apr 13 2023 15:47:26 GMT-0400 (Eastern Daylight Time)","346361","red","green","","367","","","","choice","","img/green_ll/choose11.jpg","1","203","green","0.5","0.5","0.5","l","",""
"animation","49","142425","0.0-5.0-2.22","62b33e2a447824fbd0770025","bdp_lott","Thu Apr 13 2023 15:47:26 GMT-0400 (Eastern Daylight Time)","346361","red","green","","","","","","","","","","203","","","","","","[{""stimulus"":""img/green_ll/1.jpg"",""time"":65},{""stimulus"":""img/green_ll/2.jpg"",""time"":100},{""stimulus"":""img/green_ll/3.jpg"",""time"":151},{""stimulus"":""img/green_ll/4.jpg"",""time"":201},{""stimulus"":""img/green_ll/5.jpg"",""time"":250},{""stimulus"":""img/green_ll/6.jpg"",""time"":301},{""stimulus"":""img/green_ll/7.jpg"",""time"":351},{""stimulus"":""img/green_ll/8.jpg"",""time"":416},{""stimulus"":""img/green_ll/9.jpg"",""time"":451},{""stimulus"":""img/green_ll/10.jpg"",""time"":501},{""stimulus"":""img/green_ll/11.jpg"",""time"":551}]","[]"
"image-keyboard-response","50","142696","0.0-5.0-1.23","62b33e2a447824fbd0770025","bdp_lott","Thu Apr 13 2023 15:47:26 GMT-0400 (Eastern Daylight Time)","346361","red","green","","270","","","","choice","","img/green_ll/choose11.jpg","1","202","green","0.5","0.5","0.5","w","",""
"animation","51","143296","0.0-5.0-2.23","62b33e2a447824fbd0770025","bdp_lott","Thu Apr 13 2023 15:47:26 GMT-0400 (Eastern Daylight Time)","346361","red","green","","","","","","","","","","202","","","","","","[{""stimulus"":""img/green_wl/1.jpg"",""time"":59},{""stimulus"":""img/green_wl/2.jpg"",""time"":101},{""stimulus"":""img/green_wl/3.jpg"",""time"":161},{""stimulus"":""img/green_wl/4.jpg"",""time"":200},{""stimulus"":""img/green_wl/5.jpg"",""time"":259},{""stimulus"":""img/green_wl/6.jpg"",""time"":300},{""stimulus"":""img/green_wl/7.jpg"",""time"":350},{""stimulus"":""img/green_wl/8.jpg"",""time"":400},{""stimulus"":""img/green_wl/9.jpg"",""time"":458},{""stimulus"":""img/green_wl/10.jpg"",""time"":511},{""stimulus"":""img/green_wl/11.jpg"",""time"":551}]","[]"
"image-keyboard-response","52","144989","0.0-5.0-1.24","62b33e2a447824fbd0770025","bdp_lott","Thu Apr 13 2023 15:47:26 GMT-0400 (Eastern Daylight Time)","346361","red","green","","1692","","","","choice","","img/green_wl/choose11.jpg","2","201","red","0.5","0.5","0.5","l","",""
"animation","53","145591","0.0-5.0-2.24","62b33e2a447824fbd0770025","bdp_lott","Thu Apr 13 2023 15:47:26 GMT-0400 (Eastern Daylight Time)","346361","red","green","","","","","","","","","","201","","","","","","[{""stimulus"":""img/red_wl/1.jpg"",""time"":64},{""stimulus"":""img/red_wl/2.jpg"",""time"":102},{""stimulus"":""img/red_wl/3.jpg"",""time"":163},{""stimulus"":""img/red_wl/4.jpg"",""time"":200},{""stimulus"":""img/red_wl/5.jpg"",""time"":251},{""stimulus"":""img/red_wl/6.jpg"",""time"":300},{""stimulus"":""img/red_wl/7.jpg"",""time"":350},{""stimulus"":""img/red_wl/8.jpg"",""time"":400},{""stimulus"":""img/red_wl/9.jpg"",""time"":451},{""stimulus"":""img/red_wl/10.jpg"",""time"":513},{""stimulus"":""img/red_wl/11.jpg"",""time"":550}]","[]"
"image-keyboard-response","54","146119","0.0-5.0-1.25","62b33e2a447824fbd0770025","bdp_lott","Thu Apr 13 2023 15:47:26 GMT-0400 (Eastern Daylight Time)","346361","red","green","","528","","","","choice","","img/red_wl/choose11.jpg","2","200","red","0.5","0.5","0.5","w","",""
"animation","55","146720","0.0-5.0-2.25","62b33e2a447824fbd0770025","bdp_lott","Thu Apr 13 2023 15:47:26 GMT-0400 (Eastern Daylight Time)","346361","red","green","","","","","","","","","","200","","","","","","[{""stimulus"":""img/red_ww/1.jpg"",""time"":53},{""stimulus"":""img/red_ww/2.jpg"",""time"":102},{""stimulus"":""img/red_ww/3.jpg"",""time"":151},{""stimulus"":""img/red_ww/4.jpg"",""time"":202},{""stimulus"":""img/red_ww/5.jpg"",""time"":251},{""stimulus"":""img/red_ww/6.jpg"",""time"":301},{""stimulus"":""img/red_ww/7.jpg"",""time"":351},{""stimulus"":""img/red_ww/8.jpg"",""time"":401},{""stimulus"":""img/red_ww/9.jpg"",""time"":451},{""stimulus"":""img/red_ww/10.jpg"",""time"":501},{""stimulus"":""img/red_ww/11.jpg"",""time"":551}]","[]"
"image-keyboard-response","56","147653","0.0-5.0-1.26","62b33e2a447824fbd0770025","bdp_lott","Thu Apr 13 2023 15:47:26 GMT-0400 (Eastern Daylight Time)","346361","red","green","","933","","","","choice","","img/red_ww/choose11.jpg","2","199","red","0.5","0.5","0.5","l","",""
"animation","57","148269","0.0-5.0-2.26","62b33e2a447824fbd0770025","bdp_lott","Thu Apr 13 2023 15:47:26 GMT-0400 (Eastern Daylight Time)","346361","red","green","","","","","","","","","","199","","","","","","[{""stimulus"":""img/red_wl/1.jpg"",""time"":65},{""stimulus"":""img/red_wl/2.jpg"",""time"":102},{""stimulus"":""img/red_wl/3.jpg"",""time"":150},{""stimulus"":""img/red_wl/4.jpg"",""time"":201},{""stimulus"":""img/red_wl/5.jpg"",""time"":252},{""stimulus"":""img/red_wl/6.jpg"",""time"":301},{""stimulus"":""img/red_wl/7.jpg"",""time"":351},{""stimulus"":""img/red_wl/8.jpg"",""time"":401},{""stimulus"":""img/red_wl/9.jpg"",""time"":452},{""stimulus"":""img/red_wl/10.jpg"",""time"":501},{""stimulus"":""img/red_wl/11.jpg"",""time"":564}]","[]"
"image-keyboard-response","58","148586","0.0-5.0-1.27","62b33e2a447824fbd0770025","bdp_lott","Thu Apr 13 2023 15:47:26 GMT-0400 (Eastern Daylight Time)","346361","red","green","","316","","","","choice","","img/red_wl/choose11.jpg","2","198","red","0.5","0.5","0.5","l","",""
"animation","59","149199","0.0-5.0-2.27","62b33e2a447824fbd0770025","bdp_lott","Thu Apr 13 2023 15:47:26 GMT-0400 (Eastern Daylight Time)","346361","red","green","","","","","","","","","","198","","","","","","[{""stimulus"":""img/red_wl/1.jpg"",""time"":65},{""stimulus"":""img/red_wl/2.jpg"",""time"":101},{""stimulus"":""img/red_wl/3.jpg"",""time"":150},{""stimulus"":""img/red_wl/4.jpg"",""time"":200},{""stimulus"":""img/red_wl/5.jpg"",""time"":250},{""stimulus"":""img/red_wl/6.jpg"",""time"":300},{""stimulus"":""img/red_wl/7.jpg"",""time"":364},{""stimulus"":""img/red_wl/8.jpg"",""time"":400},{""stimulus"":""img/red_wl/9.jpg"",""time"":465},{""stimulus"":""img/red_wl/10.jpg"",""time"":501},{""stimulus"":""img/red_wl/11.jpg"",""time"":551}]","[]"
"image-keyboard-response","60","149669","0.0-5.0-1.28","62b33e2a447824fbd0770025","bdp_lott","Thu Apr 13 2023 15:47:26 GMT-0400 (Eastern Daylight Time)","346361","red","green","","469","","","","choice","","img/red_wl/choose11.jpg","2","197","red","0.5","0.5","0.5","w","",""
"animation","61","150270","0.0-5.0-2.28","62b33e2a447824fbd0770025","bdp_lott","Thu Apr 13 2023 15:47:26 GMT-0400 (Eastern Daylight Time)","346361","red","green","","","","","","","","","","197","","","","","","[{""stimulus"":""img/red_ww/1.jpg"",""time"":64},{""stimulus"":""img/red_ww/2.jpg"",""time"":102},{""stimulus"":""img/red_ww/3.jpg"",""time"":152},{""stimulus"":""img/red_ww/4.jpg"",""time"":213},{""stimulus"":""img/red_ww/5.jpg"",""time"":251},{""stimulus"":""img/red_ww/6.jpg"",""time"":313},{""stimulus"":""img/red_ww/7.jpg"",""time"":351},{""stimulus"":""img/red_ww/8.jpg"",""time"":401},{""stimulus"":""img/red_ww/9.jpg"",""time"":452},{""stimulus"":""img/red_ww/10.jpg"",""time"":513},{""stimulus"":""img/red_ww/11.jpg"",""time"":551}]","[]"
"image-keyboard-response","62","150970","0.0-5.0-1.29","62b33e2a447824fbd0770025","bdp_lott","Thu Apr 13 2023 15:47:26 GMT-0400 (Eastern Daylight Time)","346361","red","green","","699","","","","choice","","img/red_ww/choose11.jpg","2","196","red","0.5","0.5","0.5","w","",""
"animation","63","151571","0.0-5.0-2.29","62b33e2a447824fbd0770025","bdp_lott","Thu Apr 13 2023 15:47:26 GMT-0400 (Eastern Daylight Time)","346361","red","green","","","","","","","","","","196","","","","","","[{""stimulus"":""img/red_ww/1.jpg"",""time"":61},{""stimulus"":""img/red_ww/2.jpg"",""time"":101},{""stimulus"":""img/red_ww/3.jpg"",""time"":150},{""stimulus"":""img/red_ww/4.jpg"",""time"":210},{""stimulus"":""img/red_ww/5.jpg"",""time"":251},{""stimulus"":""img/red_ww/6.jpg"",""time"":301},{""stimulus"":""img/red_ww/7.jpg"",""time"":351},{""stimulus"":""img/red_ww/8.jpg"",""time"":401},{""stimulus"":""img/red_ww/9.jpg"",""time"":450},{""stimulus"":""img/red_ww/10.jpg"",""time"":509},{""stimulus"":""img/red_ww/11.jpg"",""time"":551}]","[]"
"image-keyboard-response","64","151861","0.0-5.0-1.30","62b33e2a447824fbd0770025","bdp_lott","Thu Apr 13 2023 15:47:26 GMT-0400 (Eastern Daylight Time)","346361","red","green","","288","","","","choice","","img/red_ww/choose11.jpg","2","195","red","0.5","0.5","0.5","w","",""
"animation","65","152465","0.0-5.0-2.30","62b33e2a447824fbd0770025","bdp_lott","Thu Apr 13 2023 15:47:26 GMT-0400 (Eastern Daylight Time)","346361","red","green","","","","","","","","","","195","","","","","","[{""stimulus"":""img/red_ww/1.jpg"",""time"":53},{""stimulus"":""img/red_ww/2.jpg"",""time"":101},{""stimulus"":""img/red_ww/3.jpg"",""time"":151},{""stimulus"":""img/red_ww/4.jpg"",""time"":201},{""stimulus"":""img/red_ww/5.jpg"",""time"":253},{""stimulus"":""img/red_ww/6.jpg"",""time"":301},{""stimulus"":""img/red_ww/7.jpg"",""time"":350},{""stimulus"":""img/red_ww/8.jpg"",""time"":400},{""stimulus"":""img/red_ww/9.jpg"",""time"":450},{""stimulus"":""img/red_ww/10.jpg"",""time"":500},{""stimulus"":""img/red_ww/11.jpg"",""time"":551}]","[]"
"image-keyboard-response","66","152748","0.0-5.0-1.31","62b33e2a447824fbd0770025","bdp_lott","Thu Apr 13 2023 15:47:26 GMT-0400 (Eastern Daylight Time)","346361","red","green","","283","","","","choice","","img/red_ww/choose11.jpg","2","194","red","0.5","0.5","0.5","w","",""
"animation","67","153349","0.0-5.0-2.31","62b33e2a447824fbd0770025","bdp_lott","Thu Apr 13 2023 15:47:26 GMT-0400 (Eastern Daylight Time)","346361","red","green","","","","","","","","","","194","","","","","","[{""stimulus"":""img/red_ww/1.jpg"",""time"":52},{""stimulus"":""img/red_ww/2.jpg"",""time"":101},{""stimulus"":""img/red_ww/3.jpg"",""time"":166},{""stimulus"":""img/red_ww/4.jpg"",""time"":201},{""stimulus"":""img/red_ww/5.jpg"",""time"":251},{""stimulus"":""img/red_ww/6.jpg"",""time"":301},{""stimulus"":""img/red_ww/7.jpg"",""time"":351},{""stimulus"":""img/red_ww/8.jpg"",""time"":402},{""stimulus"":""img/red_ww/9.jpg"",""time"":452},{""stimulus"":""img/red_ww/10.jpg"",""time"":501},{""stimulus"":""img/red_ww/11.jpg"",""time"":550}]","[]"
"image-keyboard-response","68","153813","0.0-5.0-1.32","62b33e2a447824fbd0770025","bdp_lott","Thu Apr 13 2023 15:47:26 GMT-0400 (Eastern Daylight Time)","346361","red","green","","464","","","","choice","","img/red_ww/choose11.jpg","2","193","red","0.5","0.5","0.5","w","",""
"animation","69","154415","0.0-5.0-2.32","62b33e2a447824fbd0770025","bdp_lott","Thu Apr 13 2023 15:47:26 GMT-0400 (Eastern Daylight Time)","346361","red","green","","","","","","","","","","193","","","","","","[{""stimulus"":""img/red_ww/1.jpg"",""time"":65},{""stimulus"":""img/red_ww/2.jpg"",""time"":100},{""stimulus"":""img/red_ww/3.jpg"",""time"":152},{""stimulus"":""img/red_ww/4.jpg"",""time"":215},{""stimulus"":""img/red_ww/5.jpg"",""time"":251},{""stimulus"":""img/red_ww/6.jpg"",""time"":300},{""stimulus"":""img/red_ww/7.jpg"",""time"":350},{""stimulus"":""img/red_ww/8.jpg"",""time"":401},{""stimulus"":""img/red_ww/9.jpg"",""time"":451},{""stimulus"":""img/red_ww/10.jpg"",""time"":500},{""stimulus"":""img/red_ww/11.jpg"",""time"":550}]","[]"
"image-keyboard-response","70","154834","0.0-5.0-1.33","62b33e2a447824fbd0770025","bdp_lott","Thu Apr 13 2023 15:47:26 GMT-0400 (Eastern Daylight Time)","346361","red","green","","418","","","","choice","","img/red_ww/choose11.jpg","2","192","red","0.5","0.5","0.5","l","",""
"animation","71","155436","0.0-5.0-2.33","62b33e2a447824fbd0770025","bdp_lott","Thu Apr 13 2023 15:47:26 GMT-0400 (Eastern Daylight Time)","346361","red","green","","","","","","","","","","192","","","","","","[{""stimulus"":""img/red_wl/1.jpg"",""time"":60},{""stimulus"":""img/red_wl/2.jpg"",""time"":100},{""stimulus"":""img/red_wl/3.jpg"",""time"":151},{""stimulus"":""img/red_wl/4.jpg"",""time"":209},{""stimulus"":""img/red_wl/5.jpg"",""time"":251},{""stimulus"":""img/red_wl/6.jpg"",""time"":301},{""stimulus"":""img/red_wl/7.jpg"",""time"":359},{""stimulus"":""img/red_wl/8.jpg"",""time"":411},{""stimulus"":""img/red_wl/9.jpg"",""time"":450},{""stimulus"":""img/red_wl/10.jpg"",""time"":509},{""stimulus"":""img/red_wl/11.jpg"",""time"":551}]","[]"
"image-keyboard-response","72","155795","0.0-5.0-1.34","62b33e2a447824fbd0770025","bdp_lott","Thu Apr 13 2023 15:47:26 GMT-0400 (Eastern Daylight Time)","346361","red","green","","358","","","","choice","","img/red_wl/choose11.jpg","2","191","red","0.5","0.5","0.5","w","",""
"animation","73","156396","0.0-5.0-2.34","62b33e2a447824fbd0770025","bdp_lott","Thu Apr 13 2023 15:47:26 GMT-0400 (Eastern Daylight Time)","346361","red","green","","","","","","","","","","191","","","","","","[{""stimulus"":""img/red_ww/1.jpg"",""time"":51},{""stimulus"":""img/red_ww/2.jpg"",""time"":102},{""stimulus"":""img/red_ww/3.jpg"",""time"":166},{""stimulus"":""img/red_ww/4.jpg"",""time"":215},{""stimulus"":""img/red_ww/5.jpg"",""time"":262},{""stimulus"":""img/red_ww/6.jpg"",""time"":301},{""stimulus"":""img/red_ww/7.jpg"",""time"":351},{""stimulus"":""img/red_ww/8.jpg"",""time"":401},{""stimulus"":""img/red_ww/9.jpg"",""time"":451},{""stimulus"":""img/red_ww/10.jpg"",""time"":501},{""stimulus"":""img/red_ww/11.jpg"",""time"":552}]","[]"
"image-keyboard-response","74","156720","0.0-5.0-1.35","62b33e2a447824fbd0770025","bdp_lott","Thu Apr 13 2023 15:47:26 GMT-0400 (Eastern Daylight Time)","346361","red","green","","324","","","","choice","","img/red_ww/choose11.jpg","2","190","red","0.5","0.5","0.5","l","",""
"animation","75","157327","0.0-5.0-2.35","62b33e2a447824fbd0770025","bdp_lott","Thu Apr 13 2023 15:47:26 GMT-0400 (Eastern Daylight Time)","346361","red","green","","","","","","","","","","190","","","","","","[{""stimulus"":""img/red_wl/1.jpg"",""time"":58},{""stimulus"":""img/red_wl/2.jpg"",""time"":101},{""stimulus"":""img/red_wl/3.jpg"",""time"":157},{""stimulus"":""img/red_wl/4.jpg"",""time"":201},{""stimulus"":""img/red_wl/5.jpg"",""time"":251},{""stimulus"":""img/red_wl/6.jpg"",""time"":301},{""stimulus"":""img/red_wl/7.jpg"",""time"":351},{""stimulus"":""img/red_wl/8.jpg"",""time"":401},{""stimulus"":""img/red_wl/9.jpg"",""time"":451},{""stimulus"":""img/red_wl/10.jpg"",""time"":501},{""stimulus"":""img/red_wl/11.jpg"",""time"":551}]","[]"
"image-keyboard-response","76","157599","0.0-5.0-1.36","62b33e2a447824fbd0770025","bdp_lott","Thu Apr 13 2023 15:47:26 GMT-0400 (Eastern Daylight Time)","346361","red","green","","272","","","","choice","","img/red_wl/choose11.jpg","2","189","red","0.5","0.5","0.5","l","",""
"animation","77","158200","0.0-5.0-2.36","62b33e2a447824fbd0770025","bdp_lott","Thu Apr 13 2023 15:47:26 GMT-0400 (Eastern Daylight Time)","346361","red","green","","","","","","","","","","189","","","","","","[{""stimulus"":""img/red_wl/1.jpg"",""time"":60},{""stimulus"":""img/red_wl/2.jpg"",""time"":101},{""stimulus"":""img/red_wl/3.jpg"",""time"":160},{""stimulus"":""img/red_wl/4.jpg"",""time"":201},{""stimulus"":""img/red_wl/5.jpg"",""time"":251},{""stimulus"":""img/red_wl/6.jpg"",""time"":301},{""stimulus"":""img/red_wl/7.jpg"",""time"":351},{""stimulus"":""img/red_wl/8.jpg"",""time"":402},{""stimulus"":""img/red_wl/9.jpg"",""time"":461},{""stimulus"":""img/red_wl/10.jpg"",""time"":509},{""stimulus"":""img/red_wl/11.jpg"",""time"":559}]","[]"
"image-keyboard-response","78","158518","0.0-5.0-1.37","62b33e2a447824fbd0770025","bdp_lott","Thu Apr 13 2023 15:47:26 GMT-0400 (Eastern Daylight Time)","346361","red","green","","317","","","","choice","","img/red_wl/choose11.jpg","2","188","red","0.5","0.5","0.5","l","",""
"animation","79","159119","0.0-5.0-2.37","62b33e2a447824fbd0770025","bdp_lott","Thu Apr 13 2023 15:47:26 GMT-0400 (Eastern Daylight Time)","346361","red","green","","","","","","","","","","188","","","","","","[{""stimulus"":""img/red_wl/1.jpg"",""time"":58},{""stimulus"":""img/red_wl/2.jpg"",""time"":101},{""stimulus"":""img/red_wl/3.jpg"",""time"":151},{""stimulus"":""img/red_wl/4.jpg"",""time"":201},{""stimulus"":""img/red_wl/5.jpg"",""time"":258},{""stimulus"":""img/red_wl/6.jpg"",""time"":301},{""stimulus"":""img/red_wl/7.jpg"",""time"":351},{""stimulus"":""img/red_wl/8.jpg"",""time"":401},{""stimulus"":""img/red_wl/9.jpg"",""time"":452},{""stimulus"":""img/red_wl/10.jpg"",""time"":508},{""stimulus"":""img/red_wl/11.jpg"",""time"":552}]","[]"
"image-keyboard-response","80","159381","0.0-5.0-1.38","62b33e2a447824fbd0770025","bdp_lott","Thu Apr 13 2023 15:47:26 GMT-0400 (Eastern Daylight Time)","346361","red","green","","261","","","","choice","","img/red_wl/choose11.jpg","2","187","red","0.5","0.5","0.5","l","",""
"animation","81","159991","0.0-5.0-2.38","62b33e2a447824fbd0770025","bdp_lott","Thu Apr 13 2023 15:47:26 GMT-0400 (Eastern Daylight Time)","346361","red","green","","","","","","","","","","187","","","","","","[{""stimulus"":""img/red_wl/1.jpg"",""time"":61},{""stimulus"":""img/red_wl/2.jpg"",""time"":101},{""stimulus"":""img/red_wl/3.jpg"",""time"":151},{""stimulus"":""img/red_wl/4.jpg"",""time"":201},{""stimulus"":""img/red_wl/5.jpg"",""time"":251},{""stimulus"":""img/red_wl/6.jpg"",""time"":310},{""stimulus"":""img/red_wl/7.jpg"",""time"":351},{""stimulus"":""img/red_wl/8.jpg"",""time"":409},{""stimulus"":""img/red_wl/9.jpg"",""time"":450},{""stimulus"":""img/red_wl/10.jpg"",""time"":500},{""stimulus"":""img/red_wl/11.jpg"",""time"":550}]","[]"
"image-keyboard-response","82","160264","0.0-5.0-1.39","62b33e2a447824fbd0770025","bdp_lott","Thu Apr 13 2023 15:47:26 GMT-0400 (Eastern Daylight Time)","346361","red","green","","273","","","","choice","","img/red_wl/choose11.jpg","2","186","red","0.5","0.5","0.5","l","",""
"animation","83","160865","0.0-5.0-2.39","62b33e2a447824fbd0770025","bdp_lott","Thu Apr 13 2023 15:47:26 GMT-0400 (Eastern Daylight Time)","346361","red","green","","","","","","","","","","186","","","","","","[{""stimulus"":""img/red_wl/1.jpg"",""time"":60},{""stimulus"":""img/red_wl/2.jpg"",""time"":101},{""stimulus"":""img/red_wl/3.jpg"",""time"":152},{""stimulus"":""img/red_wl/4.jpg"",""time"":209},{""stimulus"":""img/red_wl/5.jpg"",""time"":251},{""stimulus"":""img/red_wl/6.jpg"",""time"":301},{""stimulus"":""img/red_wl/7.jpg"",""time"":352},{""stimulus"":""img/red_wl/8.jpg"",""time"":401},{""stimulus"":""img/red_wl/9.jpg"",""time"":452},{""stimulus"":""img/red_wl/10.jpg"",""time"":509},{""stimulus"":""img/red_wl/11.jpg"",""time"":551}]","[]"
"image-keyboard-response","84","161149","0.0-5.0-1.40","62b33e2a447824fbd0770025","bdp_lott","Thu Apr 13 2023 15:47:26 GMT-0400 (Eastern Daylight Time)","346361","red","green","","283","","","","choice","","img/red_wl/choose11.jpg","1","185","green","0.5","0.5","0.5","w","",""
"animation","85","161755","0.0-5.0-2.40","62b33e2a447824fbd0770025","bdp_lott","Thu Apr 13 2023 15:47:26 GMT-0400 (Eastern Daylight Time)","346361","red","green","","","","","","","","","","185","","","","","","[{""stimulus"":""img/green_wl/1.jpg"",""time"":57},{""stimulus"":""img/green_wl/2.jpg"",""time"":102},{""stimulus"":""img/green_wl/3.jpg"",""time"":151},{""stimulus"":""img/green_wl/4.jpg"",""time"":201},{""stimulus"":""img/green_wl/5.jpg"",""time"":251},{""stimulus"":""img/green_wl/6.jpg"",""time"":301},{""stimulus"":""img/green_wl/7.jpg"",""time"":351},{""stimulus"":""img/green_wl/8.jpg"",""time"":401},{""stimulus"":""img/green_wl/9.jpg"",""time"":451},{""stimulus"":""img/green_wl/10.jpg"",""time"":506},{""stimulus"":""img/green_wl/11.jpg"",""time"":552}]","[]"
"image-keyboard-response","86","162253","0.0-5.0-1.41","62b33e2a447824fbd0770025","bdp_lott","Thu Apr 13 2023 15:47:26 GMT-0400 (Eastern Daylight Time)","346361","red","green","","497","","","","choice","","img/green_wl/choose11.jpg","1","184","green","0.5","0.5","0.5","w","",""
"animation","87","162854","0.0-5.0-2.41","62b33e2a447824fbd0770025","bdp_lott","Thu Apr 13 2023 15:47:26 GMT-0400 (Eastern Daylight Time)","346361","red","green","","","","","","","","","","184","","","","","","[{""stimulus"":""img/green_wl/1.jpg"",""time"":68},{""stimulus"":""img/green_wl/2.jpg"",""time"":102},{""stimulus"":""img/green_wl/3.jpg"",""time"":153},{""stimulus"":""img/green_wl/4.jpg"",""time"":202},{""stimulus"":""img/green_wl/5.jpg"",""time"":251},{""stimulus"":""img/green_wl/6.jpg"",""time"":301},{""stimulus"":""img/green_wl/7.jpg"",""time"":351},{""stimulus"":""img/green_wl/8.jpg"",""time"":403},{""stimulus"":""img/green_wl/9.jpg"",""time"":452},{""stimulus"":""img/green_wl/10.jpg"",""time"":519},{""stimulus"":""img/green_wl/11.jpg"",""time"":552}]","[]"
"image-keyboard-response","88","163439","0.0-5.0-1.42","62b33e2a447824fbd0770025","bdp_lott","Thu Apr 13 2023 15:47:26 GMT-0400 (Eastern Daylight Time)","346361","red","green","","584","","","","choice","","img/green_wl/choose11.jpg","1","183","green","0.5","0.5","0.5","w","",""
"animation","89","164039","0.0-5.0-2.42","62b33e2a447824fbd0770025","bdp_lott","Thu Apr 13 2023 15:47:26 GMT-0400 (Eastern Daylight Time)","346361","red","green","","","","","","","","","","183","","","","","","[{""stimulus"":""img/green_wl/1.jpg"",""time"":65},{""stimulus"":""img/green_wl/2.jpg"",""time"":102},{""stimulus"":""img/green_wl/3.jpg"",""time"":151},{""stimulus"":""img/green_wl/4.jpg"",""time"":200},{""stimulus"":""img/green_wl/5.jpg"",""time"":251},{""stimulus"":""img/green_wl/6.jpg"",""time"":301},{""stimulus"":""img/green_wl/7.jpg"",""time"":351},{""stimulus"":""img/green_wl/8.jpg"",""time"":400},{""stimulus"":""img/green_wl/9.jpg"",""time"":451},{""stimulus"":""img/green_wl/10.jpg"",""time"":501},{""stimulus"":""img/green_wl/11.jpg"",""time"":551}]","[]"
"image-keyboard-response","90","164523","0.0-5.0-1.43","62b33e2a447824fbd0770025","bdp_lott","Thu Apr 13 2023 15:47:26 GMT-0400 (Eastern Daylight Time)","346361","red","green","","483","","","","choice","","img/green_wl/choose11.jpg","1","182","green","0.5","0.5","0.5","l","",""
"animation","91","165137","0.0-5.0-2.43","62b33e2a447824fbd0770025","bdp_lott","Thu Apr 13 2023 15:47:26 GMT-0400 (Eastern Daylight Time)","346361","red","green","","","","","","","","","","182","","","","","","[{""stimulus"":""img/green_ll/1.jpg"",""time"":63},{""stimulus"":""img/green_ll/2.jpg"",""time"":102},{""stimulus"":""img/green_ll/3.jpg"",""time"":151},{""stimulus"":""img/green_ll/4.jpg"",""time"":201},{""stimulus"":""img/green_ll/5.jpg"",""time"":252},{""stimulus"":""img/green_ll/6.jpg"",""time"":301},{""stimulus"":""img/green_ll/7.jpg"",""time"":352},{""stimulus"":""img/green_ll/8.jpg"",""time"":401},{""stimulus"":""img/green_ll/9.jpg"",""time"":451},{""stimulus"":""img/green_ll/10.jpg"",""time"":513},{""stimulus"":""img/green_ll/11.jpg"",""time"":552}]","[]"
"image-keyboard-response","92","165669","0.0-5.0-1.44","62b33e2a447824fbd0770025","bdp_lott","Thu Apr 13 2023 15:47:26 GMT-0400 (Eastern Daylight Time)","346361","red","green","","531","","","","choice","","img/green_ll/choose11.jpg","2","181","red","0.5","0.5","0.5","w","",""
"animation","93","166269","0.0-5.0-2.44","62b33e2a447824fbd0770025","bdp_lott","Thu Apr 13 2023 15:47:26 GMT-0400 (Eastern Daylight Time)","346361","red","green","","","","","","","","","","181","","","","","","[{""stimulus"":""img/red_lw/1.jpg"",""time"":67},{""stimulus"":""img/red_lw/2.jpg"",""time"":100},{""stimulus"":""img/red_lw/3.jpg"",""time"":151},{""stimulus"":""img/red_lw/4.jpg"",""time"":201},{""stimulus"":""img/red_lw/5.jpg"",""time"":251},{""stimulus"":""img/red_lw/6.jpg"",""time"":300},{""stimulus"":""img/red_lw/7.jpg"",""time"":351},{""stimulus"":""img/red_lw/8.jpg"",""time"":401},{""stimulus"":""img/red_lw/9.jpg"",""time"":451},{""stimulus"":""img/red_lw/10.jpg"",""time"":501},{""stimulus"":""img/red_lw/11.jpg"",""time"":552}]","[]"
"image-keyboard-response","94","166825","0.0-5.0-1.45","62b33e2a447824fbd0770025","bdp_lott","Thu Apr 13 2023 15:47:26 GMT-0400 (Eastern Daylight Time)","346361","red","green","","555","","","","choice","","img/red_lw/choose11.jpg","2","180","red","0.5","0.5","0.5","w","",""
"animation","95","167426","0.0-5.0-2.45","62b33e2a447824fbd0770025","bdp_lott","Thu Apr 13 2023 15:47:26 GMT-0400 (Eastern Daylight Time)","346361","red","green","","","","","","","","","","180","","","","","","[{""stimulus"":""img/red_lw/1.jpg"",""time"":60},{""stimulus"":""img/red_lw/2.jpg"",""time"":101},{""stimulus"":""img/red_lw/3.jpg"",""time"":151},{""stimulus"":""img/red_lw/4.jpg"",""time"":201},{""stimulus"":""img/red_lw/5.jpg"",""time"":251},{""stimulus"":""img/red_lw/6.jpg"",""time"":301},{""stimulus"":""img/red_lw/7.jpg"",""time"":351},{""stimulus"":""img/red_lw/8.jpg"",""time"":401},{""stimulus"":""img/red_lw/9.jpg"",""time"":452},{""stimulus"":""img/red_lw/10.jpg"",""time"":501},{""stimulus"":""img/red_lw/11.jpg"",""time"":551}]","[]"
"image-keyboard-response","96","168091","0.0-5.0-1.46","62b33e2a447824fbd0770025","bdp_lott","Thu Apr 13 2023 15:47:26 GMT-0400 (Eastern Daylight Time)","346361","red","green","","664","","","","choice","","img/red_lw/choose11.jpg","1","179","green","0.5","0.5","0.5","l","",""
"animation","97","168692","0.0-5.0-2.46","62b33e2a447824fbd0770025","bdp_lott","Thu Apr 13 2023 15:47:26 GMT-0400 (Eastern Daylight Time)","346361","red","green","","","","","","","","","","179","","","","","","[{""stimulus"":""img/green_lw/1.jpg"",""time"":59},{""stimulus"":""img/green_lw/2.jpg"",""time"":101},{""stimulus"":""img/green_lw/3.jpg"",""time"":157},{""stimulus"":""img/green_lw/4.jpg"",""time"":200},{""stimulus"":""img/green_lw/5.jpg"",""time"":250},{""stimulus"":""img/green_lw/6.jpg"",""time"":300},{""stimulus"":""img/green_lw/7.jpg"",""time"":350},{""stimulus"":""img/green_lw/8.jpg"",""time"":401},{""stimulus"":""img/green_lw/9.jpg"",""time"":451},{""stimulus"":""img/green_lw/10.jpg"",""time"":500},{""stimulus"":""img/green_lw/11.jpg"",""time"":551}]","[]"
"image-keyboard-response","98","169163","0.0-5.0-1.47","62b33e2a447824fbd0770025","bdp_lott","Thu Apr 13 2023 15:47:26 GMT-0400 (Eastern Daylight Time)","346361","red","green","","470","","","","choice","","img/green_lw/choose11.jpg","2","178","red","0.5","0.5","0.5","l","",""
"animation","99","169764","0.0-5.0-2.47","62b33e2a447824fbd0770025","bdp_lott","Thu Apr 13 2023 15:47:26 GMT-0400 (Eastern Daylight Time)","346361","red","green","","","","","","","","","","178","","","","","","[{""stimulus"":""img/red_ll/1.jpg"",""time"":53},{""stimulus"":""img/red_ll/2.jpg"",""time"":101},{""stimulus"":""img/red_ll/3.jpg"",""time"":152},{""stimulus"":""img/red_ll/4.jpg"",""time"":201},{""stimulus"":""img/red_ll/5.jpg"",""time"":251},{""stimulus"":""img/red_ll/6.jpg"",""time"":303},{""stimulus"":""img/red_ll/7.jpg"",""time"":353},{""stimulus"":""img/red_ll/8.jpg"",""time"":402},{""stimulus"":""img/red_ll/9.jpg"",""time"":451},{""stimulus"":""img/red_ll/10.jpg"",""time"":501},{""stimulus"":""img/red_ll/11.jpg"",""time"":551}]","[]"
"image-keyboard-response","100","170302","0.0-5.0-1.48","62b33e2a447824fbd0770025","bdp_lott","Thu Apr 13 2023 15:47:26 GMT-0400 (Eastern Daylight Time)","346361","red","green","","537","","","","choice","","img/red_ll/choose11.jpg","1","177","green","0.5","0.5","0.5","l","",""
"animation","101","170903","0.0-5.0-2.48","62b33e2a447824fbd0770025","bdp_lott","Thu Apr 13 2023 15:47:26 GMT-0400 (Eastern Daylight Time)","346361","red","green","","","","","","","","","","177","","","","","","[{""stimulus"":""img/green_ll/1.jpg"",""time"":63},{""stimulus"":""img/green_ll/2.jpg"",""time"":101},{""stimulus"":""img/green_ll/3.jpg"",""time"":151},{""stimulus"":""img/green_ll/4.jpg"",""time"":201},{""stimulus"":""img/green_ll/5.jpg"",""time"":262},{""stimulus"":""img/green_ll/6.jpg"",""time"":312},{""stimulus"":""img/green_ll/7.jpg"",""time"":351},{""stimulus"":""img/green_ll/8.jpg"",""time"":413},{""stimulus"":""img/green_ll/9.jpg"",""time"":462},{""stimulus"":""img/green_ll/10.jpg"",""time"":512},{""stimulus"":""img/green_ll/11.jpg"",""time"":552}]","[]"
"image-keyboard-response","102","171360","0.0-5.0-1.49","62b33e2a447824fbd0770025","bdp_lott","Thu Apr 13 2023 15:47:26 GMT-0400 (Eastern Daylight Time)","346361","red","green","","456","","","","choice","","img/green_ll/choose11.jpg","2","176","red","0.5","0.5","0.5","w","",""
"animation","103","171961","0.0-5.0-2.49","62b33e2a447824fbd0770025","bdp_lott","Thu Apr 13 2023 15:47:26 GMT-0400 (Eastern Daylight Time)","346361","red","green","","","","","","","","","","176","","","","","","[{""stimulus"":""img/red_lw/1.jpg"",""time"":54},{""stimulus"":""img/red_lw/2.jpg"",""time"":101},{""stimulus"":""img/red_lw/3.jpg"",""time"":151},{""stimulus"":""img/red_lw/4.jpg"",""time"":201},{""stimulus"":""img/red_lw/5.jpg"",""time"":251},{""stimulus"":""img/red_lw/6.jpg"",""time"":301},{""stimulus"":""img/red_lw/7.jpg"",""time"":351},{""stimulus"":""img/red_lw/8.jpg"",""time"":401},{""stimulus"":""img/red_lw/9.jpg"",""time"":451},{""stimulus"":""img/red_lw/10.jpg"",""time"":504},{""stimulus"":""img/red_lw/11.jpg"",""time"":551}]","[]"
"image-keyboard-response","104","172541","0.0-5.0-1.50","62b33e2a447824fbd0770025","bdp_lott","Thu Apr 13 2023 15:47:26 GMT-0400 (Eastern Daylight Time)","346361","red","green","","579","","","","choice","","img/red_lw/choose11.jpg","1","175","green","0.5","0.5","0.5","w","",""
"animation","105","173146","0.0-5.0-2.50","62b33e2a447824fbd0770025","bdp_lott","Thu Apr 13 2023 15:47:26 GMT-0400 (Eastern Daylight Time)","346361","red","green","","","","","","","","","","175","","","","","","[{""stimulus"":""img/green_ww/1.jpg"",""time"":54},{""stimulus"":""img/green_ww/2.jpg"",""time"":100},{""stimulus"":""img/green_ww/3.jpg"",""time"":154},{""stimulus"":""img/green_ww/4.jpg"",""time"":203},{""stimulus"":""img/green_ww/5.jpg"",""time"":253},{""stimulus"":""img/green_ww/6.jpg"",""time"":302},{""stimulus"":""img/green_ww/7.jpg"",""time"":351},{""stimulus"":""img/green_ww/8.jpg"",""time"":405},{""stimulus"":""img/green_ww/9.jpg"",""time"":451},{""stimulus"":""img/green_ww/10.jpg"",""time"":503},{""stimulus"":""img/green_ww/11.jpg"",""time"":552}]","[]"
"image-keyboard-response","106","173814","0.0-5.0-1.51","62b33e2a447824fbd0770025","bdp_lott","Thu Apr 13 2023 15:47:26 GMT-0400 (Eastern Daylight Time)","346361","red","green","","667","","","","choice","","img/green_ww/choose11.jpg","1","174","green","0.5","0.5","0.5","l","",""
"animation","107","174427","0.0-5.0-2.51","62b33e2a447824fbd0770025","bdp_lott","Thu Apr 13 2023 15:47:26 GMT-0400 (Eastern Daylight Time)","346361","red","green","","","","","","","","","","174","","","","","","[{""stimulus"":""img/green_lw/1.jpg"",""time"":64},{""stimulus"":""img/green_lw/2.jpg"",""time"":102},{""stimulus"":""img/green_lw/3.jpg"",""time"":151},{""stimulus"":""img/green_lw/4.jpg"",""time"":202},{""stimulus"":""img/green_lw/5.jpg"",""time"":251},{""stimulus"":""img/green_lw/6.jpg"",""time"":301},{""stimulus"":""img/green_lw/7.jpg"",""time"":351},{""stimulus"":""img/green_lw/8.jpg"",""time"":402},{""stimulus"":""img/green_lw/9.jpg"",""time"":451},{""stimulus"":""img/green_lw/10.jpg"",""time"":513},{""stimulus"":""img/green_lw/11.jpg"",""time"":551}]","[]"
"image-keyboard-response","108","174911","0.0-5.0-1.52","62b33e2a447824fbd0770025","bdp_lott","Thu Apr 13 2023 15:47:26 GMT-0400 (Eastern Daylight Time)","346361","red","green","","482","","","","choice","","img/green_lw/choose11.jpg","2","173","red","0.5","0.5","0.5","l","",""
"animation","109","175512","0.0-5.0-2.52","62b33e2a447824fbd0770025","bdp_lott","Thu Apr 13 2023 15:47:26 GMT-0400 (Eastern Daylight Time)","346361","red","green","","","","","","","","","","173","","","","","","[{""stimulus"":""img/red_ll/1.jpg"",""time"":66},{""stimulus"":""img/red_ll/2.jpg"",""time"":101},{""stimulus"":""img/red_ll/3.jpg"",""time"":151},{""stimulus"":""img/red_ll/4.jpg"",""time"":201},{""stimulus"":""img/red_ll/5.jpg"",""time"":251},{""stimulus"":""img/red_ll/6.jpg"",""time"":301},{""stimulus"":""img/red_ll/7.jpg"",""time"":367},{""stimulus"":""img/red_ll/8.jpg"",""time"":400},{""stimulus"":""img/red_ll/9.jpg"",""time"":451},{""stimulus"":""img/red_ll/10.jpg"",""time"":501},{""stimulus"":""img/red_ll/11.jpg"",""time"":551}]","[]"
"image-keyboard-response","110","175863","0.0-5.0-1.53","62b33e2a447824fbd0770025","bdp_lott","Thu Apr 13 2023 15:47:26 GMT-0400 (Eastern Daylight Time)","346361","red","green","","350","","","","choice","","img/red_ll/choose11.jpg","2","172","red","0.5","0.5","0.5","w","",""
"animation","111","176475","0.0-5.0-2.53","62b33e2a447824fbd0770025","bdp_lott","Thu Apr 13 2023 15:47:26 GMT-0400 (Eastern Daylight Time)","346361","red","green","","","","","","","","","","172","","","","","","[{""stimulus"":""img/red_lw/1.jpg"",""time"":62},{""stimulus"":""img/red_lw/2.jpg"",""time"":100},{""stimulus"":""img/red_lw/3.jpg"",""time"":151},{""stimulus"":""img/red_lw/4.jpg"",""time"":213},{""stimulus"":""img/red_lw/5.jpg"",""time"":262},{""stimulus"":""img/red_lw/6.jpg"",""time"":300},{""stimulus"":""img/red_lw/7.jpg"",""time"":350},{""stimulus"":""img/red_lw/8.jpg"",""time"":412},{""stimulus"":""img/red_lw/9.jpg"",""time"":450},{""stimulus"":""img/red_lw/10.jpg"",""time"":500},{""stimulus"":""img/red_lw/11.jpg"",""time"":561}]","[]"
"image-keyboard-response","112","177127","0.0-5.0-1.54","62b33e2a447824fbd0770025","bdp_lott","Thu Apr 13 2023 15:47:26 GMT-0400 (Eastern Daylight Time)","346361","red","green","","650","","","","choice","","img/red_lw/choose11.jpg","2","171","red","0.5","0.5","0.5","w","",""
"animation","113","177728","0.0-5.0-2.54","62b33e2a447824fbd0770025","bdp_lott","Thu Apr 13 2023 15:47:26 GMT-0400 (Eastern Daylight Time)","346361","red","green","","","","","","","","","","171","","","","","","[{""stimulus"":""img/red_lw/1.jpg"",""time"":65},{""stimulus"":""img/red_lw/2.jpg"",""time"":101},{""stimulus"":""img/red_lw/3.jpg"",""time"":152},{""stimulus"":""img/red_lw/4.jpg"",""time"":201},{""stimulus"":""img/red_lw/5.jpg"",""time"":251},{""stimulus"":""img/red_lw/6.jpg"",""time"":301},{""stimulus"":""img/red_lw/7.jpg"",""time"":366},{""stimulus"":""img/red_lw/8.jpg"",""time"":401},{""stimulus"":""img/red_lw/9.jpg"",""time"":451},{""stimulus"":""img/red_lw/10.jpg"",""time"":501},{""stimulus"":""img/red_lw/11.jpg"",""time"":551}]","[]"
"image-keyboard-response","114","178337","0.0-5.0-1.55","62b33e2a447824fbd0770025","bdp_lott","Thu Apr 13 2023 15:47:26 GMT-0400 (Eastern Daylight Time)","346361","red","green","","608","","","","choice","","img/red_lw/choose11.jpg","2","170","red","0.5","0.5","0.5","w","",""
"animation","115","178939","0.0-5.0-2.55","62b33e2a447824fbd0770025","bdp_lott","Thu Apr 13 2023 15:47:26 GMT-0400 (Eastern Daylight Time)","346361","red","green","","","","","","","","","","170","","","","","","[{""stimulus"":""img/red_lw/1.jpg"",""time"":54},{""stimulus"":""img/red_lw/2.jpg"",""time"":101},{""stimulus"":""img/red_lw/3.jpg"",""time"":151},{""stimulus"":""img/red_lw/4.jpg"",""time"":201},{""stimulus"":""img/red_lw/5.jpg"",""time"":251},{""stimulus"":""img/red_lw/6.jpg"",""time"":301},{""stimulus"":""img/red_lw/7.jpg"",""time"":353},{""stimulus"":""img/red_lw/8.jpg"",""time"":405},{""stimulus"":""img/red_lw/9.jpg"",""time"":451},{""stimulus"":""img/red_lw/10.jpg"",""time"":501},{""stimulus"":""img/red_lw/11.jpg"",""time"":551}]","[]"
"image-keyboard-response","116","179478","0.0-5.0-1.56","62b33e2a447824fbd0770025","bdp_lott","Thu Apr 13 2023 15:47:26 GMT-0400 (Eastern Daylight Time)","346361","red","green","","538","","","","choice","","img/red_lw/choose11.jpg","2","169","red","0.5","0.5","0.5","l","",""
"animation","117","180079","0.0-5.0-2.56","62b33e2a447824fbd0770025","bdp_lott","Thu Apr 13 2023 15:47:26 GMT-0400 (Eastern Daylight Time)","346361","red","green","","","","","","","","","","169","","","","","","[{""stimulus"":""img/red_ll/1.jpg"",""time"":62},{""stimulus"":""img/red_ll/2.jpg"",""time"":100},{""stimulus"":""img/red_ll/3.jpg"",""time"":151},{""stimulus"":""img/red_ll/4.jpg"",""time"":201},{""stimulus"":""img/red_ll/5.jpg"",""time"":251},{""stimulus"":""img/red_ll/6.jpg"",""time"":301},{""stimulus"":""img/red_ll/7.jpg"",""time"":350},{""stimulus"":""img/red_ll/8.jpg"",""time"":411},{""stimulus"":""img/red_ll/9.jpg"",""time"":451},{""stimulus"":""img/red_ll/10.jpg"",""time"":510},{""stimulus"":""img/red_ll/11.jpg"",""time"":551}]","[]"
"image-keyboard-response","118","180663","0.0-5.0-1.57","62b33e2a447824fbd0770025","bdp_lott","Thu Apr 13 2023 15:47:26 GMT-0400 (Eastern Daylight Time)","346361","red","green","","583","","","","choice","","img/red_ll/choose11.jpg","1","168","green","0.5","0.5","0.5","w","",""
"animation","119","181264","0.0-5.0-2.57","62b33e2a447824fbd0770025","bdp_lott","Thu Apr 13 2023 15:47:26 GMT-0400 (Eastern Daylight Time)","346361","red","green","","","","","","","","","","168","","","","","","[{""stimulus"":""img/green_wl/1.jpg"",""time"":59},{""stimulus"":""img/green_wl/2.jpg"",""time"":112},{""stimulus"":""img/green_wl/3.jpg"",""time"":151},{""stimulus"":""img/green_wl/4.jpg"",""time"":201},{""stimulus"":""img/green_wl/5.jpg"",""time"":252},{""stimulus"":""img/green_wl/6.jpg"",""time"":301},{""stimulus"":""img/green_wl/7.jpg"",""time"":351},{""stimulus"":""img/green_wl/8.jpg"",""time"":401},{""stimulus"":""img/green_wl/9.jpg"",""time"":451},{""stimulus"":""img/green_wl/10.jpg"",""time"":509},{""stimulus"":""img/green_wl/11.jpg"",""time"":551}]","[]"
"image-keyboard-response","120","181765","0.0-5.0-1.58","62b33e2a447824fbd0770025","bdp_lott","Thu Apr 13 2023 15:47:26 GMT-0400 (Eastern Daylight Time)","346361","red","green","","500","","","","choice","","img/green_wl/choose11.jpg","2","167","red","0.5","0.5","0.5","l","",""
"animation","121","182366","0.0-5.0-2.58","62b33e2a447824fbd0770025","bdp_lott","Thu Apr 13 2023 15:47:26 GMT-0400 (Eastern Daylight Time)","346361","red","green","","","","","","","","","","167","","","","","","[{""stimulus"":""img/red_wl/1.jpg"",""time"":56},{""stimulus"":""img/red_wl/2.jpg"",""time"":101},{""stimulus"":""img/red_wl/3.jpg"",""time"":151},{""stimulus"":""img/red_wl/4.jpg"",""time"":207},{""stimulus"":""img/red_wl/5.jpg"",""time"":251},{""stimulus"":""img/red_wl/6.jpg"",""time"":301},{""stimulus"":""img/red_wl/7.jpg"",""time"":351},{""stimulus"":""img/red_wl/8.jpg"",""time"":401},{""stimulus"":""img/red_wl/9.jpg"",""time"":457},{""stimulus"":""img/red_wl/10.jpg"",""time"":501},{""stimulus"":""img/red_wl/11.jpg"",""time"":551}]","[]"
"image-keyboard-response","122","182878","0.0-5.0-1.59","62b33e2a447824fbd0770025","bdp_lott","Thu Apr 13 2023 15:47:26 GMT-0400 (Eastern Daylight Time)","346361","red","green","","511","","","","choice","","img/red_wl/choose11.jpg","1","166","green","0.5","0.5","0.5","w","",""
"animation","123","183479","0.0-5.0-2.59","62b33e2a447824fbd0770025","bdp_lott","Thu Apr 13 2023 15:47:26 GMT-0400 (Eastern Daylight Time)","346361","red","green","","","","","","","","","","166","","","","","","[{""stimulus"":""img/green_wl/1.jpg"",""time"":59},{""stimulus"":""img/green_wl/2.jpg"",""time"":101},{""stimulus"":""img/green_wl/3.jpg"",""time"":151},{""stimulus"":""img/green_wl/4.jpg"",""time"":201},{""stimulus"":""img/green_wl/5.jpg"",""time"":257},{""stimulus"":""img/green_wl/6.jpg"",""time"":302},{""stimulus"":""img/green_wl/7.jpg"",""time"":351},{""stimulus"":""img/green_wl/8.jpg"",""time"":401},{""stimulus"":""img/green_wl/9.jpg"",""time"":451},{""stimulus"":""img/green_wl/10.jpg"",""time"":501},{""stimulus"":""img/green_wl/11.jpg"",""time"":551}]","[]"
"image-keyboard-response","124","183971","0.0-5.0-1.60","62b33e2a447824fbd0770025","bdp_lott","Thu Apr 13 2023 15:47:26 GMT-0400 (Eastern Daylight Time)","346361","red","green","","492","","","","choice","","img/green_wl/choose11.jpg","1","165","green","0.5","0.5","0.5","w","",""
"animation","125","184572","0.0-5.0-2.60","62b33e2a447824fbd0770025","bdp_lott","Thu Apr 13 2023 15:47:26 GMT-0400 (Eastern Daylight Time)","346361","red","green","","","","","","","","","","165","","","","","","[{""stimulus"":""img/green_wl/1.jpg"",""time"":64},{""stimulus"":""img/green_wl/2.jpg"",""time"":101},{""stimulus"":""img/green_wl/3.jpg"",""time"":151},{""stimulus"":""img/green_wl/4.jpg"",""time"":200},{""stimulus"":""img/green_wl/5.jpg"",""time"":251},{""stimulus"":""img/green_wl/6.jpg"",""time"":301},{""stimulus"":""img/green_wl/7.jpg"",""time"":351},{""stimulus"":""img/green_wl/8.jpg"",""time"":401},{""stimulus"":""img/green_wl/9.jpg"",""time"":451},{""stimulus"":""img/green_wl/10.jpg"",""time"":501},{""stimulus"":""img/green_wl/11.jpg"",""time"":564}]","[]"
"image-keyboard-response","126","186215","0.0-5.0-1.61","62b33e2a447824fbd0770025","bdp_lott","Thu Apr 13 2023 15:47:26 GMT-0400 (Eastern Daylight Time)","346361","red","green","","1642","","","","choice","","img/green_wl/choose11.jpg","1","164","green","0.5","0.5","0.5","w","",""
"animation","127","186834","0.0-5.0-2.61","62b33e2a447824fbd0770025","bdp_lott","Thu Apr 13 2023 15:47:26 GMT-0400 (Eastern Daylight Time)","346361","red","green","","","","","","","","","","164","","","","","","[{""stimulus"":""img/green_wl/1.jpg"",""time"":51},{""stimulus"":""img/green_wl/2.jpg"",""time"":100},{""stimulus"":""img/green_wl/3.jpg"",""time"":151},{""stimulus"":""img/green_wl/4.jpg"",""time"":201},{""stimulus"":""img/green_wl/5.jpg"",""time"":250},{""stimulus"":""img/green_wl/6.jpg"",""time"":300},{""stimulus"":""img/green_wl/7.jpg"",""time"":350},{""stimulus"":""img/green_wl/8.jpg"",""time"":400},{""stimulus"":""img/green_wl/9.jpg"",""time"":450},{""stimulus"":""img/green_wl/10.jpg"",""time"":500},{""stimulus"":""img/green_wl/11.jpg"",""time"":550}]","[]"
"image-keyboard-response","128","188081","0.0-5.0-1.62","62b33e2a447824fbd0770025","bdp_lott","Thu Apr 13 2023 15:47:26 GMT-0400 (Eastern Daylight Time)","346361","red","green","","1246","","","","choice","","img/green_wl/choose11.jpg","1","163","green","0.5","0.5","0.5","l","",""
"animation","129","188682","0.0-5.0-2.62","62b33e2a447824fbd0770025","bdp_lott","Thu Apr 13 2023 15:47:26 GMT-0400 (Eastern Daylight Time)","346361","red","green","","","","","","","","","","163","","","","","","[{""stimulus"":""img/green_ll/1.jpg"",""time"":51},{""stimulus"":""img/green_ll/2.jpg"",""time"":100},{""stimulus"":""img/green_ll/3.jpg"",""time"":151},{""stimulus"":""img/green_ll/4.jpg"",""time"":218},{""stimulus"":""img/green_ll/5.jpg"",""time"":251},{""stimulus"":""img/green_ll/6.jpg"",""time"":302},{""stimulus"":""img/green_ll/7.jpg"",""time"":351},{""stimulus"":""img/green_ll/8.jpg"",""time"":402},{""stimulus"":""img/green_ll/9.jpg"",""time"":452},{""stimulus"":""img/green_ll/10.jpg"",""time"":518},{""stimulus"":""img/green_ll/11.jpg"",""time"":552}]","[]"
"image-keyboard-response","130","189195","0.0-5.0-1.63","62b33e2a447824fbd0770025","bdp_lott","Thu Apr 13 2023 15:47:26 GMT-0400 (Eastern Daylight Time)","346361","red","green","","512","","","","choice","","img/green_ll/choose11.jpg","2","162","red","0.5","0.5","0.5","l","",""
"animation","131","189796","0.0-5.0-2.63","62b33e2a447824fbd0770025","bdp_lott","Thu Apr 13 2023 15:47:26 GMT-0400 (Eastern Daylight Time)","346361","red","green","","","","","","","","","","162","","","","","","[{""stimulus"":""img/red_ll/1.jpg"",""time"":53},{""stimulus"":""img/red_ll/2.jpg"",""time"":101},{""stimulus"":""img/red_ll/3.jpg"",""time"":151},{""stimulus"":""img/red_ll/4.jpg"",""time"":201},{""stimulus"":""img/red_ll/5.jpg"",""time"":251},{""stimulus"":""img/red_ll/6.jpg"",""time"":301},{""stimulus"":""img/red_ll/7.jpg"",""time"":351},{""stimulus"":""img/red_ll/8.jpg"",""time"":402},{""stimulus"":""img/red_ll/9.jpg"",""time"":451},{""stimulus"":""img/red_ll/10.jpg"",""time"":504},{""stimulus"":""img/red_ll/11.jpg"",""time"":551}]","[]"
"image-keyboard-response","132","190335","0.0-5.0-1.64","62b33e2a447824fbd0770025","bdp_lott","Thu Apr 13 2023 15:47:26 GMT-0400 (Eastern Daylight Time)","346361","red","green","","539","","","","choice","","img/red_ll/choose11.jpg","2","161","red","0.5","0.5","0.5","w","",""
"animation","133","190936","0.0-5.0-2.64","62b33e2a447824fbd0770025","bdp_lott","Thu Apr 13 2023 15:47:26 GMT-0400 (Eastern Daylight Time)","346361","red","green","","","","","","","","","","161","","","","","","[{""stimulus"":""img/red_lw/1.jpg"",""time"":61},{""stimulus"":""img/red_lw/2.jpg"",""time"":100},{""stimulus"":""img/red_lw/3.jpg"",""time"":150},{""stimulus"":""img/red_lw/4.jpg"",""time"":200},{""stimulus"":""img/red_lw/5.jpg"",""time"":250},{""stimulus"":""img/red_lw/6.jpg"",""time"":310},{""stimulus"":""img/red_lw/7.jpg"",""time"":351},{""stimulus"":""img/red_lw/8.jpg"",""time"":412},{""stimulus"":""img/red_lw/9.jpg"",""time"":461},{""stimulus"":""img/red_lw/10.jpg"",""time"":500},{""stimulus"":""img/red_lw/11.jpg"",""time"":550}]","[]"
"image-keyboard-response","134","191427","0.0-5.0-1.65","62b33e2a447824fbd0770025","bdp_lott","Thu Apr 13 2023 15:47:26 GMT-0400 (Eastern Daylight Time)","346361","red","green","","490","","","","choice","","img/red_lw/choose11.jpg","2","160","red","0.5","0.5","0.5","l","",""
"animation","135","192047","0.0-5.0-2.65","62b33e2a447824fbd0770025","bdp_lott","Thu Apr 13 2023 15:47:26 GMT-0400 (Eastern Daylight Time)","346361","red","green","","","","","","","","","","160","","","","","","[{""stimulus"":""img/red_ll/1.jpg"",""time"":51},{""stimulus"":""img/red_ll/2.jpg"",""time"":102},{""stimulus"":""img/red_ll/3.jpg"",""time"":152},{""stimulus"":""img/red_ll/4.jpg"",""time"":201},{""stimulus"":""img/red_ll/5.jpg"",""time"":269},{""stimulus"":""img/red_ll/6.jpg"",""time"":301},{""stimulus"":""img/red_ll/7.jpg"",""time"":352},{""stimulus"":""img/red_ll/8.jpg"",""time"":419},{""stimulus"":""img/red_ll/9.jpg"",""time"":451},{""stimulus"":""img/red_ll/10.jpg"",""time"":502},{""stimulus"":""img/red_ll/11.jpg"",""time"":551}]","[]"
"image-keyboard-response","136","192294","0.0-5.0-1.66","62b33e2a447824fbd0770025","bdp_lott","Thu Apr 13 2023 15:47:26 GMT-0400 (Eastern Daylight Time)","346361","red","green","","247","","","","choice","","img/red_ll/choose11.jpg","1","159","green","0.5","0.5","0.5","l","",""
"animation","137","192896","0.0-5.0-2.66","62b33e2a447824fbd0770025","bdp_lott","Thu Apr 13 2023 15:47:26 GMT-0400 (Eastern Daylight Time)","346361","red","green","","","","","","","","","","159","","","","","","[{""stimulus"":""img/green_ll/1.jpg"",""time"":66},{""stimulus"":""img/green_ll/2.jpg"",""time"":102},{""stimulus"":""img/green_ll/3.jpg"",""time"":151},{""stimulus"":""img/green_ll/4.jpg"",""time"":219},{""stimulus"":""img/green_ll/5.jpg"",""time"":251},{""stimulus"":""img/green_ll/6.jpg"",""time"":318},{""stimulus"":""img/green_ll/7.jpg"",""time"":352},{""stimulus"":""img/green_ll/8.jpg"",""time"":402},{""stimulus"":""img/green_ll/9.jpg"",""time"":452},{""stimulus"":""img/green_ll/10.jpg"",""time"":502},{""stimulus"":""img/green_ll/11.jpg"",""time"":551}]","[]"
"image-keyboard-response","138","193373","0.0-5.0-1.67","62b33e2a447824fbd0770025","bdp_lott","Thu Apr 13 2023 15:47:26 GMT-0400 (Eastern Daylight Time)","346361","red","green","","476","","","","choice","","img/green_ll/choose11.jpg","1","158","green","0.5","0.5","0.5","l","",""
"animation","139","193977","0.0-5.0-2.67","62b33e2a447824fbd0770025","bdp_lott","Thu Apr 13 2023 15:47:26 GMT-0400 (Eastern Daylight Time)","346361","red","green","","","","","","","","","","158","","","","","","[{""stimulus"":""img/green_ll/1.jpg"",""time"":55},{""stimulus"":""img/green_ll/2.jpg"",""time"":101},{""stimulus"":""img/green_ll/3.jpg"",""time"":151},{""stimulus"":""img/green_ll/4.jpg"",""time"":205},{""stimulus"":""img/green_ll/5.jpg"",""time"":251},{""stimulus"":""img/green_ll/6.jpg"",""time"":301},{""stimulus"":""img/green_ll/7.jpg"",""time"":356},{""stimulus"":""img/green_ll/8.jpg"",""time"":404},{""stimulus"":""img/green_ll/9.jpg"",""time"":451},{""stimulus"":""img/green_ll/10.jpg"",""time"":501},{""stimulus"":""img/green_ll/11.jpg"",""time"":555}]","[]"
"image-keyboard-response","140","194659","0.0-5.0-1.68","62b33e2a447824fbd0770025","bdp_lott","Thu Apr 13 2023 15:47:26 GMT-0400 (Eastern Daylight Time)","346361","red","green","","681","","","","choice","","img/green_ll/choose11.jpg","2","157","red","0.5","0.5","0.5","w","",""
"animation","141","195260","0.0-5.0-2.68","62b33e2a447824fbd0770025","bdp_lott","Thu Apr 13 2023 15:47:26 GMT-0400 (Eastern Daylight Time)","346361","red","green","","","","","","","","","","157","","","","","","[{""stimulus"":""img/red_lw/1.jpg"",""time"":50},{""stimulus"":""img/red_lw/2.jpg"",""time"":100},{""stimulus"":""img/red_lw/3.jpg"",""time"":151},{""stimulus"":""img/red_lw/4.jpg"",""time"":201},{""stimulus"":""img/red_lw/5.jpg"",""time"":251},{""stimulus"":""img/red_lw/6.jpg"",""time"":318},{""stimulus"":""img/red_lw/7.jpg"",""time"":351},{""stimulus"":""img/red_lw/8.jpg"",""time"":418},{""stimulus"":""img/red_lw/9.jpg"",""time"":450},{""stimulus"":""img/red_lw/10.jpg"",""time"":516},{""stimulus"":""img/red_lw/11.jpg"",""time"":564}]","[]"
"image-keyboard-response","142","195725","0.0-5.0-1.69","62b33e2a447824fbd0770025","bdp_lott","Thu Apr 13 2023 15:47:26 GMT-0400 (Eastern Daylight Time)","346361","red","green","","464","","","","choice","","img/red_lw/choose11.jpg","2","156","red","0.5","0.5","0.5","l","",""
"animation","143","196343","0.0-5.0-2.69","62b33e2a447824fbd0770025","bdp_lott","Thu Apr 13 2023 15:47:26 GMT-0400 (Eastern Daylight Time)","346361","red","green","","","","","","","","","","156","","","","","","[{""stimulus"":""img/red_ll/1.jpg"",""time"":53},{""stimulus"":""img/red_ll/2.jpg"",""time"":101},{""stimulus"":""img/red_ll/3.jpg"",""time"":150},{""stimulus"":""img/red_ll/4.jpg"",""time"":217},{""stimulus"":""img/red_ll/5.jpg"",""time"":265},{""stimulus"":""img/red_ll/6.jpg"",""time"":301},{""stimulus"":""img/red_ll/7.jpg"",""time"":351},{""stimulus"":""img/red_ll/8.jpg"",""time"":400},{""stimulus"":""img/red_ll/9.jpg"",""time"":450},{""stimulus"":""img/red_ll/10.jpg"",""time"":500},{""stimulus"":""img/red_ll/11.jpg"",""time"":551}]","[]"
"image-keyboard-response","144","196995","0.0-5.0-1.70","62b33e2a447824fbd0770025","bdp_lott","Thu Apr 13 2023 15:47:26 GMT-0400 (Eastern Daylight Time)","346361","red","green","","651","","","","choice","","img/red_ll/choose11.jpg","1","155","green","0.5","0.5","0.5","l","",""
"animation","145","197595","0.0-5.0-2.70","62b33e2a447824fbd0770025","bdp_lott","Thu Apr 13 2023 15:47:26 GMT-0400 (Eastern Daylight Time)","346361","red","green","","","","","","","","","","155","","","","","","[{""stimulus"":""img/green_ll/1.jpg"",""time"":64},{""stimulus"":""img/green_ll/2.jpg"",""time"":101},{""stimulus"":""img/green_ll/3.jpg"",""time"":163},{""stimulus"":""img/green_ll/4.jpg"",""time"":201},{""stimulus"":""img/green_ll/5.jpg"",""time"":263},{""stimulus"":""img/green_ll/6.jpg"",""time"":313},{""stimulus"":""img/green_ll/7.jpg"",""time"":352},{""stimulus"":""img/green_ll/8.jpg"",""time"":402},{""stimulus"":""img/green_ll/9.jpg"",""time"":450},{""stimulus"":""img/green_ll/10.jpg"",""time"":501},{""stimulus"":""img/green_ll/11.jpg"",""time"":551}]","[]"
"image-keyboard-response","146","198244","0.0-5.0-1.71","62b33e2a447824fbd0770025","bdp_lott","Thu Apr 13 2023 15:47:26 GMT-0400 (Eastern Daylight Time)","346361","red","green","","648","","","","choice","","img/green_ll/choose11.jpg","1","154","green","0.5","0.5","0.5","w","",""
"animation","147","198844","0.0-5.0-2.71","62b33e2a447824fbd0770025","bdp_lott","Thu Apr 13 2023 15:47:26 GMT-0400 (Eastern Daylight Time)","346361","red","green","","","","","","","","","","154","","","","","","[{""stimulus"":""img/green_wl/1.jpg"",""time"":63},{""stimulus"":""img/green_wl/2.jpg"",""time"":101},{""stimulus"":""img/green_wl/3.jpg"",""time"":162},{""stimulus"":""img/green_wl/4.jpg"",""time"":213},{""stimulus"":""img/green_wl/5.jpg"",""time"":251},{""stimulus"":""img/green_wl/6.jpg"",""time"":313},{""stimulus"":""img/green_wl/7.jpg"",""time"":351},{""stimulus"":""img/green_wl/8.jpg"",""time"":401},{""stimulus"":""img/green_wl/9.jpg"",""time"":451},{""stimulus"":""img/green_wl/10.jpg"",""time"":511},{""stimulus"":""img/green_wl/11.jpg"",""time"":563}]","[]"
"image-keyboard-response","148","199283","0.0-5.0-1.72","62b33e2a447824fbd0770025","bdp_lott","Thu Apr 13 2023 15:47:26 GMT-0400 (Eastern Daylight Time)","346361","red","green","","438","","","","choice","","img/green_wl/choose11.jpg","1","153","green","0.5","0.5","0.5","w","",""
"animation","149","199890","0.0-5.0-2.72","62b33e2a447824fbd0770025","bdp_lott","Thu Apr 13 2023 15:47:26 GMT-0400 (Eastern Daylight Time)","346361","red","green","","","","","","","","","","153","","","","","","[{""stimulus"":""img/green_wl/1.jpg"",""time"":56},{""stimulus"":""img/green_wl/2.jpg"",""time"":101},{""stimulus"":""img/green_wl/3.jpg"",""time"":157},{""stimulus"":""img/green_wl/4.jpg"",""time"":204},{""stimulus"":""img/green_wl/5.jpg"",""time"":256},{""stimulus"":""img/green_wl/6.jpg"",""time"":305},{""stimulus"":""img/green_wl/7.jpg"",""time"":356},{""stimulus"":""img/green_wl/8.jpg"",""time"":401},{""stimulus"":""img/green_wl/9.jpg"",""time"":451},{""stimulus"":""img/green_wl/10.jpg"",""time"":506},{""stimulus"":""img/green_wl/11.jpg"",""time"":551}]","[]"
"image-keyboard-response","150","200319","0.0-5.0-1.73","62b33e2a447824fbd0770025","bdp_lott","Thu Apr 13 2023 15:47:26 GMT-0400 (Eastern Daylight Time)","346361","red","green","","429","","","","choice","","img/green_wl/choose11.jpg","1","152","green","0.5","0.5","0.5","w","",""
"animation","151","200921","0.0-5.0-2.73","62b33e2a447824fbd0770025","bdp_lott","Thu Apr 13 2023 15:47:26 GMT-0400 (Eastern Daylight Time)","346361","red","green","","","","","","","","","","152","","","","","","[{""stimulus"":""img/green_wl/1.jpg"",""time"":51},{""stimulus"":""img/green_wl/2.jpg"",""time"":101},{""stimulus"":""img/green_wl/3.jpg"",""time"":152},{""stimulus"":""img/green_wl/4.jpg"",""time"":200},{""stimulus"":""img/green_wl/5.jpg"",""time"":251},{""stimulus"":""img/green_wl/6.jpg"",""time"":300},{""stimulus"":""img/green_wl/7.jpg"",""time"":351},{""stimulus"":""img/green_wl/8.jpg"",""time"":400},{""stimulus"":""img/green_wl/9.jpg"",""time"":451},{""stimulus"":""img/green_wl/10.jpg"",""time"":520},{""stimulus"":""img/green_wl/11.jpg"",""time"":551}]","[]"
"image-keyboard-response","152","201301","0.0-5.0-1.74","62b33e2a447824fbd0770025","bdp_lott","Thu Apr 13 2023 15:47:26 GMT-0400 (Eastern Daylight Time)","346361","red","green","","379","","","","choice","","img/green_wl/choose11.jpg","1","151","green","0.5","0.5","0.5","w","",""
"animation","153","201904","0.0-5.0-2.74","62b33e2a447824fbd0770025","bdp_lott","Thu Apr 13 2023 15:47:26 GMT-0400 (Eastern Daylight Time)","346361","red","green","","","","","","","","","","151","","","","","","[{""stimulus"":""img/green_wl/1.jpg"",""time"":51},{""stimulus"":""img/green_wl/2.jpg"",""time"":100},{""stimulus"":""img/green_wl/3.jpg"",""time"":152},{""stimulus"":""img/green_wl/4.jpg"",""time"":201},{""stimulus"":""img/green_wl/5.jpg"",""time"":252},{""stimulus"":""img/green_wl/6.jpg"",""time"":319},{""stimulus"":""img/green_wl/7.jpg"",""time"":351},{""stimulus"":""img/green_wl/8.jpg"",""time"":402},{""stimulus"":""img/green_wl/9.jpg"",""time"":451},{""stimulus"":""img/green_wl/10.jpg"",""time"":519},{""stimulus"":""img/green_wl/11.jpg"",""time"":551}]","[]"
"image-keyboard-response","154","202276","0.0-5.0-1.75","62b33e2a447824fbd0770025","bdp_lott","Thu Apr 13 2023 15:47:26 GMT-0400 (Eastern Daylight Time)","346361","red","green","","372","","","","choice","","img/green_wl/choose11.jpg","1","150","green","0.5","0.5","0.5","l","",""
"animation","155","202877","0.0-5.0-2.75","62b33e2a447824fbd0770025","bdp_lott","Thu Apr 13 2023 15:47:26 GMT-0400 (Eastern Daylight Time)","346361","red","green","","","","","","","","","","150","","","","","","[{""stimulus"":""img/green_ll/1.jpg"",""time"":60},{""stimulus"":""img/green_ll/2.jpg"",""time"":101},{""stimulus"":""img/green_ll/3.jpg"",""time"":161},{""stimulus"":""img/green_ll/4.jpg"",""time"":201},{""stimulus"":""img/green_ll/5.jpg"",""time"":260},{""stimulus"":""img/green_ll/6.jpg"",""time"":309},{""stimulus"":""img/green_ll/7.jpg"",""time"":351},{""stimulus"":""img/green_ll/8.jpg"",""time"":409},{""stimulus"":""img/green_ll/9.jpg"",""time"":451},{""stimulus"":""img/green_ll/10.jpg"",""time"":508},{""stimulus"":""img/green_ll/11.jpg"",""time"":558}]","[]"
"image-keyboard-response","156","203577","0.0-5.0-1.76","62b33e2a447824fbd0770025","bdp_lott","Thu Apr 13 2023 15:47:26 GMT-0400 (Eastern Daylight Time)","346361","red","green","","700","","","","choice","","img/green_ll/choose11.jpg","2","149","red","0.5","0.1","0.5","w","",""
"animation","157","204178","0.0-5.0-2.76","62b33e2a447824fbd0770025","bdp_lott","Thu Apr 13 2023 15:47:26 GMT-0400 (Eastern Daylight Time)","346361","red","green","","","","","","","","","","149","","","","","","[{""stimulus"":""img/red_lw/1.jpg"",""time"":59},{""stimulus"":""img/red_lw/2.jpg"",""time"":102},{""stimulus"":""img/red_lw/3.jpg"",""time"":154},{""stimulus"":""img/red_lw/4.jpg"",""time"":207},{""stimulus"":""img/red_lw/5.jpg"",""time"":258},{""stimulus"":""img/red_lw/6.jpg"",""time"":301},{""stimulus"":""img/red_lw/7.jpg"",""time"":351},{""stimulus"":""img/red_lw/8.jpg"",""time"":407},{""stimulus"":""img/red_lw/9.jpg"",""time"":458},{""stimulus"":""img/red_lw/10.jpg"",""time"":507},{""stimulus"":""img/red_lw/11.jpg"",""time"":551}]","[]"
"image-keyboard-response","158","204787","0.0-5.0-1.77","62b33e2a447824fbd0770025","bdp_lott","Thu Apr 13 2023 15:47:26 GMT-0400 (Eastern Daylight Time)","346361","red","green","","608","","","","choice","","img/red_lw/choose11.jpg","2","148","red","0.5","0.1","0.5","w","",""
"animation","159","205388","0.0-5.0-2.77","62b33e2a447824fbd0770025","bdp_lott","Thu Apr 13 2023 15:47:26 GMT-0400 (Eastern Daylight Time)","346361","red","green","","","","","","","","","","148","","","","","","[{""stimulus"":""img/red_lw/1.jpg"",""time"":63},{""stimulus"":""img/red_lw/2.jpg"",""time"":101},{""stimulus"":""img/red_lw/3.jpg"",""time"":165},{""stimulus"":""img/red_lw/4.jpg"",""time"":201},{""stimulus"":""img/red_lw/5.jpg"",""time"":264},{""stimulus"":""img/red_lw/6.jpg"",""time"":314},{""stimulus"":""img/red_lw/7.jpg"",""time"":360},{""stimulus"":""img/red_lw/8.jpg"",""time"":401},{""stimulus"":""img/red_lw/9.jpg"",""time"":451},{""stimulus"":""img/red_lw/10.jpg"",""time"":514},{""stimulus"":""img/red_lw/11.jpg"",""time"":551}]","[]"
"image-keyboard-response","160","205901","0.0-5.0-1.78","62b33e2a447824fbd0770025","bdp_lott","Thu Apr 13 2023 15:47:26 GMT-0400 (Eastern Daylight Time)","346361","red","green","","512","","","","choice","","img/red_lw/choose11.jpg","2","147","red","0.5","0.1","0.5","l","",""
"animation","161","206502","0.0-5.0-2.78","62b33e2a447824fbd0770025","bdp_lott","Thu Apr 13 2023 15:47:26 GMT-0400 (Eastern Daylight Time)","346361","red","green","","","","","","","","","","147","","","","","","[{""stimulus"":""img/red_ll/1.jpg"",""time"":52},{""stimulus"":""img/red_ll/2.jpg"",""time"":101},{""stimulus"":""img/red_ll/3.jpg"",""time"":167},{""stimulus"":""img/red_ll/4.jpg"",""time"":201},{""stimulus"":""img/red_ll/5.jpg"",""time"":251},{""stimulus"":""img/red_ll/6.jpg"",""time"":302},{""stimulus"":""img/red_ll/7.jpg"",""time"":351},{""stimulus"":""img/red_ll/8.jpg"",""time"":401},{""stimulus"":""img/red_ll/9.jpg"",""time"":451},{""stimulus"":""img/red_ll/10.jpg"",""time"":501},{""stimulus"":""img/red_ll/11.jpg"",""time"":551}]","[]"
"image-keyboard-response","162","206966","0.0-5.0-1.79","62b33e2a447824fbd0770025","bdp_lott","Thu Apr 13 2023 15:47:26 GMT-0400 (Eastern Daylight Time)","346361","red","green","","463","","","","choice","","img/red_ll/choose11.jpg","1","146","green","0.5","0.1","0.1","l","",""
"animation","163","207567","0.0-5.0-2.79","62b33e2a447824fbd0770025","bdp_lott","Thu Apr 13 2023 15:47:26 GMT-0400 (Eastern Daylight Time)","346361","red","green","","","","","","","","","","146","","","","","","[{""stimulus"":""img/green_ll/1.jpg"",""time"":52},{""stimulus"":""img/green_ll/2.jpg"",""time"":101},{""stimulus"":""img/green_ll/3.jpg"",""time"":152},{""stimulus"":""img/green_ll/4.jpg"",""time"":218},{""stimulus"":""img/green_ll/5.jpg"",""time"":251},{""stimulus"":""img/green_ll/6.jpg"",""time"":302},{""stimulus"":""img/green_ll/7.jpg"",""time"":351},{""stimulus"":""img/green_ll/8.jpg"",""time"":401},{""stimulus"":""img/green_ll/9.jpg"",""time"":452},{""stimulus"":""img/green_ll/10.jpg"",""time"":501},{""stimulus"":""img/green_ll/11.jpg"",""time"":551}]","[]"
"image-keyboard-response","164","208023","0.0-5.0-1.80","62b33e2a447824fbd0770025","bdp_lott","Thu Apr 13 2023 15:47:26 GMT-0400 (Eastern Daylight Time)","346361","red","green","","456","","","","choice","","img/green_ll/choose11.jpg","1","145","green","0.5","0.1","0.1","l","",""
"animation","165","208631","0.0-5.0-2.80","62b33e2a447824fbd0770025","bdp_lott","Thu Apr 13 2023 15:47:26 GMT-0400 (Eastern Daylight Time)","346361","red","green","","","","","","","","","","145","","","","","","[{""stimulus"":""img/green_ll/1.jpg"",""time"":59},{""stimulus"":""img/green_ll/2.jpg"",""time"":101},{""stimulus"":""img/green_ll/3.jpg"",""time"":152},{""stimulus"":""img/green_ll/4.jpg"",""time"":210},{""stimulus"":""img/green_ll/5.jpg"",""time"":259},{""stimulus"":""img/green_ll/6.jpg"",""time"":301},{""stimulus"":""img/green_ll/7.jpg"",""time"":352},{""stimulus"":""img/green_ll/8.jpg"",""time"":408},{""stimulus"":""img/green_ll/9.jpg"",""time"":458},{""stimulus"":""img/green_ll/10.jpg"",""time"":501},{""stimulus"":""img/green_ll/11.jpg"",""time"":551}]","[]"
"image-keyboard-response","166","209169","0.0-5.0-1.81","62b33e2a447824fbd0770025","bdp_lott","Thu Apr 13 2023 15:47:26 GMT-0400 (Eastern Daylight Time)","346361","red","green","","538","","","","choice","","img/green_ll/choose11.jpg","2","144","red","0.5","0.1","0.5","w","",""
"animation","167","209770","0.0-5.0-2.81","62b33e2a447824fbd0770025","bdp_lott","Thu Apr 13 2023 15:47:26 GMT-0400 (Eastern Daylight Time)","346361","red","green","","","","","","","","","","144","","","","","","[{""stimulus"":""img/red_lw/1.jpg"",""time"":61},{""stimulus"":""img/red_lw/2.jpg"",""time"":100},{""stimulus"":""img/red_lw/3.jpg"",""time"":150},{""stimulus"":""img/red_lw/4.jpg"",""time"":200},{""stimulus"":""img/red_lw/5.jpg"",""time"":260},{""stimulus"":""img/red_lw/6.jpg"",""time"":301},{""stimulus"":""img/red_lw/7.jpg"",""time"":350},{""stimulus"":""img/red_lw/8.jpg"",""time"":401},{""stimulus"":""img/red_lw/9.jpg"",""time"":451},{""stimulus"":""img/red_lw/10.jpg"",""time"":510},{""stimulus"":""img/red_lw/11.jpg"",""time"":550}]","[]"
"image-keyboard-response","168","210407","0.0-5.0-1.82","62b33e2a447824fbd0770025","bdp_lott","Thu Apr 13 2023 15:47:26 GMT-0400 (Eastern Daylight Time)","346361","red","green","","636","","","","choice","","img/red_lw/choose11.jpg","2","143","red","0.5","0.1","0.5","w","",""
"animation","169","211007","0.0-5.0-2.82","62b33e2a447824fbd0770025","bdp_lott","Thu Apr 13 2023 15:47:26 GMT-0400 (Eastern Daylight Time)","346361","red","green","","","","","","","","","","143","","","","","","[{""stimulus"":""img/red_lw/1.jpg"",""time"":57},{""stimulus"":""img/red_lw/2.jpg"",""time"":100},{""stimulus"":""img/red_lw/3.jpg"",""time"":150},{""stimulus"":""img/red_lw/4.jpg"",""time"":200},{""stimulus"":""img/red_lw/5.jpg"",""time"":250},{""stimulus"":""img/red_lw/6.jpg"",""time"":300},{""stimulus"":""img/red_lw/7.jpg"",""time"":351},{""stimulus"":""img/red_lw/8.jpg"",""time"":401},{""stimulus"":""img/red_lw/9.jpg"",""time"":451},{""stimulus"":""img/red_lw/10.jpg"",""time"":505},{""stimulus"":""img/red_lw/11.jpg"",""time"":557}]","[]"
"image-keyboard-response","170","211570","0.0-5.0-1.83","62b33e2a447824fbd0770025","bdp_lott","Thu Apr 13 2023 15:47:26 GMT-0400 (Eastern Daylight Time)","346361","red","green","","562","","","","choice","","img/red_lw/choose11.jpg","2","142","red","0.5","0.1","0.5","w","",""
"animation","171","212171","0.0-5.0-2.83","62b33e2a447824fbd0770025","bdp_lott","Thu Apr 13 2023 15:47:26 GMT-0400 (Eastern Daylight Time)","346361","red","green","","","","","","","","","","142","","","","","","[{""stimulus"":""img/red_lw/1.jpg"",""time"":60},{""stimulus"":""img/red_lw/2.jpg"",""time"":101},{""stimulus"":""img/red_lw/3.jpg"",""time"":151},{""stimulus"":""img/red_lw/4.jpg"",""time"":209},{""stimulus"":""img/red_lw/5.jpg"",""time"":260},{""stimulus"":""img/red_lw/6.jpg"",""time"":308},{""stimulus"":""img/red_lw/7.jpg"",""time"":351},{""stimulus"":""img/red_lw/8.jpg"",""time"":408},{""stimulus"":""img/red_lw/9.jpg"",""time"":451},{""stimulus"":""img/red_lw/10.jpg"",""time"":508},{""stimulus"":""img/red_lw/11.jpg"",""time"":552}]","[]"
"image-keyboard-response","172","212655","0.0-5.0-1.84","62b33e2a447824fbd0770025","bdp_lott","Thu Apr 13 2023 15:47:26 GMT-0400 (Eastern Daylight Time)","346361","red","green","","483","","","","choice","","img/red_lw/choose11.jpg","2","141","red","0.5","0.1","0.5","w","",""
"animation","173","213257","0.0-5.0-2.84","62b33e2a447824fbd0770025","bdp_lott","Thu Apr 13 2023 15:47:26 GMT-0400 (Eastern Daylight Time)","346361","red","green","","","","","","","","","","141","","","","","","[{""stimulus"":""img/red_lw/1.jpg"",""time"":55},{""stimulus"":""img/red_lw/2.jpg"",""time"":101},{""stimulus"":""img/red_lw/3.jpg"",""time"":151},{""stimulus"":""img/red_lw/4.jpg"",""time"":204},{""stimulus"":""img/red_lw/5.jpg"",""time"":250},{""stimulus"":""img/red_lw/6.jpg"",""time"":300},{""stimulus"":""img/red_lw/7.jpg"",""time"":350},{""stimulus"":""img/red_lw/8.jpg"",""time"":400},{""stimulus"":""img/red_lw/9.jpg"",""time"":454},{""stimulus"":""img/red_lw/10.jpg"",""time"":500},{""stimulus"":""img/red_lw/11.jpg"",""time"":555}]","[]"
"image-keyboard-response","174","213744","0.0-5.0-1.85","62b33e2a447824fbd0770025","bdp_lott","Thu Apr 13 2023 15:47:26 GMT-0400 (Eastern Daylight Time)","346361","red","green","","486","","","","choice","","img/red_lw/choose11.jpg","2","140","red","0.5","0.1","0.5","l","",""
"animation","175","214345","0.0-5.0-2.85","62b33e2a447824fbd0770025","bdp_lott","Thu Apr 13 2023 15:47:26 GMT-0400 (Eastern Daylight Time)","346361","red","green","","","","","","","","","","140","","","","","","[{""stimulus"":""img/red_ll/1.jpg"",""time"":66},{""stimulus"":""img/red_ll/2.jpg"",""time"":101},{""stimulus"":""img/red_ll/3.jpg"",""time"":151},{""stimulus"":""img/red_ll/4.jpg"",""time"":202},{""stimulus"":""img/red_ll/5.jpg"",""time"":267},{""stimulus"":""img/red_ll/6.jpg"",""time"":302},{""stimulus"":""img/red_ll/7.jpg"",""time"":352},{""stimulus"":""img/red_ll/8.jpg"",""time"":401},{""stimulus"":""img/red_ll/9.jpg"",""time"":466},{""stimulus"":""img/red_ll/10.jpg"",""time"":516},{""stimulus"":""img/red_ll/11.jpg"",""time"":552}]","[]"
"image-keyboard-response","176","214890","0.0-5.0-1.86","62b33e2a447824fbd0770025","bdp_lott","Thu Apr 13 2023 15:47:26 GMT-0400 (Eastern Daylight Time)","346361","red","green","","544","","","","choice","","img/red_ll/choose11.jpg","1","139","green","0.5","0.1","0.1","l","",""
"animation","177","215492","0.0-5.0-2.86","62b33e2a447824fbd0770025","bdp_lott","Thu Apr 13 2023 15:47:26 GMT-0400 (Eastern Daylight Time)","346361","red","green","","","","","","","","","","139","","","","","","[{""stimulus"":""img/green_ll/1.jpg"",""time"":51},{""stimulus"":""img/green_ll/2.jpg"",""time"":102},{""stimulus"":""img/green_ll/3.jpg"",""time"":170},{""stimulus"":""img/green_ll/4.jpg"",""time"":202},{""stimulus"":""img/green_ll/5.jpg"",""time"":269},{""stimulus"":""img/green_ll/6.jpg"",""time"":301},{""stimulus"":""img/green_ll/7.jpg"",""time"":351},{""stimulus"":""img/green_ll/8.jpg"",""time"":401},{""stimulus"":""img/green_ll/9.jpg"",""time"":452},{""stimulus"":""img/green_ll/10.jpg"",""time"":503},{""stimulus"":""img/green_ll/11.jpg"",""time"":551}]","[]"
"image-keyboard-response","178","215946","0.0-5.0-1.87","62b33e2a447824fbd0770025","bdp_lott","Thu Apr 13 2023 15:47:26 GMT-0400 (Eastern Daylight Time)","346361","red","green","","453","","","","choice","","img/green_ll/choose11.jpg","1","138","green","0.5","0.1","0.1","l","",""
"animation","179","216547","0.0-5.0-2.87","62b33e2a447824fbd0770025","bdp_lott","Thu Apr 13 2023 15:47:26 GMT-0400 (Eastern Daylight Time)","346361","red","green","","","","","","","","","","138","","","","","","[{""stimulus"":""img/green_ll/1.jpg"",""time"":62},{""stimulus"":""img/green_ll/2.jpg"",""time"":101},{""stimulus"":""img/green_ll/3.jpg"",""time"":151},{""stimulus"":""img/green_ll/4.jpg"",""time"":212},{""stimulus"":""img/green_ll/5.jpg"",""time"":251},{""stimulus"":""img/green_ll/6.jpg"",""time"":312},{""stimulus"":""img/green_ll/7.jpg"",""time"":351},{""stimulus"":""img/green_ll/8.jpg"",""time"":413},{""stimulus"":""img/green_ll/9.jpg"",""time"":451},{""stimulus"":""img/green_ll/10.jpg"",""time"":511},{""stimulus"":""img/green_ll/11.jpg"",""time"":551}]","[]"
"image-keyboard-response","180","217093","0.0-5.0-1.88","62b33e2a447824fbd0770025","bdp_lott","Thu Apr 13 2023 15:47:26 GMT-0400 (Eastern Daylight Time)","346361","red","green","","545","","","","choice","","img/green_ll/choose11.jpg","2","137","red","0.5","0.1","0.5","w","",""
"animation","181","217693","0.0-5.0-2.88","62b33e2a447824fbd0770025","bdp_lott","Thu Apr 13 2023 15:47:26 GMT-0400 (Eastern Daylight Time)","346361","red","green","","","","","","","","","","137","","","","","","[{""stimulus"":""img/red_lw/1.jpg"",""time"":65},{""stimulus"":""img/red_lw/2.jpg"",""time"":101},{""stimulus"":""img/red_lw/3.jpg"",""time"":164},{""stimulus"":""img/red_lw/4.jpg"",""time"":213},{""stimulus"":""img/red_lw/5.jpg"",""time"":250},{""stimulus"":""img/red_lw/6.jpg"",""time"":301},{""stimulus"":""img/red_lw/7.jpg"",""time"":350},{""stimulus"":""img/red_lw/8.jpg"",""time"":401},{""stimulus"":""img/red_lw/9.jpg"",""time"":451},{""stimulus"":""img/red_lw/10.jpg"",""time"":501},{""stimulus"":""img/red_lw/11.jpg"",""time"":551}]","[]"
"image-keyboard-response","182","218043","0.0-5.0-1.89","62b33e2a447824fbd0770025","bdp_lott","Thu Apr 13 2023 15:47:26 GMT-0400 (Eastern Daylight Time)","346361","red","green","","349","","","","choice","","img/red_lw/choose11.jpg","2","136","red","0.5","0.1","0.5","l","",""
"animation","183","218643","0.0-5.0-2.89","62b33e2a447824fbd0770025","bdp_lott","Thu Apr 13 2023 15:47:26 GMT-0400 (Eastern Daylight Time)","346361","red","green","","","","","","","","","","136","","","","","","[{""stimulus"":""img/red_ll/1.jpg"",""time"":64},{""stimulus"":""img/red_ll/2.jpg"",""time"":101},{""stimulus"":""img/red_ll/3.jpg"",""time"":151},{""stimulus"":""img/red_ll/4.jpg"",""time"":202},{""stimulus"":""img/red_ll/5.jpg"",""time"":252},{""stimulus"":""img/red_ll/6.jpg"",""time"":301},{""stimulus"":""img/red_ll/7.jpg"",""time"":351},{""stimulus"":""img/red_ll/8.jpg"",""time"":401},{""stimulus"":""img/red_ll/9.jpg"",""time"":451},{""stimulus"":""img/red_ll/10.jpg"",""time"":501},{""stimulus"":""img/red_ll/11.jpg"",""time"":551}]","[]"
"image-keyboard-response","184","219056","0.0-5.0-1.90","62b33e2a447824fbd0770025","bdp_lott","Thu Apr 13 2023 15:47:26 GMT-0400 (Eastern Daylight Time)","346361","red","green","","412","","","","choice","","img/red_ll/choose11.jpg","2","135","red","0.5","0.1","0.5","l","",""
"animation","185","219656","0.0-5.0-2.90","62b33e2a447824fbd0770025","bdp_lott","Thu Apr 13 2023 15:47:26 GMT-0400 (Eastern Daylight Time)","346361","red","green","","","","","","","","","","135","","","","","","[{""stimulus"":""img/red_ll/1.jpg"",""time"":51},{""stimulus"":""img/red_ll/2.jpg"",""time"":101},{""stimulus"":""img/red_ll/3.jpg"",""time"":151},{""stimulus"":""img/red_ll/4.jpg"",""time"":202},{""stimulus"":""img/red_ll/5.jpg"",""time"":251},{""stimulus"":""img/red_ll/6.jpg"",""time"":300},{""stimulus"":""img/red_ll/7.jpg"",""time"":367},{""stimulus"":""img/red_ll/8.jpg"",""time"":401},{""stimulus"":""img/red_ll/9.jpg"",""time"":466},{""stimulus"":""img/red_ll/10.jpg"",""time"":500},{""stimulus"":""img/red_ll/11.jpg"",""time"":567}]","[]"
"image-keyboard-response","186","220016","0.0-5.0-1.91","62b33e2a447824fbd0770025","bdp_lott","Thu Apr 13 2023 15:47:26 GMT-0400 (Eastern Daylight Time)","346361","red","green","","358","","","","choice","","img/red_ll/choose11.jpg","2","134","red","0.5","0.1","0.5","w","",""
"animation","187","220622","0.0-5.0-2.91","62b33e2a447824fbd0770025","bdp_lott","Thu Apr 13 2023 15:47:26 GMT-0400 (Eastern Daylight Time)","346361","red","green","","","","","","","","","","134","","","","","","[{""stimulus"":""img/red_lw/1.jpg"",""time"":55},{""stimulus"":""img/red_lw/2.jpg"",""time"":101},{""stimulus"":""img/red_lw/3.jpg"",""time"":157},{""stimulus"":""img/red_lw/4.jpg"",""time"":201},{""stimulus"":""img/red_lw/5.jpg"",""time"":251},{""stimulus"":""img/red_lw/6.jpg"",""time"":304},{""stimulus"":""img/red_lw/7.jpg"",""time"":351},{""stimulus"":""img/red_lw/8.jpg"",""time"":406},{""stimulus"":""img/red_lw/9.jpg"",""time"":454},{""stimulus"":""img/red_lw/10.jpg"",""time"":500},{""stimulus"":""img/red_lw/11.jpg"",""time"":551}]","[]"
"image-keyboard-response","188","220926","0.0-5.0-1.92","62b33e2a447824fbd0770025","bdp_lott","Thu Apr 13 2023 15:47:26 GMT-0400 (Eastern Daylight Time)","346361","red","green","","304","","","","choice","","img/red_lw/choose11.jpg","2","133","red","0.5","0.1","0.5","l","",""
"animation","189","221527","0.0-5.0-2.92","62b33e2a447824fbd0770025","bdp_lott","Thu Apr 13 2023 15:47:26 GMT-0400 (Eastern Daylight Time)","346361","red","green","","","","","","","","","","133","","","","","","[{""stimulus"":""img/red_ll/1.jpg"",""time"":61},{""stimulus"":""img/red_ll/2.jpg"",""time"":101},{""stimulus"":""img/red_ll/3.jpg"",""time"":161},{""stimulus"":""img/red_ll/4.jpg"",""time"":201},{""stimulus"":""img/red_ll/5.jpg"",""time"":260},{""stimulus"":""img/red_ll/6.jpg"",""time"":312},{""stimulus"":""img/red_ll/7.jpg"",""time"":351},{""stimulus"":""img/red_ll/8.jpg"",""time"":401},{""stimulus"":""img/red_ll/9.jpg"",""time"":460},{""stimulus"":""img/red_ll/10.jpg"",""time"":501},{""stimulus"":""img/red_ll/11.jpg"",""time"":551}]","[]"
"image-keyboard-response","190","221825","0.0-5.0-1.93","62b33e2a447824fbd0770025","bdp_lott","Thu Apr 13 2023 15:47:26 GMT-0400 (Eastern Daylight Time)","346361","red","green","","296","","","","choice","","img/red_ll/choose11.jpg","2","132","red","0.5","0.1","0.5","w","",""
"animation","191","222426","0.0-5.0-2.93","62b33e2a447824fbd0770025","bdp_lott","Thu Apr 13 2023 15:47:26 GMT-0400 (Eastern Daylight Time)","346361","red","green","","","","","","","","","","132","","","","","","[{""stimulus"":""img/red_lw/1.jpg"",""time"":62},{""stimulus"":""img/red_lw/2.jpg"",""time"":101},{""stimulus"":""img/red_lw/3.jpg"",""time"":151},{""stimulus"":""img/red_lw/4.jpg"",""time"":201},{""stimulus"":""img/red_lw/5.jpg"",""time"":251},{""stimulus"":""img/red_lw/6.jpg"",""time"":301},{""stimulus"":""img/red_lw/7.jpg"",""time"":351},{""stimulus"":""img/red_lw/8.jpg"",""time"":401},{""stimulus"":""img/red_lw/9.jpg"",""time"":451},{""stimulus"":""img/red_lw/10.jpg"",""time"":511},{""stimulus"":""img/red_lw/11.jpg"",""time"":563}]","[]"
