"event","trial","time","trialtype","subject_id","task","startTime","totalTime","fairMachine","unfairMachine","trial_type","trial_index","time_elapsed","internal_node_id","view_history","rt","success","stimulus","key_press","roundsLeft","chosen","pFairMachWin","pUnfairMachWin","pTrialWin","outcome","animation_sequence","responses"
"focus","0","0","focusevent","lempert4","bdp_lott","Fri Feb 24 2023 09:59:02 GMT-0500 (Eastern Standard Time)","416168","green","red","","","","","","","","","","","","","","","","",""
"","","","","lempert4","bdp_lott","Fri Feb 24 2023 09:59:02 GMT-0500 (Eastern Standard Time)","416168","green","red","pavlovia","0","2","0.0-0.0","","","","","","","","","","","","",""
"","","","","lempert4","bdp_lott","Fri Feb 24 2023 09:59:02 GMT-0500 (Eastern Standard Time)","416168","green","red","instructions","1","50010","0.0-1.0","[{""page_index"":0,""viewing_time"":50008}]","50008","","","","","","","","","","",""
"fullscreenexit","2","52473","fullscreenexit","lempert4","bdp_lott","Fri Feb 24 2023 09:59:02 GMT-0500 (Eastern Standard Time)","416168","green","red","","","","","","","","","","","","","","","","",""
"","","","","lempert4","bdp_lott","Fri Feb 24 2023 09:59:02 GMT-0500 (Eastern Standard Time)","416168","green","red","fullscreen","2","53456","0.0-2.0","","","true","","","","","","","","","",""
"","","","fullscreenfail","lempert4","bdp_lott","Fri Feb 24 2023 09:59:02 GMT-0500 (Eastern Standard Time)","416168","green","red","image-keyboard-response","3","55011","0.0-3.0-0.0","","1553","","","32","","","","","","","",""
"","","","","lempert4","bdp_lott","Fri Feb 24 2023 09:59:02 GMT-0500 (Eastern Standard Time)","416168","green","red","instructions","4","118851","0.0-4.0","[{""page_index"":0,""viewing_time"":63586}]","63586","","","","","","","","","","",""
"","","","","lempert4","bdp_lott","Fri Feb 24 2023 09:59:02 GMT-0500 (Eastern Standard Time)","416168","green","red","image-keyboard-response","5","122043","0.0-5.0-1.0","","3189","","img/red_ll/initchoose11.jpg","1","225","green","0.6","0.6","0.6","l","",""
"","","","","lempert4","bdp_lott","Fri Feb 24 2023 09:59:02 GMT-0500 (Eastern Standard Time)","416168","green","red","animation","6","122676","0.0-5.0-2.0","","","","","","225","","","","","","[{""stimulus"":""img/green_ll/1.jpg"",""time"":51},{""stimulus"":""img/green_ll/2.jpg"",""time"":104},{""stimulus"":""img/green_ll/3.jpg"",""time"":158},{""stimulus"":""img/green_ll/4.jpg"",""time"":209},{""stimulus"":""img/green_ll/5.jpg"",""time"":259},{""stimulus"":""img/green_ll/6.jpg"",""time"":312},{""stimulus"":""img/green_ll/7.jpg"",""time"":366},{""stimulus"":""img/green_ll/8.jpg"",""time"":420},{""stimulus"":""img/green_ll/9.jpg"",""time"":472},{""stimulus"":""img/green_ll/10.jpg"",""time"":526},{""stimulus"":""img/green_ll/11.jpg"",""time"":579}]","[]"
"","","","","lempert4","bdp_lott","Fri Feb 24 2023 09:59:02 GMT-0500 (Eastern Standard Time)","416168","green","red","image-keyboard-response","7","126415","0.0-5.0-1.1","","3738","","img/green_ll/choose11.jpg","2","224","red","0.6","0.6","0.6","l","",""
"","","","","lempert4","bdp_lott","Fri Feb 24 2023 09:59:02 GMT-0500 (Eastern Standard Time)","416168","green","red","animation","8","127049","0.0-5.0-2.1","","","","","","224","","","","","","[{""stimulus"":""img/red_ll/1.jpg"",""time"":52},{""stimulus"":""img/red_ll/2.jpg"",""time"":101},{""stimulus"":""img/red_ll/3.jpg"",""time"":153},{""stimulus"":""img/red_ll/4.jpg"",""time"":206},{""stimulus"":""img/red_ll/5.jpg"",""time"":259},{""stimulus"":""img/red_ll/6.jpg"",""time"":314},{""stimulus"":""img/red_ll/7.jpg"",""time"":367},{""stimulus"":""img/red_ll/8.jpg"",""time"":419},{""stimulus"":""img/red_ll/9.jpg"",""time"":473},{""stimulus"":""img/red_ll/10.jpg"",""time"":526},{""stimulus"":""img/red_ll/11.jpg"",""time"":580}]","[]"
"","","","","lempert4","bdp_lott","Fri Feb 24 2023 09:59:02 GMT-0500 (Eastern Standard Time)","416168","green","red","image-keyboard-response","9","130325","0.0-5.0-1.2","","3275","","img/red_ll/choose11.jpg","1","223","green","0.6","0.6","0.6","w","",""
"","","","","lempert4","bdp_lott","Fri Feb 24 2023 09:59:02 GMT-0500 (Eastern Standard Time)","416168","green","red","animation","10","130953","0.0-5.0-2.2","","","","","","223","","","","","","[{""stimulus"":""img/green_wl/1.jpg"",""time"":53},{""stimulus"":""img/green_wl/2.jpg"",""time"":107},{""stimulus"":""img/green_wl/3.jpg"",""time"":162},{""stimulus"":""img/green_wl/4.jpg"",""time"":213},{""stimulus"":""img/green_wl/5.jpg"",""time"":264},{""stimulus"":""img/green_wl/6.jpg"",""time"":317},{""stimulus"":""img/green_wl/7.jpg"",""time"":368},{""stimulus"":""img/green_wl/8.jpg"",""time"":419},{""stimulus"":""img/green_wl/9.jpg"",""time"":469},{""stimulus"":""img/green_wl/10.jpg"",""time"":520},{""stimulus"":""img/green_wl/11.jpg"",""time"":573}]","[]"
"","","","","lempert4","bdp_lott","Fri Feb 24 2023 09:59:02 GMT-0500 (Eastern Standard Time)","416168","green","red","image-keyboard-response","11","133957","0.0-5.0-1.3","","3003","","img/green_wl/choose11.jpg","2","222","red","0.6","0.6","0.6","w","",""
"","","","","lempert4","bdp_lott","Fri Feb 24 2023 09:59:02 GMT-0500 (Eastern Standard Time)","416168","green","red","animation","12","134590","0.0-5.0-2.3","","","","","","222","","","","","","[{""stimulus"":""img/red_ww/1.jpg"",""time"":52},{""stimulus"":""img/red_ww/2.jpg"",""time"":102},{""stimulus"":""img/red_ww/3.jpg"",""time"":155},{""stimulus"":""img/red_ww/4.jpg"",""time"":206},{""stimulus"":""img/red_ww/5.jpg"",""time"":261},{""stimulus"":""img/red_ww/6.jpg"",""time"":313},{""stimulus"":""img/red_ww/7.jpg"",""time"":368},{""stimulus"":""img/red_ww/8.jpg"",""time"":422},{""stimulus"":""img/red_ww/9.jpg"",""time"":477},{""stimulus"":""img/red_ww/10.jpg"",""time"":529},{""stimulus"":""img/red_ww/11.jpg"",""time"":579}]","[]"
"","","","","lempert4","bdp_lott","Fri Feb 24 2023 09:59:02 GMT-0500 (Eastern Standard Time)","416168","green","red","image-keyboard-response","13","137541","0.0-5.0-1.4","","2950","","img/red_ww/choose11.jpg","1","221","green","0.6","0.6","0.6","l","",""
"","","","","lempert4","bdp_lott","Fri Feb 24 2023 09:59:02 GMT-0500 (Eastern Standard Time)","416168","green","red","animation","14","138169","0.0-5.0-2.4","","","","","","221","","","","","","[{""stimulus"":""img/green_lw/1.jpg"",""time"":52},{""stimulus"":""img/green_lw/2.jpg"",""time"":103},{""stimulus"":""img/green_lw/3.jpg"",""time"":153},{""stimulus"":""img/green_lw/4.jpg"",""time"":208},{""stimulus"":""img/green_lw/5.jpg"",""time"":262},{""stimulus"":""img/green_lw/6.jpg"",""time"":316},{""stimulus"":""img/green_lw/7.jpg"",""time"":369},{""stimulus"":""img/green_lw/8.jpg"",""time"":422},{""stimulus"":""img/green_lw/9.jpg"",""time"":475},{""stimulus"":""img/green_lw/10.jpg"",""time"":527},{""stimulus"":""img/green_lw/11.jpg"",""time"":577}]","[]"
"","","","","lempert4","bdp_lott","Fri Feb 24 2023 09:59:02 GMT-0500 (Eastern Standard Time)","416168","green","red","image-keyboard-response","15","141631","0.0-5.0-1.5","","3462","","img/green_lw/choose11.jpg","2","220","red","0.6","0.6","0.6","w","",""
"","","","","lempert4","bdp_lott","Fri Feb 24 2023 09:59:02 GMT-0500 (Eastern Standard Time)","416168","green","red","animation","16","142272","0.0-5.0-2.5","","","","","","220","","","","","","[{""stimulus"":""img/red_lw/1.jpg"",""time"":55},{""stimulus"":""img/red_lw/2.jpg"",""time"":109},{""stimulus"":""img/red_lw/3.jpg"",""time"":162},{""stimulus"":""img/red_lw/4.jpg"",""time"":215},{""stimulus"":""img/red_lw/5.jpg"",""time"":268},{""stimulus"":""img/red_lw/6.jpg"",""time"":322},{""stimulus"":""img/red_lw/7.jpg"",""time"":376},{""stimulus"":""img/red_lw/8.jpg"",""time"":431},{""stimulus"":""img/red_lw/9.jpg"",""time"":482},{""stimulus"":""img/red_lw/10.jpg"",""time"":535},{""stimulus"":""img/red_lw/11.jpg"",""time"":589}]","[]"
"","","","","lempert4","bdp_lott","Fri Feb 24 2023 09:59:02 GMT-0500 (Eastern Standard Time)","416168","green","red","image-keyboard-response","17","144429","0.0-5.0-1.6","","2155","","img/red_lw/choose11.jpg","2","219","red","0.6","0.6","0.6","w","",""
"","","","","lempert4","bdp_lott","Fri Feb 24 2023 09:59:02 GMT-0500 (Eastern Standard Time)","416168","green","red","animation","18","145061","0.0-5.0-2.6","","","","","","219","","","","","","[{""stimulus"":""img/red_lw/1.jpg"",""time"":54},{""stimulus"":""img/red_lw/2.jpg"",""time"":105},{""stimulus"":""img/red_lw/3.jpg"",""time"":159},{""stimulus"":""img/red_lw/4.jpg"",""time"":212},{""stimulus"":""img/red_lw/5.jpg"",""time"":266},{""stimulus"":""img/red_lw/6.jpg"",""time"":321},{""stimulus"":""img/red_lw/7.jpg"",""time"":372},{""stimulus"":""img/red_lw/8.jpg"",""time"":425},{""stimulus"":""img/red_lw/9.jpg"",""time"":476},{""stimulus"":""img/red_lw/10.jpg"",""time"":526},{""stimulus"":""img/red_lw/11.jpg"",""time"":578}]","[]"
"","","","","lempert4","bdp_lott","Fri Feb 24 2023 09:59:02 GMT-0500 (Eastern Standard Time)","416168","green","red","image-keyboard-response","19","146626","0.0-5.0-1.7","","1565","","img/red_lw/choose11.jpg","2","218","red","0.6","0.6","0.6","w","",""
"","","","","lempert4","bdp_lott","Fri Feb 24 2023 09:59:02 GMT-0500 (Eastern Standard Time)","416168","green","red","animation","20","147265","0.0-5.0-2.7","","","","","","218","","","","","","[{""stimulus"":""img/red_lw/1.jpg"",""time"":51},{""stimulus"":""img/red_lw/2.jpg"",""time"":105},{""stimulus"":""img/red_lw/3.jpg"",""time"":158},{""stimulus"":""img/red_lw/4.jpg"",""time"":211},{""stimulus"":""img/red_lw/5.jpg"",""time"":267},{""stimulus"":""img/red_lw/6.jpg"",""time"":321},{""stimulus"":""img/red_lw/7.jpg"",""time"":373},{""stimulus"":""img/red_lw/8.jpg"",""time"":425},{""stimulus"":""img/red_lw/9.jpg"",""time"":479},{""stimulus"":""img/red_lw/10.jpg"",""time"":533},{""stimulus"":""img/red_lw/11.jpg"",""time"":584}]","[]"
"","","","","lempert4","bdp_lott","Fri Feb 24 2023 09:59:02 GMT-0500 (Eastern Standard Time)","416168","green","red","image-keyboard-response","21","149024","0.0-5.0-1.8","","1759","","img/red_lw/choose11.jpg","2","217","red","0.6","0.6","0.6","w","",""
"","","","","lempert4","bdp_lott","Fri Feb 24 2023 09:59:02 GMT-0500 (Eastern Standard Time)","416168","green","red","animation","22","149665","0.0-5.0-2.8","","","","","","217","","","","","","[{""stimulus"":""img/red_lw/1.jpg"",""time"":54},{""stimulus"":""img/red_lw/2.jpg"",""time"":108},{""stimulus"":""img/red_lw/3.jpg"",""time"":161},{""stimulus"":""img/red_lw/4.jpg"",""time"":214},{""stimulus"":""img/red_lw/5.jpg"",""time"":268},{""stimulus"":""img/red_lw/6.jpg"",""time"":321},{""stimulus"":""img/red_lw/7.jpg"",""time"":374},{""stimulus"":""img/red_lw/8.jpg"",""time"":427},{""stimulus"":""img/red_lw/9.jpg"",""time"":481},{""stimulus"":""img/red_lw/10.jpg"",""time"":535},{""stimulus"":""img/red_lw/11.jpg"",""time"":587}]","[]"
"","","","","lempert4","bdp_lott","Fri Feb 24 2023 09:59:02 GMT-0500 (Eastern Standard Time)","416168","green","red","image-keyboard-response","23","150713","0.0-5.0-1.9","","1047","","img/red_lw/choose11.jpg","2","216","red","0.6","0.6","0.6","l","",""
"","","","","lempert4","bdp_lott","Fri Feb 24 2023 09:59:02 GMT-0500 (Eastern Standard Time)","416168","green","red","animation","24","151340","0.0-5.0-2.9","","","","","","216","","","","","","[{""stimulus"":""img/red_ll/1.jpg"",""time"":51},{""stimulus"":""img/red_ll/2.jpg"",""time"":104},{""stimulus"":""img/red_ll/3.jpg"",""time"":155},{""stimulus"":""img/red_ll/4.jpg"",""time"":205},{""stimulus"":""img/red_ll/5.jpg"",""time"":255},{""stimulus"":""img/red_ll/6.jpg"",""time"":311},{""stimulus"":""img/red_ll/7.jpg"",""time"":362},{""stimulus"":""img/red_ll/8.jpg"",""time"":416},{""stimulus"":""img/red_ll/9.jpg"",""time"":467},{""stimulus"":""img/red_ll/10.jpg"",""time"":520},{""stimulus"":""img/red_ll/11.jpg"",""time"":573}]","[]"
"","","","","lempert4","bdp_lott","Fri Feb 24 2023 09:59:02 GMT-0500 (Eastern Standard Time)","416168","green","red","image-keyboard-response","25","152669","0.0-5.0-1.10","","1329","","img/red_ll/choose11.jpg","2","215","red","0.6","0.6","0.6","w","",""
"","","","","lempert4","bdp_lott","Fri Feb 24 2023 09:59:02 GMT-0500 (Eastern Standard Time)","416168","green","red","animation","26","153305","0.0-5.0-2.10","","","","","","215","","","","","","[{""stimulus"":""img/red_lw/1.jpg"",""time"":52},{""stimulus"":""img/red_lw/2.jpg"",""time"":103},{""stimulus"":""img/red_lw/3.jpg"",""time"":156},{""stimulus"":""img/red_lw/4.jpg"",""time"":207},{""stimulus"":""img/red_lw/5.jpg"",""time"":260},{""stimulus"":""img/red_lw/6.jpg"",""time"":313},{""stimulus"":""img/red_lw/7.jpg"",""time"":367},{""stimulus"":""img/red_lw/8.jpg"",""time"":420},{""stimulus"":""img/red_lw/9.jpg"",""time"":473},{""stimulus"":""img/red_lw/10.jpg"",""time"":526},{""stimulus"":""img/red_lw/11.jpg"",""time"":581}]","[]"
"","","","","lempert4","bdp_lott","Fri Feb 24 2023 09:59:02 GMT-0500 (Eastern Standard Time)","416168","green","red","image-keyboard-response","27","154334","0.0-5.0-1.11","","1029","","img/red_lw/choose11.jpg","2","214","red","0.6","0.6","0.6","l","",""
"","","","","lempert4","bdp_lott","Fri Feb 24 2023 09:59:02 GMT-0500 (Eastern Standard Time)","416168","green","red","animation","28","154966","0.0-5.0-2.11","","","","","","214","","","","","","[{""stimulus"":""img/red_ll/1.jpg"",""time"":51},{""stimulus"":""img/red_ll/2.jpg"",""time"":104},{""stimulus"":""img/red_ll/3.jpg"",""time"":155},{""stimulus"":""img/red_ll/4.jpg"",""time"":208},{""stimulus"":""img/red_ll/5.jpg"",""time"":261},{""stimulus"":""img/red_ll/6.jpg"",""time"":317},{""stimulus"":""img/red_ll/7.jpg"",""time"":371},{""stimulus"":""img/red_ll/8.jpg"",""time"":421},{""stimulus"":""img/red_ll/9.jpg"",""time"":473},{""stimulus"":""img/red_ll/10.jpg"",""time"":526},{""stimulus"":""img/red_ll/11.jpg"",""time"":579}]","[]"
"","","","","lempert4","bdp_lott","Fri Feb 24 2023 09:59:02 GMT-0500 (Eastern Standard Time)","416168","green","red","image-keyboard-response","29","155901","0.0-5.0-1.12","","934","","img/red_ll/choose11.jpg","2","213","red","0.6","0.6","0.6","w","",""
"","","","","lempert4","bdp_lott","Fri Feb 24 2023 09:59:02 GMT-0500 (Eastern Standard Time)","416168","green","red","animation","30","156528","0.0-5.0-2.12","","","","","","213","","","","","","[{""stimulus"":""img/red_lw/1.jpg"",""time"":52},{""stimulus"":""img/red_lw/2.jpg"",""time"":103},{""stimulus"":""img/red_lw/3.jpg"",""time"":156},{""stimulus"":""img/red_lw/4.jpg"",""time"":207},{""stimulus"":""img/red_lw/5.jpg"",""time"":260},{""stimulus"":""img/red_lw/6.jpg"",""time"":310},{""stimulus"":""img/red_lw/7.jpg"",""time"":365},{""stimulus"":""img/red_lw/8.jpg"",""time"":420},{""stimulus"":""img/red_lw/9.jpg"",""time"":473},{""stimulus"":""img/red_lw/10.jpg"",""time"":523},{""stimulus"":""img/red_lw/11.jpg"",""time"":578}]","[]"
"","","","","lempert4","bdp_lott","Fri Feb 24 2023 09:59:02 GMT-0500 (Eastern Standard Time)","416168","green","red","image-keyboard-response","31","157277","0.0-5.0-1.13","","748","","img/red_lw/choose11.jpg","2","212","red","0.6","0.6","0.6","l","",""
"","","","","lempert4","bdp_lott","Fri Feb 24 2023 09:59:02 GMT-0500 (Eastern Standard Time)","416168","green","red","animation","32","157911","0.0-5.0-2.13","","","","","","212","","","","","","[{""stimulus"":""img/red_ll/1.jpg"",""time"":52},{""stimulus"":""img/red_ll/2.jpg"",""time"":103},{""stimulus"":""img/red_ll/3.jpg"",""time"":153},{""stimulus"":""img/red_ll/4.jpg"",""time"":207},{""stimulus"":""img/red_ll/5.jpg"",""time"":260},{""stimulus"":""img/red_ll/6.jpg"",""time"":314},{""stimulus"":""img/red_ll/7.jpg"",""time"":367},{""stimulus"":""img/red_ll/8.jpg"",""time"":420},{""stimulus"":""img/red_ll/9.jpg"",""time"":473},{""stimulus"":""img/red_ll/10.jpg"",""time"":527},{""stimulus"":""img/red_ll/11.jpg"",""time"":580}]","[]"
"","","","","lempert4","bdp_lott","Fri Feb 24 2023 09:59:02 GMT-0500 (Eastern Standard Time)","416168","green","red","image-keyboard-response","33","159199","0.0-5.0-1.14","","1288","","img/red_ll/choose11.jpg","2","211","red","0.6","0.6","0.6","l","",""
"","","","","lempert4","bdp_lott","Fri Feb 24 2023 09:59:02 GMT-0500 (Eastern Standard Time)","416168","green","red","animation","34","159830","0.0-5.0-2.14","","","","","","211","","","","","","[{""stimulus"":""img/red_ll/1.jpg"",""time"":54},{""stimulus"":""img/red_ll/2.jpg"",""time"":107},{""stimulus"":""img/red_ll/3.jpg"",""time"":159},{""stimulus"":""img/red_ll/4.jpg"",""time"":209},{""stimulus"":""img/red_ll/5.jpg"",""time"":259},{""stimulus"":""img/red_ll/6.jpg"",""time"":313},{""stimulus"":""img/red_ll/7.jpg"",""time"":368},{""stimulus"":""img/red_ll/8.jpg"",""time"":420},{""stimulus"":""img/red_ll/9.jpg"",""time"":470},{""stimulus"":""img/red_ll/10.jpg"",""time"":524},{""stimulus"":""img/red_ll/11.jpg"",""time"":577}]","[]"
"","","","","lempert4","bdp_lott","Fri Feb 24 2023 09:59:02 GMT-0500 (Eastern Standard Time)","416168","green","red","image-keyboard-response","35","161545","0.0-5.0-1.15","","1714","","img/red_ll/choose11.jpg","2","210","red","0.6","0.6","0.6","w","",""
"","","","","lempert4","bdp_lott","Fri Feb 24 2023 09:59:02 GMT-0500 (Eastern Standard Time)","416168","green","red","animation","36","162178","0.0-5.0-2.15","","","","","","210","","","","","","[{""stimulus"":""img/red_lw/1.jpg"",""time"":53},{""stimulus"":""img/red_lw/2.jpg"",""time"":106},{""stimulus"":""img/red_lw/3.jpg"",""time"":157},{""stimulus"":""img/red_lw/4.jpg"",""time"":207},{""stimulus"":""img/red_lw/5.jpg"",""time"":258},{""stimulus"":""img/red_lw/6.jpg"",""time"":312},{""stimulus"":""img/red_lw/7.jpg"",""time"":366},{""stimulus"":""img/red_lw/8.jpg"",""time"":419},{""stimulus"":""img/red_lw/9.jpg"",""time"":474},{""stimulus"":""img/red_lw/10.jpg"",""time"":527},{""stimulus"":""img/red_lw/11.jpg"",""time"":579}]","[]"
"","","","","lempert4","bdp_lott","Fri Feb 24 2023 09:59:02 GMT-0500 (Eastern Standard Time)","416168","green","red","image-keyboard-response","37","162828","0.0-5.0-1.16","","649","","img/red_lw/choose11.jpg","2","209","red","0.6","0.6","0.6","w","",""
"","","","","lempert4","bdp_lott","Fri Feb 24 2023 09:59:02 GMT-0500 (Eastern Standard Time)","416168","green","red","animation","38","163457","0.0-5.0-2.16","","","","","","209","","","","","","[{""stimulus"":""img/red_lw/1.jpg"",""time"":53},{""stimulus"":""img/red_lw/2.jpg"",""time"":103},{""stimulus"":""img/red_lw/3.jpg"",""time"":154},{""stimulus"":""img/red_lw/4.jpg"",""time"":204},{""stimulus"":""img/red_lw/5.jpg"",""time"":256},{""stimulus"":""img/red_lw/6.jpg"",""time"":309},{""stimulus"":""img/red_lw/7.jpg"",""time"":362},{""stimulus"":""img/red_lw/8.jpg"",""time"":416},{""stimulus"":""img/red_lw/9.jpg"",""time"":470},{""stimulus"":""img/red_lw/10.jpg"",""time"":525},{""stimulus"":""img/red_lw/11.jpg"",""time"":576}]","[]"
"","","","","lempert4","bdp_lott","Fri Feb 24 2023 09:59:02 GMT-0500 (Eastern Standard Time)","416168","green","red","image-keyboard-response","39","164151","0.0-5.0-1.17","","693","","img/red_lw/choose11.jpg","2","208","red","0.6","0.6","0.6","w","",""
"","","","","lempert4","bdp_lott","Fri Feb 24 2023 09:59:02 GMT-0500 (Eastern Standard Time)","416168","green","red","animation","40","164780","0.0-5.0-2.17","","","","","","208","","","","","","[{""stimulus"":""img/red_lw/1.jpg"",""time"":53},{""stimulus"":""img/red_lw/2.jpg"",""time"":106},{""stimulus"":""img/red_lw/3.jpg"",""time"":156},{""stimulus"":""img/red_lw/4.jpg"",""time"":207},{""stimulus"":""img/red_lw/5.jpg"",""time"":258},{""stimulus"":""img/red_lw/6.jpg"",""time"":308},{""stimulus"":""img/red_lw/7.jpg"",""time"":363},{""stimulus"":""img/red_lw/8.jpg"",""time"":416},{""stimulus"":""img/red_lw/9.jpg"",""time"":468},{""stimulus"":""img/red_lw/10.jpg"",""time"":522},{""stimulus"":""img/red_lw/11.jpg"",""time"":575}]","[]"
"","","","","lempert4","bdp_lott","Fri Feb 24 2023 09:59:02 GMT-0500 (Eastern Standard Time)","416168","green","red","image-keyboard-response","41","165318","0.0-5.0-1.18","","538","","img/red_lw/choose11.jpg","2","207","red","0.6","0.6","0.6","l","",""
"","","","","lempert4","bdp_lott","Fri Feb 24 2023 09:59:02 GMT-0500 (Eastern Standard Time)","416168","green","red","animation","42","165957","0.0-5.0-2.18","","","","","","207","","","","","","[{""stimulus"":""img/red_ll/1.jpg"",""time"":56},{""stimulus"":""img/red_ll/2.jpg"",""time"":111},{""stimulus"":""img/red_ll/3.jpg"",""time"":166},{""stimulus"":""img/red_ll/4.jpg"",""time"":219},{""stimulus"":""img/red_ll/5.jpg"",""time"":272},{""stimulus"":""img/red_ll/6.jpg"",""time"":323},{""stimulus"":""img/red_ll/7.jpg"",""time"":374},{""stimulus"":""img/red_ll/8.jpg"",""time"":424},{""stimulus"":""img/red_ll/9.jpg"",""time"":479},{""stimulus"":""img/red_ll/10.jpg"",""time"":533},{""stimulus"":""img/red_ll/11.jpg"",""time"":589}]","[]"
"","","","","lempert4","bdp_lott","Fri Feb 24 2023 09:59:02 GMT-0500 (Eastern Standard Time)","416168","green","red","image-keyboard-response","43","168103","0.0-5.0-1.19","","2146","","img/red_ll/choose11.jpg","2","206","red","0.6","0.6","0.6","w","",""
"","","","","lempert4","bdp_lott","Fri Feb 24 2023 09:59:02 GMT-0500 (Eastern Standard Time)","416168","green","red","animation","44","168739","0.0-5.0-2.19","","","","","","206","","","","","","[{""stimulus"":""img/red_lw/1.jpg"",""time"":50},{""stimulus"":""img/red_lw/2.jpg"",""time"":105},{""stimulus"":""img/red_lw/3.jpg"",""time"":159},{""stimulus"":""img/red_lw/4.jpg"",""time"":210},{""stimulus"":""img/red_lw/5.jpg"",""time"":261},{""stimulus"":""img/red_lw/6.jpg"",""time"":313},{""stimulus"":""img/red_lw/7.jpg"",""time"":367},{""stimulus"":""img/red_lw/8.jpg"",""time"":420},{""stimulus"":""img/red_lw/9.jpg"",""time"":476},{""stimulus"":""img/red_lw/10.jpg"",""time"":527},{""stimulus"":""img/red_lw/11.jpg"",""time"":581}]","[]"
"","","","","lempert4","bdp_lott","Fri Feb 24 2023 09:59:02 GMT-0500 (Eastern Standard Time)","416168","green","red","image-keyboard-response","45","169354","0.0-5.0-1.20","","615","","img/red_lw/choose11.jpg","2","205","red","0.6","0.6","0.6","l","",""
"","","","","lempert4","bdp_lott","Fri Feb 24 2023 09:59:02 GMT-0500 (Eastern Standard Time)","416168","green","red","animation","46","169995","0.0-5.0-2.20","","","","","","205","","","","","","[{""stimulus"":""img/red_ll/1.jpg"",""time"":55},{""stimulus"":""img/red_ll/2.jpg"",""time"":108},{""stimulus"":""img/red_ll/3.jpg"",""time"":161},{""stimulus"":""img/red_ll/4.jpg"",""time"":214},{""stimulus"":""img/red_ll/5.jpg"",""time"":268},{""stimulus"":""img/red_ll/6.jpg"",""time"":322},{""stimulus"":""img/red_ll/7.jpg"",""time"":375},{""stimulus"":""img/red_ll/8.jpg"",""time"":428},{""stimulus"":""img/red_ll/9.jpg"",""time"":481},{""stimulus"":""img/red_ll/10.jpg"",""time"":535},{""stimulus"":""img/red_ll/11.jpg"",""time"":588}]","[]"
"","","","","lempert4","bdp_lott","Fri Feb 24 2023 09:59:02 GMT-0500 (Eastern Standard Time)","416168","green","red","image-keyboard-response","47","170650","0.0-5.0-1.21","","655","","img/red_ll/choose11.jpg","2","204","red","0.6","0.6","0.6","l","",""
"","","","","lempert4","bdp_lott","Fri Feb 24 2023 09:59:02 GMT-0500 (Eastern Standard Time)","416168","green","red","animation","48","171286","0.0-5.0-2.21","","","","","","204","","","","","","[{""stimulus"":""img/red_ll/1.jpg"",""time"":53},{""stimulus"":""img/red_ll/2.jpg"",""time"":105},{""stimulus"":""img/red_ll/3.jpg"",""time"":161},{""stimulus"":""img/red_ll/4.jpg"",""time"":215},{""stimulus"":""img/red_ll/5.jpg"",""time"":266},{""stimulus"":""img/red_ll/6.jpg"",""time"":317},{""stimulus"":""img/red_ll/7.jpg"",""time"":369},{""stimulus"":""img/red_ll/8.jpg"",""time"":423},{""stimulus"":""img/red_ll/9.jpg"",""time"":476},{""stimulus"":""img/red_ll/10.jpg"",""time"":529},{""stimulus"":""img/red_ll/11.jpg"",""time"":583}]","[]"
"","","","","lempert4","bdp_lott","Fri Feb 24 2023 09:59:02 GMT-0500 (Eastern Standard Time)","416168","green","red","image-keyboard-response","49","172154","0.0-5.0-1.22","","867","","img/red_ll/choose11.jpg","2","203","red","0.6","0.6","0.6","w","",""
"","","","","lempert4","bdp_lott","Fri Feb 24 2023 09:59:02 GMT-0500 (Eastern Standard Time)","416168","green","red","animation","50","172790","0.0-5.0-2.22","","","","","","203","","","","","","[{""stimulus"":""img/red_lw/1.jpg"",""time"":52},{""stimulus"":""img/red_lw/2.jpg"",""time"":106},{""stimulus"":""img/red_lw/3.jpg"",""time"":156},{""stimulus"":""img/red_lw/4.jpg"",""time"":210},{""stimulus"":""img/red_lw/5.jpg"",""time"":263},{""stimulus"":""img/red_lw/6.jpg"",""time"":316},{""stimulus"":""img/red_lw/7.jpg"",""time"":369},{""stimulus"":""img/red_lw/8.jpg"",""time"":423},{""stimulus"":""img/red_lw/9.jpg"",""time"":476},{""stimulus"":""img/red_lw/10.jpg"",""time"":529},{""stimulus"":""img/red_lw/11.jpg"",""time"":583}]","[]"
"","","","","lempert4","bdp_lott","Fri Feb 24 2023 09:59:02 GMT-0500 (Eastern Standard Time)","416168","green","red","image-keyboard-response","51","173567","0.0-5.0-1.23","","776","","img/red_lw/choose11.jpg","2","202","red","0.6","0.6","0.6","l","",""
"","","","","lempert4","bdp_lott","Fri Feb 24 2023 09:59:02 GMT-0500 (Eastern Standard Time)","416168","green","red","animation","52","174198","0.0-5.0-2.23","","","","","","202","","","","","","[{""stimulus"":""img/red_ll/1.jpg"",""time"":52},{""stimulus"":""img/red_ll/2.jpg"",""time"":106},{""stimulus"":""img/red_ll/3.jpg"",""time"":159},{""stimulus"":""img/red_ll/4.jpg"",""time"":212},{""stimulus"":""img/red_ll/5.jpg"",""time"":263},{""stimulus"":""img/red_ll/6.jpg"",""time"":314},{""stimulus"":""img/red_ll/7.jpg"",""time"":369},{""stimulus"":""img/red_ll/8.jpg"",""time"":420},{""stimulus"":""img/red_ll/9.jpg"",""time"":474},{""stimulus"":""img/red_ll/10.jpg"",""time"":524},{""stimulus"":""img/red_ll/11.jpg"",""time"":578}]","[]"
"","","","","lempert4","bdp_lott","Fri Feb 24 2023 09:59:02 GMT-0500 (Eastern Standard Time)","416168","green","red","image-keyboard-response","53","175031","0.0-5.0-1.24","","832","","img/red_ll/choose11.jpg","2","201","red","0.6","0.6","0.6","l","",""
"","","","","lempert4","bdp_lott","Fri Feb 24 2023 09:59:02 GMT-0500 (Eastern Standard Time)","416168","green","red","animation","54","175667","0.0-5.0-2.24","","","","","","201","","","","","","[{""stimulus"":""img/red_ll/1.jpg"",""time"":55},{""stimulus"":""img/red_ll/2.jpg"",""time"":108},{""stimulus"":""img/red_ll/3.jpg"",""time"":161},{""stimulus"":""img/red_ll/4.jpg"",""time"":217},{""stimulus"":""img/red_ll/5.jpg"",""time"":271},{""stimulus"":""img/red_ll/6.jpg"",""time"":326},{""stimulus"":""img/red_ll/7.jpg"",""time"":378},{""stimulus"":""img/red_ll/8.jpg"",""time"":429},{""stimulus"":""img/red_ll/9.jpg"",""time"":479},{""stimulus"":""img/red_ll/10.jpg"",""time"":532},{""stimulus"":""img/red_ll/11.jpg"",""time"":586}]","[]"
"","","","","lempert4","bdp_lott","Fri Feb 24 2023 09:59:02 GMT-0500 (Eastern Standard Time)","416168","green","red","image-keyboard-response","55","176250","0.0-5.0-1.25","","582","","img/red_ll/choose11.jpg","2","200","red","0.6","0.6","0.6","w","",""
"","","","","lempert4","bdp_lott","Fri Feb 24 2023 09:59:02 GMT-0500 (Eastern Standard Time)","416168","green","red","animation","56","176875","0.0-5.0-2.25","","","","","","200","","","","","","[{""stimulus"":""img/red_lw/1.jpg"",""time"":54},{""stimulus"":""img/red_lw/2.jpg"",""time"":108},{""stimulus"":""img/red_lw/3.jpg"",""time"":163},{""stimulus"":""img/red_lw/4.jpg"",""time"":215},{""stimulus"":""img/red_lw/5.jpg"",""time"":264},{""stimulus"":""img/red_lw/6.jpg"",""time"":316},{""stimulus"":""img/red_lw/7.jpg"",""time"":366},{""stimulus"":""img/red_lw/8.jpg"",""time"":417},{""stimulus"":""img/red_lw/9.jpg"",""time"":468},{""stimulus"":""img/red_lw/10.jpg"",""time"":522},{""stimulus"":""img/red_lw/11.jpg"",""time"":572}]","[]"
"","","","","lempert4","bdp_lott","Fri Feb 24 2023 09:59:02 GMT-0500 (Eastern Standard Time)","416168","green","red","image-keyboard-response","57","177533","0.0-5.0-1.26","","657","","img/red_lw/choose11.jpg","2","199","red","0.6","0.6","0.6","w","",""
"","","","","lempert4","bdp_lott","Fri Feb 24 2023 09:59:02 GMT-0500 (Eastern Standard Time)","416168","green","red","animation","58","178164","0.0-5.0-2.26","","","","","","199","","","","","","[{""stimulus"":""img/red_lw/1.jpg"",""time"":52},{""stimulus"":""img/red_lw/2.jpg"",""time"":105},{""stimulus"":""img/red_lw/3.jpg"",""time"":156},{""stimulus"":""img/red_lw/4.jpg"",""time"":206},{""stimulus"":""img/red_lw/5.jpg"",""time"":260},{""stimulus"":""img/red_lw/6.jpg"",""time"":313},{""stimulus"":""img/red_lw/7.jpg"",""time"":367},{""stimulus"":""img/red_lw/8.jpg"",""time"":420},{""stimulus"":""img/red_lw/9.jpg"",""time"":473},{""stimulus"":""img/red_lw/10.jpg"",""time"":527},{""stimulus"":""img/red_lw/11.jpg"",""time"":579}]","[]"
"","","","","lempert4","bdp_lott","Fri Feb 24 2023 09:59:02 GMT-0500 (Eastern Standard Time)","416168","green","red","image-keyboard-response","59","179104","0.0-5.0-1.27","","939","","img/red_lw/choose11.jpg","2","198","red","0.6","0.6","0.6","l","",""
"","","","","lempert4","bdp_lott","Fri Feb 24 2023 09:59:02 GMT-0500 (Eastern Standard Time)","416168","green","red","animation","60","179723","0.0-5.0-2.27","","","","","","198","","","","","","[{""stimulus"":""img/red_ll/1.jpg"",""time"":54},{""stimulus"":""img/red_ll/2.jpg"",""time"":108},{""stimulus"":""img/red_ll/3.jpg"",""time"":158},{""stimulus"":""img/red_ll/4.jpg"",""time"":209},{""stimulus"":""img/red_ll/5.jpg"",""time"":259},{""stimulus"":""img/red_ll/6.jpg"",""time"":310},{""stimulus"":""img/red_ll/7.jpg"",""time"":360},{""stimulus"":""img/red_ll/8.jpg"",""time"":414},{""stimulus"":""img/red_ll/9.jpg"",""time"":466},{""stimulus"":""img/red_ll/10.jpg"",""time"":518},{""stimulus"":""img/red_ll/11.jpg"",""time"":569}]","[]"
"","","","","lempert4","bdp_lott","Fri Feb 24 2023 09:59:02 GMT-0500 (Eastern Standard Time)","416168","green","red","image-keyboard-response","61","180419","0.0-5.0-1.28","","695","","img/red_ll/choose11.jpg","2","197","red","0.6","0.6","0.6","w","",""
"","","","","lempert4","bdp_lott","Fri Feb 24 2023 09:59:02 GMT-0500 (Eastern Standard Time)","416168","green","red","animation","62","181057","0.0-5.0-2.28","","","","","","197","","","","","","[{""stimulus"":""img/red_lw/1.jpg"",""time"":53},{""stimulus"":""img/red_lw/2.jpg"",""time"":107},{""stimulus"":""img/red_lw/3.jpg"",""time"":159},{""stimulus"":""img/red_lw/4.jpg"",""time"":210},{""stimulus"":""img/red_lw/5.jpg"",""time"":264},{""stimulus"":""img/red_lw/6.jpg"",""time"":314},{""stimulus"":""img/red_lw/7.jpg"",""time"":367},{""stimulus"":""img/red_lw/8.jpg"",""time"":421},{""stimulus"":""img/red_lw/9.jpg"",""time"":475},{""stimulus"":""img/red_lw/10.jpg"",""time"":530},{""stimulus"":""img/red_lw/11.jpg"",""time"":583}]","[]"
"","","","","lempert4","bdp_lott","Fri Feb 24 2023 09:59:02 GMT-0500 (Eastern Standard Time)","416168","green","red","image-keyboard-response","63","181807","0.0-5.0-1.29","","750","","img/red_lw/choose11.jpg","2","196","red","0.6","0.6","0.6","l","",""
"","","","","lempert4","bdp_lott","Fri Feb 24 2023 09:59:02 GMT-0500 (Eastern Standard Time)","416168","green","red","animation","64","182444","0.0-5.0-2.29","","","","","","196","","","","","","[{""stimulus"":""img/red_ll/1.jpg"",""time"":56},{""stimulus"":""img/red_ll/2.jpg"",""time"":110},{""stimulus"":""img/red_ll/3.jpg"",""time"":161},{""stimulus"":""img/red_ll/4.jpg"",""time"":214},{""stimulus"":""img/red_ll/5.jpg"",""time"":265},{""stimulus"":""img/red_ll/6.jpg"",""time"":316},{""stimulus"":""img/red_ll/7.jpg"",""time"":369},{""stimulus"":""img/red_ll/8.jpg"",""time"":423},{""stimulus"":""img/red_ll/9.jpg"",""time"":475},{""stimulus"":""img/red_ll/10.jpg"",""time"":529},{""stimulus"":""img/red_ll/11.jpg"",""time"":582}]","[]"
"","","","","lempert4","bdp_lott","Fri Feb 24 2023 09:59:02 GMT-0500 (Eastern Standard Time)","416168","green","red","image-keyboard-response","65","183039","0.0-5.0-1.30","","595","","img/red_ll/choose11.jpg","2","195","red","0.6","0.6","0.6","l","",""
"","","","","lempert4","bdp_lott","Fri Feb 24 2023 09:59:02 GMT-0500 (Eastern Standard Time)","416168","green","red","animation","66","183670","0.0-5.0-2.30","","","","","","195","","","","","","[{""stimulus"":""img/red_ll/1.jpg"",""time"":52},{""stimulus"":""img/red_ll/2.jpg"",""time"":103},{""stimulus"":""img/red_ll/3.jpg"",""time"":157},{""stimulus"":""img/red_ll/4.jpg"",""time"":212},{""stimulus"":""img/red_ll/5.jpg"",""time"":263},{""stimulus"":""img/red_ll/6.jpg"",""time"":313},{""stimulus"":""img/red_ll/7.jpg"",""time"":364},{""stimulus"":""img/red_ll/8.jpg"",""time"":418},{""stimulus"":""img/red_ll/9.jpg"",""time"":473},{""stimulus"":""img/red_ll/10.jpg"",""time"":524},{""stimulus"":""img/red_ll/11.jpg"",""time"":579}]","[]"
"","","","","lempert4","bdp_lott","Fri Feb 24 2023 09:59:02 GMT-0500 (Eastern Standard Time)","416168","green","red","image-keyboard-response","67","184120","0.0-5.0-1.31","","450","","img/red_ll/choose11.jpg","2","194","red","0.6","0.6","0.6","l","",""
"","","","","lempert4","bdp_lott","Fri Feb 24 2023 09:59:02 GMT-0500 (Eastern Standard Time)","416168","green","red","animation","68","184758","0.0-5.0-2.31","","","","","","194","","","","","","[{""stimulus"":""img/red_ll/1.jpg"",""time"":54},{""stimulus"":""img/red_ll/2.jpg"",""time"":105},{""stimulus"":""img/red_ll/3.jpg"",""time"":159},{""stimulus"":""img/red_ll/4.jpg"",""time"":211},{""stimulus"":""img/red_ll/5.jpg"",""time"":265},{""stimulus"":""img/red_ll/6.jpg"",""time"":319},{""stimulus"":""img/red_ll/7.jpg"",""time"":372},{""stimulus"":""img/red_ll/8.jpg"",""time"":426},{""stimulus"":""img/red_ll/9.jpg"",""time"":479},{""stimulus"":""img/red_ll/10.jpg"",""time"":532},{""stimulus"":""img/red_ll/11.jpg"",""time"":585}]","[]"
"","","","","lempert4","bdp_lott","Fri Feb 24 2023 09:59:02 GMT-0500 (Eastern Standard Time)","416168","green","red","image-keyboard-response","69","185305","0.0-5.0-1.32","","547","","img/red_ll/choose11.jpg","2","193","red","0.6","0.6","0.6","l","",""
"","","","","lempert4","bdp_lott","Fri Feb 24 2023 09:59:02 GMT-0500 (Eastern Standard Time)","416168","green","red","animation","70","185934","0.0-5.0-2.32","","","","","","193","","","","","","[{""stimulus"":""img/red_ll/1.jpg"",""time"":53},{""stimulus"":""img/red_ll/2.jpg"",""time"":104},{""stimulus"":""img/red_ll/3.jpg"",""time"":154},{""stimulus"":""img/red_ll/4.jpg"",""time"":205},{""stimulus"":""img/red_ll/5.jpg"",""time"":255},{""stimulus"":""img/red_ll/6.jpg"",""time"":306},{""stimulus"":""img/red_ll/7.jpg"",""time"":360},{""stimulus"":""img/red_ll/8.jpg"",""time"":413},{""stimulus"":""img/red_ll/9.jpg"",""time"":467},{""stimulus"":""img/red_ll/10.jpg"",""time"":520},{""stimulus"":""img/red_ll/11.jpg"",""time"":573}]","[]"
"","","","","lempert4","bdp_lott","Fri Feb 24 2023 09:59:02 GMT-0500 (Eastern Standard Time)","416168","green","red","image-keyboard-response","71","186486","0.0-5.0-1.33","","552","","img/red_ll/choose11.jpg","1","192","green","0.6","0.6","0.6","w","",""
"","","","","lempert4","bdp_lott","Fri Feb 24 2023 09:59:02 GMT-0500 (Eastern Standard Time)","416168","green","red","animation","72","187118","0.0-5.0-2.33","","","","","","192","","","","","","[{""stimulus"":""img/green_wl/1.jpg"",""time"":54},{""stimulus"":""img/green_wl/2.jpg"",""time"":107},{""stimulus"":""img/green_wl/3.jpg"",""time"":160},{""stimulus"":""img/green_wl/4.jpg"",""time"":214},{""stimulus"":""img/green_wl/5.jpg"",""time"":267},{""stimulus"":""img/green_wl/6.jpg"",""time"":320},{""stimulus"":""img/green_wl/7.jpg"",""time"":374},{""stimulus"":""img/green_wl/8.jpg"",""time"":424},{""stimulus"":""img/green_wl/9.jpg"",""time"":475},{""stimulus"":""img/green_wl/10.jpg"",""time"":526},{""stimulus"":""img/green_wl/11.jpg"",""time"":579}]","[]"
"","","","","lempert4","bdp_lott","Fri Feb 24 2023 09:59:02 GMT-0500 (Eastern Standard Time)","416168","green","red","image-keyboard-response","73","187756","0.0-5.0-1.34","","637","","img/green_wl/choose11.jpg","1","191","green","0.6","0.6","0.6","w","",""
"","","","","lempert4","bdp_lott","Fri Feb 24 2023 09:59:02 GMT-0500 (Eastern Standard Time)","416168","green","red","animation","74","188390","0.0-5.0-2.34","","","","","","191","","","","","","[{""stimulus"":""img/green_wl/1.jpg"",""time"":53},{""stimulus"":""img/green_wl/2.jpg"",""time"":106},{""stimulus"":""img/green_wl/3.jpg"",""time"":159},{""stimulus"":""img/green_wl/4.jpg"",""time"":213},{""stimulus"":""img/green_wl/5.jpg"",""time"":266},{""stimulus"":""img/green_wl/6.jpg"",""time"":319},{""stimulus"":""img/green_wl/7.jpg"",""time"":373},{""stimulus"":""img/green_wl/8.jpg"",""time"":427},{""stimulus"":""img/green_wl/9.jpg"",""time"":480},{""stimulus"":""img/green_wl/10.jpg"",""time"":533},{""stimulus"":""img/green_wl/11.jpg"",""time"":583}]","[]"
"","","","","lempert4","bdp_lott","Fri Feb 24 2023 09:59:02 GMT-0500 (Eastern Standard Time)","416168","green","red","image-keyboard-response","75","188986","0.0-5.0-1.35","","596","","img/green_wl/choose11.jpg","1","190","green","0.6","0.6","0.6","l","",""
"","","","","lempert4","bdp_lott","Fri Feb 24 2023 09:59:02 GMT-0500 (Eastern Standard Time)","416168","green","red","animation","76","189622","0.0-5.0-2.35","","","","","","190","","","","","","[{""stimulus"":""img/green_ll/1.jpg"",""time"":55},{""stimulus"":""img/green_ll/2.jpg"",""time"":106},{""stimulus"":""img/green_ll/3.jpg"",""time"":157},{""stimulus"":""img/green_ll/4.jpg"",""time"":209},{""stimulus"":""img/green_ll/5.jpg"",""time"":263},{""stimulus"":""img/green_ll/6.jpg"",""time"":316},{""stimulus"":""img/green_ll/7.jpg"",""time"":370},{""stimulus"":""img/green_ll/8.jpg"",""time"":422},{""stimulus"":""img/green_ll/9.jpg"",""time"":474},{""stimulus"":""img/green_ll/10.jpg"",""time"":529},{""stimulus"":""img/green_ll/11.jpg"",""time"":583}]","[]"
"","","","","lempert4","bdp_lott","Fri Feb 24 2023 09:59:02 GMT-0500 (Eastern Standard Time)","416168","green","red","image-keyboard-response","77","190489","0.0-5.0-1.36","","867","","img/green_ll/choose11.jpg","1","189","green","0.6","0.6","0.6","l","",""
"","","","","lempert4","bdp_lott","Fri Feb 24 2023 09:59:02 GMT-0500 (Eastern Standard Time)","416168","green","red","animation","78","191126","0.0-5.0-2.36","","","","","","189","","","","","","[{""stimulus"":""img/green_ll/1.jpg"",""time"":51},{""stimulus"":""img/green_ll/2.jpg"",""time"":103},{""stimulus"":""img/green_ll/3.jpg"",""time"":157},{""stimulus"":""img/green_ll/4.jpg"",""time"":211},{""stimulus"":""img/green_ll/5.jpg"",""time"":264},{""stimulus"":""img/green_ll/6.jpg"",""time"":317},{""stimulus"":""img/green_ll/7.jpg"",""time"":370},{""stimulus"":""img/green_ll/8.jpg"",""time"":424},{""stimulus"":""img/green_ll/9.jpg"",""time"":477},{""stimulus"":""img/green_ll/10.jpg"",""time"":531},{""stimulus"":""img/green_ll/11.jpg"",""time"":584}]","[]"
"","","","","lempert4","bdp_lott","Fri Feb 24 2023 09:59:02 GMT-0500 (Eastern Standard Time)","416168","green","red","image-keyboard-response","79","191813","0.0-5.0-1.37","","686","","img/green_ll/choose11.jpg","1","188","green","0.6","0.6","0.6","w","",""
"","","","","lempert4","bdp_lott","Fri Feb 24 2023 09:59:02 GMT-0500 (Eastern Standard Time)","416168","green","red","animation","80","192450","0.0-5.0-2.37","","","","","","188","","","","","","[{""stimulus"":""img/green_wl/1.jpg"",""time"":54},{""stimulus"":""img/green_wl/2.jpg"",""time"":105},{""stimulus"":""img/green_wl/3.jpg"",""time"":155},{""stimulus"":""img/green_wl/4.jpg"",""time"":210},{""stimulus"":""img/green_wl/5.jpg"",""time"":263},{""stimulus"":""img/green_wl/6.jpg"",""time"":316},{""stimulus"":""img/green_wl/7.jpg"",""time"":369},{""stimulus"":""img/green_wl/8.jpg"",""time"":422},{""stimulus"":""img/green_wl/9.jpg"",""time"":476},{""stimulus"":""img/green_wl/10.jpg"",""time"":529},{""stimulus"":""img/green_wl/11.jpg"",""time"":582}]","[]"
"","","","","lempert4","bdp_lott","Fri Feb 24 2023 09:59:02 GMT-0500 (Eastern Standard Time)","416168","green","red","image-keyboard-response","81","193070","0.0-5.0-1.38","","620","","img/green_wl/choose11.jpg","1","187","green","0.6","0.6","0.6","w","",""
"","","","","lempert4","bdp_lott","Fri Feb 24 2023 09:59:02 GMT-0500 (Eastern Standard Time)","416168","green","red","animation","82","193704","0.0-5.0-2.38","","","","","","187","","","","","","[{""stimulus"":""img/green_wl/1.jpg"",""time"":51},{""stimulus"":""img/green_wl/2.jpg"",""time"":104},{""stimulus"":""img/green_wl/3.jpg"",""time"":159},{""stimulus"":""img/green_wl/4.jpg"",""time"":213},{""stimulus"":""img/green_wl/5.jpg"",""time"":265},{""stimulus"":""img/green_wl/6.jpg"",""time"":318},{""stimulus"":""img/green_wl/7.jpg"",""time"":371},{""stimulus"":""img/green_wl/8.jpg"",""time"":425},{""stimulus"":""img/green_wl/9.jpg"",""time"":478},{""stimulus"":""img/green_wl/10.jpg"",""time"":531},{""stimulus"":""img/green_wl/11.jpg"",""time"":585}]","[]"
"","","","","lempert4","bdp_lott","Fri Feb 24 2023 09:59:02 GMT-0500 (Eastern Standard Time)","416168","green","red","image-keyboard-response","83","194307","0.0-5.0-1.39","","602","","img/green_wl/choose11.jpg","1","186","green","0.6","0.6","0.6","l","",""
"","","","","lempert4","bdp_lott","Fri Feb 24 2023 09:59:02 GMT-0500 (Eastern Standard Time)","416168","green","red","animation","84","194945","0.0-5.0-2.39","","","","","","186","","","","","","[{""stimulus"":""img/green_ll/1.jpg"",""time"":54},{""stimulus"":""img/green_ll/2.jpg"",""time"":104},{""stimulus"":""img/green_ll/3.jpg"",""time"":158},{""stimulus"":""img/green_ll/4.jpg"",""time"":211},{""stimulus"":""img/green_ll/5.jpg"",""time"":265},{""stimulus"":""img/green_ll/6.jpg"",""time"":318},{""stimulus"":""img/green_ll/7.jpg"",""time"":371},{""stimulus"":""img/green_ll/8.jpg"",""time"":424},{""stimulus"":""img/green_ll/9.jpg"",""time"":478},{""stimulus"":""img/green_ll/10.jpg"",""time"":531},{""stimulus"":""img/green_ll/11.jpg"",""time"":585}]","[]"
"","","","","lempert4","bdp_lott","Fri Feb 24 2023 09:59:02 GMT-0500 (Eastern Standard Time)","416168","green","red","image-keyboard-response","85","195648","0.0-5.0-1.40","","703","","img/green_ll/choose11.jpg","1","185","green","0.6","0.6","0.6","l","",""
"","","","","lempert4","bdp_lott","Fri Feb 24 2023 09:59:02 GMT-0500 (Eastern Standard Time)","416168","green","red","animation","86","196289","0.0-5.0-2.40","","","","","","185","","","","","","[{""stimulus"":""img/green_ll/1.jpg"",""time"":54},{""stimulus"":""img/green_ll/2.jpg"",""time"":108},{""stimulus"":""img/green_ll/3.jpg"",""time"":161},{""stimulus"":""img/green_ll/4.jpg"",""time"":215},{""stimulus"":""img/green_ll/5.jpg"",""time"":267},{""stimulus"":""img/green_ll/6.jpg"",""time"":321},{""stimulus"":""img/green_ll/7.jpg"",""time"":374},{""stimulus"":""img/green_ll/8.jpg"",""time"":428},{""stimulus"":""img/green_ll/9.jpg"",""time"":481},{""stimulus"":""img/green_ll/10.jpg"",""time"":535},{""stimulus"":""img/green_ll/11.jpg"",""time"":588}]","[]"
"","","","","lempert4","bdp_lott","Fri Feb 24 2023 09:59:02 GMT-0500 (Eastern Standard Time)","416168","green","red","image-keyboard-response","87","196794","0.0-5.0-1.41","","505","","img/green_ll/choose11.jpg","1","184","green","0.6","0.6","0.6","w","",""
"","","","","lempert4","bdp_lott","Fri Feb 24 2023 09:59:02 GMT-0500 (Eastern Standard Time)","416168","green","red","animation","88","197432","0.0-5.0-2.41","","","","","","184","","","","","","[{""stimulus"":""img/green_wl/1.jpg"",""time"":55},{""stimulus"":""img/green_wl/2.jpg"",""time"":106},{""stimulus"":""img/green_wl/3.jpg"",""time"":156},{""stimulus"":""img/green_wl/4.jpg"",""time"":210},{""stimulus"":""img/green_wl/5.jpg"",""time"":263},{""stimulus"":""img/green_wl/6.jpg"",""time"":316},{""stimulus"":""img/green_wl/7.jpg"",""time"":370},{""stimulus"":""img/green_wl/8.jpg"",""time"":423},{""stimulus"":""img/green_wl/9.jpg"",""time"":476},{""stimulus"":""img/green_wl/10.jpg"",""time"":530},{""stimulus"":""img/green_wl/11.jpg"",""time"":585}]","[]"
"","","","","lempert4","bdp_lott","Fri Feb 24 2023 09:59:02 GMT-0500 (Eastern Standard Time)","416168","green","red","image-keyboard-response","89","197959","0.0-5.0-1.42","","526","","img/green_wl/choose11.jpg","1","183","green","0.6","0.6","0.6","w","",""
"","","","","lempert4","bdp_lott","Fri Feb 24 2023 09:59:02 GMT-0500 (Eastern Standard Time)","416168","green","red","animation","90","198593","0.0-5.0-2.42","","","","","","183","","","","","","[{""stimulus"":""img/green_wl/1.jpg"",""time"":53},{""stimulus"":""img/green_wl/2.jpg"",""time"":103},{""stimulus"":""img/green_wl/3.jpg"",""time"":154},{""stimulus"":""img/green_wl/4.jpg"",""time"":208},{""stimulus"":""img/green_wl/5.jpg"",""time"":261},{""stimulus"":""img/green_wl/6.jpg"",""time"":314},{""stimulus"":""img/green_wl/7.jpg"",""time"":367},{""stimulus"":""img/green_wl/8.jpg"",""time"":421},{""stimulus"":""img/green_wl/9.jpg"",""time"":474},{""stimulus"":""img/green_wl/10.jpg"",""time"":528},{""stimulus"":""img/green_wl/11.jpg"",""time"":583}]","[]"
"","","","","lempert4","bdp_lott","Fri Feb 24 2023 09:59:02 GMT-0500 (Eastern Standard Time)","416168","green","red","image-keyboard-response","91","199098","0.0-5.0-1.43","","505","","img/green_wl/choose11.jpg","1","182","green","0.6","0.6","0.6","w","",""
"","","","","lempert4","bdp_lott","Fri Feb 24 2023 09:59:02 GMT-0500 (Eastern Standard Time)","416168","green","red","animation","92","199734","0.0-5.0-2.43","","","","","","182","","","","","","[{""stimulus"":""img/green_wl/1.jpg"",""time"":53},{""stimulus"":""img/green_wl/2.jpg"",""time"":103},{""stimulus"":""img/green_wl/3.jpg"",""time"":156},{""stimulus"":""img/green_wl/4.jpg"",""time"":209},{""stimulus"":""img/green_wl/5.jpg"",""time"":263},{""stimulus"":""img/green_wl/6.jpg"",""time"":317},{""stimulus"":""img/green_wl/7.jpg"",""time"":370},{""stimulus"":""img/green_wl/8.jpg"",""time"":423},{""stimulus"":""img/green_wl/9.jpg"",""time"":477},{""stimulus"":""img/green_wl/10.jpg"",""time"":530},{""stimulus"":""img/green_wl/11.jpg"",""time"":583}]","[]"
"","","","","lempert4","bdp_lott","Fri Feb 24 2023 09:59:02 GMT-0500 (Eastern Standard Time)","416168","green","red","image-keyboard-response","93","200317","0.0-5.0-1.44","","581","","img/green_wl/choose11.jpg","1","181","green","0.6","0.6","0.6","l","",""
"","","","","lempert4","bdp_lott","Fri Feb 24 2023 09:59:02 GMT-0500 (Eastern Standard Time)","416168","green","red","animation","94","200950","0.0-5.0-2.44","","","","","","181","","","","","","[{""stimulus"":""img/green_ll/1.jpg"",""time"":52},{""stimulus"":""img/green_ll/2.jpg"",""time"":107},{""stimulus"":""img/green_ll/3.jpg"",""time"":159},{""stimulus"":""img/green_ll/4.jpg"",""time"":212},{""stimulus"":""img/green_ll/5.jpg"",""time"":263},{""stimulus"":""img/green_ll/6.jpg"",""time"":313},{""stimulus"":""img/green_ll/7.jpg"",""time"":367},{""stimulus"":""img/green_ll/8.jpg"",""time"":420},{""stimulus"":""img/green_ll/9.jpg"",""time"":473},{""stimulus"":""img/green_ll/10.jpg"",""time"":527},{""stimulus"":""img/green_ll/11.jpg"",""time"":580}]","[]"
"","","","","lempert4","bdp_lott","Fri Feb 24 2023 09:59:02 GMT-0500 (Eastern Standard Time)","416168","green","red","image-keyboard-response","95","201762","0.0-5.0-1.45","","812","","img/green_ll/choose11.jpg","1","180","green","0.6","0.6","0.6","w","",""
"","","","","lempert4","bdp_lott","Fri Feb 24 2023 09:59:02 GMT-0500 (Eastern Standard Time)","416168","green","red","animation","96","202403","0.0-5.0-2.45","","","","","","180","","","","","","[{""stimulus"":""img/green_wl/1.jpg"",""time"":53},{""stimulus"":""img/green_wl/2.jpg"",""time"":106},{""stimulus"":""img/green_wl/3.jpg"",""time"":161},{""stimulus"":""img/green_wl/4.jpg"",""time"":213},{""stimulus"":""img/green_wl/5.jpg"",""time"":266},{""stimulus"":""img/green_wl/6.jpg"",""time"":319},{""stimulus"":""img/green_wl/7.jpg"",""time"":373},{""stimulus"":""img/green_wl/8.jpg"",""time"":427},{""stimulus"":""img/green_wl/9.jpg"",""time"":479},{""stimulus"":""img/green_wl/10.jpg"",""time"":532},{""stimulus"":""img/green_wl/11.jpg"",""time"":588}]","[]"
"","","","","lempert4","bdp_lott","Fri Feb 24 2023 09:59:02 GMT-0500 (Eastern Standard Time)","416168","green","red","image-keyboard-response","97","202962","0.0-5.0-1.46","","558","","img/green_wl/choose11.jpg","1","179","green","0.6","0.6","0.6","l","",""
"","","","","lempert4","bdp_lott","Fri Feb 24 2023 09:59:02 GMT-0500 (Eastern Standard Time)","416168","green","red","animation","98","203595","0.0-5.0-2.46","","","","","","179","","","","","","[{""stimulus"":""img/green_ll/1.jpg"",""time"":51},{""stimulus"":""img/green_ll/2.jpg"",""time"":102},{""stimulus"":""img/green_ll/3.jpg"",""time"":153},{""stimulus"":""img/green_ll/4.jpg"",""time"":206},{""stimulus"":""img/green_ll/5.jpg"",""time"":260},{""stimulus"":""img/green_ll/6.jpg"",""time"":313},{""stimulus"":""img/green_ll/7.jpg"",""time"":366},{""stimulus"":""img/green_ll/8.jpg"",""time"":419},{""stimulus"":""img/green_ll/9.jpg"",""time"":473},{""stimulus"":""img/green_ll/10.jpg"",""time"":526},{""stimulus"":""img/green_ll/11.jpg"",""time"":580}]","[]"
"","","","","lempert4","bdp_lott","Fri Feb 24 2023 09:59:02 GMT-0500 (Eastern Standard Time)","416168","green","red","image-keyboard-response","99","204283","0.0-5.0-1.47","","686","","img/green_ll/choose11.jpg","1","178","green","0.6","0.6","0.6","l","",""
"","","","","lempert4","bdp_lott","Fri Feb 24 2023 09:59:02 GMT-0500 (Eastern Standard Time)","416168","green","red","animation","100","204918","0.0-5.0-2.47","","","","","","178","","","","","","[{""stimulus"":""img/green_ll/1.jpg"",""time"":51},{""stimulus"":""img/green_ll/2.jpg"",""time"":104},{""stimulus"":""img/green_ll/3.jpg"",""time"":156},{""stimulus"":""img/green_ll/4.jpg"",""time"":208},{""stimulus"":""img/green_ll/5.jpg"",""time"":261},{""stimulus"":""img/green_ll/6.jpg"",""time"":314},{""stimulus"":""img/green_ll/7.jpg"",""time"":368},{""stimulus"":""img/green_ll/8.jpg"",""time"":421},{""stimulus"":""img/green_ll/9.jpg"",""time"":475},{""stimulus"":""img/green_ll/10.jpg"",""time"":527},{""stimulus"":""img/green_ll/11.jpg"",""time"":581}]","[]"
"","","","","lempert4","bdp_lott","Fri Feb 24 2023 09:59:02 GMT-0500 (Eastern Standard Time)","416168","green","red","image-keyboard-response","101","205391","0.0-5.0-1.48","","472","","img/green_ll/choose11.jpg","1","177","green","0.6","0.6","0.6","w","",""
"","","","","lempert4","bdp_lott","Fri Feb 24 2023 09:59:02 GMT-0500 (Eastern Standard Time)","416168","green","red","animation","102","206022","0.0-5.0-2.48","","","","","","177","","","","","","[{""stimulus"":""img/green_wl/1.jpg"",""time"":56},{""stimulus"":""img/green_wl/2.jpg"",""time"":105},{""stimulus"":""img/green_wl/3.jpg"",""time"":157},{""stimulus"":""img/green_wl/4.jpg"",""time"":210},{""stimulus"":""img/green_wl/5.jpg"",""time"":264},{""stimulus"":""img/green_wl/6.jpg"",""time"":318},{""stimulus"":""img/green_wl/7.jpg"",""time"":370},{""stimulus"":""img/green_wl/8.jpg"",""time"":424},{""stimulus"":""img/green_wl/9.jpg"",""time"":476},{""stimulus"":""img/green_wl/10.jpg"",""time"":530},{""stimulus"":""img/green_wl/11.jpg"",""time"":581}]","[]"
"","","","","lempert4","bdp_lott","Fri Feb 24 2023 09:59:02 GMT-0500 (Eastern Standard Time)","416168","green","red","image-keyboard-response","103","206597","0.0-5.0-1.49","","574","","img/green_wl/choose11.jpg","1","176","green","0.6","0.6","0.6","w","",""
"","","","","lempert4","bdp_lott","Fri Feb 24 2023 09:59:02 GMT-0500 (Eastern Standard Time)","416168","green","red","animation","104","207233","0.0-5.0-2.49","","","","","","176","","","","","","[{""stimulus"":""img/green_wl/1.jpg"",""time"":55},{""stimulus"":""img/green_wl/2.jpg"",""time"":108},{""stimulus"":""img/green_wl/3.jpg"",""time"":158},{""stimulus"":""img/green_wl/4.jpg"",""time"":209},{""stimulus"":""img/green_wl/5.jpg"",""time"":263},{""stimulus"":""img/green_wl/6.jpg"",""time"":316},{""stimulus"":""img/green_wl/7.jpg"",""time"":370},{""stimulus"":""img/green_wl/8.jpg"",""time"":425},{""stimulus"":""img/green_wl/9.jpg"",""time"":476},{""stimulus"":""img/green_wl/10.jpg"",""time"":530},{""stimulus"":""img/green_wl/11.jpg"",""time"":583}]","[]"
"","","","","lempert4","bdp_lott","Fri Feb 24 2023 09:59:02 GMT-0500 (Eastern Standard Time)","416168","green","red","image-keyboard-response","105","207706","0.0-5.0-1.50","","472","","img/green_wl/choose11.jpg","1","175","green","0.6","0.6","0.6","l","",""
"","","","","lempert4","bdp_lott","Fri Feb 24 2023 09:59:02 GMT-0500 (Eastern Standard Time)","416168","green","red","animation","106","208343","0.0-5.0-2.50","","","","","","175","","","","","","[{""stimulus"":""img/green_ll/1.jpg"",""time"":52},{""stimulus"":""img/green_ll/2.jpg"",""time"":103},{""stimulus"":""img/green_ll/3.jpg"",""time"":157},{""stimulus"":""img/green_ll/4.jpg"",""time"":209},{""stimulus"":""img/green_ll/5.jpg"",""time"":263},{""stimulus"":""img/green_ll/6.jpg"",""time"":317},{""stimulus"":""img/green_ll/7.jpg"",""time"":370},{""stimulus"":""img/green_ll/8.jpg"",""time"":424},{""stimulus"":""img/green_ll/9.jpg"",""time"":476},{""stimulus"":""img/green_ll/10.jpg"",""time"":530},{""stimulus"":""img/green_ll/11.jpg"",""time"":583}]","[]"
"","","","","lempert4","bdp_lott","Fri Feb 24 2023 09:59:02 GMT-0500 (Eastern Standard Time)","416168","green","red","image-keyboard-response","107","208858","0.0-5.0-1.51","","515","","img/green_ll/choose11.jpg","1","174","green","0.6","0.6","0.6","l","",""
"","","","","lempert4","bdp_lott","Fri Feb 24 2023 09:59:02 GMT-0500 (Eastern Standard Time)","416168","green","red","animation","108","209494","0.0-5.0-2.51","","","","","","174","","","","","","[{""stimulus"":""img/green_ll/1.jpg"",""time"":53},{""stimulus"":""img/green_ll/2.jpg"",""time"":103},{""stimulus"":""img/green_ll/3.jpg"",""time"":157},{""stimulus"":""img/green_ll/4.jpg"",""time"":210},{""stimulus"":""img/green_ll/5.jpg"",""time"":263},{""stimulus"":""img/green_ll/6.jpg"",""time"":317},{""stimulus"":""img/green_ll/7.jpg"",""time"":370},{""stimulus"":""img/green_ll/8.jpg"",""time"":423},{""stimulus"":""img/green_ll/9.jpg"",""time"":476},{""stimulus"":""img/green_ll/10.jpg"",""time"":530},{""stimulus"":""img/green_ll/11.jpg"",""time"":583}]","[]"
"","","","","lempert4","bdp_lott","Fri Feb 24 2023 09:59:02 GMT-0500 (Eastern Standard Time)","416168","green","red","image-keyboard-response","109","209975","0.0-5.0-1.52","","480","","img/green_ll/choose11.jpg","1","173","green","0.6","0.6","0.6","l","",""
"","","","","lempert4","bdp_lott","Fri Feb 24 2023 09:59:02 GMT-0500 (Eastern Standard Time)","416168","green","red","animation","110","210615","0.0-5.0-2.52","","","","","","173","","","","","","[{""stimulus"":""img/green_ll/1.jpg"",""time"":55},{""stimulus"":""img/green_ll/2.jpg"",""time"":109},{""stimulus"":""img/green_ll/3.jpg"",""time"":160},{""stimulus"":""img/green_ll/4.jpg"",""time"":213},{""stimulus"":""img/green_ll/5.jpg"",""time"":267},{""stimulus"":""img/green_ll/6.jpg"",""time"":320},{""stimulus"":""img/green_ll/7.jpg"",""time"":370},{""stimulus"":""img/green_ll/8.jpg"",""time"":421},{""stimulus"":""img/green_ll/9.jpg"",""time"":476},{""stimulus"":""img/green_ll/10.jpg"",""time"":530},{""stimulus"":""img/green_ll/11.jpg"",""time"":585}]","[]"
"","","","","lempert4","bdp_lott","Fri Feb 24 2023 09:59:02 GMT-0500 (Eastern Standard Time)","416168","green","red","image-keyboard-response","111","211618","0.0-5.0-1.53","","1003","","img/green_ll/choose11.jpg","1","172","green","0.6","0.6","0.6","l","",""
"","","","","lempert4","bdp_lott","Fri Feb 24 2023 09:59:02 GMT-0500 (Eastern Standard Time)","416168","green","red","animation","112","212257","0.0-5.0-2.53","","","","","","172","","","","","","[{""stimulus"":""img/green_ll/1.jpg"",""time"":53},{""stimulus"":""img/green_ll/2.jpg"",""time"":107},{""stimulus"":""img/green_ll/3.jpg"",""time"":160},{""stimulus"":""img/green_ll/4.jpg"",""time"":214},{""stimulus"":""img/green_ll/5.jpg"",""time"":265},{""stimulus"":""img/green_ll/6.jpg"",""time"":319},{""stimulus"":""img/green_ll/7.jpg"",""time"":372},{""stimulus"":""img/green_ll/8.jpg"",""time"":425},{""stimulus"":""img/green_ll/9.jpg"",""time"":475},{""stimulus"":""img/green_ll/10.jpg"",""time"":530},{""stimulus"":""img/green_ll/11.jpg"",""time"":585}]","[]"
"","","","","lempert4","bdp_lott","Fri Feb 24 2023 09:59:02 GMT-0500 (Eastern Standard Time)","416168","green","red","image-keyboard-response","113","214756","0.0-5.0-1.54","","2499","","img/green_ll/choose11.jpg","1","171","green","0.6","0.6","0.6","w","",""
"","","","","lempert4","bdp_lott","Fri Feb 24 2023 09:59:02 GMT-0500 (Eastern Standard Time)","416168","green","red","animation","114","215390","0.0-5.0-2.54","","","","","","171","","","","","","[{""stimulus"":""img/green_wl/1.jpg"",""time"":53},{""stimulus"":""img/green_wl/2.jpg"",""time"":108},{""stimulus"":""img/green_wl/3.jpg"",""time"":157},{""stimulus"":""img/green_wl/4.jpg"",""time"":211},{""stimulus"":""img/green_wl/5.jpg"",""time"":264},{""stimulus"":""img/green_wl/6.jpg"",""time"":317},{""stimulus"":""img/green_wl/7.jpg"",""time"":373},{""stimulus"":""img/green_wl/8.jpg"",""time"":424},{""stimulus"":""img/green_wl/9.jpg"",""time"":477},{""stimulus"":""img/green_wl/10.jpg"",""time"":531},{""stimulus"":""img/green_wl/11.jpg"",""time"":584}]","[]"
"","","","","lempert4","bdp_lott","Fri Feb 24 2023 09:59:02 GMT-0500 (Eastern Standard Time)","416168","green","red","image-keyboard-response","115","216098","0.0-5.0-1.55","","708","","img/green_wl/choose11.jpg","1","170","green","0.6","0.6","0.6","l","",""
"","","","","lempert4","bdp_lott","Fri Feb 24 2023 09:59:02 GMT-0500 (Eastern Standard Time)","416168","green","red","animation","116","216737","0.0-5.0-2.55","","","","","","170","","","","","","[{""stimulus"":""img/green_ll/1.jpg"",""time"":53},{""stimulus"":""img/green_ll/2.jpg"",""time"":105},{""stimulus"":""img/green_ll/3.jpg"",""time"":159},{""stimulus"":""img/green_ll/4.jpg"",""time"":213},{""stimulus"":""img/green_ll/5.jpg"",""time"":266},{""stimulus"":""img/green_ll/6.jpg"",""time"":319},{""stimulus"":""img/green_ll/7.jpg"",""time"":373},{""stimulus"":""img/green_ll/8.jpg"",""time"":426},{""stimulus"":""img/green_ll/9.jpg"",""time"":480},{""stimulus"":""img/green_ll/10.jpg"",""time"":532},{""stimulus"":""img/green_ll/11.jpg"",""time"":586}]","[]"
"","","","","lempert4","bdp_lott","Fri Feb 24 2023 09:59:02 GMT-0500 (Eastern Standard Time)","416168","green","red","image-keyboard-response","117","217355","0.0-5.0-1.56","","617","","img/green_ll/choose11.jpg","2","169","red","0.6","0.6","0.6","w","",""
"","","","","lempert4","bdp_lott","Fri Feb 24 2023 09:59:02 GMT-0500 (Eastern Standard Time)","416168","green","red","animation","118","217990","0.0-5.0-2.56","","","","","","169","","","","","","[{""stimulus"":""img/red_lw/1.jpg"",""time"":54},{""stimulus"":""img/red_lw/2.jpg"",""time"":108},{""stimulus"":""img/red_lw/3.jpg"",""time"":161},{""stimulus"":""img/red_lw/4.jpg"",""time"":215},{""stimulus"":""img/red_lw/5.jpg"",""time"":267},{""stimulus"":""img/red_lw/6.jpg"",""time"":321},{""stimulus"":""img/red_lw/7.jpg"",""time"":375},{""stimulus"":""img/red_lw/8.jpg"",""time"":428},{""stimulus"":""img/red_lw/9.jpg"",""time"":481},{""stimulus"":""img/red_lw/10.jpg"",""time"":534},{""stimulus"":""img/red_lw/11.jpg"",""time"":584}]","[]"
"","","","","lempert4","bdp_lott","Fri Feb 24 2023 09:59:02 GMT-0500 (Eastern Standard Time)","416168","green","red","image-keyboard-response","119","218576","0.0-5.0-1.57","","585","","img/red_lw/choose11.jpg","2","168","red","0.6","0.6","0.6","l","",""
"","","","","lempert4","bdp_lott","Fri Feb 24 2023 09:59:02 GMT-0500 (Eastern Standard Time)","416168","green","red","animation","120","219210","0.0-5.0-2.57","","","","","","168","","","","","","[{""stimulus"":""img/red_ll/1.jpg"",""time"":54},{""stimulus"":""img/red_ll/2.jpg"",""time"":107},{""stimulus"":""img/red_ll/3.jpg"",""time"":158},{""stimulus"":""img/red_ll/4.jpg"",""time"":210},{""stimulus"":""img/red_ll/5.jpg"",""time"":263},{""stimulus"":""img/red_ll/6.jpg"",""time"":316},{""stimulus"":""img/red_ll/7.jpg"",""time"":369},{""stimulus"":""img/red_ll/8.jpg"",""time"":422},{""stimulus"":""img/red_ll/9.jpg"",""time"":475},{""stimulus"":""img/red_ll/10.jpg"",""time"":526},{""stimulus"":""img/red_ll/11.jpg"",""time"":580}]","[]"
"","","","","lempert4","bdp_lott","Fri Feb 24 2023 09:59:02 GMT-0500 (Eastern Standard Time)","416168","green","red","image-keyboard-response","121","219754","0.0-5.0-1.58","","544","","img/red_ll/choose11.jpg","2","167","red","0.6","0.6","0.6","w","",""
"","","","","lempert4","bdp_lott","Fri Feb 24 2023 09:59:02 GMT-0500 (Eastern Standard Time)","416168","green","red","animation","122","220396","0.0-5.0-2.58","","","","","","167","","","","","","[{""stimulus"":""img/red_lw/1.jpg"",""time"":52},{""stimulus"":""img/red_lw/2.jpg"",""time"":107},{""stimulus"":""img/red_lw/3.jpg"",""time"":162},{""stimulus"":""img/red_lw/4.jpg"",""time"":217},{""stimulus"":""img/red_lw/5.jpg"",""time"":269},{""stimulus"":""img/red_lw/6.jpg"",""time"":323},{""stimulus"":""img/red_lw/7.jpg"",""time"":375},{""stimulus"":""img/red_lw/8.jpg"",""time"":429},{""stimulus"":""img/red_lw/9.jpg"",""time"":482},{""stimulus"":""img/red_lw/10.jpg"",""time"":535},{""stimulus"":""img/red_lw/11.jpg"",""time"":589}]","[]"
"","","","","lempert4","bdp_lott","Fri Feb 24 2023 09:59:02 GMT-0500 (Eastern Standard Time)","416168","green","red","image-keyboard-response","123","220989","0.0-5.0-1.59","","592","","img/red_lw/choose11.jpg","2","166","red","0.6","0.6","0.6","l","",""
"","","","","lempert4","bdp_lott","Fri Feb 24 2023 09:59:02 GMT-0500 (Eastern Standard Time)","416168","green","red","animation","124","221622","0.0-5.0-2.59","","","","","","166","","","","","","[{""stimulus"":""img/red_ll/1.jpg"",""time"":52},{""stimulus"":""img/red_ll/2.jpg"",""time"":105},{""stimulus"":""img/red_ll/3.jpg"",""time"":159},{""stimulus"":""img/red_ll/4.jpg"",""time"":210},{""stimulus"":""img/red_ll/5.jpg"",""time"":262},{""stimulus"":""img/red_ll/6.jpg"",""time"":316},{""stimulus"":""img/red_ll/7.jpg"",""time"":371},{""stimulus"":""img/red_ll/8.jpg"",""time"":423},{""stimulus"":""img/red_ll/9.jpg"",""time"":474},{""stimulus"":""img/red_ll/10.jpg"",""time"":527},{""stimulus"":""img/red_ll/11.jpg"",""time"":580}]","[]"
"","","","","lempert4","bdp_lott","Fri Feb 24 2023 09:59:02 GMT-0500 (Eastern Standard Time)","416168","green","red","image-keyboard-response","125","222212","0.0-5.0-1.60","","589","","img/red_ll/choose11.jpg","2","165","red","0.6","0.6","0.6","l","",""
"","","","","lempert4","bdp_lott","Fri Feb 24 2023 09:59:02 GMT-0500 (Eastern Standard Time)","416168","green","red","animation","126","222849","0.0-5.0-2.60","","","","","","165","","","","","","[{""stimulus"":""img/red_ll/1.jpg"",""time"":56},{""stimulus"":""img/red_ll/2.jpg"",""time"":109},{""stimulus"":""img/red_ll/3.jpg"",""time"":163},{""stimulus"":""img/red_ll/4.jpg"",""time"":218},{""stimulus"":""img/red_ll/5.jpg"",""time"":269},{""stimulus"":""img/red_ll/6.jpg"",""time"":319},{""stimulus"":""img/red_ll/7.jpg"",""time"":373},{""stimulus"":""img/red_ll/8.jpg"",""time"":424},{""stimulus"":""img/red_ll/9.jpg"",""time"":477},{""stimulus"":""img/red_ll/10.jpg"",""time"":530},{""stimulus"":""img/red_ll/11.jpg"",""time"":584}]","[]"
"","","","","lempert4","bdp_lott","Fri Feb 24 2023 09:59:02 GMT-0500 (Eastern Standard Time)","416168","green","red","image-keyboard-response","127","223281","0.0-5.0-1.61","","431","","img/red_ll/choose11.jpg","2","164","red","0.6","0.6","0.6","w","",""
"","","","","lempert4","bdp_lott","Fri Feb 24 2023 09:59:02 GMT-0500 (Eastern Standard Time)","416168","green","red","animation","128","223916","0.0-5.0-2.61","","","","","","164","","","","","","[{""stimulus"":""img/red_lw/1.jpg"",""time"":53},{""stimulus"":""img/red_lw/2.jpg"",""time"":103},{""stimulus"":""img/red_lw/3.jpg"",""time"":155},{""stimulus"":""img/red_lw/4.jpg"",""time"":209},{""stimulus"":""img/red_lw/5.jpg"",""time"":262},{""stimulus"":""img/red_lw/6.jpg"",""time"":315},{""stimulus"":""img/red_lw/7.jpg"",""time"":368},{""stimulus"":""img/red_lw/8.jpg"",""time"":421},{""stimulus"":""img/red_lw/9.jpg"",""time"":472},{""stimulus"":""img/red_lw/10.jpg"",""time"":527},{""stimulus"":""img/red_lw/11.jpg"",""time"":581}]","[]"
"","","","","lempert4","bdp_lott","Fri Feb 24 2023 09:59:02 GMT-0500 (Eastern Standard Time)","416168","green","red","image-keyboard-response","129","224529","0.0-5.0-1.62","","613","","img/red_lw/choose11.jpg","2","163","red","0.6","0.6","0.6","l","",""
"","","","","lempert4","bdp_lott","Fri Feb 24 2023 09:59:02 GMT-0500 (Eastern Standard Time)","416168","green","red","animation","130","225163","0.0-5.0-2.62","","","","","","163","","","","","","[{""stimulus"":""img/red_ll/1.jpg"",""time"":56},{""stimulus"":""img/red_ll/2.jpg"",""time"":109},{""stimulus"":""img/red_ll/3.jpg"",""time"":163},{""stimulus"":""img/red_ll/4.jpg"",""time"":213},{""stimulus"":""img/red_ll/5.jpg"",""time"":264},{""stimulus"":""img/red_ll/6.jpg"",""time"":317},{""stimulus"":""img/red_ll/7.jpg"",""time"":368},{""stimulus"":""img/red_ll/8.jpg"",""time"":422},{""stimulus"":""img/red_ll/9.jpg"",""time"":475},{""stimulus"":""img/red_ll/10.jpg"",""time"":528},{""stimulus"":""img/red_ll/11.jpg"",""time"":582}]","[]"
"","","","","lempert4","bdp_lott","Fri Feb 24 2023 09:59:02 GMT-0500 (Eastern Standard Time)","416168","green","red","image-keyboard-response","131","225837","0.0-5.0-1.63","","672","","img/red_ll/choose11.jpg","2","162","red","0.6","0.6","0.6","l","",""
"","","","","lempert4","bdp_lott","Fri Feb 24 2023 09:59:02 GMT-0500 (Eastern Standard Time)","416168","green","red","animation","132","226465","0.0-5.0-2.63","","","","","","162","","","","","","[{""stimulus"":""img/red_ll/1.jpg"",""time"":52},{""stimulus"":""img/red_ll/2.jpg"",""time"":105},{""stimulus"":""img/red_ll/3.jpg"",""time"":156},{""stimulus"":""img/red_ll/4.jpg"",""time"":209},{""stimulus"":""img/red_ll/5.jpg"",""time"":263},{""stimulus"":""img/red_ll/6.jpg"",""time"":316},{""stimulus"":""img/red_ll/7.jpg"",""time"":369},{""stimulus"":""img/red_ll/8.jpg"",""time"":423},{""stimulus"":""img/red_ll/9.jpg"",""time"":477},{""stimulus"":""img/red_ll/10.jpg"",""time"":526},{""stimulus"":""img/red_ll/11.jpg"",""time"":578}]","[]"
"","","","","lempert4","bdp_lott","Fri Feb 24 2023 09:59:02 GMT-0500 (Eastern Standard Time)","416168","green","red","image-keyboard-response","133","227034","0.0-5.0-1.64","","569","","img/red_ll/choose11.jpg","2","161","red","0.6","0.6","0.6","l","",""
"","","","","lempert4","bdp_lott","Fri Feb 24 2023 09:59:02 GMT-0500 (Eastern Standard Time)","416168","green","red","animation","134","227668","0.0-5.0-2.64","","","","","","161","","","","","","[{""stimulus"":""img/red_ll/1.jpg"",""time"":51},{""stimulus"":""img/red_ll/2.jpg"",""time"":104},{""stimulus"":""img/red_ll/3.jpg"",""time"":155},{""stimulus"":""img/red_ll/4.jpg"",""time"":207},{""stimulus"":""img/red_ll/5.jpg"",""time"":259},{""stimulus"":""img/red_ll/6.jpg"",""time"":313},{""stimulus"":""img/red_ll/7.jpg"",""time"":366},{""stimulus"":""img/red_ll/8.jpg"",""time"":419},{""stimulus"":""img/red_ll/9.jpg"",""time"":472},{""stimulus"":""img/red_ll/10.jpg"",""time"":526},{""stimulus"":""img/red_ll/11.jpg"",""time"":579}]","[]"
"","","","","lempert4","bdp_lott","Fri Feb 24 2023 09:59:02 GMT-0500 (Eastern Standard Time)","416168","green","red","image-keyboard-response","135","228299","0.0-5.0-1.65","","630","","img/red_ll/choose11.jpg","1","160","green","0.6","0.6","0.6","l","",""
"","","","","lempert4","bdp_lott","Fri Feb 24 2023 09:59:02 GMT-0500 (Eastern Standard Time)","416168","green","red","animation","136","228937","0.0-5.0-2.65","","","","","","160","","","","","","[{""stimulus"":""img/green_ll/1.jpg"",""time"":51},{""stimulus"":""img/green_ll/2.jpg"",""time"":105},{""stimulus"":""img/green_ll/3.jpg"",""time"":158},{""stimulus"":""img/green_ll/4.jpg"",""time"":211},{""stimulus"":""img/green_ll/5.jpg"",""time"":264},{""stimulus"":""img/green_ll/6.jpg"",""time"":321},{""stimulus"":""img/green_ll/7.jpg"",""time"":371},{""stimulus"":""img/green_ll/8.jpg"",""time"":425},{""stimulus"":""img/green_ll/9.jpg"",""time"":480},{""stimulus"":""img/green_ll/10.jpg"",""time"":531},{""stimulus"":""img/green_ll/11.jpg"",""time"":585}]","[]"
"","","","","lempert4","bdp_lott","Fri Feb 24 2023 09:59:02 GMT-0500 (Eastern Standard Time)","416168","green","red","image-keyboard-response","137","229411","0.0-5.0-1.66","","474","","img/green_ll/choose11.jpg","1","159","green","0.6","0.6","0.6","w","",""
"","","","","lempert4","bdp_lott","Fri Feb 24 2023 09:59:02 GMT-0500 (Eastern Standard Time)","416168","green","red","animation","138","230046","0.0-5.0-2.66","","","","","","159","","","","","","[{""stimulus"":""img/green_wl/1.jpg"",""time"":54},{""stimulus"":""img/green_wl/2.jpg"",""time"":105},{""stimulus"":""img/green_wl/3.jpg"",""time"":160},{""stimulus"":""img/green_wl/4.jpg"",""time"":211},{""stimulus"":""img/green_wl/5.jpg"",""time"":265},{""stimulus"":""img/green_wl/6.jpg"",""time"":318},{""stimulus"":""img/green_wl/7.jpg"",""time"":371},{""stimulus"":""img/green_wl/8.jpg"",""time"":427},{""stimulus"":""img/green_wl/9.jpg"",""time"":478},{""stimulus"":""img/green_wl/10.jpg"",""time"":529},{""stimulus"":""img/green_wl/11.jpg"",""time"":582}]","[]"
"","","","","lempert4","bdp_lott","Fri Feb 24 2023 09:59:02 GMT-0500 (Eastern Standard Time)","416168","green","red","image-keyboard-response","139","230602","0.0-5.0-1.67","","556","","img/green_wl/choose11.jpg","1","158","green","0.6","0.6","0.6","l","",""
"","","","","lempert4","bdp_lott","Fri Feb 24 2023 09:59:02 GMT-0500 (Eastern Standard Time)","416168","green","red","animation","140","231230","0.0-5.0-2.67","","","","","","158","","","","","","[{""stimulus"":""img/green_ll/1.jpg"",""time"":52},{""stimulus"":""img/green_ll/2.jpg"",""time"":106},{""stimulus"":""img/green_ll/3.jpg"",""time"":159},{""stimulus"":""img/green_ll/4.jpg"",""time"":209},{""stimulus"":""img/green_ll/5.jpg"",""time"":260},{""stimulus"":""img/green_ll/6.jpg"",""time"":310},{""stimulus"":""img/green_ll/7.jpg"",""time"":361},{""stimulus"":""img/green_ll/8.jpg"",""time"":417},{""stimulus"":""img/green_ll/9.jpg"",""time"":469},{""stimulus"":""img/green_ll/10.jpg"",""time"":522},{""stimulus"":""img/green_ll/11.jpg"",""time"":575}]","[]"
"","","","","lempert4","bdp_lott","Fri Feb 24 2023 09:59:02 GMT-0500 (Eastern Standard Time)","416168","green","red","image-keyboard-response","141","231984","0.0-5.0-1.68","","754","","img/green_ll/choose11.jpg","1","157","green","0.6","0.6","0.6","w","",""
"","","","","lempert4","bdp_lott","Fri Feb 24 2023 09:59:02 GMT-0500 (Eastern Standard Time)","416168","green","red","animation","142","232615","0.0-5.0-2.68","","","","","","157","","","","","","[{""stimulus"":""img/green_wl/1.jpg"",""time"":55},{""stimulus"":""img/green_wl/2.jpg"",""time"":105},{""stimulus"":""img/green_wl/3.jpg"",""time"":156},{""stimulus"":""img/green_wl/4.jpg"",""time"":206},{""stimulus"":""img/green_wl/5.jpg"",""time"":260},{""stimulus"":""img/green_wl/6.jpg"",""time"":313},{""stimulus"":""img/green_wl/7.jpg"",""time"":368},{""stimulus"":""img/green_wl/8.jpg"",""time"":419},{""stimulus"":""img/green_wl/9.jpg"",""time"":473},{""stimulus"":""img/green_wl/10.jpg"",""time"":526},{""stimulus"":""img/green_wl/11.jpg"",""time"":580}]","[]"
"","","","","lempert4","bdp_lott","Fri Feb 24 2023 09:59:02 GMT-0500 (Eastern Standard Time)","416168","green","red","image-keyboard-response","143","233260","0.0-5.0-1.69","","645","","img/green_wl/choose11.jpg","1","156","green","0.6","0.6","0.6","w","",""
"","","","","lempert4","bdp_lott","Fri Feb 24 2023 09:59:02 GMT-0500 (Eastern Standard Time)","416168","green","red","animation","144","233895","0.0-5.0-2.69","","","","","","156","","","","","","[{""stimulus"":""img/green_wl/1.jpg"",""time"":56},{""stimulus"":""img/green_wl/2.jpg"",""time"":109},{""stimulus"":""img/green_wl/3.jpg"",""time"":160},{""stimulus"":""img/green_wl/4.jpg"",""time"":210},{""stimulus"":""img/green_wl/5.jpg"",""time"":264},{""stimulus"":""img/green_wl/6.jpg"",""time"":317},{""stimulus"":""img/green_wl/7.jpg"",""time"":371},{""stimulus"":""img/green_wl/8.jpg"",""time"":424},{""stimulus"":""img/green_wl/9.jpg"",""time"":477},{""stimulus"":""img/green_wl/10.jpg"",""time"":530},{""stimulus"":""img/green_wl/11.jpg"",""time"":584}]","[]"
"","","","","lempert4","bdp_lott","Fri Feb 24 2023 09:59:02 GMT-0500 (Eastern Standard Time)","416168","green","red","image-keyboard-response","145","234550","0.0-5.0-1.70","","655","","img/green_wl/choose11.jpg","1","155","green","0.6","0.6","0.6","w","",""
"","","","","lempert4","bdp_lott","Fri Feb 24 2023 09:59:02 GMT-0500 (Eastern Standard Time)","416168","green","red","animation","146","235169","0.0-5.0-2.70","","","","","","155","","","","","","[{""stimulus"":""img/green_wl/1.jpg"",""time"":51},{""stimulus"":""img/green_wl/2.jpg"",""time"":104},{""stimulus"":""img/green_wl/3.jpg"",""time"":157},{""stimulus"":""img/green_wl/4.jpg"",""time"":208},{""stimulus"":""img/green_wl/5.jpg"",""time"":259},{""stimulus"":""img/green_wl/6.jpg"",""time"":309},{""stimulus"":""img/green_wl/7.jpg"",""time"":361},{""stimulus"":""img/green_wl/8.jpg"",""time"":412},{""stimulus"":""img/green_wl/9.jpg"",""time"":462},{""stimulus"":""img/green_wl/10.jpg"",""time"":517},{""stimulus"":""img/green_wl/11.jpg"",""time"":568}]","[]"
"","","","","lempert4","bdp_lott","Fri Feb 24 2023 09:59:02 GMT-0500 (Eastern Standard Time)","416168","green","red","image-keyboard-response","147","235783","0.0-5.0-1.71","","614","","img/green_wl/choose11.jpg","1","154","green","0.6","0.6","0.6","w","",""
"","","","","lempert4","bdp_lott","Fri Feb 24 2023 09:59:02 GMT-0500 (Eastern Standard Time)","416168","green","red","animation","148","236425","0.0-5.0-2.71","","","","","","154","","","","","","[{""stimulus"":""img/green_wl/1.jpg"",""time"":54},{""stimulus"":""img/green_wl/2.jpg"",""time"":108},{""stimulus"":""img/green_wl/3.jpg"",""time"":161},{""stimulus"":""img/green_wl/4.jpg"",""time"":215},{""stimulus"":""img/green_wl/5.jpg"",""time"":268},{""stimulus"":""img/green_wl/6.jpg"",""time"":321},{""stimulus"":""img/green_wl/7.jpg"",""time"":374},{""stimulus"":""img/green_wl/8.jpg"",""time"":427},{""stimulus"":""img/green_wl/9.jpg"",""time"":482},{""stimulus"":""img/green_wl/10.jpg"",""time"":535},{""stimulus"":""img/green_wl/11.jpg"",""time"":588}]","[]"
"","","","","lempert4","bdp_lott","Fri Feb 24 2023 09:59:02 GMT-0500 (Eastern Standard Time)","416168","green","red","image-keyboard-response","149","237037","0.0-5.0-1.72","","611","","img/green_wl/choose11.jpg","1","153","green","0.6","0.6","0.6","l","",""
"","","","","lempert4","bdp_lott","Fri Feb 24 2023 09:59:02 GMT-0500 (Eastern Standard Time)","416168","green","red","animation","150","237673","0.0-5.0-2.72","","","","","","153","","","","","","[{""stimulus"":""img/green_ll/1.jpg"",""time"":52},{""stimulus"":""img/green_ll/2.jpg"",""time"":103},{""stimulus"":""img/green_ll/3.jpg"",""time"":156},{""stimulus"":""img/green_ll/4.jpg"",""time"":209},{""stimulus"":""img/green_ll/5.jpg"",""time"":263},{""stimulus"":""img/green_ll/6.jpg"",""time"":316},{""stimulus"":""img/green_ll/7.jpg"",""time"":369},{""stimulus"":""img/green_ll/8.jpg"",""time"":422},{""stimulus"":""img/green_ll/9.jpg"",""time"":478},{""stimulus"":""img/green_ll/10.jpg"",""time"":531},{""stimulus"":""img/green_ll/11.jpg"",""time"":583}]","[]"
"","","","","lempert4","bdp_lott","Fri Feb 24 2023 09:59:02 GMT-0500 (Eastern Standard Time)","416168","green","red","image-keyboard-response","151","238306","0.0-5.0-1.73","","632","","img/green_ll/choose11.jpg","1","152","green","0.6","0.6","0.6","l","",""
"","","","","lempert4","bdp_lott","Fri Feb 24 2023 09:59:02 GMT-0500 (Eastern Standard Time)","416168","green","red","animation","152","238942","0.0-5.0-2.73","","","","","","152","","","","","","[{""stimulus"":""img/green_ll/1.jpg"",""time"":51},{""stimulus"":""img/green_ll/2.jpg"",""time"":103},{""stimulus"":""img/green_ll/3.jpg"",""time"":154},{""stimulus"":""img/green_ll/4.jpg"",""time"":209},{""stimulus"":""img/green_ll/5.jpg"",""time"":263},{""stimulus"":""img/green_ll/6.jpg"",""time"":316},{""stimulus"":""img/green_ll/7.jpg"",""time"":370},{""stimulus"":""img/green_ll/8.jpg"",""time"":423},{""stimulus"":""img/green_ll/9.jpg"",""time"":476},{""stimulus"":""img/green_ll/10.jpg"",""time"":530},{""stimulus"":""img/green_ll/11.jpg"",""time"":583}]","[]"
"","","","","lempert4","bdp_lott","Fri Feb 24 2023 09:59:02 GMT-0500 (Eastern Standard Time)","416168","green","red","image-keyboard-response","153","239445","0.0-5.0-1.74","","503","","img/green_ll/choose11.jpg","1","151","green","0.6","0.6","0.6","l","",""
"","","","","lempert4","bdp_lott","Fri Feb 24 2023 09:59:02 GMT-0500 (Eastern Standard Time)","416168","green","red","animation","154","240073","0.0-5.0-2.74","","","","","","151","","","","","","[{""stimulus"":""img/green_ll/1.jpg"",""time"":53},{""stimulus"":""img/green_ll/2.jpg"",""time"":105},{""stimulus"":""img/green_ll/3.jpg"",""time"":159},{""stimulus"":""img/green_ll/4.jpg"",""time"":212},{""stimulus"":""img/green_ll/5.jpg"",""time"":263},{""stimulus"":""img/green_ll/6.jpg"",""time"":314},{""stimulus"":""img/green_ll/7.jpg"",""time"":364},{""stimulus"":""img/green_ll/8.jpg"",""time"":419},{""stimulus"":""img/green_ll/9.jpg"",""time"":471},{""stimulus"":""img/green_ll/10.jpg"",""time"":522},{""stimulus"":""img/green_ll/11.jpg"",""time"":574}]","[]"
"","","","","lempert4","bdp_lott","Fri Feb 24 2023 09:59:02 GMT-0500 (Eastern Standard Time)","416168","green","red","image-keyboard-response","155","240635","0.0-5.0-1.75","","562","","img/green_ll/choose11.jpg","1","150","green","0.6","0.6","0.6","w","",""
"","","","","lempert4","bdp_lott","Fri Feb 24 2023 09:59:02 GMT-0500 (Eastern Standard Time)","416168","green","red","animation","156","241268","0.0-5.0-2.75","","","","","","150","","","","","","[{""stimulus"":""img/green_wl/1.jpg"",""time"":50},{""stimulus"":""img/green_wl/2.jpg"",""time"":101},{""stimulus"":""img/green_wl/3.jpg"",""time"":155},{""stimulus"":""img/green_wl/4.jpg"",""time"":209},{""stimulus"":""img/green_wl/5.jpg"",""time"":261},{""stimulus"":""img/green_wl/6.jpg"",""time"":312},{""stimulus"":""img/green_wl/7.jpg"",""time"":365},{""stimulus"":""img/green_wl/8.jpg"",""time"":419},{""stimulus"":""img/green_wl/9.jpg"",""time"":472},{""stimulus"":""img/green_wl/10.jpg"",""time"":525},{""stimulus"":""img/green_wl/11.jpg"",""time"":579}]","[]"
"","","","","lempert4","bdp_lott","Fri Feb 24 2023 09:59:02 GMT-0500 (Eastern Standard Time)","416168","green","red","image-keyboard-response","157","242494","0.0-5.0-1.76","","1226","","img/green_wl/choose11.jpg","1","149","green","0.6","0.2","0.6","w","",""
"","","","","lempert4","bdp_lott","Fri Feb 24 2023 09:59:02 GMT-0500 (Eastern Standard Time)","416168","green","red","animation","158","243124","0.0-5.0-2.76","","","","","","149","","","","","","[{""stimulus"":""img/green_wl/1.jpg"",""time"":54},{""stimulus"":""img/green_wl/2.jpg"",""time"":107},{""stimulus"":""img/green_wl/3.jpg"",""time"":158},{""stimulus"":""img/green_wl/4.jpg"",""time"":209},{""stimulus"":""img/green_wl/5.jpg"",""time"":260},{""stimulus"":""img/green_wl/6.jpg"",""time"":310},{""stimulus"":""img/green_wl/7.jpg"",""time"":363},{""stimulus"":""img/green_wl/8.jpg"",""time"":418},{""stimulus"":""img/green_wl/9.jpg"",""time"":473},{""stimulus"":""img/green_wl/10.jpg"",""time"":523},{""stimulus"":""img/green_wl/11.jpg"",""time"":577}]","[]"
"","","","","lempert4","bdp_lott","Fri Feb 24 2023 09:59:02 GMT-0500 (Eastern Standard Time)","416168","green","red","image-keyboard-response","159","243638","0.0-5.0-1.77","","513","","img/green_wl/choose11.jpg","1","148","green","0.6","0.2","0.6","l","",""
"","","","","lempert4","bdp_lott","Fri Feb 24 2023 09:59:02 GMT-0500 (Eastern Standard Time)","416168","green","red","animation","160","244277","0.0-5.0-2.77","","","","","","148","","","","","","[{""stimulus"":""img/green_ll/1.jpg"",""time"":51},{""stimulus"":""img/green_ll/2.jpg"",""time"":102},{""stimulus"":""img/green_ll/3.jpg"",""time"":156},{""stimulus"":""img/green_ll/4.jpg"",""time"":211},{""stimulus"":""img/green_ll/5.jpg"",""time"":265},{""stimulus"":""img/green_ll/6.jpg"",""time"":318},{""stimulus"":""img/green_ll/7.jpg"",""time"":371},{""stimulus"":""img/green_ll/8.jpg"",""time"":425},{""stimulus"":""img/green_ll/9.jpg"",""time"":477},{""stimulus"":""img/green_ll/10.jpg"",""time"":531},{""stimulus"":""img/green_ll/11.jpg"",""time"":585}]","[]"
"","","","","lempert4","bdp_lott","Fri Feb 24 2023 09:59:02 GMT-0500 (Eastern Standard Time)","416168","green","red","image-keyboard-response","161","244856","0.0-5.0-1.78","","578","","img/green_ll/choose11.jpg","1","147","green","0.6","0.2","0.6","w","",""
"","","","","lempert4","bdp_lott","Fri Feb 24 2023 09:59:02 GMT-0500 (Eastern Standard Time)","416168","green","red","animation","162","245493","0.0-5.0-2.78","","","","","","147","","","","","","[{""stimulus"":""img/green_wl/1.jpg"",""time"":52},{""stimulus"":""img/green_wl/2.jpg"",""time"":105},{""stimulus"":""img/green_wl/3.jpg"",""time"":159},{""stimulus"":""img/green_wl/4.jpg"",""time"":211},{""stimulus"":""img/green_wl/5.jpg"",""time"":265},{""stimulus"":""img/green_wl/6.jpg"",""time"":318},{""stimulus"":""img/green_wl/7.jpg"",""time"":372},{""stimulus"":""img/green_wl/8.jpg"",""time"":423},{""stimulus"":""img/green_wl/9.jpg"",""time"":476},{""stimulus"":""img/green_wl/10.jpg"",""time"":531},{""stimulus"":""img/green_wl/11.jpg"",""time"":583}]","[]"
"","","","","lempert4","bdp_lott","Fri Feb 24 2023 09:59:02 GMT-0500 (Eastern Standard Time)","416168","green","red","image-keyboard-response","163","246013","0.0-5.0-1.79","","519","","img/green_wl/choose11.jpg","1","146","green","0.6","0.2","0.6","w","",""
"","","","","lempert4","bdp_lott","Fri Feb 24 2023 09:59:02 GMT-0500 (Eastern Standard Time)","416168","green","red","animation","164","246649","0.0-5.0-2.79","","","","","","146","","","","","","[{""stimulus"":""img/green_wl/1.jpg"",""time"":54},{""stimulus"":""img/green_wl/2.jpg"",""time"":107},{""stimulus"":""img/green_wl/3.jpg"",""time"":163},{""stimulus"":""img/green_wl/4.jpg"",""time"":214},{""stimulus"":""img/green_wl/5.jpg"",""time"":267},{""stimulus"":""img/green_wl/6.jpg"",""time"":320},{""stimulus"":""img/green_wl/7.jpg"",""time"":374},{""stimulus"":""img/green_wl/8.jpg"",""time"":425},{""stimulus"":""img/green_wl/9.jpg"",""time"":477},{""stimulus"":""img/green_wl/10.jpg"",""time"":529},{""stimulus"":""img/green_wl/11.jpg"",""time"":582}]","[]"
"","","","","lempert4","bdp_lott","Fri Feb 24 2023 09:59:02 GMT-0500 (Eastern Standard Time)","416168","green","red","image-keyboard-response","165","247275","0.0-5.0-1.80","","626","","img/green_wl/choose11.jpg","1","145","green","0.6","0.2","0.6","w","",""
"","","","","lempert4","bdp_lott","Fri Feb 24 2023 09:59:02 GMT-0500 (Eastern Standard Time)","416168","green","red","animation","166","247913","0.0-5.0-2.80","","","","","","145","","","","","","[{""stimulus"":""img/green_wl/1.jpg"",""time"":55},{""stimulus"":""img/green_wl/2.jpg"",""time"":107},{""stimulus"":""img/green_wl/3.jpg"",""time"":159},{""stimulus"":""img/green_wl/4.jpg"",""time"":212},{""stimulus"":""img/green_wl/5.jpg"",""time"":262},{""stimulus"":""img/green_wl/6.jpg"",""time"":317},{""stimulus"":""img/green_wl/7.jpg"",""time"":372},{""stimulus"":""img/green_wl/8.jpg"",""time"":425},{""stimulus"":""img/green_wl/9.jpg"",""time"":478},{""stimulus"":""img/green_wl/10.jpg"",""time"":531},{""stimulus"":""img/green_wl/11.jpg"",""time"":584}]","[]"
"","","","","lempert4","bdp_lott","Fri Feb 24 2023 09:59:02 GMT-0500 (Eastern Standard Time)","416168","green","red","image-keyboard-response","167","248422","0.0-5.0-1.81","","509","","img/green_wl/choose11.jpg","1","144","green","0.6","0.2","0.6","w","",""
"","","","","lempert4","bdp_lott","Fri Feb 24 2023 09:59:02 GMT-0500 (Eastern Standard Time)","416168","green","red","animation","168","249055","0.0-5.0-2.81","","","","","","144","","","","","","[{""stimulus"":""img/green_wl/1.jpg"",""time"":54},{""stimulus"":""img/green_wl/2.jpg"",""time"":108},{""stimulus"":""img/green_wl/3.jpg"",""time"":158},{""stimulus"":""img/green_wl/4.jpg"",""time"":209},{""stimulus"":""img/green_wl/5.jpg"",""time"":262},{""stimulus"":""img/green_wl/6.jpg"",""time"":312},{""stimulus"":""img/green_wl/7.jpg"",""time"":366},{""stimulus"":""img/green_wl/8.jpg"",""time"":420},{""stimulus"":""img/green_wl/9.jpg"",""time"":472},{""stimulus"":""img/green_wl/10.jpg"",""time"":526},{""stimulus"":""img/green_wl/11.jpg"",""time"":579}]","[]"
"","","","","lempert4","bdp_lott","Fri Feb 24 2023 09:59:02 GMT-0500 (Eastern Standard Time)","416168","green","red","image-keyboard-response","169","249527","0.0-5.0-1.82","","472","","img/green_wl/choose11.jpg","1","143","green","0.6","0.2","0.6","l","",""
"","","","","lempert4","bdp_lott","Fri Feb 24 2023 09:59:02 GMT-0500 (Eastern Standard Time)","416168","green","red","animation","170","250164","0.0-5.0-2.82","","","","","","143","","","","","","[{""stimulus"":""img/green_ll/1.jpg"",""time"":53},{""stimulus"":""img/green_ll/2.jpg"",""time"":104},{""stimulus"":""img/green_ll/3.jpg"",""time"":157},{""stimulus"":""img/green_ll/4.jpg"",""time"":210},{""stimulus"":""img/green_ll/5.jpg"",""time"":263},{""stimulus"":""img/green_ll/6.jpg"",""time"":316},{""stimulus"":""img/green_ll/7.jpg"",""time"":371},{""stimulus"":""img/green_ll/8.jpg"",""time"":424},{""stimulus"":""img/green_ll/9.jpg"",""time"":477},{""stimulus"":""img/green_ll/10.jpg"",""time"":530},{""stimulus"":""img/green_ll/11.jpg"",""time"":584}]","[]"
"","","","","lempert4","bdp_lott","Fri Feb 24 2023 09:59:02 GMT-0500 (Eastern Standard Time)","416168","green","red","image-keyboard-response","171","251055","0.0-5.0-1.83","","891","","img/green_ll/choose11.jpg","1","142","green","0.6","0.2","0.6","l","",""
"","","","","lempert4","bdp_lott","Fri Feb 24 2023 09:59:02 GMT-0500 (Eastern Standard Time)","416168","green","red","animation","172","251680","0.0-5.0-2.83","","","","","","142","","","","","","[{""stimulus"":""img/green_ll/1.jpg"",""time"":53},{""stimulus"":""img/green_ll/2.jpg"",""time"":104},{""stimulus"":""img/green_ll/3.jpg"",""time"":154},{""stimulus"":""img/green_ll/4.jpg"",""time"":207},{""stimulus"":""img/green_ll/5.jpg"",""time"":261},{""stimulus"":""img/green_ll/6.jpg"",""time"":312},{""stimulus"":""img/green_ll/7.jpg"",""time"":362},{""stimulus"":""img/green_ll/8.jpg"",""time"":413},{""stimulus"":""img/green_ll/9.jpg"",""time"":468},{""stimulus"":""img/green_ll/10.jpg"",""time"":520},{""stimulus"":""img/green_ll/11.jpg"",""time"":574}]","[]"
"","","","","lempert4","bdp_lott","Fri Feb 24 2023 09:59:02 GMT-0500 (Eastern Standard Time)","416168","green","red","image-keyboard-response","173","252172","0.0-5.0-1.84","","492","","img/green_ll/choose11.jpg","1","141","green","0.6","0.2","0.6","l","",""
"","","","","lempert4","bdp_lott","Fri Feb 24 2023 09:59:02 GMT-0500 (Eastern Standard Time)","416168","green","red","animation","174","252805","0.0-5.0-2.84","","","","","","141","","","","","","[{""stimulus"":""img/green_ll/1.jpg"",""time"":54},{""stimulus"":""img/green_ll/2.jpg"",""time"":107},{""stimulus"":""img/green_ll/3.jpg"",""time"":157},{""stimulus"":""img/green_ll/4.jpg"",""time"":211},{""stimulus"":""img/green_ll/5.jpg"",""time"":264},{""stimulus"":""img/green_ll/6.jpg"",""time"":318},{""stimulus"":""img/green_ll/7.jpg"",""time"":371},{""stimulus"":""img/green_ll/8.jpg"",""time"":423},{""stimulus"":""img/green_ll/9.jpg"",""time"":477},{""stimulus"":""img/green_ll/10.jpg"",""time"":527},{""stimulus"":""img/green_ll/11.jpg"",""time"":579}]","[]"
"","","","","lempert4","bdp_lott","Fri Feb 24 2023 09:59:02 GMT-0500 (Eastern Standard Time)","416168","green","red","image-keyboard-response","175","253269","0.0-5.0-1.85","","464","","img/green_ll/choose11.jpg","1","140","green","0.6","0.2","0.6","w","",""
"","","","","lempert4","bdp_lott","Fri Feb 24 2023 09:59:02 GMT-0500 (Eastern Standard Time)","416168","green","red","animation","176","253900","0.0-5.0-2.85","","","","","","140","","","","","","[{""stimulus"":""img/green_wl/1.jpg"",""time"":52},{""stimulus"":""img/green_wl/2.jpg"",""time"":106},{""stimulus"":""img/green_wl/3.jpg"",""time"":160},{""stimulus"":""img/green_wl/4.jpg"",""time"":212},{""stimulus"":""img/green_wl/5.jpg"",""time"":266},{""stimulus"":""img/green_wl/6.jpg"",""time"":319},{""stimulus"":""img/green_wl/7.jpg"",""time"":373},{""stimulus"":""img/green_wl/8.jpg"",""time"":426},{""stimulus"":""img/green_wl/9.jpg"",""time"":476},{""stimulus"":""img/green_wl/10.jpg"",""time"":527},{""stimulus"":""img/green_wl/11.jpg"",""time"":580}]","[]"
"","","","","lempert4","bdp_lott","Fri Feb 24 2023 09:59:02 GMT-0500 (Eastern Standard Time)","416168","green","red","image-keyboard-response","177","254466","0.0-5.0-1.86","","566","","img/green_wl/choose11.jpg","1","139","green","0.6","0.2","0.6","w","",""
"","","","","lempert4","bdp_lott","Fri Feb 24 2023 09:59:02 GMT-0500 (Eastern Standard Time)","416168","green","red","animation","178","255103","0.0-5.0-2.86","","","","","","139","","","","","","[{""stimulus"":""img/green_wl/1.jpg"",""time"":52},{""stimulus"":""img/green_wl/2.jpg"",""time"":105},{""stimulus"":""img/green_wl/3.jpg"",""time"":155},{""stimulus"":""img/green_wl/4.jpg"",""time"":209},{""stimulus"":""img/green_wl/5.jpg"",""time"":262},{""stimulus"":""img/green_wl/6.jpg"",""time"":317},{""stimulus"":""img/green_wl/7.jpg"",""time"":372},{""stimulus"":""img/green_wl/8.jpg"",""time"":422},{""stimulus"":""img/green_wl/9.jpg"",""time"":476},{""stimulus"":""img/green_wl/10.jpg"",""time"":529},{""stimulus"":""img/green_wl/11.jpg"",""time"":582}]","[]"
"","","","","lempert4","bdp_lott","Fri Feb 24 2023 09:59:02 GMT-0500 (Eastern Standard Time)","416168","green","red","image-keyboard-response","179","255604","0.0-5.0-1.87","","501","","img/green_wl/choose11.jpg","1","138","green","0.6","0.2","0.6","w","",""
"","","","","lempert4","bdp_lott","Fri Feb 24 2023 09:59:02 GMT-0500 (Eastern Standard Time)","416168","green","red","animation","180","256241","0.0-5.0-2.87","","","","","","138","","","","","","[{""stimulus"":""img/green_wl/1.jpg"",""time"":53},{""stimulus"":""img/green_wl/2.jpg"",""time"":107},{""stimulus"":""img/green_wl/3.jpg"",""time"":159},{""stimulus"":""img/green_wl/4.jpg"",""time"":214},{""stimulus"":""img/green_wl/5.jpg"",""time"":266},{""stimulus"":""img/green_wl/6.jpg"",""time"":320},{""stimulus"":""img/green_wl/7.jpg"",""time"":374},{""stimulus"":""img/green_wl/8.jpg"",""time"":423},{""stimulus"":""img/green_wl/9.jpg"",""time"":478},{""stimulus"":""img/green_wl/10.jpg"",""time"":528},{""stimulus"":""img/green_wl/11.jpg"",""time"":583}]","[]"
"","","","","lempert4","bdp_lott","Fri Feb 24 2023 09:59:02 GMT-0500 (Eastern Standard Time)","416168","green","red","image-keyboard-response","181","256767","0.0-5.0-1.88","","525","","img/green_wl/choose11.jpg","1","137","green","0.6","0.2","0.6","w","",""
"","","","","lempert4","bdp_lott","Fri Feb 24 2023 09:59:02 GMT-0500 (Eastern Standard Time)","416168","green","red","animation","182","257404","0.0-5.0-2.88","","","","","","137","","","","","","[{""stimulus"":""img/green_wl/1.jpg"",""time"":56},{""stimulus"":""img/green_wl/2.jpg"",""time"":107},{""stimulus"":""img/green_wl/3.jpg"",""time"":160},{""stimulus"":""img/green_wl/4.jpg"",""time"":213},{""stimulus"":""img/green_wl/5.jpg"",""time"":266},{""stimulus"":""img/green_wl/6.jpg"",""time"":321},{""stimulus"":""img/green_wl/7.jpg"",""time"":372},{""stimulus"":""img/green_wl/8.jpg"",""time"":424},{""stimulus"":""img/green_wl/9.jpg"",""time"":477},{""stimulus"":""img/green_wl/10.jpg"",""time"":530},{""stimulus"":""img/green_wl/11.jpg"",""time"":584}]","[]"
"","","","","lempert4","bdp_lott","Fri Feb 24 2023 09:59:02 GMT-0500 (Eastern Standard Time)","416168","green","red","image-keyboard-response","183","257885","0.0-5.0-1.89","","481","","img/green_wl/choose11.jpg","1","136","green","0.6","0.2","0.6","l","",""
"","","","","lempert4","bdp_lott","Fri Feb 24 2023 09:59:02 GMT-0500 (Eastern Standard Time)","416168","green","red","animation","184","258513","0.0-5.0-2.89","","","","","","136","","","","","","[{""stimulus"":""img/green_ll/1.jpg"",""time"":53},{""stimulus"":""img/green_ll/2.jpg"",""time"":105},{""stimulus"":""img/green_ll/3.jpg"",""time"":159},{""stimulus"":""img/green_ll/4.jpg"",""time"":212},{""stimulus"":""img/green_ll/5.jpg"",""time"":266},{""stimulus"":""img/green_ll/6.jpg"",""time"":319},{""stimulus"":""img/green_ll/7.jpg"",""time"":373},{""stimulus"":""img/green_ll/8.jpg"",""time"":425},{""stimulus"":""img/green_ll/9.jpg"",""time"":476},{""stimulus"":""img/green_ll/10.jpg"",""time"":527},{""stimulus"":""img/green_ll/11.jpg"",""time"":577}]","[]"
"","","","","lempert4","bdp_lott","Fri Feb 24 2023 09:59:02 GMT-0500 (Eastern Standard Time)","416168","green","red","image-keyboard-response","185","259242","0.0-5.0-1.90","","729","","img/green_ll/choose11.jpg","1","135","green","0.6","0.2","0.6","w","",""
"","","","","lempert4","bdp_lott","Fri Feb 24 2023 09:59:02 GMT-0500 (Eastern Standard Time)","416168","green","red","animation","186","259862","0.0-5.0-2.90","","","","","","135","","","","","","[{""stimulus"":""img/green_wl/1.jpg"",""time"":54},{""stimulus"":""img/green_wl/2.jpg"",""time"":107},{""stimulus"":""img/green_wl/3.jpg"",""time"":158},{""stimulus"":""img/green_wl/4.jpg"",""time"":209},{""stimulus"":""img/green_wl/5.jpg"",""time"":260},{""stimulus"":""img/green_wl/6.jpg"",""time"":310},{""stimulus"":""img/green_wl/7.jpg"",""time"":360},{""stimulus"":""img/green_wl/8.jpg"",""time"":411},{""stimulus"":""img/green_wl/9.jpg"",""time"":465},{""stimulus"":""img/green_wl/10.jpg"",""time"":518},{""stimulus"":""img/green_wl/11.jpg"",""time"":569}]","[]"
"","","","","lempert4","bdp_lott","Fri Feb 24 2023 09:59:02 GMT-0500 (Eastern Standard Time)","416168","green","red","image-keyboard-response","187","260484","0.0-5.0-1.91","","622","","img/green_wl/choose11.jpg","1","134","green","0.6","0.2","0.6","w","",""
"","","","","lempert4","bdp_lott","Fri Feb 24 2023 09:59:02 GMT-0500 (Eastern Standard Time)","416168","green","red","animation","188","261105","0.0-5.0-2.91","","","","","","134","","","","","","[{""stimulus"":""img/green_wl/1.jpg"",""time"":53},{""stimulus"":""img/green_wl/2.jpg"",""time"":106},{""stimulus"":""img/green_wl/3.jpg"",""time"":157},{""stimulus"":""img/green_wl/4.jpg"",""time"":208},{""stimulus"":""img/green_wl/5.jpg"",""time"":258},{""stimulus"":""img/green_wl/6.jpg"",""time"":309},{""stimulus"":""img/green_wl/7.jpg"",""time"":360},{""stimulus"":""img/green_wl/8.jpg"",""time"":410},{""stimulus"":""img/green_wl/9.jpg"",""time"":461},{""stimulus"":""img/green_wl/10.jpg"",""time"":515},{""stimulus"":""img/green_wl/11.jpg"",""time"":568}]","[]"
"","","","","lempert4","bdp_lott","Fri Feb 24 2023 09:59:02 GMT-0500 (Eastern Standard Time)","416168","green","red","image-keyboard-response","189","261562","0.0-5.0-1.92","","456","","img/green_wl/choose11.jpg","1","133","green","0.6","0.2","0.6","w","",""
"","","","","lempert4","bdp_lott","Fri Feb 24 2023 09:59:02 GMT-0500 (Eastern Standard Time)","416168","green","red","animation","190","262193","0.0-5.0-2.92","","","","","","133","","","","","","[{""stimulus"":""img/green_wl/1.jpg"",""time"":51},{""stimulus"":""img/green_wl/2.jpg"",""time"":102},{""stimulus"":""img/green_wl/3.jpg"",""time"":156},{""stimulus"":""img/green_wl/4.jpg"",""time"":208},{""stimulus"":""img/green_wl/5.jpg"",""time"":264},{""stimulus"":""img/green_wl/6.jpg"",""time"":316},{""stimulus"":""img/green_wl/7.jpg"",""time"":369},{""stimulus"":""img/green_wl/8.jpg"",""time"":420},{""stimulus"":""img/green_wl/9.jpg"",""time"":474},{""stimulus"":""img/green_wl/10.jpg"",""time"":526},{""stimulus"":""img/green_wl/11.jpg"",""time"":577}]","[]"
"","","","","lempert4","bdp_lott","Fri Feb 24 2023 09:59:02 GMT-0500 (Eastern Standard Time)","416168","green","red","image-keyboard-response","191","262653","0.0-5.0-1.93","","460","","img/green_wl/choose11.jpg","1","132","green","0.6","0.2","0.6","l","",""
"","","","","lempert4","bdp_lott","Fri Feb 24 2023 09:59:02 GMT-0500 (Eastern Standard Time)","416168","green","red","animation","192","263292","0.0-5.0-2.93","","","","","","132","","","","","","[{""stimulus"":""img/green_ll/1.jpg"",""time"":55},{""stimulus"":""img/green_ll/2.jpg"",""time"":106},{""stimulus"":""img/green_ll/3.jpg"",""time"":158},{""stimulus"":""img/green_ll/4.jpg"",""time"":212},{""stimulus"":""img/green_ll/5.jpg"",""time"":265},{""stimulus"":""img/green_ll/6.jpg"",""time"":319},{""stimulus"":""img/green_ll/7.jpg"",""time"":372},{""stimulus"":""img/green_ll/8.jpg"",""time"":425},{""stimulus"":""img/green_ll/9.jpg"",""time"":478},{""stimulus"":""img/green_ll/10.jpg"",""time"":532},{""stimulus"":""img/green_ll/11.jpg"",""time"":585}]","[]"
"","","","","lempert4","bdp_lott","Fri Feb 24 2023 09:59:02 GMT-0500 (Eastern Standard Time)","416168","green","red","image-keyboard-response","193","263848","0.0-5.0-1.94","","556","","img/green_ll/choose11.jpg","1","131","green","0.6","0.2","0.6","w","",""
"","","","","lempert4","bdp_lott","Fri Feb 24 2023 09:59:02 GMT-0500 (Eastern Standard Time)","416168","green","red","animation","194","264476","0.0-5.0-2.94","","","","","","131","","","","","","[{""stimulus"":""img/green_wl/1.jpg"",""time"":51},{""stimulus"":""img/green_wl/2.jpg"",""time"":104},{""stimulus"":""img/green_wl/3.jpg"",""time"":157},{""stimulus"":""img/green_wl/4.jpg"",""time"":209},{""stimulus"":""img/green_wl/5.jpg"",""time"":259},{""stimulus"":""img/green_wl/6.jpg"",""time"":310},{""stimulus"":""img/green_wl/7.jpg"",""time"":360},{""stimulus"":""img/green_wl/8.jpg"",""time"":415},{""stimulus"":""img/green_wl/9.jpg"",""time"":466},{""stimulus"":""img/green_wl/10.jpg"",""time"":520},{""stimulus"":""img/green_wl/11.jpg"",""time"":574}]","[]"
"","","","","lempert4","bdp_lott","Fri Feb 24 2023 09:59:02 GMT-0500 (Eastern Standard Time)","416168","green","red","image-keyboard-response","195","264975","0.0-5.0-1.95","","498","","img/green_wl/choose11.jpg","1","130","green","0.6","0.2","0.6","l","",""
"","","","","lempert4","bdp_lott","Fri Feb 24 2023 09:59:02 GMT-0500 (Eastern Standard Time)","416168","green","red","animation","196","265601","0.0-5.0-2.95","","","","","","130","","","","","","[{""stimulus"":""img/green_ll/1.jpg"",""time"":53},{""stimulus"":""img/green_ll/2.jpg"",""time"":106},{""stimulus"":""img/green_ll/3.jpg"",""time"":157},{""stimulus"":""img/green_ll/4.jpg"",""time"":208},{""stimulus"":""img/green_ll/5.jpg"",""time"":258},{""stimulus"":""img/green_ll/6.jpg"",""time"":311},{""stimulus"":""img/green_ll/7.jpg"",""time"":365},{""stimulus"":""img/green_ll/8.jpg"",""time"":415},{""stimulus"":""img/green_ll/9.jpg"",""time"":466},{""stimulus"":""img/green_ll/10.jpg"",""time"":517},{""stimulus"":""img/green_ll/11.jpg"",""time"":572}]","[]"
"","","","","lempert4","bdp_lott","Fri Feb 24 2023 09:59:02 GMT-0500 (Eastern Standard Time)","416168","green","red","image-keyboard-response","197","266137","0.0-5.0-1.96","","536","","img/green_ll/choose11.jpg","1","129","green","0.6","0.2","0.6","w","",""
