"trial_type","trial_index","time_elapsed","internal_node_id","subject_id","task","startTime","totalTime","fairMachine","unfairMachine","view_history","rt","event","trial","time","trialtype","success","stimulus","key_press","roundsLeft","chosen","pFairMachWin","pUnfairMachWin","pTrialWin","outcome","animation_sequence","responses"
"pavlovia","0","2","0.0-0.0","5df1133b99b28201e0a1181c","bdp_lott","Sat Mar 25 2023 23:39:11 GMT-0400 (Eastern Daylight Time)","312214","red","green","","","","","","","","","","","","","","","","",""
"instructions","1","1721","0.0-1.0","5df1133b99b28201e0a1181c","bdp_lott","Sat Mar 25 2023 23:39:11 GMT-0400 (Eastern Daylight Time)","312214","red","green","[{""page_index"":0,""viewing_time"":1719}]","1719","","","","","","","","","","","","","","",""
"","","","","5df1133b99b28201e0a1181c","bdp_lott","Sat Mar 25 2023 23:39:11 GMT-0400 (Eastern Daylight Time)","312214","red","green","","","fullscreenenter","2","4445","fullscreenenter","","","","","","","","","","",""
"fullscreen","2","5442","0.0-2.0","5df1133b99b28201e0a1181c","bdp_lott","Sat Mar 25 2023 23:39:11 GMT-0400 (Eastern Daylight Time)","312214","red","green","","","","","","","true","","","","","","","","","",""
"instructions","3","28061","0.0-4.0","5df1133b99b28201e0a1181c","bdp_lott","Sat Mar 25 2023 23:39:11 GMT-0400 (Eastern Daylight Time)","312214","red","green","[{""page_index"":0,""viewing_time"":22619}]","22619","","","","","","","","","","","","","","",""
"image-keyboard-response","4","34596","0.0-5.0-1.0","5df1133b99b28201e0a1181c","bdp_lott","Sat Mar 25 2023 23:39:11 GMT-0400 (Eastern Daylight Time)","312214","red","green","","6534","","","","choice","","img/red_ll/initchoose11.jpg","2","225","red","0.5","0.5","0.5","w","",""
"animation","5","35197","0.0-5.0-2.0","5df1133b99b28201e0a1181c","bdp_lott","Sat Mar 25 2023 23:39:11 GMT-0400 (Eastern Daylight Time)","312214","red","green","","","","","","","","","","225","","","","","","[{""stimulus"":""img/red_lw/1.jpg"",""time"":51},{""stimulus"":""img/red_lw/2.jpg"",""time"":102},{""stimulus"":""img/red_lw/3.jpg"",""time"":153},{""stimulus"":""img/red_lw/4.jpg"",""time"":202},{""stimulus"":""img/red_lw/5.jpg"",""time"":251},{""stimulus"":""img/red_lw/6.jpg"",""time"":302},{""stimulus"":""img/red_lw/7.jpg"",""time"":351},{""stimulus"":""img/red_lw/8.jpg"",""time"":401},{""stimulus"":""img/red_lw/9.jpg"",""time"":451},{""stimulus"":""img/red_lw/10.jpg"",""time"":501},{""stimulus"":""img/red_lw/11.jpg"",""time"":551}]","[]"
"image-keyboard-response","6","39727","0.0-5.0-1.1","5df1133b99b28201e0a1181c","bdp_lott","Sat Mar 25 2023 23:39:11 GMT-0400 (Eastern Daylight Time)","312214","red","green","","4530","","","","choice","","img/red_lw/choose11.jpg","1","224","green","0.5","0.5","0.5","w","",""
"animation","7","40327","0.0-5.0-2.1","5df1133b99b28201e0a1181c","bdp_lott","Sat Mar 25 2023 23:39:11 GMT-0400 (Eastern Daylight Time)","312214","red","green","","","","","","","","","","224","","","","","","[{""stimulus"":""img/green_ww/1.jpg"",""time"":52},{""stimulus"":""img/green_ww/2.jpg"",""time"":101},{""stimulus"":""img/green_ww/3.jpg"",""time"":152},{""stimulus"":""img/green_ww/4.jpg"",""time"":201},{""stimulus"":""img/green_ww/5.jpg"",""time"":251},{""stimulus"":""img/green_ww/6.jpg"",""time"":301},{""stimulus"":""img/green_ww/7.jpg"",""time"":351},{""stimulus"":""img/green_ww/8.jpg"",""time"":401},{""stimulus"":""img/green_ww/9.jpg"",""time"":451},{""stimulus"":""img/green_ww/10.jpg"",""time"":501},{""stimulus"":""img/green_ww/11.jpg"",""time"":552}]","[]"
"image-keyboard-response","8","42347","0.0-5.0-1.2","5df1133b99b28201e0a1181c","bdp_lott","Sat Mar 25 2023 23:39:11 GMT-0400 (Eastern Daylight Time)","312214","red","green","","2019","","","","choice","","img/green_ww/choose11.jpg","2","223","red","0.5","0.5","0.5","l","",""
"animation","9","42948","0.0-5.0-2.2","5df1133b99b28201e0a1181c","bdp_lott","Sat Mar 25 2023 23:39:11 GMT-0400 (Eastern Daylight Time)","312214","red","green","","","","","","","","","","223","","","","","","[{""stimulus"":""img/red_wl/1.jpg"",""time"":51},{""stimulus"":""img/red_wl/2.jpg"",""time"":101},{""stimulus"":""img/red_wl/3.jpg"",""time"":150},{""stimulus"":""img/red_wl/4.jpg"",""time"":200},{""stimulus"":""img/red_wl/5.jpg"",""time"":250},{""stimulus"":""img/red_wl/6.jpg"",""time"":301},{""stimulus"":""img/red_wl/7.jpg"",""time"":350},{""stimulus"":""img/red_wl/8.jpg"",""time"":401},{""stimulus"":""img/red_wl/9.jpg"",""time"":451},{""stimulus"":""img/red_wl/10.jpg"",""time"":500},{""stimulus"":""img/red_wl/11.jpg"",""time"":550}]","[]"
"image-keyboard-response","10","45022","0.0-5.0-1.3","5df1133b99b28201e0a1181c","bdp_lott","Sat Mar 25 2023 23:39:11 GMT-0400 (Eastern Daylight Time)","312214","red","green","","2074","","","","choice","","img/red_wl/choose11.jpg","2","222","red","0.5","0.5","0.5","l","",""
"animation","11","45623","0.0-5.0-2.3","5df1133b99b28201e0a1181c","bdp_lott","Sat Mar 25 2023 23:39:11 GMT-0400 (Eastern Daylight Time)","312214","red","green","","","","","","","","","","222","","","","","","[{""stimulus"":""img/red_wl/1.jpg"",""time"":52},{""stimulus"":""img/red_wl/2.jpg"",""time"":101},{""stimulus"":""img/red_wl/3.jpg"",""time"":151},{""stimulus"":""img/red_wl/4.jpg"",""time"":201},{""stimulus"":""img/red_wl/5.jpg"",""time"":251},{""stimulus"":""img/red_wl/6.jpg"",""time"":301},{""stimulus"":""img/red_wl/7.jpg"",""time"":351},{""stimulus"":""img/red_wl/8.jpg"",""time"":401},{""stimulus"":""img/red_wl/9.jpg"",""time"":451},{""stimulus"":""img/red_wl/10.jpg"",""time"":501},{""stimulus"":""img/red_wl/11.jpg"",""time"":551}]","[]"
"image-keyboard-response","12","46463","0.0-5.0-1.4","5df1133b99b28201e0a1181c","bdp_lott","Sat Mar 25 2023 23:39:11 GMT-0400 (Eastern Daylight Time)","312214","red","green","","840","","","","choice","","img/red_wl/choose11.jpg","1","221","green","0.5","0.5","0.5","w","",""
"animation","13","47064","0.0-5.0-2.4","5df1133b99b28201e0a1181c","bdp_lott","Sat Mar 25 2023 23:39:11 GMT-0400 (Eastern Daylight Time)","312214","red","green","","","","","","","","","","221","","","","","","[{""stimulus"":""img/green_wl/1.jpg"",""time"":51},{""stimulus"":""img/green_wl/2.jpg"",""time"":101},{""stimulus"":""img/green_wl/3.jpg"",""time"":152},{""stimulus"":""img/green_wl/4.jpg"",""time"":201},{""stimulus"":""img/green_wl/5.jpg"",""time"":252},{""stimulus"":""img/green_wl/6.jpg"",""time"":301},{""stimulus"":""img/green_wl/7.jpg"",""time"":351},{""stimulus"":""img/green_wl/8.jpg"",""time"":402},{""stimulus"":""img/green_wl/9.jpg"",""time"":451},{""stimulus"":""img/green_wl/10.jpg"",""time"":502},{""stimulus"":""img/green_wl/11.jpg"",""time"":551}]","[]"
"image-keyboard-response","14","49067","0.0-5.0-1.5","5df1133b99b28201e0a1181c","bdp_lott","Sat Mar 25 2023 23:39:11 GMT-0400 (Eastern Daylight Time)","312214","red","green","","2002","","","","choice","","img/green_wl/choose11.jpg","2","220","red","0.5","0.5","0.5","l","",""
"animation","15","49668","0.0-5.0-2.5","5df1133b99b28201e0a1181c","bdp_lott","Sat Mar 25 2023 23:39:11 GMT-0400 (Eastern Daylight Time)","312214","red","green","","","","","","","","","","220","","","","","","[{""stimulus"":""img/red_wl/1.jpg"",""time"":51},{""stimulus"":""img/red_wl/2.jpg"",""time"":100},{""stimulus"":""img/red_wl/3.jpg"",""time"":151},{""stimulus"":""img/red_wl/4.jpg"",""time"":201},{""stimulus"":""img/red_wl/5.jpg"",""time"":254},{""stimulus"":""img/red_wl/6.jpg"",""time"":302},{""stimulus"":""img/red_wl/7.jpg"",""time"":351},{""stimulus"":""img/red_wl/8.jpg"",""time"":401},{""stimulus"":""img/red_wl/9.jpg"",""time"":452},{""stimulus"":""img/red_wl/10.jpg"",""time"":501},{""stimulus"":""img/red_wl/11.jpg"",""time"":551}]","[]"
"image-keyboard-response","16","50277","0.0-5.0-1.6","5df1133b99b28201e0a1181c","bdp_lott","Sat Mar 25 2023 23:39:11 GMT-0400 (Eastern Daylight Time)","312214","red","green","","608","","","","choice","","img/red_wl/choose11.jpg","1","219","green","0.5","0.5","0.5","l","",""
"animation","17","50878","0.0-5.0-2.6","5df1133b99b28201e0a1181c","bdp_lott","Sat Mar 25 2023 23:39:11 GMT-0400 (Eastern Daylight Time)","312214","red","green","","","","","","","","","","219","","","","","","[{""stimulus"":""img/green_ll/1.jpg"",""time"":51},{""stimulus"":""img/green_ll/2.jpg"",""time"":101},{""stimulus"":""img/green_ll/3.jpg"",""time"":150},{""stimulus"":""img/green_ll/4.jpg"",""time"":201},{""stimulus"":""img/green_ll/5.jpg"",""time"":251},{""stimulus"":""img/green_ll/6.jpg"",""time"":301},{""stimulus"":""img/green_ll/7.jpg"",""time"":351},{""stimulus"":""img/green_ll/8.jpg"",""time"":402},{""stimulus"":""img/green_ll/9.jpg"",""time"":450},{""stimulus"":""img/green_ll/10.jpg"",""time"":501},{""stimulus"":""img/green_ll/11.jpg"",""time"":551}]","[]"
"image-keyboard-response","18","51835","0.0-5.0-1.7","5df1133b99b28201e0a1181c","bdp_lott","Sat Mar 25 2023 23:39:11 GMT-0400 (Eastern Daylight Time)","312214","red","green","","957","","","","choice","","img/green_ll/choose11.jpg","1","218","green","0.5","0.5","0.5","l","",""
"animation","19","52435","0.0-5.0-2.7","5df1133b99b28201e0a1181c","bdp_lott","Sat Mar 25 2023 23:39:11 GMT-0400 (Eastern Daylight Time)","312214","red","green","","","","","","","","","","218","","","","","","[{""stimulus"":""img/green_ll/1.jpg"",""time"":51},{""stimulus"":""img/green_ll/2.jpg"",""time"":102},{""stimulus"":""img/green_ll/3.jpg"",""time"":151},{""stimulus"":""img/green_ll/4.jpg"",""time"":200},{""stimulus"":""img/green_ll/5.jpg"",""time"":251},{""stimulus"":""img/green_ll/6.jpg"",""time"":301},{""stimulus"":""img/green_ll/7.jpg"",""time"":351},{""stimulus"":""img/green_ll/8.jpg"",""time"":401},{""stimulus"":""img/green_ll/9.jpg"",""time"":451},{""stimulus"":""img/green_ll/10.jpg"",""time"":501},{""stimulus"":""img/green_ll/11.jpg"",""time"":551}]","[]"
"image-keyboard-response","20","53047","0.0-5.0-1.8","5df1133b99b28201e0a1181c","bdp_lott","Sat Mar 25 2023 23:39:11 GMT-0400 (Eastern Daylight Time)","312214","red","green","","611","","","","choice","","img/green_ll/choose11.jpg","2","217","red","0.5","0.5","0.5","l","",""
"animation","21","53648","0.0-5.0-2.8","5df1133b99b28201e0a1181c","bdp_lott","Sat Mar 25 2023 23:39:11 GMT-0400 (Eastern Daylight Time)","312214","red","green","","","","","","","","","","217","","","","","","[{""stimulus"":""img/red_ll/1.jpg"",""time"":52},{""stimulus"":""img/red_ll/2.jpg"",""time"":101},{""stimulus"":""img/red_ll/3.jpg"",""time"":151},{""stimulus"":""img/red_ll/4.jpg"",""time"":201},{""stimulus"":""img/red_ll/5.jpg"",""time"":250},{""stimulus"":""img/red_ll/6.jpg"",""time"":301},{""stimulus"":""img/red_ll/7.jpg"",""time"":351},{""stimulus"":""img/red_ll/8.jpg"",""time"":400},{""stimulus"":""img/red_ll/9.jpg"",""time"":450},{""stimulus"":""img/red_ll/10.jpg"",""time"":501},{""stimulus"":""img/red_ll/11.jpg"",""time"":550}]","[]"
"image-keyboard-response","22","54405","0.0-5.0-1.9","5df1133b99b28201e0a1181c","bdp_lott","Sat Mar 25 2023 23:39:11 GMT-0400 (Eastern Daylight Time)","312214","red","green","","755","","","","choice","","img/red_ll/choose11.jpg","2","216","red","0.5","0.5","0.5","l","",""
"animation","23","55006","0.0-5.0-2.9","5df1133b99b28201e0a1181c","bdp_lott","Sat Mar 25 2023 23:39:11 GMT-0400 (Eastern Daylight Time)","312214","red","green","","","","","","","","","","216","","","","","","[{""stimulus"":""img/red_ll/1.jpg"",""time"":52},{""stimulus"":""img/red_ll/2.jpg"",""time"":100},{""stimulus"":""img/red_ll/3.jpg"",""time"":151},{""stimulus"":""img/red_ll/4.jpg"",""time"":201},{""stimulus"":""img/red_ll/5.jpg"",""time"":251},{""stimulus"":""img/red_ll/6.jpg"",""time"":301},{""stimulus"":""img/red_ll/7.jpg"",""time"":350},{""stimulus"":""img/red_ll/8.jpg"",""time"":400},{""stimulus"":""img/red_ll/9.jpg"",""time"":450},{""stimulus"":""img/red_ll/10.jpg"",""time"":501},{""stimulus"":""img/red_ll/11.jpg"",""time"":550}]","[]"
"image-keyboard-response","24","55573","0.0-5.0-1.10","5df1133b99b28201e0a1181c","bdp_lott","Sat Mar 25 2023 23:39:11 GMT-0400 (Eastern Daylight Time)","312214","red","green","","567","","","","choice","","img/red_ll/choose11.jpg","1","215","green","0.5","0.5","0.5","l","",""
"animation","25","56175","0.0-5.0-2.10","5df1133b99b28201e0a1181c","bdp_lott","Sat Mar 25 2023 23:39:11 GMT-0400 (Eastern Daylight Time)","312214","red","green","","","","","","","","","","215","","","","","","[{""stimulus"":""img/green_ll/1.jpg"",""time"":52},{""stimulus"":""img/green_ll/2.jpg"",""time"":101},{""stimulus"":""img/green_ll/3.jpg"",""time"":151},{""stimulus"":""img/green_ll/4.jpg"",""time"":202},{""stimulus"":""img/green_ll/5.jpg"",""time"":252},{""stimulus"":""img/green_ll/6.jpg"",""time"":316},{""stimulus"":""img/green_ll/7.jpg"",""time"":351},{""stimulus"":""img/green_ll/8.jpg"",""time"":401},{""stimulus"":""img/green_ll/9.jpg"",""time"":452},{""stimulus"":""img/green_ll/10.jpg"",""time"":501},{""stimulus"":""img/green_ll/11.jpg"",""time"":552}]","[]"
"image-keyboard-response","26","56993","0.0-5.0-1.11","5df1133b99b28201e0a1181c","bdp_lott","Sat Mar 25 2023 23:39:11 GMT-0400 (Eastern Daylight Time)","312214","red","green","","818","","","","choice","","img/green_ll/choose11.jpg","1","214","green","0.5","0.5","0.5","l","",""
"animation","27","57594","0.0-5.0-2.11","5df1133b99b28201e0a1181c","bdp_lott","Sat Mar 25 2023 23:39:11 GMT-0400 (Eastern Daylight Time)","312214","red","green","","","","","","","","","","214","","","","","","[{""stimulus"":""img/green_ll/1.jpg"",""time"":51},{""stimulus"":""img/green_ll/2.jpg"",""time"":110},{""stimulus"":""img/green_ll/3.jpg"",""time"":152},{""stimulus"":""img/green_ll/4.jpg"",""time"":202},{""stimulus"":""img/green_ll/5.jpg"",""time"":251},{""stimulus"":""img/green_ll/6.jpg"",""time"":302},{""stimulus"":""img/green_ll/7.jpg"",""time"":351},{""stimulus"":""img/green_ll/8.jpg"",""time"":401},{""stimulus"":""img/green_ll/9.jpg"",""time"":451},{""stimulus"":""img/green_ll/10.jpg"",""time"":502},{""stimulus"":""img/green_ll/11.jpg"",""time"":552}]","[]"
"image-keyboard-response","28","58372","0.0-5.0-1.12","5df1133b99b28201e0a1181c","bdp_lott","Sat Mar 25 2023 23:39:11 GMT-0400 (Eastern Daylight Time)","312214","red","green","","778","","","","choice","","img/green_ll/choose11.jpg","2","213","red","0.5","0.5","0.5","l","",""
"animation","29","58972","0.0-5.0-2.12","5df1133b99b28201e0a1181c","bdp_lott","Sat Mar 25 2023 23:39:11 GMT-0400 (Eastern Daylight Time)","312214","red","green","","","","","","","","","","213","","","","","","[{""stimulus"":""img/red_ll/1.jpg"",""time"":51},{""stimulus"":""img/red_ll/2.jpg"",""time"":100},{""stimulus"":""img/red_ll/3.jpg"",""time"":151},{""stimulus"":""img/red_ll/4.jpg"",""time"":201},{""stimulus"":""img/red_ll/5.jpg"",""time"":251},{""stimulus"":""img/red_ll/6.jpg"",""time"":301},{""stimulus"":""img/red_ll/7.jpg"",""time"":351},{""stimulus"":""img/red_ll/8.jpg"",""time"":401},{""stimulus"":""img/red_ll/9.jpg"",""time"":451},{""stimulus"":""img/red_ll/10.jpg"",""time"":501},{""stimulus"":""img/red_ll/11.jpg"",""time"":552}]","[]"
"image-keyboard-response","30","59665","0.0-5.0-1.13","5df1133b99b28201e0a1181c","bdp_lott","Sat Mar 25 2023 23:39:11 GMT-0400 (Eastern Daylight Time)","312214","red","green","","692","","","","choice","","img/red_ll/choose11.jpg","2","212","red","0.5","0.5","0.5","l","",""
"animation","31","60266","0.0-5.0-2.13","5df1133b99b28201e0a1181c","bdp_lott","Sat Mar 25 2023 23:39:11 GMT-0400 (Eastern Daylight Time)","312214","red","green","","","","","","","","","","212","","","","","","[{""stimulus"":""img/red_ll/1.jpg"",""time"":51},{""stimulus"":""img/red_ll/2.jpg"",""time"":100},{""stimulus"":""img/red_ll/3.jpg"",""time"":151},{""stimulus"":""img/red_ll/4.jpg"",""time"":202},{""stimulus"":""img/red_ll/5.jpg"",""time"":251},{""stimulus"":""img/red_ll/6.jpg"",""time"":301},{""stimulus"":""img/red_ll/7.jpg"",""time"":351},{""stimulus"":""img/red_ll/8.jpg"",""time"":401},{""stimulus"":""img/red_ll/9.jpg"",""time"":451},{""stimulus"":""img/red_ll/10.jpg"",""time"":501},{""stimulus"":""img/red_ll/11.jpg"",""time"":551}]","[]"
"image-keyboard-response","32","61040","0.0-5.0-1.14","5df1133b99b28201e0a1181c","bdp_lott","Sat Mar 25 2023 23:39:11 GMT-0400 (Eastern Daylight Time)","312214","red","green","","774","","","","choice","","img/red_ll/choose11.jpg","2","211","red","0.5","0.5","0.5","w","",""
"animation","33","61641","0.0-5.0-2.14","5df1133b99b28201e0a1181c","bdp_lott","Sat Mar 25 2023 23:39:11 GMT-0400 (Eastern Daylight Time)","312214","red","green","","","","","","","","","","211","","","","","","[{""stimulus"":""img/red_lw/1.jpg"",""time"":51},{""stimulus"":""img/red_lw/2.jpg"",""time"":101},{""stimulus"":""img/red_lw/3.jpg"",""time"":151},{""stimulus"":""img/red_lw/4.jpg"",""time"":201},{""stimulus"":""img/red_lw/5.jpg"",""time"":252},{""stimulus"":""img/red_lw/6.jpg"",""time"":300},{""stimulus"":""img/red_lw/7.jpg"",""time"":351},{""stimulus"":""img/red_lw/8.jpg"",""time"":400},{""stimulus"":""img/red_lw/9.jpg"",""time"":451},{""stimulus"":""img/red_lw/10.jpg"",""time"":501},{""stimulus"":""img/red_lw/11.jpg"",""time"":551}]","[]"
"image-keyboard-response","34","62736","0.0-5.0-1.15","5df1133b99b28201e0a1181c","bdp_lott","Sat Mar 25 2023 23:39:11 GMT-0400 (Eastern Daylight Time)","312214","red","green","","1095","","","","choice","","img/red_lw/choose11.jpg","2","210","red","0.5","0.5","0.5","w","",""
"animation","35","63337","0.0-5.0-2.15","5df1133b99b28201e0a1181c","bdp_lott","Sat Mar 25 2023 23:39:11 GMT-0400 (Eastern Daylight Time)","312214","red","green","","","","","","","","","","210","","","","","","[{""stimulus"":""img/red_lw/1.jpg"",""time"":53},{""stimulus"":""img/red_lw/2.jpg"",""time"":102},{""stimulus"":""img/red_lw/3.jpg"",""time"":152},{""stimulus"":""img/red_lw/4.jpg"",""time"":202},{""stimulus"":""img/red_lw/5.jpg"",""time"":253},{""stimulus"":""img/red_lw/6.jpg"",""time"":302},{""stimulus"":""img/red_lw/7.jpg"",""time"":351},{""stimulus"":""img/red_lw/8.jpg"",""time"":402},{""stimulus"":""img/red_lw/9.jpg"",""time"":451},{""stimulus"":""img/red_lw/10.jpg"",""time"":501},{""stimulus"":""img/red_lw/11.jpg"",""time"":551}]","[]"
"image-keyboard-response","36","64193","0.0-5.0-1.16","5df1133b99b28201e0a1181c","bdp_lott","Sat Mar 25 2023 23:39:11 GMT-0400 (Eastern Daylight Time)","312214","red","green","","856","","","","choice","","img/red_lw/choose11.jpg","1","209","green","0.5","0.5","0.5","l","",""
"animation","37","64795","0.0-5.0-2.16","5df1133b99b28201e0a1181c","bdp_lott","Sat Mar 25 2023 23:39:11 GMT-0400 (Eastern Daylight Time)","312214","red","green","","","","","","","","","","209","","","","","","[{""stimulus"":""img/green_lw/1.jpg"",""time"":51},{""stimulus"":""img/green_lw/2.jpg"",""time"":102},{""stimulus"":""img/green_lw/3.jpg"",""time"":150},{""stimulus"":""img/green_lw/4.jpg"",""time"":202},{""stimulus"":""img/green_lw/5.jpg"",""time"":251},{""stimulus"":""img/green_lw/6.jpg"",""time"":301},{""stimulus"":""img/green_lw/7.jpg"",""time"":351},{""stimulus"":""img/green_lw/8.jpg"",""time"":401},{""stimulus"":""img/green_lw/9.jpg"",""time"":451},{""stimulus"":""img/green_lw/10.jpg"",""time"":501},{""stimulus"":""img/green_lw/11.jpg"",""time"":550}]","[]"
"image-keyboard-response","38","65463","0.0-5.0-1.17","5df1133b99b28201e0a1181c","bdp_lott","Sat Mar 25 2023 23:39:11 GMT-0400 (Eastern Daylight Time)","312214","red","green","","668","","","","choice","","img/green_lw/choose11.jpg","1","208","green","0.5","0.5","0.5","l","",""
"animation","39","66064","0.0-5.0-2.17","5df1133b99b28201e0a1181c","bdp_lott","Sat Mar 25 2023 23:39:11 GMT-0400 (Eastern Daylight Time)","312214","red","green","","","","","","","","","","208","","","","","","[{""stimulus"":""img/green_lw/1.jpg"",""time"":52},{""stimulus"":""img/green_lw/2.jpg"",""time"":101},{""stimulus"":""img/green_lw/3.jpg"",""time"":151},{""stimulus"":""img/green_lw/4.jpg"",""time"":202},{""stimulus"":""img/green_lw/5.jpg"",""time"":252},{""stimulus"":""img/green_lw/6.jpg"",""time"":301},{""stimulus"":""img/green_lw/7.jpg"",""time"":351},{""stimulus"":""img/green_lw/8.jpg"",""time"":402},{""stimulus"":""img/green_lw/9.jpg"",""time"":451},{""stimulus"":""img/green_lw/10.jpg"",""time"":501},{""stimulus"":""img/green_lw/11.jpg"",""time"":552}]","[]"
"image-keyboard-response","40","66642","0.0-5.0-1.18","5df1133b99b28201e0a1181c","bdp_lott","Sat Mar 25 2023 23:39:11 GMT-0400 (Eastern Daylight Time)","312214","red","green","","578","","","","choice","","img/green_lw/choose11.jpg","1","207","green","0.5","0.5","0.5","w","",""
"animation","41","67243","0.0-5.0-2.18","5df1133b99b28201e0a1181c","bdp_lott","Sat Mar 25 2023 23:39:11 GMT-0400 (Eastern Daylight Time)","312214","red","green","","","","","","","","","","207","","","","","","[{""stimulus"":""img/green_ww/1.jpg"",""time"":50},{""stimulus"":""img/green_ww/2.jpg"",""time"":100},{""stimulus"":""img/green_ww/3.jpg"",""time"":152},{""stimulus"":""img/green_ww/4.jpg"",""time"":200},{""stimulus"":""img/green_ww/5.jpg"",""time"":251},{""stimulus"":""img/green_ww/6.jpg"",""time"":300},{""stimulus"":""img/green_ww/7.jpg"",""time"":350},{""stimulus"":""img/green_ww/8.jpg"",""time"":402},{""stimulus"":""img/green_ww/9.jpg"",""time"":451},{""stimulus"":""img/green_ww/10.jpg"",""time"":502},{""stimulus"":""img/green_ww/11.jpg"",""time"":551}]","[]"
"image-keyboard-response","42","68058","0.0-5.0-1.19","5df1133b99b28201e0a1181c","bdp_lott","Sat Mar 25 2023 23:39:11 GMT-0400 (Eastern Daylight Time)","312214","red","green","","815","","","","choice","","img/green_ww/choose11.jpg","2","206","red","0.5","0.5","0.5","w","",""
"animation","43","68658","0.0-5.0-2.19","5df1133b99b28201e0a1181c","bdp_lott","Sat Mar 25 2023 23:39:11 GMT-0400 (Eastern Daylight Time)","312214","red","green","","","","","","","","","","206","","","","","","[{""stimulus"":""img/red_ww/1.jpg"",""time"":51},{""stimulus"":""img/red_ww/2.jpg"",""time"":101},{""stimulus"":""img/red_ww/3.jpg"",""time"":151},{""stimulus"":""img/red_ww/4.jpg"",""time"":201},{""stimulus"":""img/red_ww/5.jpg"",""time"":251},{""stimulus"":""img/red_ww/6.jpg"",""time"":301},{""stimulus"":""img/red_ww/7.jpg"",""time"":351},{""stimulus"":""img/red_ww/8.jpg"",""time"":401},{""stimulus"":""img/red_ww/9.jpg"",""time"":450},{""stimulus"":""img/red_ww/10.jpg"",""time"":500},{""stimulus"":""img/red_ww/11.jpg"",""time"":551}]","[]"
"image-keyboard-response","44","69292","0.0-5.0-1.20","5df1133b99b28201e0a1181c","bdp_lott","Sat Mar 25 2023 23:39:11 GMT-0400 (Eastern Daylight Time)","312214","red","green","","633","","","","choice","","img/red_ww/choose11.jpg","1","205","green","0.5","0.5","0.5","w","",""
"animation","45","69893","0.0-5.0-2.20","5df1133b99b28201e0a1181c","bdp_lott","Sat Mar 25 2023 23:39:11 GMT-0400 (Eastern Daylight Time)","312214","red","green","","","","","","","","","","205","","","","","","[{""stimulus"":""img/green_ww/1.jpg"",""time"":51},{""stimulus"":""img/green_ww/2.jpg"",""time"":101},{""stimulus"":""img/green_ww/3.jpg"",""time"":151},{""stimulus"":""img/green_ww/4.jpg"",""time"":201},{""stimulus"":""img/green_ww/5.jpg"",""time"":251},{""stimulus"":""img/green_ww/6.jpg"",""time"":302},{""stimulus"":""img/green_ww/7.jpg"",""time"":351},{""stimulus"":""img/green_ww/8.jpg"",""time"":401},{""stimulus"":""img/green_ww/9.jpg"",""time"":452},{""stimulus"":""img/green_ww/10.jpg"",""time"":501},{""stimulus"":""img/green_ww/11.jpg"",""time"":552}]","[]"
"image-keyboard-response","46","70761","0.0-5.0-1.21","5df1133b99b28201e0a1181c","bdp_lott","Sat Mar 25 2023 23:39:11 GMT-0400 (Eastern Daylight Time)","312214","red","green","","867","","","","choice","","img/green_ww/choose11.jpg","1","204","green","0.5","0.5","0.5","w","",""
"animation","47","71362","0.0-5.0-2.21","5df1133b99b28201e0a1181c","bdp_lott","Sat Mar 25 2023 23:39:11 GMT-0400 (Eastern Daylight Time)","312214","red","green","","","","","","","","","","204","","","","","","[{""stimulus"":""img/green_ww/1.jpg"",""time"":51},{""stimulus"":""img/green_ww/2.jpg"",""time"":101},{""stimulus"":""img/green_ww/3.jpg"",""time"":151},{""stimulus"":""img/green_ww/4.jpg"",""time"":201},{""stimulus"":""img/green_ww/5.jpg"",""time"":251},{""stimulus"":""img/green_ww/6.jpg"",""time"":301},{""stimulus"":""img/green_ww/7.jpg"",""time"":351},{""stimulus"":""img/green_ww/8.jpg"",""time"":401},{""stimulus"":""img/green_ww/9.jpg"",""time"":451},{""stimulus"":""img/green_ww/10.jpg"",""time"":501},{""stimulus"":""img/green_ww/11.jpg"",""time"":551}]","[]"
"image-keyboard-response","48","72275","0.0-5.0-1.22","5df1133b99b28201e0a1181c","bdp_lott","Sat Mar 25 2023 23:39:11 GMT-0400 (Eastern Daylight Time)","312214","red","green","","912","","","","choice","","img/green_ww/choose11.jpg","2","203","red","0.5","0.5","0.5","w","",""
"animation","49","72876","0.0-5.0-2.22","5df1133b99b28201e0a1181c","bdp_lott","Sat Mar 25 2023 23:39:11 GMT-0400 (Eastern Daylight Time)","312214","red","green","","","","","","","","","","203","","","","","","[{""stimulus"":""img/red_ww/1.jpg"",""time"":51},{""stimulus"":""img/red_ww/2.jpg"",""time"":101},{""stimulus"":""img/red_ww/3.jpg"",""time"":151},{""stimulus"":""img/red_ww/4.jpg"",""time"":201},{""stimulus"":""img/red_ww/5.jpg"",""time"":252},{""stimulus"":""img/red_ww/6.jpg"",""time"":302},{""stimulus"":""img/red_ww/7.jpg"",""time"":351},{""stimulus"":""img/red_ww/8.jpg"",""time"":401},{""stimulus"":""img/red_ww/9.jpg"",""time"":452},{""stimulus"":""img/red_ww/10.jpg"",""time"":500},{""stimulus"":""img/red_ww/11.jpg"",""time"":551}]","[]"
"image-keyboard-response","50","73520","0.0-5.0-1.23","5df1133b99b28201e0a1181c","bdp_lott","Sat Mar 25 2023 23:39:11 GMT-0400 (Eastern Daylight Time)","312214","red","green","","643","","","","choice","","img/red_ww/choose11.jpg","1","202","green","0.5","0.5","0.5","w","",""
"animation","51","74122","0.0-5.0-2.23","5df1133b99b28201e0a1181c","bdp_lott","Sat Mar 25 2023 23:39:11 GMT-0400 (Eastern Daylight Time)","312214","red","green","","","","","","","","","","202","","","","","","[{""stimulus"":""img/green_ww/1.jpg"",""time"":51},{""stimulus"":""img/green_ww/2.jpg"",""time"":101},{""stimulus"":""img/green_ww/3.jpg"",""time"":151},{""stimulus"":""img/green_ww/4.jpg"",""time"":200},{""stimulus"":""img/green_ww/5.jpg"",""time"":251},{""stimulus"":""img/green_ww/6.jpg"",""time"":300},{""stimulus"":""img/green_ww/7.jpg"",""time"":350},{""stimulus"":""img/green_ww/8.jpg"",""time"":400},{""stimulus"":""img/green_ww/9.jpg"",""time"":451},{""stimulus"":""img/green_ww/10.jpg"",""time"":501},{""stimulus"":""img/green_ww/11.jpg"",""time"":550}]","[]"
"image-keyboard-response","52","74704","0.0-5.0-1.24","5df1133b99b28201e0a1181c","bdp_lott","Sat Mar 25 2023 23:39:11 GMT-0400 (Eastern Daylight Time)","312214","red","green","","581","","","","choice","","img/green_ww/choose11.jpg","2","201","red","0.5","0.5","0.5","l","",""
"animation","53","75306","0.0-5.0-2.24","5df1133b99b28201e0a1181c","bdp_lott","Sat Mar 25 2023 23:39:11 GMT-0400 (Eastern Daylight Time)","312214","red","green","","","","","","","","","","201","","","","","","[{""stimulus"":""img/red_wl/1.jpg"",""time"":51},{""stimulus"":""img/red_wl/2.jpg"",""time"":102},{""stimulus"":""img/red_wl/3.jpg"",""time"":152},{""stimulus"":""img/red_wl/4.jpg"",""time"":201},{""stimulus"":""img/red_wl/5.jpg"",""time"":251},{""stimulus"":""img/red_wl/6.jpg"",""time"":302},{""stimulus"":""img/red_wl/7.jpg"",""time"":351},{""stimulus"":""img/red_wl/8.jpg"",""time"":401},{""stimulus"":""img/red_wl/9.jpg"",""time"":451},{""stimulus"":""img/red_wl/10.jpg"",""time"":501},{""stimulus"":""img/red_wl/11.jpg"",""time"":551}]","[]"
"image-keyboard-response","54","75895","0.0-5.0-1.25","5df1133b99b28201e0a1181c","bdp_lott","Sat Mar 25 2023 23:39:11 GMT-0400 (Eastern Daylight Time)","312214","red","green","","589","","","","choice","","img/red_wl/choose11.jpg","2","200","red","0.5","0.5","0.5","w","",""
"animation","55","76495","0.0-5.0-2.25","5df1133b99b28201e0a1181c","bdp_lott","Sat Mar 25 2023 23:39:11 GMT-0400 (Eastern Daylight Time)","312214","red","green","","","","","","","","","","200","","","","","","[{""stimulus"":""img/red_ww/1.jpg"",""time"":51},{""stimulus"":""img/red_ww/2.jpg"",""time"":101},{""stimulus"":""img/red_ww/3.jpg"",""time"":150},{""stimulus"":""img/red_ww/4.jpg"",""time"":201},{""stimulus"":""img/red_ww/5.jpg"",""time"":251},{""stimulus"":""img/red_ww/6.jpg"",""time"":300},{""stimulus"":""img/red_ww/7.jpg"",""time"":350},{""stimulus"":""img/red_ww/8.jpg"",""time"":400},{""stimulus"":""img/red_ww/9.jpg"",""time"":451},{""stimulus"":""img/red_ww/10.jpg"",""time"":500},{""stimulus"":""img/red_ww/11.jpg"",""time"":551}]","[]"
"image-keyboard-response","56","77166","0.0-5.0-1.26","5df1133b99b28201e0a1181c","bdp_lott","Sat Mar 25 2023 23:39:11 GMT-0400 (Eastern Daylight Time)","312214","red","green","","671","","","","choice","","img/red_ww/choose11.jpg","1","199","green","0.5","0.5","0.5","w","",""
"animation","57","77767","0.0-5.0-2.26","5df1133b99b28201e0a1181c","bdp_lott","Sat Mar 25 2023 23:39:11 GMT-0400 (Eastern Daylight Time)","312214","red","green","","","","","","","","","","199","","","","","","[{""stimulus"":""img/green_ww/1.jpg"",""time"":51},{""stimulus"":""img/green_ww/2.jpg"",""time"":101},{""stimulus"":""img/green_ww/3.jpg"",""time"":152},{""stimulus"":""img/green_ww/4.jpg"",""time"":202},{""stimulus"":""img/green_ww/5.jpg"",""time"":252},{""stimulus"":""img/green_ww/6.jpg"",""time"":312},{""stimulus"":""img/green_ww/7.jpg"",""time"":351},{""stimulus"":""img/green_ww/8.jpg"",""time"":402},{""stimulus"":""img/green_ww/9.jpg"",""time"":451},{""stimulus"":""img/green_ww/10.jpg"",""time"":502},{""stimulus"":""img/green_ww/11.jpg"",""time"":553}]","[]"
"image-keyboard-response","58","78453","0.0-5.0-1.27","5df1133b99b28201e0a1181c","bdp_lott","Sat Mar 25 2023 23:39:11 GMT-0400 (Eastern Daylight Time)","312214","red","green","","686","","","","choice","","img/green_ww/choose11.jpg","1","198","green","0.5","0.5","0.5","w","",""
"animation","59","79054","0.0-5.0-2.27","5df1133b99b28201e0a1181c","bdp_lott","Sat Mar 25 2023 23:39:11 GMT-0400 (Eastern Daylight Time)","312214","red","green","","","","","","","","","","198","","","","","","[{""stimulus"":""img/green_ww/1.jpg"",""time"":51},{""stimulus"":""img/green_ww/2.jpg"",""time"":101},{""stimulus"":""img/green_ww/3.jpg"",""time"":151},{""stimulus"":""img/green_ww/4.jpg"",""time"":202},{""stimulus"":""img/green_ww/5.jpg"",""time"":251},{""stimulus"":""img/green_ww/6.jpg"",""time"":301},{""stimulus"":""img/green_ww/7.jpg"",""time"":351},{""stimulus"":""img/green_ww/8.jpg"",""time"":402},{""stimulus"":""img/green_ww/9.jpg"",""time"":452},{""stimulus"":""img/green_ww/10.jpg"",""time"":501},{""stimulus"":""img/green_ww/11.jpg"",""time"":551}]","[]"
"image-keyboard-response","60","79690","0.0-5.0-1.28","5df1133b99b28201e0a1181c","bdp_lott","Sat Mar 25 2023 23:39:11 GMT-0400 (Eastern Daylight Time)","312214","red","green","","636","","","","choice","","img/green_ww/choose11.jpg","1","197","green","0.5","0.5","0.5","w","",""
"animation","61","80291","0.0-5.0-2.28","5df1133b99b28201e0a1181c","bdp_lott","Sat Mar 25 2023 23:39:11 GMT-0400 (Eastern Daylight Time)","312214","red","green","","","","","","","","","","197","","","","","","[{""stimulus"":""img/green_ww/1.jpg"",""time"":51},{""stimulus"":""img/green_ww/2.jpg"",""time"":101},{""stimulus"":""img/green_ww/3.jpg"",""time"":151},{""stimulus"":""img/green_ww/4.jpg"",""time"":202},{""stimulus"":""img/green_ww/5.jpg"",""time"":252},{""stimulus"":""img/green_ww/6.jpg"",""time"":302},{""stimulus"":""img/green_ww/7.jpg"",""time"":351},{""stimulus"":""img/green_ww/8.jpg"",""time"":402},{""stimulus"":""img/green_ww/9.jpg"",""time"":451},{""stimulus"":""img/green_ww/10.jpg"",""time"":501},{""stimulus"":""img/green_ww/11.jpg"",""time"":551}]","[]"
"image-keyboard-response","62","80738","0.0-5.0-1.29","5df1133b99b28201e0a1181c","bdp_lott","Sat Mar 25 2023 23:39:11 GMT-0400 (Eastern Daylight Time)","312214","red","green","","447","","","","choice","","img/green_ww/choose11.jpg","1","196","green","0.5","0.5","0.5","w","",""
"animation","63","81340","0.0-5.0-2.29","5df1133b99b28201e0a1181c","bdp_lott","Sat Mar 25 2023 23:39:11 GMT-0400 (Eastern Daylight Time)","312214","red","green","","","","","","","","","","196","","","","","","[{""stimulus"":""img/green_ww/1.jpg"",""time"":50},{""stimulus"":""img/green_ww/2.jpg"",""time"":100},{""stimulus"":""img/green_ww/3.jpg"",""time"":150},{""stimulus"":""img/green_ww/4.jpg"",""time"":201},{""stimulus"":""img/green_ww/5.jpg"",""time"":251},{""stimulus"":""img/green_ww/6.jpg"",""time"":301},{""stimulus"":""img/green_ww/7.jpg"",""time"":351},{""stimulus"":""img/green_ww/8.jpg"",""time"":400},{""stimulus"":""img/green_ww/9.jpg"",""time"":452},{""stimulus"":""img/green_ww/10.jpg"",""time"":501},{""stimulus"":""img/green_ww/11.jpg"",""time"":550}]","[]"
"image-keyboard-response","64","81689","0.0-5.0-1.30","5df1133b99b28201e0a1181c","bdp_lott","Sat Mar 25 2023 23:39:11 GMT-0400 (Eastern Daylight Time)","312214","red","green","","349","","","","choice","","img/green_ww/choose11.jpg","1","195","green","0.5","0.5","0.5","w","",""
"animation","65","82290","0.0-5.0-2.30","5df1133b99b28201e0a1181c","bdp_lott","Sat Mar 25 2023 23:39:11 GMT-0400 (Eastern Daylight Time)","312214","red","green","","","","","","","","","","195","","","","","","[{""stimulus"":""img/green_ww/1.jpg"",""time"":51},{""stimulus"":""img/green_ww/2.jpg"",""time"":101},{""stimulus"":""img/green_ww/3.jpg"",""time"":152},{""stimulus"":""img/green_ww/4.jpg"",""time"":201},{""stimulus"":""img/green_ww/5.jpg"",""time"":252},{""stimulus"":""img/green_ww/6.jpg"",""time"":301},{""stimulus"":""img/green_ww/7.jpg"",""time"":351},{""stimulus"":""img/green_ww/8.jpg"",""time"":401},{""stimulus"":""img/green_ww/9.jpg"",""time"":451},{""stimulus"":""img/green_ww/10.jpg"",""time"":501},{""stimulus"":""img/green_ww/11.jpg"",""time"":551}]","[]"
"image-keyboard-response","66","82683","0.0-5.0-1.31","5df1133b99b28201e0a1181c","bdp_lott","Sat Mar 25 2023 23:39:11 GMT-0400 (Eastern Daylight Time)","312214","red","green","","392","","","","choice","","img/green_ww/choose11.jpg","1","194","green","0.5","0.5","0.5","l","",""
"animation","67","83285","0.0-5.0-2.31","5df1133b99b28201e0a1181c","bdp_lott","Sat Mar 25 2023 23:39:11 GMT-0400 (Eastern Daylight Time)","312214","red","green","","","","","","","","","","194","","","","","","[{""stimulus"":""img/green_lw/1.jpg"",""time"":51},{""stimulus"":""img/green_lw/2.jpg"",""time"":100},{""stimulus"":""img/green_lw/3.jpg"",""time"":152},{""stimulus"":""img/green_lw/4.jpg"",""time"":201},{""stimulus"":""img/green_lw/5.jpg"",""time"":250},{""stimulus"":""img/green_lw/6.jpg"",""time"":301},{""stimulus"":""img/green_lw/7.jpg"",""time"":350},{""stimulus"":""img/green_lw/8.jpg"",""time"":400},{""stimulus"":""img/green_lw/9.jpg"",""time"":451},{""stimulus"":""img/green_lw/10.jpg"",""time"":501},{""stimulus"":""img/green_lw/11.jpg"",""time"":550}]","[]"
"image-keyboard-response","68","84123","0.0-5.0-1.32","5df1133b99b28201e0a1181c","bdp_lott","Sat Mar 25 2023 23:39:11 GMT-0400 (Eastern Daylight Time)","312214","red","green","","837","","","","choice","","img/green_lw/choose11.jpg","2","193","red","0.5","0.5","0.5","l","",""
"animation","69","84724","0.0-5.0-2.32","5df1133b99b28201e0a1181c","bdp_lott","Sat Mar 25 2023 23:39:11 GMT-0400 (Eastern Daylight Time)","312214","red","green","","","","","","","","","","193","","","","","","[{""stimulus"":""img/red_ll/1.jpg"",""time"":51},{""stimulus"":""img/red_ll/2.jpg"",""time"":101},{""stimulus"":""img/red_ll/3.jpg"",""time"":151},{""stimulus"":""img/red_ll/4.jpg"",""time"":201},{""stimulus"":""img/red_ll/5.jpg"",""time"":252},{""stimulus"":""img/red_ll/6.jpg"",""time"":302},{""stimulus"":""img/red_ll/7.jpg"",""time"":350},{""stimulus"":""img/red_ll/8.jpg"",""time"":402},{""stimulus"":""img/red_ll/9.jpg"",""time"":452},{""stimulus"":""img/red_ll/10.jpg"",""time"":501},{""stimulus"":""img/red_ll/11.jpg"",""time"":550}]","[]"
"image-keyboard-response","70","85163","0.0-5.0-1.33","5df1133b99b28201e0a1181c","bdp_lott","Sat Mar 25 2023 23:39:11 GMT-0400 (Eastern Daylight Time)","312214","red","green","","438","","","","choice","","img/red_ll/choose11.jpg","2","192","red","0.5","0.5","0.5","w","",""
"animation","71","85764","0.0-5.0-2.33","5df1133b99b28201e0a1181c","bdp_lott","Sat Mar 25 2023 23:39:11 GMT-0400 (Eastern Daylight Time)","312214","red","green","","","","","","","","","","192","","","","","","[{""stimulus"":""img/red_lw/1.jpg"",""time"":50},{""stimulus"":""img/red_lw/2.jpg"",""time"":101},{""stimulus"":""img/red_lw/3.jpg"",""time"":150},{""stimulus"":""img/red_lw/4.jpg"",""time"":201},{""stimulus"":""img/red_lw/5.jpg"",""time"":251},{""stimulus"":""img/red_lw/6.jpg"",""time"":301},{""stimulus"":""img/red_lw/7.jpg"",""time"":352},{""stimulus"":""img/red_lw/8.jpg"",""time"":402},{""stimulus"":""img/red_lw/9.jpg"",""time"":451},{""stimulus"":""img/red_lw/10.jpg"",""time"":514},{""stimulus"":""img/red_lw/11.jpg"",""time"":551}]","[]"
"image-keyboard-response","72","86503","0.0-5.0-1.34","5df1133b99b28201e0a1181c","bdp_lott","Sat Mar 25 2023 23:39:11 GMT-0400 (Eastern Daylight Time)","312214","red","green","","738","","","","choice","","img/red_lw/choose11.jpg","1","191","green","0.5","0.5","0.5","w","",""
"animation","73","87103","0.0-5.0-2.34","5df1133b99b28201e0a1181c","bdp_lott","Sat Mar 25 2023 23:39:11 GMT-0400 (Eastern Daylight Time)","312214","red","green","","","","","","","","","","191","","","","","","[{""stimulus"":""img/green_ww/1.jpg"",""time"":51},{""stimulus"":""img/green_ww/2.jpg"",""time"":100},{""stimulus"":""img/green_ww/3.jpg"",""time"":150},{""stimulus"":""img/green_ww/4.jpg"",""time"":201},{""stimulus"":""img/green_ww/5.jpg"",""time"":252},{""stimulus"":""img/green_ww/6.jpg"",""time"":300},{""stimulus"":""img/green_ww/7.jpg"",""time"":350},{""stimulus"":""img/green_ww/8.jpg"",""time"":401},{""stimulus"":""img/green_ww/9.jpg"",""time"":450},{""stimulus"":""img/green_ww/10.jpg"",""time"":500},{""stimulus"":""img/green_ww/11.jpg"",""time"":550}]","[]"
"image-keyboard-response","74","87773","0.0-5.0-1.35","5df1133b99b28201e0a1181c","bdp_lott","Sat Mar 25 2023 23:39:11 GMT-0400 (Eastern Daylight Time)","312214","red","green","","670","","","","choice","","img/green_ww/choose11.jpg","2","190","red","0.5","0.5","0.5","w","",""
"animation","75","88375","0.0-5.0-2.35","5df1133b99b28201e0a1181c","bdp_lott","Sat Mar 25 2023 23:39:11 GMT-0400 (Eastern Daylight Time)","312214","red","green","","","","","","","","","","190","","","","","","[{""stimulus"":""img/red_ww/1.jpg"",""time"":50},{""stimulus"":""img/red_ww/2.jpg"",""time"":102},{""stimulus"":""img/red_ww/3.jpg"",""time"":151},{""stimulus"":""img/red_ww/4.jpg"",""time"":201},{""stimulus"":""img/red_ww/5.jpg"",""time"":252},{""stimulus"":""img/red_ww/6.jpg"",""time"":302},{""stimulus"":""img/red_ww/7.jpg"",""time"":351},{""stimulus"":""img/red_ww/8.jpg"",""time"":400},{""stimulus"":""img/red_ww/9.jpg"",""time"":451},{""stimulus"":""img/red_ww/10.jpg"",""time"":501},{""stimulus"":""img/red_ww/11.jpg"",""time"":551}]","[]"
"image-keyboard-response","76","88853","0.0-5.0-1.36","5df1133b99b28201e0a1181c","bdp_lott","Sat Mar 25 2023 23:39:11 GMT-0400 (Eastern Daylight Time)","312214","red","green","","478","","","","choice","","img/red_ww/choose11.jpg","2","189","red","0.5","0.5","0.5","w","",""
"animation","77","89453","0.0-5.0-2.36","5df1133b99b28201e0a1181c","bdp_lott","Sat Mar 25 2023 23:39:11 GMT-0400 (Eastern Daylight Time)","312214","red","green","","","","","","","","","","189","","","","","","[{""stimulus"":""img/red_ww/1.jpg"",""time"":51},{""stimulus"":""img/red_ww/2.jpg"",""time"":100},{""stimulus"":""img/red_ww/3.jpg"",""time"":151},{""stimulus"":""img/red_ww/4.jpg"",""time"":202},{""stimulus"":""img/red_ww/5.jpg"",""time"":250},{""stimulus"":""img/red_ww/6.jpg"",""time"":301},{""stimulus"":""img/red_ww/7.jpg"",""time"":352},{""stimulus"":""img/red_ww/8.jpg"",""time"":402},{""stimulus"":""img/red_ww/9.jpg"",""time"":451},{""stimulus"":""img/red_ww/10.jpg"",""time"":500},{""stimulus"":""img/red_ww/11.jpg"",""time"":550}]","[]"
"image-keyboard-response","78","89814","0.0-5.0-1.37","5df1133b99b28201e0a1181c","bdp_lott","Sat Mar 25 2023 23:39:11 GMT-0400 (Eastern Daylight Time)","312214","red","green","","360","","","","choice","","img/red_ww/choose11.jpg","2","188","red","0.5","0.5","0.5","w","",""
"animation","79","90415","0.0-5.0-2.37","5df1133b99b28201e0a1181c","bdp_lott","Sat Mar 25 2023 23:39:11 GMT-0400 (Eastern Daylight Time)","312214","red","green","","","","","","","","","","188","","","","","","[{""stimulus"":""img/red_ww/1.jpg"",""time"":51},{""stimulus"":""img/red_ww/2.jpg"",""time"":101},{""stimulus"":""img/red_ww/3.jpg"",""time"":151},{""stimulus"":""img/red_ww/4.jpg"",""time"":201},{""stimulus"":""img/red_ww/5.jpg"",""time"":251},{""stimulus"":""img/red_ww/6.jpg"",""time"":302},{""stimulus"":""img/red_ww/7.jpg"",""time"":351},{""stimulus"":""img/red_ww/8.jpg"",""time"":401},{""stimulus"":""img/red_ww/9.jpg"",""time"":451},{""stimulus"":""img/red_ww/10.jpg"",""time"":501},{""stimulus"":""img/red_ww/11.jpg"",""time"":552}]","[]"
"image-keyboard-response","80","90750","0.0-5.0-1.38","5df1133b99b28201e0a1181c","bdp_lott","Sat Mar 25 2023 23:39:11 GMT-0400 (Eastern Daylight Time)","312214","red","green","","334","","","","choice","","img/red_ww/choose11.jpg","2","187","red","0.5","0.5","0.5","w","",""
"animation","81","91352","0.0-5.0-2.38","5df1133b99b28201e0a1181c","bdp_lott","Sat Mar 25 2023 23:39:11 GMT-0400 (Eastern Daylight Time)","312214","red","green","","","","","","","","","","187","","","","","","[{""stimulus"":""img/red_ww/1.jpg"",""time"":50},{""stimulus"":""img/red_ww/2.jpg"",""time"":100},{""stimulus"":""img/red_ww/3.jpg"",""time"":150},{""stimulus"":""img/red_ww/4.jpg"",""time"":201},{""stimulus"":""img/red_ww/5.jpg"",""time"":250},{""stimulus"":""img/red_ww/6.jpg"",""time"":300},{""stimulus"":""img/red_ww/7.jpg"",""time"":351},{""stimulus"":""img/red_ww/8.jpg"",""time"":400},{""stimulus"":""img/red_ww/9.jpg"",""time"":451},{""stimulus"":""img/red_ww/10.jpg"",""time"":500},{""stimulus"":""img/red_ww/11.jpg"",""time"":550}]","[]"
"image-keyboard-response","82","92315","0.0-5.0-1.39","5df1133b99b28201e0a1181c","bdp_lott","Sat Mar 25 2023 23:39:11 GMT-0400 (Eastern Daylight Time)","312214","red","green","","963","","","","choice","","img/red_ww/choose11.jpg","2","186","red","0.5","0.5","0.5","w","",""
"animation","83","92916","0.0-5.0-2.39","5df1133b99b28201e0a1181c","bdp_lott","Sat Mar 25 2023 23:39:11 GMT-0400 (Eastern Daylight Time)","312214","red","green","","","","","","","","","","186","","","","","","[{""stimulus"":""img/red_ww/1.jpg"",""time"":51},{""stimulus"":""img/red_ww/2.jpg"",""time"":101},{""stimulus"":""img/red_ww/3.jpg"",""time"":150},{""stimulus"":""img/red_ww/4.jpg"",""time"":201},{""stimulus"":""img/red_ww/5.jpg"",""time"":252},{""stimulus"":""img/red_ww/6.jpg"",""time"":301},{""stimulus"":""img/red_ww/7.jpg"",""time"":351},{""stimulus"":""img/red_ww/8.jpg"",""time"":401},{""stimulus"":""img/red_ww/9.jpg"",""time"":451},{""stimulus"":""img/red_ww/10.jpg"",""time"":500},{""stimulus"":""img/red_ww/11.jpg"",""time"":551}]","[]"
"image-keyboard-response","84","93530","0.0-5.0-1.40","5df1133b99b28201e0a1181c","bdp_lott","Sat Mar 25 2023 23:39:11 GMT-0400 (Eastern Daylight Time)","312214","red","green","","614","","","","choice","","img/red_ww/choose11.jpg","2","185","red","0.5","0.5","0.5","l","",""
"animation","85","94130","0.0-5.0-2.40","5df1133b99b28201e0a1181c","bdp_lott","Sat Mar 25 2023 23:39:11 GMT-0400 (Eastern Daylight Time)","312214","red","green","","","","","","","","","","185","","","","","","[{""stimulus"":""img/red_wl/1.jpg"",""time"":51},{""stimulus"":""img/red_wl/2.jpg"",""time"":101},{""stimulus"":""img/red_wl/3.jpg"",""time"":151},{""stimulus"":""img/red_wl/4.jpg"",""time"":200},{""stimulus"":""img/red_wl/5.jpg"",""time"":252},{""stimulus"":""img/red_wl/6.jpg"",""time"":301},{""stimulus"":""img/red_wl/7.jpg"",""time"":350},{""stimulus"":""img/red_wl/8.jpg"",""time"":400},{""stimulus"":""img/red_wl/9.jpg"",""time"":451},{""stimulus"":""img/red_wl/10.jpg"",""time"":500},{""stimulus"":""img/red_wl/11.jpg"",""time"":551}]","[]"
"image-keyboard-response","86","95137","0.0-5.0-1.41","5df1133b99b28201e0a1181c","bdp_lott","Sat Mar 25 2023 23:39:11 GMT-0400 (Eastern Daylight Time)","312214","red","green","","1006","","","","choice","","img/red_wl/choose11.jpg","2","184","red","0.5","0.5","0.5","l","",""
"animation","87","95737","0.0-5.0-2.41","5df1133b99b28201e0a1181c","bdp_lott","Sat Mar 25 2023 23:39:11 GMT-0400 (Eastern Daylight Time)","312214","red","green","","","","","","","","","","184","","","","","","[{""stimulus"":""img/red_wl/1.jpg"",""time"":51},{""stimulus"":""img/red_wl/2.jpg"",""time"":101},{""stimulus"":""img/red_wl/3.jpg"",""time"":151},{""stimulus"":""img/red_wl/4.jpg"",""time"":201},{""stimulus"":""img/red_wl/5.jpg"",""time"":251},{""stimulus"":""img/red_wl/6.jpg"",""time"":302},{""stimulus"":""img/red_wl/7.jpg"",""time"":351},{""stimulus"":""img/red_wl/8.jpg"",""time"":401},{""stimulus"":""img/red_wl/9.jpg"",""time"":451},{""stimulus"":""img/red_wl/10.jpg"",""time"":500},{""stimulus"":""img/red_wl/11.jpg"",""time"":551}]","[]"
"image-keyboard-response","88","96019","0.0-5.0-1.42","5df1133b99b28201e0a1181c","bdp_lott","Sat Mar 25 2023 23:39:11 GMT-0400 (Eastern Daylight Time)","312214","red","green","","281","","","","choice","","img/red_wl/choose11.jpg","2","183","red","0.5","0.5","0.5","l","",""
"animation","89","96619","0.0-5.0-2.42","5df1133b99b28201e0a1181c","bdp_lott","Sat Mar 25 2023 23:39:11 GMT-0400 (Eastern Daylight Time)","312214","red","green","","","","","","","","","","183","","","","","","[{""stimulus"":""img/red_wl/1.jpg"",""time"":51},{""stimulus"":""img/red_wl/2.jpg"",""time"":101},{""stimulus"":""img/red_wl/3.jpg"",""time"":151},{""stimulus"":""img/red_wl/4.jpg"",""time"":201},{""stimulus"":""img/red_wl/5.jpg"",""time"":251},{""stimulus"":""img/red_wl/6.jpg"",""time"":302},{""stimulus"":""img/red_wl/7.jpg"",""time"":351},{""stimulus"":""img/red_wl/8.jpg"",""time"":402},{""stimulus"":""img/red_wl/9.jpg"",""time"":451},{""stimulus"":""img/red_wl/10.jpg"",""time"":501},{""stimulus"":""img/red_wl/11.jpg"",""time"":551}]","[]"
"image-keyboard-response","90","96852","0.0-5.0-1.43","5df1133b99b28201e0a1181c","bdp_lott","Sat Mar 25 2023 23:39:11 GMT-0400 (Eastern Daylight Time)","312214","red","green","","232","","","","choice","","img/red_wl/choose11.jpg","2","182","red","0.5","0.5","0.5","l","",""
"animation","91","97453","0.0-5.0-2.43","5df1133b99b28201e0a1181c","bdp_lott","Sat Mar 25 2023 23:39:11 GMT-0400 (Eastern Daylight Time)","312214","red","green","","","","","","","","","","182","","","","","","[{""stimulus"":""img/red_wl/1.jpg"",""time"":51},{""stimulus"":""img/red_wl/2.jpg"",""time"":102},{""stimulus"":""img/red_wl/3.jpg"",""time"":152},{""stimulus"":""img/red_wl/4.jpg"",""time"":201},{""stimulus"":""img/red_wl/5.jpg"",""time"":254},{""stimulus"":""img/red_wl/6.jpg"",""time"":301},{""stimulus"":""img/red_wl/7.jpg"",""time"":352},{""stimulus"":""img/red_wl/8.jpg"",""time"":401},{""stimulus"":""img/red_wl/9.jpg"",""time"":451},{""stimulus"":""img/red_wl/10.jpg"",""time"":502},{""stimulus"":""img/red_wl/11.jpg"",""time"":551}]","[]"
"image-keyboard-response","92","97604","0.0-5.0-1.44","5df1133b99b28201e0a1181c","bdp_lott","Sat Mar 25 2023 23:39:11 GMT-0400 (Eastern Daylight Time)","312214","red","green","","151","","","","choice","","img/red_wl/choose11.jpg","1","181","green","0.5","0.5","0.5","w","",""
"animation","93","98205","0.0-5.0-2.44","5df1133b99b28201e0a1181c","bdp_lott","Sat Mar 25 2023 23:39:11 GMT-0400 (Eastern Daylight Time)","312214","red","green","","","","","","","","","","181","","","","","","[{""stimulus"":""img/green_wl/1.jpg"",""time"":51},{""stimulus"":""img/green_wl/2.jpg"",""time"":102},{""stimulus"":""img/green_wl/3.jpg"",""time"":151},{""stimulus"":""img/green_wl/4.jpg"",""time"":201},{""stimulus"":""img/green_wl/5.jpg"",""time"":251},{""stimulus"":""img/green_wl/6.jpg"",""time"":301},{""stimulus"":""img/green_wl/7.jpg"",""time"":351},{""stimulus"":""img/green_wl/8.jpg"",""time"":401},{""stimulus"":""img/green_wl/9.jpg"",""time"":451},{""stimulus"":""img/green_wl/10.jpg"",""time"":501},{""stimulus"":""img/green_wl/11.jpg"",""time"":552}]","[]"
"image-keyboard-response","94","99239","0.0-5.0-1.45","5df1133b99b28201e0a1181c","bdp_lott","Sat Mar 25 2023 23:39:11 GMT-0400 (Eastern Daylight Time)","312214","red","green","","1033","","","","choice","","img/green_wl/choose11.jpg","1","180","green","0.5","0.5","0.5","l","",""
"animation","95","99840","0.0-5.0-2.45","5df1133b99b28201e0a1181c","bdp_lott","Sat Mar 25 2023 23:39:11 GMT-0400 (Eastern Daylight Time)","312214","red","green","","","","","","","","","","180","","","","","","[{""stimulus"":""img/green_ll/1.jpg"",""time"":51},{""stimulus"":""img/green_ll/2.jpg"",""time"":101},{""stimulus"":""img/green_ll/3.jpg"",""time"":151},{""stimulus"":""img/green_ll/4.jpg"",""time"":201},{""stimulus"":""img/green_ll/5.jpg"",""time"":252},{""stimulus"":""img/green_ll/6.jpg"",""time"":301},{""stimulus"":""img/green_ll/7.jpg"",""time"":351},{""stimulus"":""img/green_ll/8.jpg"",""time"":401},{""stimulus"":""img/green_ll/9.jpg"",""time"":451},{""stimulus"":""img/green_ll/10.jpg"",""time"":501},{""stimulus"":""img/green_ll/11.jpg"",""time"":551}]","[]"
"image-keyboard-response","96","101278","0.0-5.0-1.46","5df1133b99b28201e0a1181c","bdp_lott","Sat Mar 25 2023 23:39:11 GMT-0400 (Eastern Daylight Time)","312214","red","green","","1438","","","","choice","","img/green_ll/choose11.jpg","2","179","red","0.5","0.5","0.5","l","",""
"animation","97","101879","0.0-5.0-2.46","5df1133b99b28201e0a1181c","bdp_lott","Sat Mar 25 2023 23:39:11 GMT-0400 (Eastern Daylight Time)","312214","red","green","","","","","","","","","","179","","","","","","[{""stimulus"":""img/red_ll/1.jpg"",""time"":51},{""stimulus"":""img/red_ll/2.jpg"",""time"":101},{""stimulus"":""img/red_ll/3.jpg"",""time"":151},{""stimulus"":""img/red_ll/4.jpg"",""time"":201},{""stimulus"":""img/red_ll/5.jpg"",""time"":251},{""stimulus"":""img/red_ll/6.jpg"",""time"":301},{""stimulus"":""img/red_ll/7.jpg"",""time"":350},{""stimulus"":""img/red_ll/8.jpg"",""time"":402},{""stimulus"":""img/red_ll/9.jpg"",""time"":451},{""stimulus"":""img/red_ll/10.jpg"",""time"":501},{""stimulus"":""img/red_ll/11.jpg"",""time"":550}]","[]"
"image-keyboard-response","98","102187","0.0-5.0-1.47","5df1133b99b28201e0a1181c","bdp_lott","Sat Mar 25 2023 23:39:11 GMT-0400 (Eastern Daylight Time)","312214","red","green","","308","","","","choice","","img/red_ll/choose11.jpg","1","178","green","0.5","0.5","0.5","l","",""
"animation","99","102788","0.0-5.0-2.47","5df1133b99b28201e0a1181c","bdp_lott","Sat Mar 25 2023 23:39:11 GMT-0400 (Eastern Daylight Time)","312214","red","green","","","","","","","","","","178","","","","","","[{""stimulus"":""img/green_ll/1.jpg"",""time"":51},{""stimulus"":""img/green_ll/2.jpg"",""time"":102},{""stimulus"":""img/green_ll/3.jpg"",""time"":151},{""stimulus"":""img/green_ll/4.jpg"",""time"":202},{""stimulus"":""img/green_ll/5.jpg"",""time"":251},{""stimulus"":""img/green_ll/6.jpg"",""time"":301},{""stimulus"":""img/green_ll/7.jpg"",""time"":351},{""stimulus"":""img/green_ll/8.jpg"",""time"":401},{""stimulus"":""img/green_ll/9.jpg"",""time"":451},{""stimulus"":""img/green_ll/10.jpg"",""time"":501},{""stimulus"":""img/green_ll/11.jpg"",""time"":551}]","[]"
"image-keyboard-response","100","103135","0.0-5.0-1.48","5df1133b99b28201e0a1181c","bdp_lott","Sat Mar 25 2023 23:39:11 GMT-0400 (Eastern Daylight Time)","312214","red","green","","347","","","","choice","","img/green_ll/choose11.jpg","1","177","green","0.5","0.5","0.5","w","",""
"animation","101","103735","0.0-5.0-2.48","5df1133b99b28201e0a1181c","bdp_lott","Sat Mar 25 2023 23:39:11 GMT-0400 (Eastern Daylight Time)","312214","red","green","","","","","","","","","","177","","","","","","[{""stimulus"":""img/green_wl/1.jpg"",""time"":50},{""stimulus"":""img/green_wl/2.jpg"",""time"":101},{""stimulus"":""img/green_wl/3.jpg"",""time"":151},{""stimulus"":""img/green_wl/4.jpg"",""time"":201},{""stimulus"":""img/green_wl/5.jpg"",""time"":251},{""stimulus"":""img/green_wl/6.jpg"",""time"":301},{""stimulus"":""img/green_wl/7.jpg"",""time"":351},{""stimulus"":""img/green_wl/8.jpg"",""time"":401},{""stimulus"":""img/green_wl/9.jpg"",""time"":451},{""stimulus"":""img/green_wl/10.jpg"",""time"":501},{""stimulus"":""img/green_wl/11.jpg"",""time"":550}]","[]"
"image-keyboard-response","102","104619","0.0-5.0-1.49","5df1133b99b28201e0a1181c","bdp_lott","Sat Mar 25 2023 23:39:11 GMT-0400 (Eastern Daylight Time)","312214","red","green","","884","","","","choice","","img/green_wl/choose11.jpg","1","176","green","0.5","0.5","0.5","l","",""
"animation","103","105220","0.0-5.0-2.49","5df1133b99b28201e0a1181c","bdp_lott","Sat Mar 25 2023 23:39:11 GMT-0400 (Eastern Daylight Time)","312214","red","green","","","","","","","","","","176","","","","","","[{""stimulus"":""img/green_ll/1.jpg"",""time"":50},{""stimulus"":""img/green_ll/2.jpg"",""time"":100},{""stimulus"":""img/green_ll/3.jpg"",""time"":151},{""stimulus"":""img/green_ll/4.jpg"",""time"":200},{""stimulus"":""img/green_ll/5.jpg"",""time"":250},{""stimulus"":""img/green_ll/6.jpg"",""time"":300},{""stimulus"":""img/green_ll/7.jpg"",""time"":351},{""stimulus"":""img/green_ll/8.jpg"",""time"":400},{""stimulus"":""img/green_ll/9.jpg"",""time"":451},{""stimulus"":""img/green_ll/10.jpg"",""time"":500},{""stimulus"":""img/green_ll/11.jpg"",""time"":550}]","[]"
"image-keyboard-response","104","106004","0.0-5.0-1.50","5df1133b99b28201e0a1181c","bdp_lott","Sat Mar 25 2023 23:39:11 GMT-0400 (Eastern Daylight Time)","312214","red","green","","783","","","","choice","","img/green_ll/choose11.jpg","2","175","red","0.5","0.5","0.5","w","",""
"animation","105","106605","0.0-5.0-2.50","5df1133b99b28201e0a1181c","bdp_lott","Sat Mar 25 2023 23:39:11 GMT-0400 (Eastern Daylight Time)","312214","red","green","","","","","","","","","","175","","","","","","[{""stimulus"":""img/red_lw/1.jpg"",""time"":51},{""stimulus"":""img/red_lw/2.jpg"",""time"":101},{""stimulus"":""img/red_lw/3.jpg"",""time"":152},{""stimulus"":""img/red_lw/4.jpg"",""time"":201},{""stimulus"":""img/red_lw/5.jpg"",""time"":252},{""stimulus"":""img/red_lw/6.jpg"",""time"":302},{""stimulus"":""img/red_lw/7.jpg"",""time"":351},{""stimulus"":""img/red_lw/8.jpg"",""time"":401},{""stimulus"":""img/red_lw/9.jpg"",""time"":452},{""stimulus"":""img/red_lw/10.jpg"",""time"":501},{""stimulus"":""img/red_lw/11.jpg"",""time"":552}]","[]"
"image-keyboard-response","106","108458","0.0-5.0-1.51","5df1133b99b28201e0a1181c","bdp_lott","Sat Mar 25 2023 23:39:11 GMT-0400 (Eastern Daylight Time)","312214","red","green","","1853","","","","choice","","img/red_lw/choose11.jpg","2","174","red","0.5","0.5","0.5","w","",""
"animation","107","109058","0.0-5.0-2.51","5df1133b99b28201e0a1181c","bdp_lott","Sat Mar 25 2023 23:39:11 GMT-0400 (Eastern Daylight Time)","312214","red","green","","","","","","","","","","174","","","","","","[{""stimulus"":""img/red_lw/1.jpg"",""time"":51},{""stimulus"":""img/red_lw/2.jpg"",""time"":101},{""stimulus"":""img/red_lw/3.jpg"",""time"":151},{""stimulus"":""img/red_lw/4.jpg"",""time"":201},{""stimulus"":""img/red_lw/5.jpg"",""time"":251},{""stimulus"":""img/red_lw/6.jpg"",""time"":301},{""stimulus"":""img/red_lw/7.jpg"",""time"":351},{""stimulus"":""img/red_lw/8.jpg"",""time"":401},{""stimulus"":""img/red_lw/9.jpg"",""time"":451},{""stimulus"":""img/red_lw/10.jpg"",""time"":500},{""stimulus"":""img/red_lw/11.jpg"",""time"":551}]","[]"
"image-keyboard-response","108","111673","0.0-5.0-1.52","5df1133b99b28201e0a1181c","bdp_lott","Sat Mar 25 2023 23:39:11 GMT-0400 (Eastern Daylight Time)","312214","red","green","","2614","","","","choice","","img/red_lw/choose11.jpg","2","173","red","0.5","0.5","0.5","l","",""
"animation","109","112274","0.0-5.0-2.52","5df1133b99b28201e0a1181c","bdp_lott","Sat Mar 25 2023 23:39:11 GMT-0400 (Eastern Daylight Time)","312214","red","green","","","","","","","","","","173","","","","","","[{""stimulus"":""img/red_ll/1.jpg"",""time"":52},{""stimulus"":""img/red_ll/2.jpg"",""time"":101},{""stimulus"":""img/red_ll/3.jpg"",""time"":151},{""stimulus"":""img/red_ll/4.jpg"",""time"":202},{""stimulus"":""img/red_ll/5.jpg"",""time"":251},{""stimulus"":""img/red_ll/6.jpg"",""time"":301},{""stimulus"":""img/red_ll/7.jpg"",""time"":352},{""stimulus"":""img/red_ll/8.jpg"",""time"":402},{""stimulus"":""img/red_ll/9.jpg"",""time"":452},{""stimulus"":""img/red_ll/10.jpg"",""time"":500},{""stimulus"":""img/red_ll/11.jpg"",""time"":550}]","[]"
"image-keyboard-response","110","112903","0.0-5.0-1.53","5df1133b99b28201e0a1181c","bdp_lott","Sat Mar 25 2023 23:39:11 GMT-0400 (Eastern Daylight Time)","312214","red","green","","629","","","","choice","","img/red_ll/choose11.jpg","1","172","green","0.5","0.5","0.5","l","",""
"animation","111","113505","0.0-5.0-2.53","5df1133b99b28201e0a1181c","bdp_lott","Sat Mar 25 2023 23:39:11 GMT-0400 (Eastern Daylight Time)","312214","red","green","","","","","","","","","","172","","","","","","[{""stimulus"":""img/green_ll/1.jpg"",""time"":50},{""stimulus"":""img/green_ll/2.jpg"",""time"":101},{""stimulus"":""img/green_ll/3.jpg"",""time"":151},{""stimulus"":""img/green_ll/4.jpg"",""time"":200},{""stimulus"":""img/green_ll/5.jpg"",""time"":250},{""stimulus"":""img/green_ll/6.jpg"",""time"":301},{""stimulus"":""img/green_ll/7.jpg"",""time"":351},{""stimulus"":""img/green_ll/8.jpg"",""time"":401},{""stimulus"":""img/green_ll/9.jpg"",""time"":452},{""stimulus"":""img/green_ll/10.jpg"",""time"":501},{""stimulus"":""img/green_ll/11.jpg"",""time"":551}]","[]"
"image-keyboard-response","112","113978","0.0-5.0-1.54","5df1133b99b28201e0a1181c","bdp_lott","Sat Mar 25 2023 23:39:11 GMT-0400 (Eastern Daylight Time)","312214","red","green","","473","","","","choice","","img/green_ll/choose11.jpg","1","171","green","0.5","0.5","0.5","w","",""
"animation","113","114579","0.0-5.0-2.54","5df1133b99b28201e0a1181c","bdp_lott","Sat Mar 25 2023 23:39:11 GMT-0400 (Eastern Daylight Time)","312214","red","green","","","","","","","","","","171","","","","","","[{""stimulus"":""img/green_wl/1.jpg"",""time"":51},{""stimulus"":""img/green_wl/2.jpg"",""time"":101},{""stimulus"":""img/green_wl/3.jpg"",""time"":151},{""stimulus"":""img/green_wl/4.jpg"",""time"":202},{""stimulus"":""img/green_wl/5.jpg"",""time"":251},{""stimulus"":""img/green_wl/6.jpg"",""time"":301},{""stimulus"":""img/green_wl/7.jpg"",""time"":351},{""stimulus"":""img/green_wl/8.jpg"",""time"":401},{""stimulus"":""img/green_wl/9.jpg"",""time"":451},{""stimulus"":""img/green_wl/10.jpg"",""time"":501},{""stimulus"":""img/green_wl/11.jpg"",""time"":551}]","[]"
"image-keyboard-response","114","115067","0.0-5.0-1.55","5df1133b99b28201e0a1181c","bdp_lott","Sat Mar 25 2023 23:39:11 GMT-0400 (Eastern Daylight Time)","312214","red","green","","488","","","","choice","","img/green_wl/choose11.jpg","2","170","red","0.5","0.5","0.5","w","",""
"animation","115","115667","0.0-5.0-2.55","5df1133b99b28201e0a1181c","bdp_lott","Sat Mar 25 2023 23:39:11 GMT-0400 (Eastern Daylight Time)","312214","red","green","","","","","","","","","","170","","","","","","[{""stimulus"":""img/red_ww/1.jpg"",""time"":51},{""stimulus"":""img/red_ww/2.jpg"",""time"":100},{""stimulus"":""img/red_ww/3.jpg"",""time"":151},{""stimulus"":""img/red_ww/4.jpg"",""time"":201},{""stimulus"":""img/red_ww/5.jpg"",""time"":259},{""stimulus"":""img/red_ww/6.jpg"",""time"":301},{""stimulus"":""img/red_ww/7.jpg"",""time"":351},{""stimulus"":""img/red_ww/8.jpg"",""time"":401},{""stimulus"":""img/red_ww/9.jpg"",""time"":451},{""stimulus"":""img/red_ww/10.jpg"",""time"":500},{""stimulus"":""img/red_ww/11.jpg"",""time"":551}]","[]"
"image-keyboard-response","116","117409","0.0-5.0-1.56","5df1133b99b28201e0a1181c","bdp_lott","Sat Mar 25 2023 23:39:11 GMT-0400 (Eastern Daylight Time)","312214","red","green","","1741","","","","choice","","img/red_ww/choose11.jpg","2","169","red","0.5","0.5","0.5","l","",""
"animation","117","118011","0.0-5.0-2.56","5df1133b99b28201e0a1181c","bdp_lott","Sat Mar 25 2023 23:39:11 GMT-0400 (Eastern Daylight Time)","312214","red","green","","","","","","","","","","169","","","","","","[{""stimulus"":""img/red_wl/1.jpg"",""time"":52},{""stimulus"":""img/red_wl/2.jpg"",""time"":102},{""stimulus"":""img/red_wl/3.jpg"",""time"":151},{""stimulus"":""img/red_wl/4.jpg"",""time"":201},{""stimulus"":""img/red_wl/5.jpg"",""time"":252},{""stimulus"":""img/red_wl/6.jpg"",""time"":302},{""stimulus"":""img/red_wl/7.jpg"",""time"":351},{""stimulus"":""img/red_wl/8.jpg"",""time"":402},{""stimulus"":""img/red_wl/9.jpg"",""time"":451},{""stimulus"":""img/red_wl/10.jpg"",""time"":502},{""stimulus"":""img/red_wl/11.jpg"",""time"":552}]","[]"
"image-keyboard-response","118","118608","0.0-5.0-1.57","5df1133b99b28201e0a1181c","bdp_lott","Sat Mar 25 2023 23:39:11 GMT-0400 (Eastern Daylight Time)","312214","red","green","","597","","","","choice","","img/red_wl/choose11.jpg","1","168","green","0.5","0.5","0.5","w","",""
"animation","119","119210","0.0-5.0-2.57","5df1133b99b28201e0a1181c","bdp_lott","Sat Mar 25 2023 23:39:11 GMT-0400 (Eastern Daylight Time)","312214","red","green","","","","","","","","","","168","","","","","","[{""stimulus"":""img/green_wl/1.jpg"",""time"":51},{""stimulus"":""img/green_wl/2.jpg"",""time"":101},{""stimulus"":""img/green_wl/3.jpg"",""time"":152},{""stimulus"":""img/green_wl/4.jpg"",""time"":202},{""stimulus"":""img/green_wl/5.jpg"",""time"":251},{""stimulus"":""img/green_wl/6.jpg"",""time"":301},{""stimulus"":""img/green_wl/7.jpg"",""time"":351},{""stimulus"":""img/green_wl/8.jpg"",""time"":401},{""stimulus"":""img/green_wl/9.jpg"",""time"":451},{""stimulus"":""img/green_wl/10.jpg"",""time"":502},{""stimulus"":""img/green_wl/11.jpg"",""time"":551}]","[]"
"image-keyboard-response","120","120219","0.0-5.0-1.58","5df1133b99b28201e0a1181c","bdp_lott","Sat Mar 25 2023 23:39:11 GMT-0400 (Eastern Daylight Time)","312214","red","green","","1008","","","","choice","","img/green_wl/choose11.jpg","1","167","green","0.5","0.5","0.5","w","",""
"animation","121","120819","0.0-5.0-2.58","5df1133b99b28201e0a1181c","bdp_lott","Sat Mar 25 2023 23:39:11 GMT-0400 (Eastern Daylight Time)","312214","red","green","","","","","","","","","","167","","","","","","[{""stimulus"":""img/green_wl/1.jpg"",""time"":50},{""stimulus"":""img/green_wl/2.jpg"",""time"":101},{""stimulus"":""img/green_wl/3.jpg"",""time"":151},{""stimulus"":""img/green_wl/4.jpg"",""time"":201},{""stimulus"":""img/green_wl/5.jpg"",""time"":251},{""stimulus"":""img/green_wl/6.jpg"",""time"":301},{""stimulus"":""img/green_wl/7.jpg"",""time"":351},{""stimulus"":""img/green_wl/8.jpg"",""time"":401},{""stimulus"":""img/green_wl/9.jpg"",""time"":450},{""stimulus"":""img/green_wl/10.jpg"",""time"":501},{""stimulus"":""img/green_wl/11.jpg"",""time"":550}]","[]"
"image-keyboard-response","122","121768","0.0-5.0-1.59","5df1133b99b28201e0a1181c","bdp_lott","Sat Mar 25 2023 23:39:11 GMT-0400 (Eastern Daylight Time)","312214","red","green","","948","","","","choice","","img/green_wl/choose11.jpg","1","166","green","0.5","0.5","0.5","w","",""
"animation","123","122370","0.0-5.0-2.59","5df1133b99b28201e0a1181c","bdp_lott","Sat Mar 25 2023 23:39:11 GMT-0400 (Eastern Daylight Time)","312214","red","green","","","","","","","","","","166","","","","","","[{""stimulus"":""img/green_wl/1.jpg"",""time"":52},{""stimulus"":""img/green_wl/2.jpg"",""time"":101},{""stimulus"":""img/green_wl/3.jpg"",""time"":152},{""stimulus"":""img/green_wl/4.jpg"",""time"":202},{""stimulus"":""img/green_wl/5.jpg"",""time"":251},{""stimulus"":""img/green_wl/6.jpg"",""time"":301},{""stimulus"":""img/green_wl/7.jpg"",""time"":352},{""stimulus"":""img/green_wl/8.jpg"",""time"":401},{""stimulus"":""img/green_wl/9.jpg"",""time"":452},{""stimulus"":""img/green_wl/10.jpg"",""time"":502},{""stimulus"":""img/green_wl/11.jpg"",""time"":552}]","[]"
"image-keyboard-response","124","123050","0.0-5.0-1.60","5df1133b99b28201e0a1181c","bdp_lott","Sat Mar 25 2023 23:39:11 GMT-0400 (Eastern Daylight Time)","312214","red","green","","680","","","","choice","","img/green_wl/choose11.jpg","1","165","green","0.5","0.5","0.5","w","",""
"animation","125","123651","0.0-5.0-2.60","5df1133b99b28201e0a1181c","bdp_lott","Sat Mar 25 2023 23:39:11 GMT-0400 (Eastern Daylight Time)","312214","red","green","","","","","","","","","","165","","","","","","[{""stimulus"":""img/green_wl/1.jpg"",""time"":51},{""stimulus"":""img/green_wl/2.jpg"",""time"":102},{""stimulus"":""img/green_wl/3.jpg"",""time"":152},{""stimulus"":""img/green_wl/4.jpg"",""time"":201},{""stimulus"":""img/green_wl/5.jpg"",""time"":251},{""stimulus"":""img/green_wl/6.jpg"",""time"":301},{""stimulus"":""img/green_wl/7.jpg"",""time"":352},{""stimulus"":""img/green_wl/8.jpg"",""time"":401},{""stimulus"":""img/green_wl/9.jpg"",""time"":452},{""stimulus"":""img/green_wl/10.jpg"",""time"":502},{""stimulus"":""img/green_wl/11.jpg"",""time"":551}]","[]"
"image-keyboard-response","126","124527","0.0-5.0-1.61","5df1133b99b28201e0a1181c","bdp_lott","Sat Mar 25 2023 23:39:11 GMT-0400 (Eastern Daylight Time)","312214","red","green","","875","","","","choice","","img/green_wl/choose11.jpg","1","164","green","0.5","0.5","0.5","l","",""
"animation","127","125128","0.0-5.0-2.61","5df1133b99b28201e0a1181c","bdp_lott","Sat Mar 25 2023 23:39:11 GMT-0400 (Eastern Daylight Time)","312214","red","green","","","","","","","","","","164","","","","","","[{""stimulus"":""img/green_ll/1.jpg"",""time"":51},{""stimulus"":""img/green_ll/2.jpg"",""time"":101},{""stimulus"":""img/green_ll/3.jpg"",""time"":151},{""stimulus"":""img/green_ll/4.jpg"",""time"":202},{""stimulus"":""img/green_ll/5.jpg"",""time"":251},{""stimulus"":""img/green_ll/6.jpg"",""time"":301},{""stimulus"":""img/green_ll/7.jpg"",""time"":351},{""stimulus"":""img/green_ll/8.jpg"",""time"":400},{""stimulus"":""img/green_ll/9.jpg"",""time"":451},{""stimulus"":""img/green_ll/10.jpg"",""time"":501},{""stimulus"":""img/green_ll/11.jpg"",""time"":551}]","[]"
"image-keyboard-response","128","126053","0.0-5.0-1.62","5df1133b99b28201e0a1181c","bdp_lott","Sat Mar 25 2023 23:39:11 GMT-0400 (Eastern Daylight Time)","312214","red","green","","925","","","","choice","","img/green_ll/choose11.jpg","2","163","red","0.5","0.5","0.5","l","",""
"animation","129","126655","0.0-5.0-2.62","5df1133b99b28201e0a1181c","bdp_lott","Sat Mar 25 2023 23:39:11 GMT-0400 (Eastern Daylight Time)","312214","red","green","","","","","","","","","","163","","","","","","[{""stimulus"":""img/red_ll/1.jpg"",""time"":50},{""stimulus"":""img/red_ll/2.jpg"",""time"":101},{""stimulus"":""img/red_ll/3.jpg"",""time"":151},{""stimulus"":""img/red_ll/4.jpg"",""time"":201},{""stimulus"":""img/red_ll/5.jpg"",""time"":252},{""stimulus"":""img/red_ll/6.jpg"",""time"":302},{""stimulus"":""img/red_ll/7.jpg"",""time"":351},{""stimulus"":""img/red_ll/8.jpg"",""time"":402},{""stimulus"":""img/red_ll/9.jpg"",""time"":452},{""stimulus"":""img/red_ll/10.jpg"",""time"":501},{""stimulus"":""img/red_ll/11.jpg"",""time"":551}]","[]"
"image-keyboard-response","130","127071","0.0-5.0-1.63","5df1133b99b28201e0a1181c","bdp_lott","Sat Mar 25 2023 23:39:11 GMT-0400 (Eastern Daylight Time)","312214","red","green","","415","","","","choice","","img/red_ll/choose11.jpg","1","162","green","0.5","0.5","0.5","w","",""
"animation","131","127671","0.0-5.0-2.63","5df1133b99b28201e0a1181c","bdp_lott","Sat Mar 25 2023 23:39:11 GMT-0400 (Eastern Daylight Time)","312214","red","green","","","","","","","","","","162","","","","","","[{""stimulus"":""img/green_wl/1.jpg"",""time"":51},{""stimulus"":""img/green_wl/2.jpg"",""time"":101},{""stimulus"":""img/green_wl/3.jpg"",""time"":151},{""stimulus"":""img/green_wl/4.jpg"",""time"":201},{""stimulus"":""img/green_wl/5.jpg"",""time"":251},{""stimulus"":""img/green_wl/6.jpg"",""time"":301},{""stimulus"":""img/green_wl/7.jpg"",""time"":351},{""stimulus"":""img/green_wl/8.jpg"",""time"":401},{""stimulus"":""img/green_wl/9.jpg"",""time"":451},{""stimulus"":""img/green_wl/10.jpg"",""time"":501},{""stimulus"":""img/green_wl/11.jpg"",""time"":551}]","[]"
"image-keyboard-response","132","128682","0.0-5.0-1.64","5df1133b99b28201e0a1181c","bdp_lott","Sat Mar 25 2023 23:39:11 GMT-0400 (Eastern Daylight Time)","312214","red","green","","1011","","","","choice","","img/green_wl/choose11.jpg","1","161","green","0.5","0.5","0.5","w","",""
"animation","133","129284","0.0-5.0-2.64","5df1133b99b28201e0a1181c","bdp_lott","Sat Mar 25 2023 23:39:11 GMT-0400 (Eastern Daylight Time)","312214","red","green","","","","","","","","","","161","","","","","","[{""stimulus"":""img/green_wl/1.jpg"",""time"":51},{""stimulus"":""img/green_wl/2.jpg"",""time"":101},{""stimulus"":""img/green_wl/3.jpg"",""time"":150},{""stimulus"":""img/green_wl/4.jpg"",""time"":200},{""stimulus"":""img/green_wl/5.jpg"",""time"":250},{""stimulus"":""img/green_wl/6.jpg"",""time"":301},{""stimulus"":""img/green_wl/7.jpg"",""time"":351},{""stimulus"":""img/green_wl/8.jpg"",""time"":401},{""stimulus"":""img/green_wl/9.jpg"",""time"":452},{""stimulus"":""img/green_wl/10.jpg"",""time"":500},{""stimulus"":""img/green_wl/11.jpg"",""time"":552}]","[]"
"image-keyboard-response","134","129739","0.0-5.0-1.65","5df1133b99b28201e0a1181c","bdp_lott","Sat Mar 25 2023 23:39:11 GMT-0400 (Eastern Daylight Time)","312214","red","green","","455","","","","choice","","img/green_wl/choose11.jpg","1","160","green","0.5","0.5","0.5","l","",""
"animation","135","130341","0.0-5.0-2.65","5df1133b99b28201e0a1181c","bdp_lott","Sat Mar 25 2023 23:39:11 GMT-0400 (Eastern Daylight Time)","312214","red","green","","","","","","","","","","160","","","","","","[{""stimulus"":""img/green_ll/1.jpg"",""time"":52},{""stimulus"":""img/green_ll/2.jpg"",""time"":101},{""stimulus"":""img/green_ll/3.jpg"",""time"":151},{""stimulus"":""img/green_ll/4.jpg"",""time"":202},{""stimulus"":""img/green_ll/5.jpg"",""time"":251},{""stimulus"":""img/green_ll/6.jpg"",""time"":301},{""stimulus"":""img/green_ll/7.jpg"",""time"":351},{""stimulus"":""img/green_ll/8.jpg"",""time"":401},{""stimulus"":""img/green_ll/9.jpg"",""time"":451},{""stimulus"":""img/green_ll/10.jpg"",""time"":501},{""stimulus"":""img/green_ll/11.jpg"",""time"":551}]","[]"
"image-keyboard-response","136","131106","0.0-5.0-1.66","5df1133b99b28201e0a1181c","bdp_lott","Sat Mar 25 2023 23:39:11 GMT-0400 (Eastern Daylight Time)","312214","red","green","","765","","","","choice","","img/green_ll/choose11.jpg","2","159","red","0.5","0.5","0.5","l","",""
"animation","137","131707","0.0-5.0-2.66","5df1133b99b28201e0a1181c","bdp_lott","Sat Mar 25 2023 23:39:11 GMT-0400 (Eastern Daylight Time)","312214","red","green","","","","","","","","","","159","","","","","","[{""stimulus"":""img/red_ll/1.jpg"",""time"":51},{""stimulus"":""img/red_ll/2.jpg"",""time"":101},{""stimulus"":""img/red_ll/3.jpg"",""time"":152},{""stimulus"":""img/red_ll/4.jpg"",""time"":202},{""stimulus"":""img/red_ll/5.jpg"",""time"":251},{""stimulus"":""img/red_ll/6.jpg"",""time"":302},{""stimulus"":""img/red_ll/7.jpg"",""time"":351},{""stimulus"":""img/red_ll/8.jpg"",""time"":401},{""stimulus"":""img/red_ll/9.jpg"",""time"":451},{""stimulus"":""img/red_ll/10.jpg"",""time"":501},{""stimulus"":""img/red_ll/11.jpg"",""time"":551}]","[]"
"image-keyboard-response","138","132032","0.0-5.0-1.67","5df1133b99b28201e0a1181c","bdp_lott","Sat Mar 25 2023 23:39:11 GMT-0400 (Eastern Daylight Time)","312214","red","green","","324","","","","choice","","img/red_ll/choose11.jpg","2","158","red","0.5","0.5","0.5","w","",""
"animation","139","132633","0.0-5.0-2.67","5df1133b99b28201e0a1181c","bdp_lott","Sat Mar 25 2023 23:39:11 GMT-0400 (Eastern Daylight Time)","312214","red","green","","","","","","","","","","158","","","","","","[{""stimulus"":""img/red_lw/1.jpg"",""time"":51},{""stimulus"":""img/red_lw/2.jpg"",""time"":101},{""stimulus"":""img/red_lw/3.jpg"",""time"":151},{""stimulus"":""img/red_lw/4.jpg"",""time"":202},{""stimulus"":""img/red_lw/5.jpg"",""time"":252},{""stimulus"":""img/red_lw/6.jpg"",""time"":302},{""stimulus"":""img/red_lw/7.jpg"",""time"":353},{""stimulus"":""img/red_lw/8.jpg"",""time"":401},{""stimulus"":""img/red_lw/9.jpg"",""time"":451},{""stimulus"":""img/red_lw/10.jpg"",""time"":501},{""stimulus"":""img/red_lw/11.jpg"",""time"":551}]","[]"
"image-keyboard-response","140","133233","0.0-5.0-1.68","5df1133b99b28201e0a1181c","bdp_lott","Sat Mar 25 2023 23:39:11 GMT-0400 (Eastern Daylight Time)","312214","red","green","","600","","","","choice","","img/red_lw/choose11.jpg","1","157","green","0.5","0.5","0.5","w","",""
"animation","141","133834","0.0-5.0-2.68","5df1133b99b28201e0a1181c","bdp_lott","Sat Mar 25 2023 23:39:11 GMT-0400 (Eastern Daylight Time)","312214","red","green","","","","","","","","","","157","","","","","","[{""stimulus"":""img/green_ww/1.jpg"",""time"":51},{""stimulus"":""img/green_ww/2.jpg"",""time"":102},{""stimulus"":""img/green_ww/3.jpg"",""time"":151},{""stimulus"":""img/green_ww/4.jpg"",""time"":201},{""stimulus"":""img/green_ww/5.jpg"",""time"":261},{""stimulus"":""img/green_ww/6.jpg"",""time"":301},{""stimulus"":""img/green_ww/7.jpg"",""time"":352},{""stimulus"":""img/green_ww/8.jpg"",""time"":400},{""stimulus"":""img/green_ww/9.jpg"",""time"":451},{""stimulus"":""img/green_ww/10.jpg"",""time"":501},{""stimulus"":""img/green_ww/11.jpg"",""time"":550}]","[]"
"image-keyboard-response","142","134493","0.0-5.0-1.69","5df1133b99b28201e0a1181c","bdp_lott","Sat Mar 25 2023 23:39:11 GMT-0400 (Eastern Daylight Time)","312214","red","green","","658","","","","choice","","img/green_ww/choose11.jpg","1","156","green","0.5","0.5","0.5","w","",""
"animation","143","135094","0.0-5.0-2.69","5df1133b99b28201e0a1181c","bdp_lott","Sat Mar 25 2023 23:39:11 GMT-0400 (Eastern Daylight Time)","312214","red","green","","","","","","","","","","156","","","","","","[{""stimulus"":""img/green_ww/1.jpg"",""time"":51},{""stimulus"":""img/green_ww/2.jpg"",""time"":101},{""stimulus"":""img/green_ww/3.jpg"",""time"":151},{""stimulus"":""img/green_ww/4.jpg"",""time"":200},{""stimulus"":""img/green_ww/5.jpg"",""time"":250},{""stimulus"":""img/green_ww/6.jpg"",""time"":301},{""stimulus"":""img/green_ww/7.jpg"",""time"":351},{""stimulus"":""img/green_ww/8.jpg"",""time"":401},{""stimulus"":""img/green_ww/9.jpg"",""time"":451},{""stimulus"":""img/green_ww/10.jpg"",""time"":500},{""stimulus"":""img/green_ww/11.jpg"",""time"":551}]","[]"
"image-keyboard-response","144","135619","0.0-5.0-1.70","5df1133b99b28201e0a1181c","bdp_lott","Sat Mar 25 2023 23:39:11 GMT-0400 (Eastern Daylight Time)","312214","red","green","","525","","","","choice","","img/green_ww/choose11.jpg","1","155","green","0.5","0.5","0.5","l","",""
"animation","145","136220","0.0-5.0-2.70","5df1133b99b28201e0a1181c","bdp_lott","Sat Mar 25 2023 23:39:11 GMT-0400 (Eastern Daylight Time)","312214","red","green","","","","","","","","","","155","","","","","","[{""stimulus"":""img/green_lw/1.jpg"",""time"":51},{""stimulus"":""img/green_lw/2.jpg"",""time"":102},{""stimulus"":""img/green_lw/3.jpg"",""time"":151},{""stimulus"":""img/green_lw/4.jpg"",""time"":201},{""stimulus"":""img/green_lw/5.jpg"",""time"":251},{""stimulus"":""img/green_lw/6.jpg"",""time"":300},{""stimulus"":""img/green_lw/7.jpg"",""time"":352},{""stimulus"":""img/green_lw/8.jpg"",""time"":400},{""stimulus"":""img/green_lw/9.jpg"",""time"":451},{""stimulus"":""img/green_lw/10.jpg"",""time"":501},{""stimulus"":""img/green_lw/11.jpg"",""time"":551}]","[]"
"image-keyboard-response","146","136778","0.0-5.0-1.71","5df1133b99b28201e0a1181c","bdp_lott","Sat Mar 25 2023 23:39:11 GMT-0400 (Eastern Daylight Time)","312214","red","green","","557","","","","choice","","img/green_lw/choose11.jpg","2","154","red","0.5","0.5","0.5","w","",""
"animation","147","137379","0.0-5.0-2.71","5df1133b99b28201e0a1181c","bdp_lott","Sat Mar 25 2023 23:39:11 GMT-0400 (Eastern Daylight Time)","312214","red","green","","","","","","","","","","154","","","","","","[{""stimulus"":""img/red_lw/1.jpg"",""time"":51},{""stimulus"":""img/red_lw/2.jpg"",""time"":100},{""stimulus"":""img/red_lw/3.jpg"",""time"":151},{""stimulus"":""img/red_lw/4.jpg"",""time"":200},{""stimulus"":""img/red_lw/5.jpg"",""time"":251},{""stimulus"":""img/red_lw/6.jpg"",""time"":301},{""stimulus"":""img/red_lw/7.jpg"",""time"":351},{""stimulus"":""img/red_lw/8.jpg"",""time"":400},{""stimulus"":""img/red_lw/9.jpg"",""time"":452},{""stimulus"":""img/red_lw/10.jpg"",""time"":501},{""stimulus"":""img/red_lw/11.jpg"",""time"":551}]","[]"
"image-keyboard-response","148","138058","0.0-5.0-1.72","5df1133b99b28201e0a1181c","bdp_lott","Sat Mar 25 2023 23:39:11 GMT-0400 (Eastern Daylight Time)","312214","red","green","","679","","","","choice","","img/red_lw/choose11.jpg","2","153","red","0.5","0.5","0.5","w","",""
"animation","149","138659","0.0-5.0-2.72","5df1133b99b28201e0a1181c","bdp_lott","Sat Mar 25 2023 23:39:11 GMT-0400 (Eastern Daylight Time)","312214","red","green","","","","","","","","","","153","","","","","","[{""stimulus"":""img/red_lw/1.jpg"",""time"":51},{""stimulus"":""img/red_lw/2.jpg"",""time"":101},{""stimulus"":""img/red_lw/3.jpg"",""time"":151},{""stimulus"":""img/red_lw/4.jpg"",""time"":201},{""stimulus"":""img/red_lw/5.jpg"",""time"":251},{""stimulus"":""img/red_lw/6.jpg"",""time"":301},{""stimulus"":""img/red_lw/7.jpg"",""time"":352},{""stimulus"":""img/red_lw/8.jpg"",""time"":401},{""stimulus"":""img/red_lw/9.jpg"",""time"":451},{""stimulus"":""img/red_lw/10.jpg"",""time"":501},{""stimulus"":""img/red_lw/11.jpg"",""time"":551}]","[]"
"image-keyboard-response","150","139166","0.0-5.0-1.73","5df1133b99b28201e0a1181c","bdp_lott","Sat Mar 25 2023 23:39:11 GMT-0400 (Eastern Daylight Time)","312214","red","green","","506","","","","choice","","img/red_lw/choose11.jpg","2","152","red","0.5","0.5","0.5","w","",""
"animation","151","139766","0.0-5.0-2.73","5df1133b99b28201e0a1181c","bdp_lott","Sat Mar 25 2023 23:39:11 GMT-0400 (Eastern Daylight Time)","312214","red","green","","","","","","","","","","152","","","","","","[{""stimulus"":""img/red_lw/1.jpg"",""time"":51},{""stimulus"":""img/red_lw/2.jpg"",""time"":101},{""stimulus"":""img/red_lw/3.jpg"",""time"":151},{""stimulus"":""img/red_lw/4.jpg"",""time"":201},{""stimulus"":""img/red_lw/5.jpg"",""time"":251},{""stimulus"":""img/red_lw/6.jpg"",""time"":301},{""stimulus"":""img/red_lw/7.jpg"",""time"":351},{""stimulus"":""img/red_lw/8.jpg"",""time"":401},{""stimulus"":""img/red_lw/9.jpg"",""time"":452},{""stimulus"":""img/red_lw/10.jpg"",""time"":501},{""stimulus"":""img/red_lw/11.jpg"",""time"":551}]","[]"
"image-keyboard-response","152","140216","0.0-5.0-1.74","5df1133b99b28201e0a1181c","bdp_lott","Sat Mar 25 2023 23:39:11 GMT-0400 (Eastern Daylight Time)","312214","red","green","","449","","","","choice","","img/red_lw/choose11.jpg","2","151","red","0.5","0.5","0.5","l","",""
"animation","153","140817","0.0-5.0-2.74","5df1133b99b28201e0a1181c","bdp_lott","Sat Mar 25 2023 23:39:11 GMT-0400 (Eastern Daylight Time)","312214","red","green","","","","","","","","","","151","","","","","","[{""stimulus"":""img/red_ll/1.jpg"",""time"":52},{""stimulus"":""img/red_ll/2.jpg"",""time"":102},{""stimulus"":""img/red_ll/3.jpg"",""time"":152},{""stimulus"":""img/red_ll/4.jpg"",""time"":201},{""stimulus"":""img/red_ll/5.jpg"",""time"":252},{""stimulus"":""img/red_ll/6.jpg"",""time"":301},{""stimulus"":""img/red_ll/7.jpg"",""time"":351},{""stimulus"":""img/red_ll/8.jpg"",""time"":402},{""stimulus"":""img/red_ll/9.jpg"",""time"":451},{""stimulus"":""img/red_ll/10.jpg"",""time"":501},{""stimulus"":""img/red_ll/11.jpg"",""time"":551}]","[]"
"image-keyboard-response","154","141588","0.0-5.0-1.75","5df1133b99b28201e0a1181c","bdp_lott","Sat Mar 25 2023 23:39:11 GMT-0400 (Eastern Daylight Time)","312214","red","green","","770","","","","choice","","img/red_ll/choose11.jpg","1","150","green","0.5","0.5","0.5","w","",""
"animation","155","142189","0.0-5.0-2.75","5df1133b99b28201e0a1181c","bdp_lott","Sat Mar 25 2023 23:39:11 GMT-0400 (Eastern Daylight Time)","312214","red","green","","","","","","","","","","150","","","","","","[{""stimulus"":""img/green_wl/1.jpg"",""time"":51},{""stimulus"":""img/green_wl/2.jpg"",""time"":101},{""stimulus"":""img/green_wl/3.jpg"",""time"":151},{""stimulus"":""img/green_wl/4.jpg"",""time"":201},{""stimulus"":""img/green_wl/5.jpg"",""time"":252},{""stimulus"":""img/green_wl/6.jpg"",""time"":301},{""stimulus"":""img/green_wl/7.jpg"",""time"":351},{""stimulus"":""img/green_wl/8.jpg"",""time"":402},{""stimulus"":""img/green_wl/9.jpg"",""time"":451},{""stimulus"":""img/green_wl/10.jpg"",""time"":501},{""stimulus"":""img/green_wl/11.jpg"",""time"":552}]","[]"
"image-keyboard-response","156","143141","0.0-5.0-1.76","5df1133b99b28201e0a1181c","bdp_lott","Sat Mar 25 2023 23:39:11 GMT-0400 (Eastern Daylight Time)","312214","red","green","","952","","","","choice","","img/green_wl/choose11.jpg","2","149","red","0.5","0.1","0.5","l","",""
"animation","157","143741","0.0-5.0-2.76","5df1133b99b28201e0a1181c","bdp_lott","Sat Mar 25 2023 23:39:11 GMT-0400 (Eastern Daylight Time)","312214","red","green","","","","","","","","","","149","","","","","","[{""stimulus"":""img/red_wl/1.jpg"",""time"":50},{""stimulus"":""img/red_wl/2.jpg"",""time"":100},{""stimulus"":""img/red_wl/3.jpg"",""time"":151},{""stimulus"":""img/red_wl/4.jpg"",""time"":200},{""stimulus"":""img/red_wl/5.jpg"",""time"":251},{""stimulus"":""img/red_wl/6.jpg"",""time"":300},{""stimulus"":""img/red_wl/7.jpg"",""time"":351},{""stimulus"":""img/red_wl/8.jpg"",""time"":401},{""stimulus"":""img/red_wl/9.jpg"",""time"":451},{""stimulus"":""img/red_wl/10.jpg"",""time"":501},{""stimulus"":""img/red_wl/11.jpg"",""time"":551}]","[]"
"image-keyboard-response","158","144167","0.0-5.0-1.77","5df1133b99b28201e0a1181c","bdp_lott","Sat Mar 25 2023 23:39:11 GMT-0400 (Eastern Daylight Time)","312214","red","green","","425","","","","choice","","img/red_wl/choose11.jpg","1","148","green","0.5","0.1","0.1","l","",""
"animation","159","144768","0.0-5.0-2.77","5df1133b99b28201e0a1181c","bdp_lott","Sat Mar 25 2023 23:39:11 GMT-0400 (Eastern Daylight Time)","312214","red","green","","","","","","","","","","148","","","","","","[{""stimulus"":""img/green_ll/1.jpg"",""time"":50},{""stimulus"":""img/green_ll/2.jpg"",""time"":101},{""stimulus"":""img/green_ll/3.jpg"",""time"":151},{""stimulus"":""img/green_ll/4.jpg"",""time"":201},{""stimulus"":""img/green_ll/5.jpg"",""time"":250},{""stimulus"":""img/green_ll/6.jpg"",""time"":301},{""stimulus"":""img/green_ll/7.jpg"",""time"":351},{""stimulus"":""img/green_ll/8.jpg"",""time"":401},{""stimulus"":""img/green_ll/9.jpg"",""time"":451},{""stimulus"":""img/green_ll/10.jpg"",""time"":501},{""stimulus"":""img/green_ll/11.jpg"",""time"":551}]","[]"
"image-keyboard-response","160","145464","0.0-5.0-1.78","5df1133b99b28201e0a1181c","bdp_lott","Sat Mar 25 2023 23:39:11 GMT-0400 (Eastern Daylight Time)","312214","red","green","","695","","","","choice","","img/green_ll/choose11.jpg","2","147","red","0.5","0.1","0.5","w","",""
"animation","161","146065","0.0-5.0-2.78","5df1133b99b28201e0a1181c","bdp_lott","Sat Mar 25 2023 23:39:11 GMT-0400 (Eastern Daylight Time)","312214","red","green","","","","","","","","","","147","","","","","","[{""stimulus"":""img/red_lw/1.jpg"",""time"":52},{""stimulus"":""img/red_lw/2.jpg"",""time"":101},{""stimulus"":""img/red_lw/3.jpg"",""time"":151},{""stimulus"":""img/red_lw/4.jpg"",""time"":201},{""stimulus"":""img/red_lw/5.jpg"",""time"":251},{""stimulus"":""img/red_lw/6.jpg"",""time"":301},{""stimulus"":""img/red_lw/7.jpg"",""time"":351},{""stimulus"":""img/red_lw/8.jpg"",""time"":402},{""stimulus"":""img/red_lw/9.jpg"",""time"":451},{""stimulus"":""img/red_lw/10.jpg"",""time"":501},{""stimulus"":""img/red_lw/11.jpg"",""time"":552}]","[]"
"image-keyboard-response","162","146649","0.0-5.0-1.79","5df1133b99b28201e0a1181c","bdp_lott","Sat Mar 25 2023 23:39:11 GMT-0400 (Eastern Daylight Time)","312214","red","green","","584","","","","choice","","img/red_lw/choose11.jpg","1","146","green","0.5","0.1","0.1","l","",""
"animation","163","147250","0.0-5.0-2.79","5df1133b99b28201e0a1181c","bdp_lott","Sat Mar 25 2023 23:39:11 GMT-0400 (Eastern Daylight Time)","312214","red","green","","","","","","","","","","146","","","","","","[{""stimulus"":""img/green_lw/1.jpg"",""time"":51},{""stimulus"":""img/green_lw/2.jpg"",""time"":101},{""stimulus"":""img/green_lw/3.jpg"",""time"":151},{""stimulus"":""img/green_lw/4.jpg"",""time"":201},{""stimulus"":""img/green_lw/5.jpg"",""time"":252},{""stimulus"":""img/green_lw/6.jpg"",""time"":302},{""stimulus"":""img/green_lw/7.jpg"",""time"":351},{""stimulus"":""img/green_lw/8.jpg"",""time"":401},{""stimulus"":""img/green_lw/9.jpg"",""time"":451},{""stimulus"":""img/green_lw/10.jpg"",""time"":501},{""stimulus"":""img/green_lw/11.jpg"",""time"":551}]","[]"
"image-keyboard-response","164","149019","0.0-5.0-1.80","5df1133b99b28201e0a1181c","bdp_lott","Sat Mar 25 2023 23:39:11 GMT-0400 (Eastern Daylight Time)","312214","red","green","","1769","","","","choice","","img/green_lw/choose11.jpg","2","145","red","0.5","0.1","0.5","w","",""
"animation","165","149620","0.0-5.0-2.80","5df1133b99b28201e0a1181c","bdp_lott","Sat Mar 25 2023 23:39:11 GMT-0400 (Eastern Daylight Time)","312214","red","green","","","","","","","","","","145","","","","","","[{""stimulus"":""img/red_lw/1.jpg"",""time"":51},{""stimulus"":""img/red_lw/2.jpg"",""time"":101},{""stimulus"":""img/red_lw/3.jpg"",""time"":150},{""stimulus"":""img/red_lw/4.jpg"",""time"":201},{""stimulus"":""img/red_lw/5.jpg"",""time"":252},{""stimulus"":""img/red_lw/6.jpg"",""time"":300},{""stimulus"":""img/red_lw/7.jpg"",""time"":350},{""stimulus"":""img/red_lw/8.jpg"",""time"":400},{""stimulus"":""img/red_lw/9.jpg"",""time"":450},{""stimulus"":""img/red_lw/10.jpg"",""time"":500},{""stimulus"":""img/red_lw/11.jpg"",""time"":550}]","[]"
"image-keyboard-response","166","150150","0.0-5.0-1.81","5df1133b99b28201e0a1181c","bdp_lott","Sat Mar 25 2023 23:39:11 GMT-0400 (Eastern Daylight Time)","312214","red","green","","530","","","","choice","","img/red_lw/choose11.jpg","2","144","red","0.5","0.1","0.5","l","",""
"animation","167","150751","0.0-5.0-2.81","5df1133b99b28201e0a1181c","bdp_lott","Sat Mar 25 2023 23:39:11 GMT-0400 (Eastern Daylight Time)","312214","red","green","","","","","","","","","","144","","","","","","[{""stimulus"":""img/red_ll/1.jpg"",""time"":52},{""stimulus"":""img/red_ll/2.jpg"",""time"":101},{""stimulus"":""img/red_ll/3.jpg"",""time"":152},{""stimulus"":""img/red_ll/4.jpg"",""time"":201},{""stimulus"":""img/red_ll/5.jpg"",""time"":251},{""stimulus"":""img/red_ll/6.jpg"",""time"":302},{""stimulus"":""img/red_ll/7.jpg"",""time"":351},{""stimulus"":""img/red_ll/8.jpg"",""time"":403},{""stimulus"":""img/red_ll/9.jpg"",""time"":451},{""stimulus"":""img/red_ll/10.jpg"",""time"":501},{""stimulus"":""img/red_ll/11.jpg"",""time"":551}]","[]"
"image-keyboard-response","168","151356","0.0-5.0-1.82","5df1133b99b28201e0a1181c","bdp_lott","Sat Mar 25 2023 23:39:11 GMT-0400 (Eastern Daylight Time)","312214","red","green","","604","","","","choice","","img/red_ll/choose11.jpg","1","143","green","0.5","0.1","0.1","l","",""
"animation","169","151957","0.0-5.0-2.82","5df1133b99b28201e0a1181c","bdp_lott","Sat Mar 25 2023 23:39:11 GMT-0400 (Eastern Daylight Time)","312214","red","green","","","","","","","","","","143","","","","","","[{""stimulus"":""img/green_ll/1.jpg"",""time"":52},{""stimulus"":""img/green_ll/2.jpg"",""time"":102},{""stimulus"":""img/green_ll/3.jpg"",""time"":152},{""stimulus"":""img/green_ll/4.jpg"",""time"":201},{""stimulus"":""img/green_ll/5.jpg"",""time"":252},{""stimulus"":""img/green_ll/6.jpg"",""time"":301},{""stimulus"":""img/green_ll/7.jpg"",""time"":352},{""stimulus"":""img/green_ll/8.jpg"",""time"":402},{""stimulus"":""img/green_ll/9.jpg"",""time"":451},{""stimulus"":""img/green_ll/10.jpg"",""time"":502},{""stimulus"":""img/green_ll/11.jpg"",""time"":551}]","[]"
"image-keyboard-response","170","152697","0.0-5.0-1.83","5df1133b99b28201e0a1181c","bdp_lott","Sat Mar 25 2023 23:39:11 GMT-0400 (Eastern Daylight Time)","312214","red","green","","740","","","","choice","","img/green_ll/choose11.jpg","2","142","red","0.5","0.1","0.5","w","",""
"animation","171","153298","0.0-5.0-2.83","5df1133b99b28201e0a1181c","bdp_lott","Sat Mar 25 2023 23:39:11 GMT-0400 (Eastern Daylight Time)","312214","red","green","","","","","","","","","","142","","","","","","[{""stimulus"":""img/red_lw/1.jpg"",""time"":51},{""stimulus"":""img/red_lw/2.jpg"",""time"":101},{""stimulus"":""img/red_lw/3.jpg"",""time"":151},{""stimulus"":""img/red_lw/4.jpg"",""time"":201},{""stimulus"":""img/red_lw/5.jpg"",""time"":251},{""stimulus"":""img/red_lw/6.jpg"",""time"":302},{""stimulus"":""img/red_lw/7.jpg"",""time"":351},{""stimulus"":""img/red_lw/8.jpg"",""time"":401},{""stimulus"":""img/red_lw/9.jpg"",""time"":451},{""stimulus"":""img/red_lw/10.jpg"",""time"":501},{""stimulus"":""img/red_lw/11.jpg"",""time"":551}]","[]"
"image-keyboard-response","172","153938","0.0-5.0-1.84","5df1133b99b28201e0a1181c","bdp_lott","Sat Mar 25 2023 23:39:11 GMT-0400 (Eastern Daylight Time)","312214","red","green","","640","","","","choice","","img/red_lw/choose11.jpg","1","141","green","0.5","0.1","0.1","w","",""
"animation","173","154540","0.0-5.0-2.84","5df1133b99b28201e0a1181c","bdp_lott","Sat Mar 25 2023 23:39:11 GMT-0400 (Eastern Daylight Time)","312214","red","green","","","","","","","","","","141","","","","","","[{""stimulus"":""img/green_ww/1.jpg"",""time"":50},{""stimulus"":""img/green_ww/2.jpg"",""time"":102},{""stimulus"":""img/green_ww/3.jpg"",""time"":151},{""stimulus"":""img/green_ww/4.jpg"",""time"":201},{""stimulus"":""img/green_ww/5.jpg"",""time"":251},{""stimulus"":""img/green_ww/6.jpg"",""time"":300},{""stimulus"":""img/green_ww/7.jpg"",""time"":350},{""stimulus"":""img/green_ww/8.jpg"",""time"":401},{""stimulus"":""img/green_ww/9.jpg"",""time"":450},{""stimulus"":""img/green_ww/10.jpg"",""time"":502},{""stimulus"":""img/green_ww/11.jpg"",""time"":551}]","[]"
"image-keyboard-response","174","155215","0.0-5.0-1.85","5df1133b99b28201e0a1181c","bdp_lott","Sat Mar 25 2023 23:39:11 GMT-0400 (Eastern Daylight Time)","312214","red","green","","675","","","","choice","","img/green_ww/choose11.jpg","2","140","red","0.5","0.1","0.5","w","",""
"animation","175","155816","0.0-5.0-2.85","5df1133b99b28201e0a1181c","bdp_lott","Sat Mar 25 2023 23:39:11 GMT-0400 (Eastern Daylight Time)","312214","red","green","","","","","","","","","","140","","","","","","[{""stimulus"":""img/red_ww/1.jpg"",""time"":52},{""stimulus"":""img/red_ww/2.jpg"",""time"":101},{""stimulus"":""img/red_ww/3.jpg"",""time"":151},{""stimulus"":""img/red_ww/4.jpg"",""time"":201},{""stimulus"":""img/red_ww/5.jpg"",""time"":251},{""stimulus"":""img/red_ww/6.jpg"",""time"":301},{""stimulus"":""img/red_ww/7.jpg"",""time"":352},{""stimulus"":""img/red_ww/8.jpg"",""time"":401},{""stimulus"":""img/red_ww/9.jpg"",""time"":451},{""stimulus"":""img/red_ww/10.jpg"",""time"":501},{""stimulus"":""img/red_ww/11.jpg"",""time"":551}]","[]"
"image-keyboard-response","176","158538","0.0-5.0-1.86","5df1133b99b28201e0a1181c","bdp_lott","Sat Mar 25 2023 23:39:11 GMT-0400 (Eastern Daylight Time)","312214","red","green","","2722","","","","choice","","img/red_ww/choose11.jpg","1","139","green","0.5","0.1","0.1","l","",""
"animation","177","159140","0.0-5.0-2.86","5df1133b99b28201e0a1181c","bdp_lott","Sat Mar 25 2023 23:39:11 GMT-0400 (Eastern Daylight Time)","312214","red","green","","","","","","","","","","139","","","","","","[{""stimulus"":""img/green_lw/1.jpg"",""time"":51},{""stimulus"":""img/green_lw/2.jpg"",""time"":101},{""stimulus"":""img/green_lw/3.jpg"",""time"":151},{""stimulus"":""img/green_lw/4.jpg"",""time"":202},{""stimulus"":""img/green_lw/5.jpg"",""time"":250},{""stimulus"":""img/green_lw/6.jpg"",""time"":302},{""stimulus"":""img/green_lw/7.jpg"",""time"":351},{""stimulus"":""img/green_lw/8.jpg"",""time"":401},{""stimulus"":""img/green_lw/9.jpg"",""time"":451},{""stimulus"":""img/green_lw/10.jpg"",""time"":500},{""stimulus"":""img/green_lw/11.jpg"",""time"":550}]","[]"
"image-keyboard-response","178","159737","0.0-5.0-1.87","5df1133b99b28201e0a1181c","bdp_lott","Sat Mar 25 2023 23:39:11 GMT-0400 (Eastern Daylight Time)","312214","red","green","","596","","","","choice","","img/green_lw/choose11.jpg","2","138","red","0.5","0.1","0.5","w","",""
"animation","179","160338","0.0-5.0-2.87","5df1133b99b28201e0a1181c","bdp_lott","Sat Mar 25 2023 23:39:11 GMT-0400 (Eastern Daylight Time)","312214","red","green","","","","","","","","","","138","","","","","","[{""stimulus"":""img/red_lw/1.jpg"",""time"":51},{""stimulus"":""img/red_lw/2.jpg"",""time"":101},{""stimulus"":""img/red_lw/3.jpg"",""time"":151},{""stimulus"":""img/red_lw/4.jpg"",""time"":201},{""stimulus"":""img/red_lw/5.jpg"",""time"":251},{""stimulus"":""img/red_lw/6.jpg"",""time"":301},{""stimulus"":""img/red_lw/7.jpg"",""time"":351},{""stimulus"":""img/red_lw/8.jpg"",""time"":401},{""stimulus"":""img/red_lw/9.jpg"",""time"":452},{""stimulus"":""img/red_lw/10.jpg"",""time"":501},{""stimulus"":""img/red_lw/11.jpg"",""time"":552}]","[]"
"image-keyboard-response","180","161300","0.0-5.0-1.88","5df1133b99b28201e0a1181c","bdp_lott","Sat Mar 25 2023 23:39:11 GMT-0400 (Eastern Daylight Time)","312214","red","green","","961","","","","choice","","img/red_lw/choose11.jpg","2","137","red","0.5","0.1","0.5","w","",""
"animation","181","161901","0.0-5.0-2.88","5df1133b99b28201e0a1181c","bdp_lott","Sat Mar 25 2023 23:39:11 GMT-0400 (Eastern Daylight Time)","312214","red","green","","","","","","","","","","137","","","","","","[{""stimulus"":""img/red_lw/1.jpg"",""time"":52},{""stimulus"":""img/red_lw/2.jpg"",""time"":102},{""stimulus"":""img/red_lw/3.jpg"",""time"":152},{""stimulus"":""img/red_lw/4.jpg"",""time"":201},{""stimulus"":""img/red_lw/5.jpg"",""time"":251},{""stimulus"":""img/red_lw/6.jpg"",""time"":302},{""stimulus"":""img/red_lw/7.jpg"",""time"":352},{""stimulus"":""img/red_lw/8.jpg"",""time"":401},{""stimulus"":""img/red_lw/9.jpg"",""time"":452},{""stimulus"":""img/red_lw/10.jpg"",""time"":502},{""stimulus"":""img/red_lw/11.jpg"",""time"":551}]","[]"
"image-keyboard-response","182","162640","0.0-5.0-1.89","5df1133b99b28201e0a1181c","bdp_lott","Sat Mar 25 2023 23:39:11 GMT-0400 (Eastern Daylight Time)","312214","red","green","","738","","","","choice","","img/red_lw/choose11.jpg","2","136","red","0.5","0.1","0.5","w","",""
"animation","183","163241","0.0-5.0-2.89","5df1133b99b28201e0a1181c","bdp_lott","Sat Mar 25 2023 23:39:11 GMT-0400 (Eastern Daylight Time)","312214","red","green","","","","","","","","","","136","","","","","","[{""stimulus"":""img/red_lw/1.jpg"",""time"":50},{""stimulus"":""img/red_lw/2.jpg"",""time"":100},{""stimulus"":""img/red_lw/3.jpg"",""time"":151},{""stimulus"":""img/red_lw/4.jpg"",""time"":200},{""stimulus"":""img/red_lw/5.jpg"",""time"":251},{""stimulus"":""img/red_lw/6.jpg"",""time"":301},{""stimulus"":""img/red_lw/7.jpg"",""time"":351},{""stimulus"":""img/red_lw/8.jpg"",""time"":400},{""stimulus"":""img/red_lw/9.jpg"",""time"":450},{""stimulus"":""img/red_lw/10.jpg"",""time"":500},{""stimulus"":""img/red_lw/11.jpg"",""time"":551}]","[]"
"image-keyboard-response","184","163667","0.0-5.0-1.90","5df1133b99b28201e0a1181c","bdp_lott","Sat Mar 25 2023 23:39:11 GMT-0400 (Eastern Daylight Time)","312214","red","green","","425","","","","choice","","img/red_lw/choose11.jpg","2","135","red","0.5","0.1","0.5","l","",""
"animation","185","164267","0.0-5.0-2.90","5df1133b99b28201e0a1181c","bdp_lott","Sat Mar 25 2023 23:39:11 GMT-0400 (Eastern Daylight Time)","312214","red","green","","","","","","","","","","135","","","","","","[{""stimulus"":""img/red_ll/1.jpg"",""time"":52},{""stimulus"":""img/red_ll/2.jpg"",""time"":101},{""stimulus"":""img/red_ll/3.jpg"",""time"":151},{""stimulus"":""img/red_ll/4.jpg"",""time"":201},{""stimulus"":""img/red_ll/5.jpg"",""time"":251},{""stimulus"":""img/red_ll/6.jpg"",""time"":300},{""stimulus"":""img/red_ll/7.jpg"",""time"":351},{""stimulus"":""img/red_ll/8.jpg"",""time"":401},{""stimulus"":""img/red_ll/9.jpg"",""time"":451},{""stimulus"":""img/red_ll/10.jpg"",""time"":501},{""stimulus"":""img/red_ll/11.jpg"",""time"":551}]","[]"
"image-keyboard-response","186","164768","0.0-5.0-1.91","5df1133b99b28201e0a1181c","bdp_lott","Sat Mar 25 2023 23:39:11 GMT-0400 (Eastern Daylight Time)","312214","red","green","","500","","","","choice","","img/red_ll/choose11.jpg","1","134","green","0.5","0.1","0.1","w","",""
"animation","187","165368","0.0-5.0-2.91","5df1133b99b28201e0a1181c","bdp_lott","Sat Mar 25 2023 23:39:11 GMT-0400 (Eastern Daylight Time)","312214","red","green","","","","","","","","","","134","","","","","","[{""stimulus"":""img/green_wl/1.jpg"",""time"":51},{""stimulus"":""img/green_wl/2.jpg"",""time"":100},{""stimulus"":""img/green_wl/3.jpg"",""time"":152},{""stimulus"":""img/green_wl/4.jpg"",""time"":200},{""stimulus"":""img/green_wl/5.jpg"",""time"":250},{""stimulus"":""img/green_wl/6.jpg"",""time"":300},{""stimulus"":""img/green_wl/7.jpg"",""time"":351},{""stimulus"":""img/green_wl/8.jpg"",""time"":401},{""stimulus"":""img/green_wl/9.jpg"",""time"":451},{""stimulus"":""img/green_wl/10.jpg"",""time"":501},{""stimulus"":""img/green_wl/11.jpg"",""time"":551}]","[]"
"image-keyboard-response","188","166000","0.0-5.0-1.92","5df1133b99b28201e0a1181c","bdp_lott","Sat Mar 25 2023 23:39:11 GMT-0400 (Eastern Daylight Time)","312214","red","green","","631","","","","choice","","img/green_wl/choose11.jpg","1","133","green","0.5","0.1","0.1","l","",""
"animation","189","166602","0.0-5.0-2.92","5df1133b99b28201e0a1181c","bdp_lott","Sat Mar 25 2023 23:39:11 GMT-0400 (Eastern Daylight Time)","312214","red","green","","","","","","","","","","133","","","","","","[{""stimulus"":""img/green_ll/1.jpg"",""time"":51},{""stimulus"":""img/green_ll/2.jpg"",""time"":101},{""stimulus"":""img/green_ll/3.jpg"",""time"":152},{""stimulus"":""img/green_ll/4.jpg"",""time"":201},{""stimulus"":""img/green_ll/5.jpg"",""time"":252},{""stimulus"":""img/green_ll/6.jpg"",""time"":302},{""stimulus"":""img/green_ll/7.jpg"",""time"":352},{""stimulus"":""img/green_ll/8.jpg"",""time"":401},{""stimulus"":""img/green_ll/9.jpg"",""time"":451},{""stimulus"":""img/green_ll/10.jpg"",""time"":501},{""stimulus"":""img/green_ll/11.jpg"",""time"":551}]","[]"
"image-keyboard-response","190","167184","0.0-5.0-1.93","5df1133b99b28201e0a1181c","bdp_lott","Sat Mar 25 2023 23:39:11 GMT-0400 (Eastern Daylight Time)","312214","red","green","","582","","","","choice","","img/green_ll/choose11.jpg","2","132","red","0.5","0.1","0.5","w","",""
"animation","191","167785","0.0-5.0-2.93","5df1133b99b28201e0a1181c","bdp_lott","Sat Mar 25 2023 23:39:11 GMT-0400 (Eastern Daylight Time)","312214","red","green","","","","","","","","","","132","","","","","","[{""stimulus"":""img/red_lw/1.jpg"",""time"":51},{""stimulus"":""img/red_lw/2.jpg"",""time"":101},{""stimulus"":""img/red_lw/3.jpg"",""time"":151},{""stimulus"":""img/red_lw/4.jpg"",""time"":201},{""stimulus"":""img/red_lw/5.jpg"",""time"":251},{""stimulus"":""img/red_lw/6.jpg"",""time"":301},{""stimulus"":""img/red_lw/7.jpg"",""time"":351},{""stimulus"":""img/red_lw/8.jpg"",""time"":401},{""stimulus"":""img/red_lw/9.jpg"",""time"":452},{""stimulus"":""img/red_lw/10.jpg"",""time"":501},{""stimulus"":""img/red_lw/11.jpg"",""time"":551}]","[]"
