"trial_type","trial_index","time_elapsed","internal_node_id","subject_id","task","startTime","totalTime","fairMachine","unfairMachine","view_history","rt","event","trial","time","trialtype","success","stimulus","key_press","roundsLeft","chosen","pFairMachWin","pUnfairMachWin","pTrialWin","outcome","animation_sequence","responses"
"pavlovia","0","2","0.0-0.0","5de8887aa2db898017debf1a","bdp_lott","Sat Mar 25 2023 17:46:55 GMT-0700 (Pacific Daylight Time)","381548","green","red","","","","","","","","","","","","","","","","",""
"instructions","1","2522","0.0-1.0","5de8887aa2db898017debf1a","bdp_lott","Sat Mar 25 2023 17:46:55 GMT-0700 (Pacific Daylight Time)","381548","green","red","[{""page_index"":0,""viewing_time"":2519}]","2519","","","","","","","","","","","","","","",""
"","","","","5de8887aa2db898017debf1a","bdp_lott","Sat Mar 25 2023 17:46:55 GMT-0700 (Pacific Daylight Time)","381548","green","red","","","fullscreenenter","2","4743","fullscreenenter","","","","","","","","","","",""
"fullscreen","2","5737","0.0-2.0","5de8887aa2db898017debf1a","bdp_lott","Sat Mar 25 2023 17:46:55 GMT-0700 (Pacific Daylight Time)","381548","green","red","","","","","","","true","","","","","","","","","",""
"instructions","3","71539","0.0-4.0","5de8887aa2db898017debf1a","bdp_lott","Sat Mar 25 2023 17:46:55 GMT-0700 (Pacific Daylight Time)","381548","green","red","[{""page_index"":0,""viewing_time"":65802}]","65802","","","","","","","","","","","","","","",""
"image-keyboard-response","4","78068","0.0-5.0-1.0","5de8887aa2db898017debf1a","bdp_lott","Sat Mar 25 2023 17:46:55 GMT-0700 (Pacific Daylight Time)","381548","green","red","","6525","","","","choice","","img/red_ll/initchoose11.jpg","1","225","green","0.5","0.5","0.5","l","",""
"animation","5","78683","0.0-5.0-2.0","5de8887aa2db898017debf1a","bdp_lott","Sat Mar 25 2023 17:46:55 GMT-0700 (Pacific Daylight Time)","381548","green","red","","","","","","","","","","225","","","","","","[{""stimulus"":""img/green_ll/1.jpg"",""time"":62},{""stimulus"":""img/green_ll/2.jpg"",""time"":110},{""stimulus"":""img/green_ll/3.jpg"",""time"":157},{""stimulus"":""img/green_ll/4.jpg"",""time"":211},{""stimulus"":""img/green_ll/5.jpg"",""time"":259},{""stimulus"":""img/green_ll/6.jpg"",""time"":307},{""stimulus"":""img/green_ll/7.jpg"",""time"":357},{""stimulus"":""img/green_ll/8.jpg"",""time"":414},{""stimulus"":""img/green_ll/9.jpg"",""time"":462},{""stimulus"":""img/green_ll/10.jpg"",""time"":509},{""stimulus"":""img/green_ll/11.jpg"",""time"":557}]","[]"
"image-keyboard-response","6","80890","0.0-5.0-1.1","5de8887aa2db898017debf1a","bdp_lott","Sat Mar 25 2023 17:46:55 GMT-0700 (Pacific Daylight Time)","381548","green","red","","2206","","","","choice","","img/green_ll/choose11.jpg","1","224","green","0.5","0.5","0.5","w","",""
"animation","7","81495","0.0-5.0-2.1","5de8887aa2db898017debf1a","bdp_lott","Sat Mar 25 2023 17:46:55 GMT-0700 (Pacific Daylight Time)","381548","green","red","","","","","","","","","","224","","","","","","[{""stimulus"":""img/green_wl/1.jpg"",""time"":55},{""stimulus"":""img/green_wl/2.jpg"",""time"":110},{""stimulus"":""img/green_wl/3.jpg"",""time"":154},{""stimulus"":""img/green_wl/4.jpg"",""time"":205},{""stimulus"":""img/green_wl/5.jpg"",""time"":253},{""stimulus"":""img/green_wl/6.jpg"",""time"":312},{""stimulus"":""img/green_wl/7.jpg"",""time"":360},{""stimulus"":""img/green_wl/8.jpg"",""time"":404},{""stimulus"":""img/green_wl/9.jpg"",""time"":456},{""stimulus"":""img/green_wl/10.jpg"",""time"":510},{""stimulus"":""img/green_wl/11.jpg"",""time"":557}]","[]"
"image-keyboard-response","8","83792","0.0-5.0-1.2","5de8887aa2db898017debf1a","bdp_lott","Sat Mar 25 2023 17:46:55 GMT-0700 (Pacific Daylight Time)","381548","green","red","","2295","","","","choice","","img/green_wl/choose11.jpg","2","223","red","0.5","0.5","0.5","w","",""
"animation","9","84402","0.0-5.0-2.2","5de8887aa2db898017debf1a","bdp_lott","Sat Mar 25 2023 17:46:55 GMT-0700 (Pacific Daylight Time)","381548","green","red","","","","","","","","","","223","","","","","","[{""stimulus"":""img/red_ww/1.jpg"",""time"":56},{""stimulus"":""img/red_ww/2.jpg"",""time"":104},{""stimulus"":""img/red_ww/3.jpg"",""time"":163},{""stimulus"":""img/red_ww/4.jpg"",""time"":211},{""stimulus"":""img/red_ww/5.jpg"",""time"":254},{""stimulus"":""img/red_ww/6.jpg"",""time"":303},{""stimulus"":""img/red_ww/7.jpg"",""time"":360},{""stimulus"":""img/red_ww/8.jpg"",""time"":409},{""stimulus"":""img/red_ww/9.jpg"",""time"":455},{""stimulus"":""img/red_ww/10.jpg"",""time"":503},{""stimulus"":""img/red_ww/11.jpg"",""time"":563}]","[]"
"image-keyboard-response","10","87442","0.0-5.0-1.3","5de8887aa2db898017debf1a","bdp_lott","Sat Mar 25 2023 17:46:55 GMT-0700 (Pacific Daylight Time)","381548","green","red","","3039","","","","choice","","img/red_ww/choose11.jpg","1","222","green","0.5","0.5","0.5","w","",""
"animation","11","88050","0.0-5.0-2.3","5de8887aa2db898017debf1a","bdp_lott","Sat Mar 25 2023 17:46:55 GMT-0700 (Pacific Daylight Time)","381548","green","red","","","","","","","","","","222","","","","","","[{""stimulus"":""img/green_ww/1.jpg"",""time"":52},{""stimulus"":""img/green_ww/2.jpg"",""time"":111},{""stimulus"":""img/green_ww/3.jpg"",""time"":160},{""stimulus"":""img/green_ww/4.jpg"",""time"":208},{""stimulus"":""img/green_ww/5.jpg"",""time"":256},{""stimulus"":""img/green_ww/6.jpg"",""time"":309},{""stimulus"":""img/green_ww/7.jpg"",""time"":358},{""stimulus"":""img/green_ww/8.jpg"",""time"":405},{""stimulus"":""img/green_ww/9.jpg"",""time"":452},{""stimulus"":""img/green_ww/10.jpg"",""time"":512},{""stimulus"":""img/green_ww/11.jpg"",""time"":559}]","[]"
"image-keyboard-response","12","89513","0.0-5.0-1.4","5de8887aa2db898017debf1a","bdp_lott","Sat Mar 25 2023 17:46:55 GMT-0700 (Pacific Daylight Time)","381548","green","red","","1462","","","","choice","","img/green_ww/choose11.jpg","2","221","red","0.5","0.5","0.5","w","",""
"animation","13","90119","0.0-5.0-2.4","5de8887aa2db898017debf1a","bdp_lott","Sat Mar 25 2023 17:46:55 GMT-0700 (Pacific Daylight Time)","381548","green","red","","","","","","","","","","221","","","","","","[{""stimulus"":""img/red_ww/1.jpg"",""time"":57},{""stimulus"":""img/red_ww/2.jpg"",""time"":102},{""stimulus"":""img/red_ww/3.jpg"",""time"":158},{""stimulus"":""img/red_ww/4.jpg"",""time"":207},{""stimulus"":""img/red_ww/5.jpg"",""time"":253},{""stimulus"":""img/red_ww/6.jpg"",""time"":313},{""stimulus"":""img/red_ww/7.jpg"",""time"":361},{""stimulus"":""img/red_ww/8.jpg"",""time"":409},{""stimulus"":""img/red_ww/9.jpg"",""time"":457},{""stimulus"":""img/red_ww/10.jpg"",""time"":504},{""stimulus"":""img/red_ww/11.jpg"",""time"":558}]","[]"
"image-keyboard-response","14","91245","0.0-5.0-1.5","5de8887aa2db898017debf1a","bdp_lott","Sat Mar 25 2023 17:46:55 GMT-0700 (Pacific Daylight Time)","381548","green","red","","1124","","","","choice","","img/red_ww/choose11.jpg","1","220","green","0.5","0.5","0.5","l","",""
"animation","15","91858","0.0-5.0-2.5","5de8887aa2db898017debf1a","bdp_lott","Sat Mar 25 2023 17:46:55 GMT-0700 (Pacific Daylight Time)","381548","green","red","","","","","","","","","","220","","","","","","[{""stimulus"":""img/green_lw/1.jpg"",""time"":59},{""stimulus"":""img/green_lw/2.jpg"",""time"":106},{""stimulus"":""img/green_lw/3.jpg"",""time"":156},{""stimulus"":""img/green_lw/4.jpg"",""time"":213},{""stimulus"":""img/green_lw/5.jpg"",""time"":262},{""stimulus"":""img/green_lw/6.jpg"",""time"":306},{""stimulus"":""img/green_lw/7.jpg"",""time"":354},{""stimulus"":""img/green_lw/8.jpg"",""time"":411},{""stimulus"":""img/green_lw/9.jpg"",""time"":459},{""stimulus"":""img/green_lw/10.jpg"",""time"":506},{""stimulus"":""img/green_lw/11.jpg"",""time"":556}]","[]"
"image-keyboard-response","16","93198","0.0-5.0-1.6","5de8887aa2db898017debf1a","bdp_lott","Sat Mar 25 2023 17:46:55 GMT-0700 (Pacific Daylight Time)","381548","green","red","","1339","","","","choice","","img/green_lw/choose11.jpg","1","219","green","0.5","0.5","0.5","w","",""
"animation","17","93810","0.0-5.0-2.6","5de8887aa2db898017debf1a","bdp_lott","Sat Mar 25 2023 17:46:55 GMT-0700 (Pacific Daylight Time)","381548","green","red","","","","","","","","","","219","","","","","","[{""stimulus"":""img/green_ww/1.jpg"",""time"":57},{""stimulus"":""img/green_ww/2.jpg"",""time"":105},{""stimulus"":""img/green_ww/3.jpg"",""time"":152},{""stimulus"":""img/green_ww/4.jpg"",""time"":211},{""stimulus"":""img/green_ww/5.jpg"",""time"":259},{""stimulus"":""img/green_ww/6.jpg"",""time"":307},{""stimulus"":""img/green_ww/7.jpg"",""time"":355},{""stimulus"":""img/green_ww/8.jpg"",""time"":404},{""stimulus"":""img/green_ww/9.jpg"",""time"":457},{""stimulus"":""img/green_ww/10.jpg"",""time"":505},{""stimulus"":""img/green_ww/11.jpg"",""time"":552}]","[]"
"image-keyboard-response","18","95583","0.0-5.0-1.7","5de8887aa2db898017debf1a","bdp_lott","Sat Mar 25 2023 17:46:55 GMT-0700 (Pacific Daylight Time)","381548","green","red","","1771","","","","choice","","img/green_ww/choose11.jpg","2","218","red","0.5","0.5","0.5","l","",""
"animation","19","96194","0.0-5.0-2.7","5de8887aa2db898017debf1a","bdp_lott","Sat Mar 25 2023 17:46:55 GMT-0700 (Pacific Daylight Time)","381548","green","red","","","","","","","","","","218","","","","","","[{""stimulus"":""img/red_wl/1.jpg"",""time"":56},{""stimulus"":""img/red_wl/2.jpg"",""time"":104},{""stimulus"":""img/red_wl/3.jpg"",""time"":159},{""stimulus"":""img/red_wl/4.jpg"",""time"":211},{""stimulus"":""img/red_wl/5.jpg"",""time"":259},{""stimulus"":""img/red_wl/6.jpg"",""time"":304},{""stimulus"":""img/red_wl/7.jpg"",""time"":361},{""stimulus"":""img/red_wl/8.jpg"",""time"":409},{""stimulus"":""img/red_wl/9.jpg"",""time"":459},{""stimulus"":""img/red_wl/10.jpg"",""time"":504},{""stimulus"":""img/red_wl/11.jpg"",""time"":563}]","[]"
"image-keyboard-response","20","97058","0.0-5.0-1.8","5de8887aa2db898017debf1a","bdp_lott","Sat Mar 25 2023 17:46:55 GMT-0700 (Pacific Daylight Time)","381548","green","red","","863","","","","choice","","img/red_wl/choose11.jpg","2","217","red","0.5","0.5","0.5","l","",""
"animation","21","97662","0.0-5.0-2.8","5de8887aa2db898017debf1a","bdp_lott","Sat Mar 25 2023 17:46:55 GMT-0700 (Pacific Daylight Time)","381548","green","red","","","","","","","","","","217","","","","","","[{""stimulus"":""img/red_wl/1.jpg"",""time"":63},{""stimulus"":""img/red_wl/2.jpg"",""time"":111},{""stimulus"":""img/red_wl/3.jpg"",""time"":158},{""stimulus"":""img/red_wl/4.jpg"",""time"":207},{""stimulus"":""img/red_wl/5.jpg"",""time"":260},{""stimulus"":""img/red_wl/6.jpg"",""time"":308},{""stimulus"":""img/red_wl/7.jpg"",""time"":358},{""stimulus"":""img/red_wl/8.jpg"",""time"":405},{""stimulus"":""img/red_wl/9.jpg"",""time"":463},{""stimulus"":""img/red_wl/10.jpg"",""time"":511},{""stimulus"":""img/red_wl/11.jpg"",""time"":558}]","[]"
"image-keyboard-response","22","98811","0.0-5.0-1.9","5de8887aa2db898017debf1a","bdp_lott","Sat Mar 25 2023 17:46:55 GMT-0700 (Pacific Daylight Time)","381548","green","red","","1147","","","","choice","","img/red_wl/choose11.jpg","2","216","red","0.5","0.5","0.5","w","",""
"animation","23","99417","0.0-5.0-2.9","5de8887aa2db898017debf1a","bdp_lott","Sat Mar 25 2023 17:46:55 GMT-0700 (Pacific Daylight Time)","381548","green","red","","","","","","","","","","216","","","","","","[{""stimulus"":""img/red_ww/1.jpg"",""time"":60},{""stimulus"":""img/red_ww/2.jpg"",""time"":108},{""stimulus"":""img/red_ww/3.jpg"",""time"":155},{""stimulus"":""img/red_ww/4.jpg"",""time"":205},{""stimulus"":""img/red_ww/5.jpg"",""time"":262},{""stimulus"":""img/red_ww/6.jpg"",""time"":310},{""stimulus"":""img/red_ww/7.jpg"",""time"":358},{""stimulus"":""img/red_ww/8.jpg"",""time"":405},{""stimulus"":""img/red_ww/9.jpg"",""time"":459},{""stimulus"":""img/red_ww/10.jpg"",""time"":508},{""stimulus"":""img/red_ww/11.jpg"",""time"":555}]","[]"
"image-keyboard-response","24","100772","0.0-5.0-1.10","5de8887aa2db898017debf1a","bdp_lott","Sat Mar 25 2023 17:46:55 GMT-0700 (Pacific Daylight Time)","381548","green","red","","1353","","","","choice","","img/red_ww/choose11.jpg","2","215","red","0.5","0.5","0.5","l","",""
"animation","25","101378","0.0-5.0-2.10","5de8887aa2db898017debf1a","bdp_lott","Sat Mar 25 2023 17:46:55 GMT-0700 (Pacific Daylight Time)","381548","green","red","","","","","","","","","","215","","","","","","[{""stimulus"":""img/red_wl/1.jpg"",""time"":62},{""stimulus"":""img/red_wl/2.jpg"",""time"":110},{""stimulus"":""img/red_wl/3.jpg"",""time"":158},{""stimulus"":""img/red_wl/4.jpg"",""time"":206},{""stimulus"":""img/red_wl/5.jpg"",""time"":262},{""stimulus"":""img/red_wl/6.jpg"",""time"":310},{""stimulus"":""img/red_wl/7.jpg"",""time"":355},{""stimulus"":""img/red_wl/8.jpg"",""time"":404},{""stimulus"":""img/red_wl/9.jpg"",""time"":462},{""stimulus"":""img/red_wl/10.jpg"",""time"":510},{""stimulus"":""img/red_wl/11.jpg"",""time"":558}]","[]"
"image-keyboard-response","26","102084","0.0-5.0-1.11","5de8887aa2db898017debf1a","bdp_lott","Sat Mar 25 2023 17:46:55 GMT-0700 (Pacific Daylight Time)","381548","green","red","","705","","","","choice","","img/red_wl/choose11.jpg","1","214","green","0.5","0.5","0.5","l","",""
"animation","27","102695","0.0-5.0-2.11","5de8887aa2db898017debf1a","bdp_lott","Sat Mar 25 2023 17:46:55 GMT-0700 (Pacific Daylight Time)","381548","green","red","","","","","","","","","","214","","","","","","[{""stimulus"":""img/green_ll/1.jpg"",""time"":61},{""stimulus"":""img/green_ll/2.jpg"",""time"":109},{""stimulus"":""img/green_ll/3.jpg"",""time"":157},{""stimulus"":""img/green_ll/4.jpg"",""time"":210},{""stimulus"":""img/green_ll/5.jpg"",""time"":258},{""stimulus"":""img/green_ll/6.jpg"",""time"":307},{""stimulus"":""img/green_ll/7.jpg"",""time"":354},{""stimulus"":""img/green_ll/8.jpg"",""time"":413},{""stimulus"":""img/green_ll/9.jpg"",""time"":461},{""stimulus"":""img/green_ll/10.jpg"",""time"":509},{""stimulus"":""img/green_ll/11.jpg"",""time"":557}]","[]"
"image-keyboard-response","28","103489","0.0-5.0-1.12","5de8887aa2db898017debf1a","bdp_lott","Sat Mar 25 2023 17:46:55 GMT-0700 (Pacific Daylight Time)","381548","green","red","","793","","","","choice","","img/green_ll/choose11.jpg","2","213","red","0.5","0.5","0.5","w","",""
"animation","29","104098","0.0-5.0-2.12","5de8887aa2db898017debf1a","bdp_lott","Sat Mar 25 2023 17:46:55 GMT-0700 (Pacific Daylight Time)","381548","green","red","","","","","","","","","","213","","","","","","[{""stimulus"":""img/red_lw/1.jpg"",""time"":53},{""stimulus"":""img/red_lw/2.jpg"",""time"":112},{""stimulus"":""img/red_lw/3.jpg"",""time"":157},{""stimulus"":""img/red_lw/4.jpg"",""time"":208},{""stimulus"":""img/red_lw/5.jpg"",""time"":256},{""stimulus"":""img/red_lw/6.jpg"",""time"":311},{""stimulus"":""img/red_lw/7.jpg"",""time"":357},{""stimulus"":""img/red_lw/8.jpg"",""time"":405},{""stimulus"":""img/red_lw/9.jpg"",""time"":453},{""stimulus"":""img/red_lw/10.jpg"",""time"":512},{""stimulus"":""img/red_lw/11.jpg"",""time"":559}]","[]"
"image-keyboard-response","30","105103","0.0-5.0-1.13","5de8887aa2db898017debf1a","bdp_lott","Sat Mar 25 2023 17:46:55 GMT-0700 (Pacific Daylight Time)","381548","green","red","","1004","","","","choice","","img/red_lw/choose11.jpg","1","212","green","0.5","0.5","0.5","l","",""
"animation","31","105714","0.0-5.0-2.13","5de8887aa2db898017debf1a","bdp_lott","Sat Mar 25 2023 17:46:55 GMT-0700 (Pacific Daylight Time)","381548","green","red","","","","","","","","","","212","","","","","","[{""stimulus"":""img/green_lw/1.jpg"",""time"":56},{""stimulus"":""img/green_lw/2.jpg"",""time"":105},{""stimulus"":""img/green_lw/3.jpg"",""time"":162},{""stimulus"":""img/green_lw/4.jpg"",""time"":210},{""stimulus"":""img/green_lw/5.jpg"",""time"":255},{""stimulus"":""img/green_lw/6.jpg"",""time"":305},{""stimulus"":""img/green_lw/7.jpg"",""time"":359},{""stimulus"":""img/green_lw/8.jpg"",""time"":407},{""stimulus"":""img/green_lw/9.jpg"",""time"":455},{""stimulus"":""img/green_lw/10.jpg"",""time"":505},{""stimulus"":""img/green_lw/11.jpg"",""time"":559}]","[]"
"image-keyboard-response","32","107180","0.0-5.0-1.14","5de8887aa2db898017debf1a","bdp_lott","Sat Mar 25 2023 17:46:55 GMT-0700 (Pacific Daylight Time)","381548","green","red","","1465","","","","choice","","img/green_lw/choose11.jpg","1","211","green","0.5","0.5","0.5","w","",""
"animation","33","107794","0.0-5.0-2.14","5de8887aa2db898017debf1a","bdp_lott","Sat Mar 25 2023 17:46:55 GMT-0700 (Pacific Daylight Time)","381548","green","red","","","","","","","","","","211","","","","","","[{""stimulus"":""img/green_ww/1.jpg"",""time"":58},{""stimulus"":""img/green_ww/2.jpg"",""time"":106},{""stimulus"":""img/green_ww/3.jpg"",""time"":154},{""stimulus"":""img/green_ww/4.jpg"",""time"":213},{""stimulus"":""img/green_ww/5.jpg"",""time"":261},{""stimulus"":""img/green_ww/6.jpg"",""time"":306},{""stimulus"":""img/green_ww/7.jpg"",""time"":357},{""stimulus"":""img/green_ww/8.jpg"",""time"":411},{""stimulus"":""img/green_ww/9.jpg"",""time"":458},{""stimulus"":""img/green_ww/10.jpg"",""time"":506},{""stimulus"":""img/green_ww/11.jpg"",""time"":554}]","[]"
"image-keyboard-response","34","108654","0.0-5.0-1.15","5de8887aa2db898017debf1a","bdp_lott","Sat Mar 25 2023 17:46:55 GMT-0700 (Pacific Daylight Time)","381548","green","red","","859","","","","choice","","img/green_ww/choose11.jpg","2","210","red","0.5","0.5","0.5","l","",""
"animation","35","109262","0.0-5.0-2.15","5de8887aa2db898017debf1a","bdp_lott","Sat Mar 25 2023 17:46:55 GMT-0700 (Pacific Daylight Time)","381548","green","red","","","","","","","","","","210","","","","","","[{""stimulus"":""img/red_wl/1.jpg"",""time"":56},{""stimulus"":""img/red_wl/2.jpg"",""time"":104},{""stimulus"":""img/red_wl/3.jpg"",""time"":155},{""stimulus"":""img/red_wl/4.jpg"",""time"":211},{""stimulus"":""img/red_wl/5.jpg"",""time"":259},{""stimulus"":""img/red_wl/6.jpg"",""time"":307},{""stimulus"":""img/red_wl/7.jpg"",""time"":362},{""stimulus"":""img/red_wl/8.jpg"",""time"":408},{""stimulus"":""img/red_wl/9.jpg"",""time"":456},{""stimulus"":""img/red_wl/10.jpg"",""time"":504},{""stimulus"":""img/red_wl/11.jpg"",""time"":562}]","[]"
"image-keyboard-response","36","110554","0.0-5.0-1.16","5de8887aa2db898017debf1a","bdp_lott","Sat Mar 25 2023 17:46:55 GMT-0700 (Pacific Daylight Time)","381548","green","red","","1291","","","","choice","","img/red_wl/choose11.jpg","2","209","red","0.5","0.5","0.5","l","",""
"animation","37","111159","0.0-5.0-2.16","5de8887aa2db898017debf1a","bdp_lott","Sat Mar 25 2023 17:46:55 GMT-0700 (Pacific Daylight Time)","381548","green","red","","","","","","","","","","209","","","","","","[{""stimulus"":""img/red_wl/1.jpg"",""time"":60},{""stimulus"":""img/red_wl/2.jpg"",""time"":108},{""stimulus"":""img/red_wl/3.jpg"",""time"":156},{""stimulus"":""img/red_wl/4.jpg"",""time"":204},{""stimulus"":""img/red_wl/5.jpg"",""time"":262},{""stimulus"":""img/red_wl/6.jpg"",""time"":311},{""stimulus"":""img/red_wl/7.jpg"",""time"":359},{""stimulus"":""img/red_wl/8.jpg"",""time"":407},{""stimulus"":""img/red_wl/9.jpg"",""time"":462},{""stimulus"":""img/red_wl/10.jpg"",""time"":508},{""stimulus"":""img/red_wl/11.jpg"",""time"":556}]","[]"
"image-keyboard-response","38","112260","0.0-5.0-1.17","5de8887aa2db898017debf1a","bdp_lott","Sat Mar 25 2023 17:46:55 GMT-0700 (Pacific Daylight Time)","381548","green","red","","1100","","","","choice","","img/red_wl/choose11.jpg","2","208","red","0.5","0.5","0.5","l","",""
"animation","39","112865","0.0-5.0-2.17","5de8887aa2db898017debf1a","bdp_lott","Sat Mar 25 2023 17:46:55 GMT-0700 (Pacific Daylight Time)","381548","green","red","","","","","","","","","","208","","","","","","[{""stimulus"":""img/red_wl/1.jpg"",""time"":62},{""stimulus"":""img/red_wl/2.jpg"",""time"":110},{""stimulus"":""img/red_wl/3.jpg"",""time"":156},{""stimulus"":""img/red_wl/4.jpg"",""time"":206},{""stimulus"":""img/red_wl/5.jpg"",""time"":259},{""stimulus"":""img/red_wl/6.jpg"",""time"":307},{""stimulus"":""img/red_wl/7.jpg"",""time"":357},{""stimulus"":""img/red_wl/8.jpg"",""time"":403},{""stimulus"":""img/red_wl/9.jpg"",""time"":462},{""stimulus"":""img/red_wl/10.jpg"",""time"":510},{""stimulus"":""img/red_wl/11.jpg"",""time"":557}]","[]"
"image-keyboard-response","40","113668","0.0-5.0-1.18","5de8887aa2db898017debf1a","bdp_lott","Sat Mar 25 2023 17:46:55 GMT-0700 (Pacific Daylight Time)","381548","green","red","","801","","","","choice","","img/red_wl/choose11.jpg","1","207","green","0.5","0.5","0.5","l","",""
"animation","41","114281","0.0-5.0-2.18","5de8887aa2db898017debf1a","bdp_lott","Sat Mar 25 2023 17:46:55 GMT-0700 (Pacific Daylight Time)","381548","green","red","","","","","","","","","","207","","","","","","[{""stimulus"":""img/green_ll/1.jpg"",""time"":61},{""stimulus"":""img/green_ll/2.jpg"",""time"":109},{""stimulus"":""img/green_ll/3.jpg"",""time"":157},{""stimulus"":""img/green_ll/4.jpg"",""time"":213},{""stimulus"":""img/green_ll/5.jpg"",""time"":258},{""stimulus"":""img/green_ll/6.jpg"",""time"":307},{""stimulus"":""img/green_ll/7.jpg"",""time"":357},{""stimulus"":""img/green_ll/8.jpg"",""time"":413},{""stimulus"":""img/green_ll/9.jpg"",""time"":457},{""stimulus"":""img/green_ll/10.jpg"",""time"":509},{""stimulus"":""img/green_ll/11.jpg"",""time"":557}]","[]"
"image-keyboard-response","42","115226","0.0-5.0-1.19","5de8887aa2db898017debf1a","bdp_lott","Sat Mar 25 2023 17:46:55 GMT-0700 (Pacific Daylight Time)","381548","green","red","","944","","","","choice","","img/green_ll/choose11.jpg","1","206","green","0.5","0.5","0.5","w","",""
"animation","43","115830","0.0-5.0-2.19","5de8887aa2db898017debf1a","bdp_lott","Sat Mar 25 2023 17:46:55 GMT-0700 (Pacific Daylight Time)","381548","green","red","","","","","","","","","","206","","","","","","[{""stimulus"":""img/green_wl/1.jpg"",""time"":61},{""stimulus"":""img/green_wl/2.jpg"",""time"":109},{""stimulus"":""img/green_wl/3.jpg"",""time"":158},{""stimulus"":""img/green_wl/4.jpg"",""time"":205},{""stimulus"":""img/green_wl/5.jpg"",""time"":264},{""stimulus"":""img/green_wl/6.jpg"",""time"":312},{""stimulus"":""img/green_wl/7.jpg"",""time"":360},{""stimulus"":""img/green_wl/8.jpg"",""time"":408},{""stimulus"":""img/green_wl/9.jpg"",""time"":460},{""stimulus"":""img/green_wl/10.jpg"",""time"":509},{""stimulus"":""img/green_wl/11.jpg"",""time"":558}]","[]"
"image-keyboard-response","44","117589","0.0-5.0-1.20","5de8887aa2db898017debf1a","bdp_lott","Sat Mar 25 2023 17:46:55 GMT-0700 (Pacific Daylight Time)","381548","green","red","","1758","","","","choice","","img/green_wl/choose11.jpg","2","205","red","0.5","0.5","0.5","l","",""
"animation","45","118200","0.0-5.0-2.20","5de8887aa2db898017debf1a","bdp_lott","Sat Mar 25 2023 17:46:55 GMT-0700 (Pacific Daylight Time)","381548","green","red","","","","","","","","","","205","","","","","","[{""stimulus"":""img/red_wl/1.jpg"",""time"":61},{""stimulus"":""img/red_wl/2.jpg"",""time"":109},{""stimulus"":""img/red_wl/3.jpg"",""time"":151},{""stimulus"":""img/red_wl/4.jpg"",""time"":212},{""stimulus"":""img/red_wl/5.jpg"",""time"":257},{""stimulus"":""img/red_wl/6.jpg"",""time"":305},{""stimulus"":""img/red_wl/7.jpg"",""time"":353},{""stimulus"":""img/red_wl/8.jpg"",""time"":413},{""stimulus"":""img/red_wl/9.jpg"",""time"":461},{""stimulus"":""img/red_wl/10.jpg"",""time"":509},{""stimulus"":""img/red_wl/11.jpg"",""time"":557}]","[]"
"image-keyboard-response","46","118959","0.0-5.0-1.21","5de8887aa2db898017debf1a","bdp_lott","Sat Mar 25 2023 17:46:55 GMT-0700 (Pacific Daylight Time)","381548","green","red","","758","","","","choice","","img/red_wl/choose11.jpg","1","204","green","0.5","0.5","0.5","l","",""
"animation","47","119569","0.0-5.0-2.21","5de8887aa2db898017debf1a","bdp_lott","Sat Mar 25 2023 17:46:55 GMT-0700 (Pacific Daylight Time)","381548","green","red","","","","","","","","","","204","","","","","","[{""stimulus"":""img/green_ll/1.jpg"",""time"":56},{""stimulus"":""img/green_ll/2.jpg"",""time"":103},{""stimulus"":""img/green_ll/3.jpg"",""time"":163},{""stimulus"":""img/green_ll/4.jpg"",""time"":211},{""stimulus"":""img/green_ll/5.jpg"",""time"":258},{""stimulus"":""img/green_ll/6.jpg"",""time"":307},{""stimulus"":""img/green_ll/7.jpg"",""time"":360},{""stimulus"":""img/green_ll/8.jpg"",""time"":408},{""stimulus"":""img/green_ll/9.jpg"",""time"":458},{""stimulus"":""img/green_ll/10.jpg"",""time"":504},{""stimulus"":""img/green_ll/11.jpg"",""time"":563}]","[]"
"image-keyboard-response","48","120609","0.0-5.0-1.22","5de8887aa2db898017debf1a","bdp_lott","Sat Mar 25 2023 17:46:55 GMT-0700 (Pacific Daylight Time)","381548","green","red","","1038","","","","choice","","img/green_ll/choose11.jpg","1","203","green","0.5","0.5","0.5","l","",""
"animation","49","121217","0.0-5.0-2.22","5de8887aa2db898017debf1a","bdp_lott","Sat Mar 25 2023 17:46:55 GMT-0700 (Pacific Daylight Time)","381548","green","red","","","","","","","","","","203","","","","","","[{""stimulus"":""img/green_ll/1.jpg"",""time"":54},{""stimulus"":""img/green_ll/2.jpg"",""time"":113},{""stimulus"":""img/green_ll/3.jpg"",""time"":161},{""stimulus"":""img/green_ll/4.jpg"",""time"":208},{""stimulus"":""img/green_ll/5.jpg"",""time"":257},{""stimulus"":""img/green_ll/6.jpg"",""time"":310},{""stimulus"":""img/green_ll/7.jpg"",""time"":358},{""stimulus"":""img/green_ll/8.jpg"",""time"":408},{""stimulus"":""img/green_ll/9.jpg"",""time"":453},{""stimulus"":""img/green_ll/10.jpg"",""time"":513},{""stimulus"":""img/green_ll/11.jpg"",""time"":561}]","[]"
"image-keyboard-response","50","121878","0.0-5.0-1.23","5de8887aa2db898017debf1a","bdp_lott","Sat Mar 25 2023 17:46:55 GMT-0700 (Pacific Daylight Time)","381548","green","red","","659","","","","choice","","img/green_ll/choose11.jpg","2","202","red","0.5","0.5","0.5","w","",""
"animation","51","122487","0.0-5.0-2.23","5de8887aa2db898017debf1a","bdp_lott","Sat Mar 25 2023 17:46:55 GMT-0700 (Pacific Daylight Time)","381548","green","red","","","","","","","","","","202","","","","","","[{""stimulus"":""img/red_lw/1.jpg"",""time"":59},{""stimulus"":""img/red_lw/2.jpg"",""time"":108},{""stimulus"":""img/red_lw/3.jpg"",""time"":156},{""stimulus"":""img/red_lw/4.jpg"",""time"":208},{""stimulus"":""img/red_lw/5.jpg"",""time"":256},{""stimulus"":""img/red_lw/6.jpg"",""time"":306},{""stimulus"":""img/red_lw/7.jpg"",""time"":353},{""stimulus"":""img/red_lw/8.jpg"",""time"":412},{""stimulus"":""img/red_lw/9.jpg"",""time"":460},{""stimulus"":""img/red_lw/10.jpg"",""time"":508},{""stimulus"":""img/red_lw/11.jpg"",""time"":556}]","[]"
"image-keyboard-response","52","123475","0.0-5.0-1.24","5de8887aa2db898017debf1a","bdp_lott","Sat Mar 25 2023 17:46:55 GMT-0700 (Pacific Daylight Time)","381548","green","red","","987","","","","choice","","img/red_lw/choose11.jpg","1","201","green","0.5","0.5","0.5","w","",""
"animation","53","124080","0.0-5.0-2.24","5de8887aa2db898017debf1a","bdp_lott","Sat Mar 25 2023 17:46:55 GMT-0700 (Pacific Daylight Time)","381548","green","red","","","","","","","","","","201","","","","","","[{""stimulus"":""img/green_ww/1.jpg"",""time"":62},{""stimulus"":""img/green_ww/2.jpg"",""time"":110},{""stimulus"":""img/green_ww/3.jpg"",""time"":158},{""stimulus"":""img/green_ww/4.jpg"",""time"":206},{""stimulus"":""img/green_ww/5.jpg"",""time"":258},{""stimulus"":""img/green_ww/6.jpg"",""time"":308},{""stimulus"":""img/green_ww/7.jpg"",""time"":354},{""stimulus"":""img/green_ww/8.jpg"",""time"":406},{""stimulus"":""img/green_ww/9.jpg"",""time"":462},{""stimulus"":""img/green_ww/10.jpg"",""time"":510},{""stimulus"":""img/green_ww/11.jpg"",""time"":558}]","[]"
"image-keyboard-response","54","125222","0.0-5.0-1.25","5de8887aa2db898017debf1a","bdp_lott","Sat Mar 25 2023 17:46:55 GMT-0700 (Pacific Daylight Time)","381548","green","red","","1141","","","","choice","","img/green_ww/choose11.jpg","1","200","green","0.5","0.5","0.5","w","",""
"animation","55","125830","0.0-5.0-2.25","5de8887aa2db898017debf1a","bdp_lott","Sat Mar 25 2023 17:46:55 GMT-0700 (Pacific Daylight Time)","381548","green","red","","","","","","","","","","200","","","","","","[{""stimulus"":""img/green_ww/1.jpg"",""time"":60},{""stimulus"":""img/green_ww/2.jpg"",""time"":108},{""stimulus"":""img/green_ww/3.jpg"",""time"":162},{""stimulus"":""img/green_ww/4.jpg"",""time"":208},{""stimulus"":""img/green_ww/5.jpg"",""time"":259},{""stimulus"":""img/green_ww/6.jpg"",""time"":305},{""stimulus"":""img/green_ww/7.jpg"",""time"":364},{""stimulus"":""img/green_ww/8.jpg"",""time"":412},{""stimulus"":""img/green_ww/9.jpg"",""time"":460},{""stimulus"":""img/green_ww/10.jpg"",""time"":508},{""stimulus"":""img/green_ww/11.jpg"",""time"":562}]","[]"
"image-keyboard-response","56","126889","0.0-5.0-1.26","5de8887aa2db898017debf1a","bdp_lott","Sat Mar 25 2023 17:46:55 GMT-0700 (Pacific Daylight Time)","381548","green","red","","1058","","","","choice","","img/green_ww/choose11.jpg","2","199","red","0.5","0.5","0.5","l","",""
"animation","57","127494","0.0-5.0-2.26","5de8887aa2db898017debf1a","bdp_lott","Sat Mar 25 2023 17:46:55 GMT-0700 (Pacific Daylight Time)","381548","green","red","","","","","","","","","","199","","","","","","[{""stimulus"":""img/red_wl/1.jpg"",""time"":57},{""stimulus"":""img/red_wl/2.jpg"",""time"":112},{""stimulus"":""img/red_wl/3.jpg"",""time"":157},{""stimulus"":""img/red_wl/4.jpg"",""time"":205},{""stimulus"":""img/red_wl/5.jpg"",""time"":253},{""stimulus"":""img/red_wl/6.jpg"",""time"":312},{""stimulus"":""img/red_wl/7.jpg"",""time"":361},{""stimulus"":""img/red_wl/8.jpg"",""time"":409},{""stimulus"":""img/red_wl/9.jpg"",""time"":457},{""stimulus"":""img/red_wl/10.jpg"",""time"":512},{""stimulus"":""img/red_wl/11.jpg"",""time"":558}]","[]"
"image-keyboard-response","58","128515","0.0-5.0-1.27","5de8887aa2db898017debf1a","bdp_lott","Sat Mar 25 2023 17:46:55 GMT-0700 (Pacific Daylight Time)","381548","green","red","","1019","","","","choice","","img/red_wl/choose11.jpg","1","198","green","0.5","0.5","0.5","w","",""
"animation","59","129121","0.0-5.0-2.27","5de8887aa2db898017debf1a","bdp_lott","Sat Mar 25 2023 17:46:55 GMT-0700 (Pacific Daylight Time)","381548","green","red","","","","","","","","","","198","","","","","","[{""stimulus"":""img/green_wl/1.jpg"",""time"":62},{""stimulus"":""img/green_wl/2.jpg"",""time"":111},{""stimulus"":""img/green_wl/3.jpg"",""time"":155},{""stimulus"":""img/green_wl/4.jpg"",""time"":206},{""stimulus"":""img/green_wl/5.jpg"",""time"":261},{""stimulus"":""img/green_wl/6.jpg"",""time"":307},{""stimulus"":""img/green_wl/7.jpg"",""time"":356},{""stimulus"":""img/green_wl/8.jpg"",""time"":404},{""stimulus"":""img/green_wl/9.jpg"",""time"":462},{""stimulus"":""img/green_wl/10.jpg"",""time"":511},{""stimulus"":""img/green_wl/11.jpg"",""time"":555}]","[]"
"image-keyboard-response","60","130029","0.0-5.0-1.28","5de8887aa2db898017debf1a","bdp_lott","Sat Mar 25 2023 17:46:55 GMT-0700 (Pacific Daylight Time)","381548","green","red","","907","","","","choice","","img/green_wl/choose11.jpg","1","197","green","0.5","0.5","0.5","l","",""
"animation","61","130641","0.0-5.0-2.28","5de8887aa2db898017debf1a","bdp_lott","Sat Mar 25 2023 17:46:55 GMT-0700 (Pacific Daylight Time)","381548","green","red","","","","","","","","","","197","","","","","","[{""stimulus"":""img/green_ll/1.jpg"",""time"":57},{""stimulus"":""img/green_ll/2.jpg"",""time"":105},{""stimulus"":""img/green_ll/3.jpg"",""time"":155},{""stimulus"":""img/green_ll/4.jpg"",""time"":212},{""stimulus"":""img/green_ll/5.jpg"",""time"":252},{""stimulus"":""img/green_ll/6.jpg"",""time"":308},{""stimulus"":""img/green_ll/7.jpg"",""time"":356},{""stimulus"":""img/green_ll/8.jpg"",""time"":409},{""stimulus"":""img/green_ll/9.jpg"",""time"":457},{""stimulus"":""img/green_ll/10.jpg"",""time"":505},{""stimulus"":""img/green_ll/11.jpg"",""time"":555}]","[]"
"image-keyboard-response","62","131349","0.0-5.0-1.29","5de8887aa2db898017debf1a","bdp_lott","Sat Mar 25 2023 17:46:55 GMT-0700 (Pacific Daylight Time)","381548","green","red","","707","","","","choice","","img/green_ll/choose11.jpg","2","196","red","0.5","0.5","0.5","l","",""
"animation","63","131958","0.0-5.0-2.29","5de8887aa2db898017debf1a","bdp_lott","Sat Mar 25 2023 17:46:55 GMT-0700 (Pacific Daylight Time)","381548","green","red","","","","","","","","","","196","","","","","","[{""stimulus"":""img/red_ll/1.jpg"",""time"":59},{""stimulus"":""img/red_ll/2.jpg"",""time"":107},{""stimulus"":""img/red_ll/3.jpg"",""time"":155},{""stimulus"":""img/red_ll/4.jpg"",""time"":209},{""stimulus"":""img/red_ll/5.jpg"",""time"":259},{""stimulus"":""img/red_ll/6.jpg"",""time"":305},{""stimulus"":""img/red_ll/7.jpg"",""time"":353},{""stimulus"":""img/red_ll/8.jpg"",""time"":409},{""stimulus"":""img/red_ll/9.jpg"",""time"":459},{""stimulus"":""img/red_ll/10.jpg"",""time"":507},{""stimulus"":""img/red_ll/11.jpg"",""time"":555}]","[]"
"image-keyboard-response","64","132693","0.0-5.0-1.30","5de8887aa2db898017debf1a","bdp_lott","Sat Mar 25 2023 17:46:55 GMT-0700 (Pacific Daylight Time)","381548","green","red","","733","","","","choice","","img/red_ll/choose11.jpg","2","195","red","0.5","0.5","0.5","w","",""
"animation","65","133302","0.0-5.0-2.30","5de8887aa2db898017debf1a","bdp_lott","Sat Mar 25 2023 17:46:55 GMT-0700 (Pacific Daylight Time)","381548","green","red","","","","","","","","","","195","","","","","","[{""stimulus"":""img/red_lw/1.jpg"",""time"":60},{""stimulus"":""img/red_lw/2.jpg"",""time"":108},{""stimulus"":""img/red_lw/3.jpg"",""time"":156},{""stimulus"":""img/red_lw/4.jpg"",""time"":210},{""stimulus"":""img/red_lw/5.jpg"",""time"":258},{""stimulus"":""img/red_lw/6.jpg"",""time"":308},{""stimulus"":""img/red_lw/7.jpg"",""time"":353},{""stimulus"":""img/red_lw/8.jpg"",""time"":412},{""stimulus"":""img/red_lw/9.jpg"",""time"":460},{""stimulus"":""img/red_lw/10.jpg"",""time"":508},{""stimulus"":""img/red_lw/11.jpg"",""time"":556}]","[]"
"image-keyboard-response","66","134158","0.0-5.0-1.31","5de8887aa2db898017debf1a","bdp_lott","Sat Mar 25 2023 17:46:55 GMT-0700 (Pacific Daylight Time)","381548","green","red","","855","","","","choice","","img/red_lw/choose11.jpg","2","194","red","0.5","0.5","0.5","w","",""
"animation","67","134769","0.0-5.0-2.31","5de8887aa2db898017debf1a","bdp_lott","Sat Mar 25 2023 17:46:55 GMT-0700 (Pacific Daylight Time)","381548","green","red","","","","","","","","","","194","","","","","","[{""stimulus"":""img/red_lw/1.jpg"",""time"":57},{""stimulus"":""img/red_lw/2.jpg"",""time"":104},{""stimulus"":""img/red_lw/3.jpg"",""time"":163},{""stimulus"":""img/red_lw/4.jpg"",""time"":211},{""stimulus"":""img/red_lw/5.jpg"",""time"":259},{""stimulus"":""img/red_lw/6.jpg"",""time"":307},{""stimulus"":""img/red_lw/7.jpg"",""time"":361},{""stimulus"":""img/red_lw/8.jpg"",""time"":409},{""stimulus"":""img/red_lw/9.jpg"",""time"":459},{""stimulus"":""img/red_lw/10.jpg"",""time"":505},{""stimulus"":""img/red_lw/11.jpg"",""time"":563}]","[]"
"image-keyboard-response","68","135819","0.0-5.0-1.32","5de8887aa2db898017debf1a","bdp_lott","Sat Mar 25 2023 17:46:55 GMT-0700 (Pacific Daylight Time)","381548","green","red","","1048","","","","choice","","img/red_lw/choose11.jpg","2","193","red","0.5","0.5","0.5","l","",""
"animation","69","136422","0.0-5.0-2.32","5de8887aa2db898017debf1a","bdp_lott","Sat Mar 25 2023 17:46:55 GMT-0700 (Pacific Daylight Time)","381548","green","red","","","","","","","","","","193","","","","","","[{""stimulus"":""img/red_ll/1.jpg"",""time"":62},{""stimulus"":""img/red_ll/2.jpg"",""time"":108},{""stimulus"":""img/red_ll/3.jpg"",""time"":157},{""stimulus"":""img/red_ll/4.jpg"",""time"":204},{""stimulus"":""img/red_ll/5.jpg"",""time"":262},{""stimulus"":""img/red_ll/6.jpg"",""time"":310},{""stimulus"":""img/red_ll/7.jpg"",""time"":358},{""stimulus"":""img/red_ll/8.jpg"",""time"":406},{""stimulus"":""img/red_ll/9.jpg"",""time"":462},{""stimulus"":""img/red_ll/10.jpg"",""time"":507},{""stimulus"":""img/red_ll/11.jpg"",""time"":557}]","[]"
"image-keyboard-response","70","137028","0.0-5.0-1.33","5de8887aa2db898017debf1a","bdp_lott","Sat Mar 25 2023 17:46:55 GMT-0700 (Pacific Daylight Time)","381548","green","red","","604","","","","choice","","img/red_ll/choose11.jpg","1","192","green","0.5","0.5","0.5","l","",""
"animation","71","137638","0.0-5.0-2.33","5de8887aa2db898017debf1a","bdp_lott","Sat Mar 25 2023 17:46:55 GMT-0700 (Pacific Daylight Time)","381548","green","red","","","","","","","","","","192","","","","","","[{""stimulus"":""img/green_ll/1.jpg"",""time"":62},{""stimulus"":""img/green_ll/2.jpg"",""time"":109},{""stimulus"":""img/green_ll/3.jpg"",""time"":157},{""stimulus"":""img/green_ll/4.jpg"",""time"":210},{""stimulus"":""img/green_ll/5.jpg"",""time"":258},{""stimulus"":""img/green_ll/6.jpg"",""time"":306},{""stimulus"":""img/green_ll/7.jpg"",""time"":356},{""stimulus"":""img/green_ll/8.jpg"",""time"":413},{""stimulus"":""img/green_ll/9.jpg"",""time"":461},{""stimulus"":""img/green_ll/10.jpg"",""time"":509},{""stimulus"":""img/green_ll/11.jpg"",""time"":557}]","[]"
"image-keyboard-response","72","138339","0.0-5.0-1.34","5de8887aa2db898017debf1a","bdp_lott","Sat Mar 25 2023 17:46:55 GMT-0700 (Pacific Daylight Time)","381548","green","red","","699","","","","choice","","img/green_ll/choose11.jpg","1","191","green","0.5","0.5","0.5","l","",""
"animation","73","138945","0.0-5.0-2.34","5de8887aa2db898017debf1a","bdp_lott","Sat Mar 25 2023 17:46:55 GMT-0700 (Pacific Daylight Time)","381548","green","red","","","","","","","","","","191","","","","","","[{""stimulus"":""img/green_ll/1.jpg"",""time"":62},{""stimulus"":""img/green_ll/2.jpg"",""time"":110},{""stimulus"":""img/green_ll/3.jpg"",""time"":158},{""stimulus"":""img/green_ll/4.jpg"",""time"":206},{""stimulus"":""img/green_ll/5.jpg"",""time"":253},{""stimulus"":""img/green_ll/6.jpg"",""time"":307},{""stimulus"":""img/green_ll/7.jpg"",""time"":356},{""stimulus"":""img/green_ll/8.jpg"",""time"":403},{""stimulus"":""img/green_ll/9.jpg"",""time"":462},{""stimulus"":""img/green_ll/10.jpg"",""time"":510},{""stimulus"":""img/green_ll/11.jpg"",""time"":558}]","[]"
"image-keyboard-response","74","139642","0.0-5.0-1.35","5de8887aa2db898017debf1a","bdp_lott","Sat Mar 25 2023 17:46:55 GMT-0700 (Pacific Daylight Time)","381548","green","red","","696","","","","choice","","img/green_ll/choose11.jpg","2","190","red","0.5","0.5","0.5","w","",""
"animation","75","140245","0.0-5.0-2.35","5de8887aa2db898017debf1a","bdp_lott","Sat Mar 25 2023 17:46:55 GMT-0700 (Pacific Daylight Time)","381548","green","red","","","","","","","","","","190","","","","","","[{""stimulus"":""img/red_lw/1.jpg"",""time"":60},{""stimulus"":""img/red_lw/2.jpg"",""time"":108},{""stimulus"":""img/red_lw/3.jpg"",""time"":158},{""stimulus"":""img/red_lw/4.jpg"",""time"":203},{""stimulus"":""img/red_lw/5.jpg"",""time"":262},{""stimulus"":""img/red_lw/6.jpg"",""time"":310},{""stimulus"":""img/red_lw/7.jpg"",""time"":358},{""stimulus"":""img/red_lw/8.jpg"",""time"":406},{""stimulus"":""img/red_lw/9.jpg"",""time"":460},{""stimulus"":""img/red_lw/10.jpg"",""time"":508},{""stimulus"":""img/red_lw/11.jpg"",""time"":558}]","[]"
"image-keyboard-response","76","141124","0.0-5.0-1.36","5de8887aa2db898017debf1a","bdp_lott","Sat Mar 25 2023 17:46:55 GMT-0700 (Pacific Daylight Time)","381548","green","red","","877","","","","choice","","img/red_lw/choose11.jpg","2","189","red","0.5","0.5","0.5","l","",""
"animation","77","141733","0.0-5.0-2.36","5de8887aa2db898017debf1a","bdp_lott","Sat Mar 25 2023 17:46:55 GMT-0700 (Pacific Daylight Time)","381548","green","red","","","","","","","","","","189","","","","","","[{""stimulus"":""img/red_ll/1.jpg"",""time"":60},{""stimulus"":""img/red_ll/2.jpg"",""time"":108},{""stimulus"":""img/red_ll/3.jpg"",""time"":156},{""stimulus"":""img/red_ll/4.jpg"",""time"":209},{""stimulus"":""img/red_ll/5.jpg"",""time"":259},{""stimulus"":""img/red_ll/6.jpg"",""time"":305},{""stimulus"":""img/red_ll/7.jpg"",""time"":356},{""stimulus"":""img/red_ll/8.jpg"",""time"":412},{""stimulus"":""img/red_ll/9.jpg"",""time"":460},{""stimulus"":""img/red_ll/10.jpg"",""time"":508},{""stimulus"":""img/red_ll/11.jpg"",""time"":556}]","[]"
"image-keyboard-response","78","142242","0.0-5.0-1.37","5de8887aa2db898017debf1a","bdp_lott","Sat Mar 25 2023 17:46:55 GMT-0700 (Pacific Daylight Time)","381548","green","red","","507","","","","choice","","img/red_ll/choose11.jpg","1","188","green","0.5","0.5","0.5","w","",""
"animation","79","142849","0.0-5.0-2.37","5de8887aa2db898017debf1a","bdp_lott","Sat Mar 25 2023 17:46:55 GMT-0700 (Pacific Daylight Time)","381548","green","red","","","","","","","","","","188","","","","","","[{""stimulus"":""img/green_wl/1.jpg"",""time"":62},{""stimulus"":""img/green_wl/2.jpg"",""time"":111},{""stimulus"":""img/green_wl/3.jpg"",""time"":152},{""stimulus"":""img/green_wl/4.jpg"",""time"":207},{""stimulus"":""img/green_wl/5.jpg"",""time"":261},{""stimulus"":""img/green_wl/6.jpg"",""time"":309},{""stimulus"":""img/green_wl/7.jpg"",""time"":359},{""stimulus"":""img/green_wl/8.jpg"",""time"":404},{""stimulus"":""img/green_wl/9.jpg"",""time"":463},{""stimulus"":""img/green_wl/10.jpg"",""time"":511},{""stimulus"":""img/green_wl/11.jpg"",""time"":558}]","[]"
"image-keyboard-response","80","143795","0.0-5.0-1.38","5de8887aa2db898017debf1a","bdp_lott","Sat Mar 25 2023 17:46:55 GMT-0700 (Pacific Daylight Time)","381548","green","red","","945","","","","choice","","img/green_wl/choose11.jpg","1","187","green","0.5","0.5","0.5","l","",""
"animation","81","144400","0.0-5.0-2.38","5de8887aa2db898017debf1a","bdp_lott","Sat Mar 25 2023 17:46:55 GMT-0700 (Pacific Daylight Time)","381548","green","red","","","","","","","","","","187","","","","","","[{""stimulus"":""img/green_ll/1.jpg"",""time"":61},{""stimulus"":""img/green_ll/2.jpg"",""time"":109},{""stimulus"":""img/green_ll/3.jpg"",""time"":158},{""stimulus"":""img/green_ll/4.jpg"",""time"":205},{""stimulus"":""img/green_ll/5.jpg"",""time"":254},{""stimulus"":""img/green_ll/6.jpg"",""time"":308},{""stimulus"":""img/green_ll/7.jpg"",""time"":356},{""stimulus"":""img/green_ll/8.jpg"",""time"":406},{""stimulus"":""img/green_ll/9.jpg"",""time"":462},{""stimulus"":""img/green_ll/10.jpg"",""time"":510},{""stimulus"":""img/green_ll/11.jpg"",""time"":558}]","[]"
"image-keyboard-response","82","145063","0.0-5.0-1.39","5de8887aa2db898017debf1a","bdp_lott","Sat Mar 25 2023 17:46:55 GMT-0700 (Pacific Daylight Time)","381548","green","red","","662","","","","choice","","img/green_ll/choose11.jpg","2","186","red","0.5","0.5","0.5","w","",""
"animation","83","145669","0.0-5.0-2.39","5de8887aa2db898017debf1a","bdp_lott","Sat Mar 25 2023 17:46:55 GMT-0700 (Pacific Daylight Time)","381548","green","red","","","","","","","","","","186","","","","","","[{""stimulus"":""img/red_lw/1.jpg"",""time"":57},{""stimulus"":""img/red_lw/2.jpg"",""time"":105},{""stimulus"":""img/red_lw/3.jpg"",""time"":158},{""stimulus"":""img/red_lw/4.jpg"",""time"":206},{""stimulus"":""img/red_lw/5.jpg"",""time"":254},{""stimulus"":""img/red_lw/6.jpg"",""time"":303},{""stimulus"":""img/red_lw/7.jpg"",""time"":361},{""stimulus"":""img/red_lw/8.jpg"",""time"":405},{""stimulus"":""img/red_lw/9.jpg"",""time"":457},{""stimulus"":""img/red_lw/10.jpg"",""time"":505},{""stimulus"":""img/red_lw/11.jpg"",""time"":561}]","[]"
"image-keyboard-response","84","146606","0.0-5.0-1.40","5de8887aa2db898017debf1a","bdp_lott","Sat Mar 25 2023 17:46:55 GMT-0700 (Pacific Daylight Time)","381548","green","red","","936","","","","choice","","img/red_lw/choose11.jpg","1","185","green","0.5","0.5","0.5","w","",""
"animation","85","147217","0.0-5.0-2.40","5de8887aa2db898017debf1a","bdp_lott","Sat Mar 25 2023 17:46:55 GMT-0700 (Pacific Daylight Time)","381548","green","red","","","","","","","","","","185","","","","","","[{""stimulus"":""img/green_ww/1.jpg"",""time"":56},{""stimulus"":""img/green_ww/2.jpg"",""time"":103},{""stimulus"":""img/green_ww/3.jpg"",""time"":160},{""stimulus"":""img/green_ww/4.jpg"",""time"":210},{""stimulus"":""img/green_ww/5.jpg"",""time"":255},{""stimulus"":""img/green_ww/6.jpg"",""time"":306},{""stimulus"":""img/green_ww/7.jpg"",""time"":360},{""stimulus"":""img/green_ww/8.jpg"",""time"":410},{""stimulus"":""img/green_ww/9.jpg"",""time"":455},{""stimulus"":""img/green_ww/10.jpg"",""time"":503},{""stimulus"":""img/green_ww/11.jpg"",""time"":562}]","[]"
"image-keyboard-response","86","148305","0.0-5.0-1.41","5de8887aa2db898017debf1a","bdp_lott","Sat Mar 25 2023 17:46:55 GMT-0700 (Pacific Daylight Time)","381548","green","red","","1087","","","","choice","","img/green_ww/choose11.jpg","2","184","red","0.5","0.5","0.5","w","",""
"animation","87","148913","0.0-5.0-2.41","5de8887aa2db898017debf1a","bdp_lott","Sat Mar 25 2023 17:46:55 GMT-0700 (Pacific Daylight Time)","381548","green","red","","","","","","","","","","184","","","","","","[{""stimulus"":""img/red_ww/1.jpg"",""time"":54},{""stimulus"":""img/red_ww/2.jpg"",""time"":112},{""stimulus"":""img/red_ww/3.jpg"",""time"":156},{""stimulus"":""img/red_ww/4.jpg"",""time"":208},{""stimulus"":""img/red_ww/5.jpg"",""time"":256},{""stimulus"":""img/red_ww/6.jpg"",""time"":309},{""stimulus"":""img/red_ww/7.jpg"",""time"":357},{""stimulus"":""img/red_ww/8.jpg"",""time"":405},{""stimulus"":""img/red_ww/9.jpg"",""time"":454},{""stimulus"":""img/red_ww/10.jpg"",""time"":511},{""stimulus"":""img/red_ww/11.jpg"",""time"":559}]","[]"
"image-keyboard-response","88","149751","0.0-5.0-1.42","5de8887aa2db898017debf1a","bdp_lott","Sat Mar 25 2023 17:46:55 GMT-0700 (Pacific Daylight Time)","381548","green","red","","836","","","","choice","","img/red_ww/choose11.jpg","1","183","green","0.5","0.5","0.5","w","",""
"animation","89","150358","0.0-5.0-2.42","5de8887aa2db898017debf1a","bdp_lott","Sat Mar 25 2023 17:46:55 GMT-0700 (Pacific Daylight Time)","381548","green","red","","","","","","","","","","183","","","","","","[{""stimulus"":""img/green_ww/1.jpg"",""time"":58},{""stimulus"":""img/green_ww/2.jpg"",""time"":106},{""stimulus"":""img/green_ww/3.jpg"",""time"":159},{""stimulus"":""img/green_ww/4.jpg"",""time"":208},{""stimulus"":""img/green_ww/5.jpg"",""time"":258},{""stimulus"":""img/green_ww/6.jpg"",""time"":303},{""stimulus"":""img/green_ww/7.jpg"",""time"":362},{""stimulus"":""img/green_ww/8.jpg"",""time"":410},{""stimulus"":""img/green_ww/9.jpg"",""time"":458},{""stimulus"":""img/green_ww/10.jpg"",""time"":506},{""stimulus"":""img/green_ww/11.jpg"",""time"":559}]","[]"
"image-keyboard-response","90","151222","0.0-5.0-1.43","5de8887aa2db898017debf1a","bdp_lott","Sat Mar 25 2023 17:46:55 GMT-0700 (Pacific Daylight Time)","381548","green","red","","863","","","","choice","","img/green_ww/choose11.jpg","2","182","red","0.5","0.5","0.5","w","",""
"animation","91","151829","0.0-5.0-2.43","5de8887aa2db898017debf1a","bdp_lott","Sat Mar 25 2023 17:46:55 GMT-0700 (Pacific Daylight Time)","381548","green","red","","","","","","","","","","182","","","","","","[{""stimulus"":""img/red_ww/1.jpg"",""time"":59},{""stimulus"":""img/red_ww/2.jpg"",""time"":107},{""stimulus"":""img/red_ww/3.jpg"",""time"":162},{""stimulus"":""img/red_ww/4.jpg"",""time"":208},{""stimulus"":""img/red_ww/5.jpg"",""time"":259},{""stimulus"":""img/red_ww/6.jpg"",""time"":303},{""stimulus"":""img/red_ww/7.jpg"",""time"":363},{""stimulus"":""img/red_ww/8.jpg"",""time"":411},{""stimulus"":""img/red_ww/9.jpg"",""time"":459},{""stimulus"":""img/red_ww/10.jpg"",""time"":507},{""stimulus"":""img/red_ww/11.jpg"",""time"":562}]","[]"
"image-keyboard-response","92","152493","0.0-5.0-1.44","5de8887aa2db898017debf1a","bdp_lott","Sat Mar 25 2023 17:46:55 GMT-0700 (Pacific Daylight Time)","381548","green","red","","663","","","","choice","","img/red_ww/choose11.jpg","1","181","green","0.5","0.5","0.5","w","",""
"animation","93","153104","0.0-5.0-2.44","5de8887aa2db898017debf1a","bdp_lott","Sat Mar 25 2023 17:46:55 GMT-0700 (Pacific Daylight Time)","381548","green","red","","","","","","","","","","181","","","","","","[{""stimulus"":""img/green_ww/1.jpg"",""time"":56},{""stimulus"":""img/green_ww/2.jpg"",""time"":108},{""stimulus"":""img/green_ww/3.jpg"",""time"":164},{""stimulus"":""img/green_ww/4.jpg"",""time"":212},{""stimulus"":""img/green_ww/5.jpg"",""time"":260},{""stimulus"":""img/green_ww/6.jpg"",""time"":304},{""stimulus"":""img/green_ww/7.jpg"",""time"":361},{""stimulus"":""img/green_ww/8.jpg"",""time"":404},{""stimulus"":""img/green_ww/9.jpg"",""time"":457},{""stimulus"":""img/green_ww/10.jpg"",""time"":507},{""stimulus"":""img/green_ww/11.jpg"",""time"":564}]","[]"
"image-keyboard-response","94","153992","0.0-5.0-1.45","5de8887aa2db898017debf1a","bdp_lott","Sat Mar 25 2023 17:46:55 GMT-0700 (Pacific Daylight Time)","381548","green","red","","885","","","","choice","","img/green_ww/choose11.jpg","2","180","red","0.5","0.5","0.5","w","",""
"animation","95","154600","0.0-5.0-2.45","5de8887aa2db898017debf1a","bdp_lott","Sat Mar 25 2023 17:46:55 GMT-0700 (Pacific Daylight Time)","381548","green","red","","","","","","","","","","180","","","","","","[{""stimulus"":""img/red_ww/1.jpg"",""time"":57},{""stimulus"":""img/red_ww/2.jpg"",""time"":110},{""stimulus"":""img/red_ww/3.jpg"",""time"":158},{""stimulus"":""img/red_ww/4.jpg"",""time"":208},{""stimulus"":""img/red_ww/5.jpg"",""time"":253},{""stimulus"":""img/red_ww/6.jpg"",""time"":308},{""stimulus"":""img/red_ww/7.jpg"",""time"":358},{""stimulus"":""img/red_ww/8.jpg"",""time"":408},{""stimulus"":""img/red_ww/9.jpg"",""time"":457},{""stimulus"":""img/red_ww/10.jpg"",""time"":505},{""stimulus"":""img/red_ww/11.jpg"",""time"":558}]","[]"
"image-keyboard-response","96","155449","0.0-5.0-1.46","5de8887aa2db898017debf1a","bdp_lott","Sat Mar 25 2023 17:46:55 GMT-0700 (Pacific Daylight Time)","381548","green","red","","848","","","","choice","","img/red_ww/choose11.jpg","1","179","green","0.5","0.5","0.5","l","",""
"animation","97","156053","0.0-5.0-2.46","5de8887aa2db898017debf1a","bdp_lott","Sat Mar 25 2023 17:46:55 GMT-0700 (Pacific Daylight Time)","381548","green","red","","","","","","","","","","179","","","","","","[{""stimulus"":""img/green_lw/1.jpg"",""time"":61},{""stimulus"":""img/green_lw/2.jpg"",""time"":110},{""stimulus"":""img/green_lw/3.jpg"",""time"":160},{""stimulus"":""img/green_lw/4.jpg"",""time"":205},{""stimulus"":""img/green_lw/5.jpg"",""time"":263},{""stimulus"":""img/green_lw/6.jpg"",""time"":301},{""stimulus"":""img/green_lw/7.jpg"",""time"":360},{""stimulus"":""img/green_lw/8.jpg"",""time"":408},{""stimulus"":""img/green_lw/9.jpg"",""time"":461},{""stimulus"":""img/green_lw/10.jpg"",""time"":510},{""stimulus"":""img/green_lw/11.jpg"",""time"":560}]","[]"
"image-keyboard-response","98","157056","0.0-5.0-1.47","5de8887aa2db898017debf1a","bdp_lott","Sat Mar 25 2023 17:46:55 GMT-0700 (Pacific Daylight Time)","381548","green","red","","1002","","","","choice","","img/green_lw/choose11.jpg","1","178","green","0.5","0.5","0.5","w","",""
"animation","99","157663","0.0-5.0-2.47","5de8887aa2db898017debf1a","bdp_lott","Sat Mar 25 2023 17:46:55 GMT-0700 (Pacific Daylight Time)","381548","green","red","","","","","","","","","","178","","","","","","[{""stimulus"":""img/green_ww/1.jpg"",""time"":53},{""stimulus"":""img/green_ww/2.jpg"",""time"":112},{""stimulus"":""img/green_ww/3.jpg"",""time"":160},{""stimulus"":""img/green_ww/4.jpg"",""time"":204},{""stimulus"":""img/green_ww/5.jpg"",""time"":256},{""stimulus"":""img/green_ww/6.jpg"",""time"":310},{""stimulus"":""img/green_ww/7.jpg"",""time"":356},{""stimulus"":""img/green_ww/8.jpg"",""time"":405},{""stimulus"":""img/green_ww/9.jpg"",""time"":453},{""stimulus"":""img/green_ww/10.jpg"",""time"":512},{""stimulus"":""img/green_ww/11.jpg"",""time"":560}]","[]"
"image-keyboard-response","100","158462","0.0-5.0-1.48","5de8887aa2db898017debf1a","bdp_lott","Sat Mar 25 2023 17:46:55 GMT-0700 (Pacific Daylight Time)","381548","green","red","","798","","","","choice","","img/green_ww/choose11.jpg","2","177","red","0.5","0.5","0.5","l","",""
"animation","101","159072","0.0-5.0-2.48","5de8887aa2db898017debf1a","bdp_lott","Sat Mar 25 2023 17:46:55 GMT-0700 (Pacific Daylight Time)","381548","green","red","","","","","","","","","","177","","","","","","[{""stimulus"":""img/red_wl/1.jpg"",""time"":54},{""stimulus"":""img/red_wl/2.jpg"",""time"":104},{""stimulus"":""img/red_wl/3.jpg"",""time"":162},{""stimulus"":""img/red_wl/4.jpg"",""time"":210},{""stimulus"":""img/red_wl/5.jpg"",""time"":258},{""stimulus"":""img/red_wl/6.jpg"",""time"":306},{""stimulus"":""img/red_wl/7.jpg"",""time"":359},{""stimulus"":""img/red_wl/8.jpg"",""time"":407},{""stimulus"":""img/red_wl/9.jpg"",""time"":454},{""stimulus"":""img/red_wl/10.jpg"",""time"":504},{""stimulus"":""img/red_wl/11.jpg"",""time"":562}]","[]"
"image-keyboard-response","102","159873","0.0-5.0-1.49","5de8887aa2db898017debf1a","bdp_lott","Sat Mar 25 2023 17:46:55 GMT-0700 (Pacific Daylight Time)","381548","green","red","","800","","","","choice","","img/red_wl/choose11.jpg","2","176","red","0.5","0.5","0.5","l","",""
"animation","103","160480","0.0-5.0-2.49","5de8887aa2db898017debf1a","bdp_lott","Sat Mar 25 2023 17:46:55 GMT-0700 (Pacific Daylight Time)","381548","green","red","","","","","","","","","","176","","","","","","[{""stimulus"":""img/red_wl/1.jpg"",""time"":63},{""stimulus"":""img/red_wl/2.jpg"",""time"":110},{""stimulus"":""img/red_wl/3.jpg"",""time"":158},{""stimulus"":""img/red_wl/4.jpg"",""time"":207},{""stimulus"":""img/red_wl/5.jpg"",""time"":260},{""stimulus"":""img/red_wl/6.jpg"",""time"":310},{""stimulus"":""img/red_wl/7.jpg"",""time"":355},{""stimulus"":""img/red_wl/8.jpg"",""time"":407},{""stimulus"":""img/red_wl/9.jpg"",""time"":463},{""stimulus"":""img/red_wl/10.jpg"",""time"":510},{""stimulus"":""img/red_wl/11.jpg"",""time"":559}]","[]"
"image-keyboard-response","104","161250","0.0-5.0-1.50","5de8887aa2db898017debf1a","bdp_lott","Sat Mar 25 2023 17:46:55 GMT-0700 (Pacific Daylight Time)","381548","green","red","","769","","","","choice","","img/red_wl/choose11.jpg","1","175","green","0.5","0.5","0.5","w","",""
"animation","105","161852","0.0-5.0-2.50","5de8887aa2db898017debf1a","bdp_lott","Sat Mar 25 2023 17:46:55 GMT-0700 (Pacific Daylight Time)","381548","green","red","","","","","","","","","","175","","","","","","[{""stimulus"":""img/green_wl/1.jpg"",""time"":62},{""stimulus"":""img/green_wl/2.jpg"",""time"":110},{""stimulus"":""img/green_wl/3.jpg"",""time"":158},{""stimulus"":""img/green_wl/4.jpg"",""time"":204},{""stimulus"":""img/green_wl/5.jpg"",""time"":259},{""stimulus"":""img/green_wl/6.jpg"",""time"":308},{""stimulus"":""img/green_wl/7.jpg"",""time"":358},{""stimulus"":""img/green_wl/8.jpg"",""time"":402},{""stimulus"":""img/green_wl/9.jpg"",""time"":462},{""stimulus"":""img/green_wl/10.jpg"",""time"":510},{""stimulus"":""img/green_wl/11.jpg"",""time"":558}]","[]"
"image-keyboard-response","106","162832","0.0-5.0-1.51","5de8887aa2db898017debf1a","bdp_lott","Sat Mar 25 2023 17:46:55 GMT-0700 (Pacific Daylight Time)","381548","green","red","","979","","","","choice","","img/green_wl/choose11.jpg","1","174","green","0.5","0.5","0.5","w","",""
"animation","107","163440","0.0-5.0-2.51","5de8887aa2db898017debf1a","bdp_lott","Sat Mar 25 2023 17:46:55 GMT-0700 (Pacific Daylight Time)","381548","green","red","","","","","","","","","","174","","","","","","[{""stimulus"":""img/green_wl/1.jpg"",""time"":53},{""stimulus"":""img/green_wl/2.jpg"",""time"":113},{""stimulus"":""img/green_wl/3.jpg"",""time"":157},{""stimulus"":""img/green_wl/4.jpg"",""time"":204},{""stimulus"":""img/green_wl/5.jpg"",""time"":257},{""stimulus"":""img/green_wl/6.jpg"",""time"":310},{""stimulus"":""img/green_wl/7.jpg"",""time"":360},{""stimulus"":""img/green_wl/8.jpg"",""time"":405},{""stimulus"":""img/green_wl/9.jpg"",""time"":453},{""stimulus"":""img/green_wl/10.jpg"",""time"":513},{""stimulus"":""img/green_wl/11.jpg"",""time"":560}]","[]"
"image-keyboard-response","108","164618","0.0-5.0-1.52","5de8887aa2db898017debf1a","bdp_lott","Sat Mar 25 2023 17:46:55 GMT-0700 (Pacific Daylight Time)","381548","green","red","","1177","","","","choice","","img/green_wl/choose11.jpg","1","173","green","0.5","0.5","0.5","l","",""
"animation","109","165222","0.0-5.0-2.52","5de8887aa2db898017debf1a","bdp_lott","Sat Mar 25 2023 17:46:55 GMT-0700 (Pacific Daylight Time)","381548","green","red","","","","","","","","","","173","","","","","","[{""stimulus"":""img/green_ll/1.jpg"",""time"":63},{""stimulus"":""img/green_ll/2.jpg"",""time"":107},{""stimulus"":""img/green_ll/3.jpg"",""time"":157},{""stimulus"":""img/green_ll/4.jpg"",""time"":203},{""stimulus"":""img/green_ll/5.jpg"",""time"":263},{""stimulus"":""img/green_ll/6.jpg"",""time"":307},{""stimulus"":""img/green_ll/7.jpg"",""time"":358},{""stimulus"":""img/green_ll/8.jpg"",""time"":407},{""stimulus"":""img/green_ll/9.jpg"",""time"":463},{""stimulus"":""img/green_ll/10.jpg"",""time"":507},{""stimulus"":""img/green_ll/11.jpg"",""time"":557}]","[]"
"image-keyboard-response","110","165901","0.0-5.0-1.53","5de8887aa2db898017debf1a","bdp_lott","Sat Mar 25 2023 17:46:55 GMT-0700 (Pacific Daylight Time)","381548","green","red","","678","","","","choice","","img/green_ll/choose11.jpg","2","172","red","0.5","0.5","0.5","w","",""
"animation","111","166512","0.0-5.0-2.53","5de8887aa2db898017debf1a","bdp_lott","Sat Mar 25 2023 17:46:55 GMT-0700 (Pacific Daylight Time)","381548","green","red","","","","","","","","","","172","","","","","","[{""stimulus"":""img/red_lw/1.jpg"",""time"":56},{""stimulus"":""img/red_lw/2.jpg"",""time"":102},{""stimulus"":""img/red_lw/3.jpg"",""time"":163},{""stimulus"":""img/red_lw/4.jpg"",""time"":210},{""stimulus"":""img/red_lw/5.jpg"",""time"":258},{""stimulus"":""img/red_lw/6.jpg"",""time"":302},{""stimulus"":""img/red_lw/7.jpg"",""time"":359},{""stimulus"":""img/red_lw/8.jpg"",""time"":408},{""stimulus"":""img/red_lw/9.jpg"",""time"":457},{""stimulus"":""img/red_lw/10.jpg"",""time"":504},{""stimulus"":""img/red_lw/11.jpg"",""time"":563}]","[]"
"image-keyboard-response","112","167230","0.0-5.0-1.54","5de8887aa2db898017debf1a","bdp_lott","Sat Mar 25 2023 17:46:55 GMT-0700 (Pacific Daylight Time)","381548","green","red","","716","","","","choice","","img/red_lw/choose11.jpg","2","171","red","0.5","0.5","0.5","w","",""
"animation","113","167840","0.0-5.0-2.54","5de8887aa2db898017debf1a","bdp_lott","Sat Mar 25 2023 17:46:55 GMT-0700 (Pacific Daylight Time)","381548","green","red","","","","","","","","","","171","","","","","","[{""stimulus"":""img/red_lw/1.jpg"",""time"":55},{""stimulus"":""img/red_lw/2.jpg"",""time"":104},{""stimulus"":""img/red_lw/3.jpg"",""time"":162},{""stimulus"":""img/red_lw/4.jpg"",""time"":208},{""stimulus"":""img/red_lw/5.jpg"",""time"":258},{""stimulus"":""img/red_lw/6.jpg"",""time"":306},{""stimulus"":""img/red_lw/7.jpg"",""time"":362},{""stimulus"":""img/red_lw/8.jpg"",""time"":407},{""stimulus"":""img/red_lw/9.jpg"",""time"":455},{""stimulus"":""img/red_lw/10.jpg"",""time"":505},{""stimulus"":""img/red_lw/11.jpg"",""time"":562}]","[]"
"image-keyboard-response","114","168771","0.0-5.0-1.55","5de8887aa2db898017debf1a","bdp_lott","Sat Mar 25 2023 17:46:55 GMT-0700 (Pacific Daylight Time)","381548","green","red","","929","","","","choice","","img/red_lw/choose11.jpg","2","170","red","0.5","0.5","0.5","l","",""
"animation","115","169383","0.0-5.0-2.55","5de8887aa2db898017debf1a","bdp_lott","Sat Mar 25 2023 17:46:55 GMT-0700 (Pacific Daylight Time)","381548","green","red","","","","","","","","","","170","","","","","","[{""stimulus"":""img/red_ll/1.jpg"",""time"":61},{""stimulus"":""img/red_ll/2.jpg"",""time"":109},{""stimulus"":""img/red_ll/3.jpg"",""time"":157},{""stimulus"":""img/red_ll/4.jpg"",""time"":213},{""stimulus"":""img/red_ll/5.jpg"",""time"":253},{""stimulus"":""img/red_ll/6.jpg"",""time"":307},{""stimulus"":""img/red_ll/7.jpg"",""time"":354},{""stimulus"":""img/red_ll/8.jpg"",""time"":413},{""stimulus"":""img/red_ll/9.jpg"",""time"":461},{""stimulus"":""img/red_ll/10.jpg"",""time"":509},{""stimulus"":""img/red_ll/11.jpg"",""time"":557}]","[]"
"image-keyboard-response","116","170043","0.0-5.0-1.56","5de8887aa2db898017debf1a","bdp_lott","Sat Mar 25 2023 17:46:55 GMT-0700 (Pacific Daylight Time)","381548","green","red","","659","","","","choice","","img/red_ll/choose11.jpg","1","169","green","0.5","0.5","0.5","l","",""
"animation","117","170656","0.0-5.0-2.56","5de8887aa2db898017debf1a","bdp_lott","Sat Mar 25 2023 17:46:55 GMT-0700 (Pacific Daylight Time)","381548","green","red","","","","","","","","","","169","","","","","","[{""stimulus"":""img/green_ll/1.jpg"",""time"":58},{""stimulus"":""img/green_ll/2.jpg"",""time"":107},{""stimulus"":""img/green_ll/3.jpg"",""time"":157},{""stimulus"":""img/green_ll/4.jpg"",""time"":210},{""stimulus"":""img/green_ll/5.jpg"",""time"":257},{""stimulus"":""img/green_ll/6.jpg"",""time"":309},{""stimulus"":""img/green_ll/7.jpg"",""time"":357},{""stimulus"":""img/green_ll/8.jpg"",""time"":411},{""stimulus"":""img/green_ll/9.jpg"",""time"":459},{""stimulus"":""img/green_ll/10.jpg"",""time"":507},{""stimulus"":""img/green_ll/11.jpg"",""time"":557}]","[]"
"image-keyboard-response","118","171528","0.0-5.0-1.57","5de8887aa2db898017debf1a","bdp_lott","Sat Mar 25 2023 17:46:55 GMT-0700 (Pacific Daylight Time)","381548","green","red","","871","","","","choice","","img/green_ll/choose11.jpg","1","168","green","0.5","0.5","0.5","w","",""
"animation","119","172133","0.0-5.0-2.57","5de8887aa2db898017debf1a","bdp_lott","Sat Mar 25 2023 17:46:55 GMT-0700 (Pacific Daylight Time)","381548","green","red","","","","","","","","","","168","","","","","","[{""stimulus"":""img/green_wl/1.jpg"",""time"":56},{""stimulus"":""img/green_wl/2.jpg"",""time"":109},{""stimulus"":""img/green_wl/3.jpg"",""time"":158},{""stimulus"":""img/green_wl/4.jpg"",""time"":206},{""stimulus"":""img/green_wl/5.jpg"",""time"":256},{""stimulus"":""img/green_wl/6.jpg"",""time"":309},{""stimulus"":""img/green_wl/7.jpg"",""time"":352},{""stimulus"":""img/green_wl/8.jpg"",""time"":408},{""stimulus"":""img/green_wl/9.jpg"",""time"":455},{""stimulus"":""img/green_wl/10.jpg"",""time"":509},{""stimulus"":""img/green_wl/11.jpg"",""time"":557}]","[]"
"image-keyboard-response","120","173193","0.0-5.0-1.58","5de8887aa2db898017debf1a","bdp_lott","Sat Mar 25 2023 17:46:55 GMT-0700 (Pacific Daylight Time)","381548","green","red","","1060","","","","choice","","img/green_wl/choose11.jpg","1","167","green","0.5","0.5","0.5","l","",""
"animation","121","173800","0.0-5.0-2.58","5de8887aa2db898017debf1a","bdp_lott","Sat Mar 25 2023 17:46:55 GMT-0700 (Pacific Daylight Time)","381548","green","red","","","","","","","","","","167","","","","","","[{""stimulus"":""img/green_ll/1.jpg"",""time"":59},{""stimulus"":""img/green_ll/2.jpg"",""time"":108},{""stimulus"":""img/green_ll/3.jpg"",""time"":156},{""stimulus"":""img/green_ll/4.jpg"",""time"":206},{""stimulus"":""img/green_ll/5.jpg"",""time"":258},{""stimulus"":""img/green_ll/6.jpg"",""time"":306},{""stimulus"":""img/green_ll/7.jpg"",""time"":358},{""stimulus"":""img/green_ll/8.jpg"",""time"":406},{""stimulus"":""img/green_ll/9.jpg"",""time"":460},{""stimulus"":""img/green_ll/10.jpg"",""time"":507},{""stimulus"":""img/green_ll/11.jpg"",""time"":556}]","[]"
"image-keyboard-response","122","174479","0.0-5.0-1.59","5de8887aa2db898017debf1a","bdp_lott","Sat Mar 25 2023 17:46:55 GMT-0700 (Pacific Daylight Time)","381548","green","red","","677","","","","choice","","img/green_ll/choose11.jpg","2","166","red","0.5","0.5","0.5","l","",""
"animation","123","175088","0.0-5.0-2.59","5de8887aa2db898017debf1a","bdp_lott","Sat Mar 25 2023 17:46:55 GMT-0700 (Pacific Daylight Time)","381548","green","red","","","","","","","","","","166","","","","","","[{""stimulus"":""img/red_ll/1.jpg"",""time"":54},{""stimulus"":""img/red_ll/2.jpg"",""time"":105},{""stimulus"":""img/red_ll/3.jpg"",""time"":160},{""stimulus"":""img/red_ll/4.jpg"",""time"":209},{""stimulus"":""img/red_ll/5.jpg"",""time"":257},{""stimulus"":""img/red_ll/6.jpg"",""time"":313},{""stimulus"":""img/red_ll/7.jpg"",""time"":358},{""stimulus"":""img/red_ll/8.jpg"",""time"":407},{""stimulus"":""img/red_ll/9.jpg"",""time"":455},{""stimulus"":""img/red_ll/10.jpg"",""time"":505},{""stimulus"":""img/red_ll/11.jpg"",""time"":561}]","[]"
"image-keyboard-response","124","175675","0.0-5.0-1.60","5de8887aa2db898017debf1a","bdp_lott","Sat Mar 25 2023 17:46:55 GMT-0700 (Pacific Daylight Time)","381548","green","red","","586","","","","choice","","img/red_ll/choose11.jpg","2","165","red","0.5","0.5","0.5","w","",""
"animation","125","176288","0.0-5.0-2.60","5de8887aa2db898017debf1a","bdp_lott","Sat Mar 25 2023 17:46:55 GMT-0700 (Pacific Daylight Time)","381548","green","red","","","","","","","","","","165","","","","","","[{""stimulus"":""img/red_lw/1.jpg"",""time"":59},{""stimulus"":""img/red_lw/2.jpg"",""time"":109},{""stimulus"":""img/red_lw/3.jpg"",""time"":154},{""stimulus"":""img/red_lw/4.jpg"",""time"":213},{""stimulus"":""img/red_lw/5.jpg"",""time"":261},{""stimulus"":""img/red_lw/6.jpg"",""time"":309},{""stimulus"":""img/red_lw/7.jpg"",""time"":357},{""stimulus"":""img/red_lw/8.jpg"",""time"":411},{""stimulus"":""img/red_lw/9.jpg"",""time"":459},{""stimulus"":""img/red_lw/10.jpg"",""time"":509},{""stimulus"":""img/red_lw/11.jpg"",""time"":554}]","[]"
"image-keyboard-response","126","177678","0.0-5.0-1.61","5de8887aa2db898017debf1a","bdp_lott","Sat Mar 25 2023 17:46:55 GMT-0700 (Pacific Daylight Time)","381548","green","red","","1389","","","","choice","","img/red_lw/choose11.jpg","1","164","green","0.5","0.5","0.5","l","",""
"animation","127","178288","0.0-5.0-2.61","5de8887aa2db898017debf1a","bdp_lott","Sat Mar 25 2023 17:46:55 GMT-0700 (Pacific Daylight Time)","381548","green","red","","","","","","","","","","164","","","","","","[{""stimulus"":""img/green_lw/1.jpg"",""time"":54},{""stimulus"":""img/green_lw/2.jpg"",""time"":105},{""stimulus"":""img/green_lw/3.jpg"",""time"":160},{""stimulus"":""img/green_lw/4.jpg"",""time"":209},{""stimulus"":""img/green_lw/5.jpg"",""time"":257},{""stimulus"":""img/green_lw/6.jpg"",""time"":305},{""stimulus"":""img/green_lw/7.jpg"",""time"":358},{""stimulus"":""img/green_lw/8.jpg"",""time"":401},{""stimulus"":""img/green_lw/9.jpg"",""time"":455},{""stimulus"":""img/green_lw/10.jpg"",""time"":505},{""stimulus"":""img/green_lw/11.jpg"",""time"":561}]","[]"
"image-keyboard-response","128","178956","0.0-5.0-1.62","5de8887aa2db898017debf1a","bdp_lott","Sat Mar 25 2023 17:46:55 GMT-0700 (Pacific Daylight Time)","381548","green","red","","666","","","","choice","","img/green_lw/choose11.jpg","2","163","red","0.5","0.5","0.5","l","",""
"animation","129","179568","0.0-5.0-2.62","5de8887aa2db898017debf1a","bdp_lott","Sat Mar 25 2023 17:46:55 GMT-0700 (Pacific Daylight Time)","381548","green","red","","","","","","","","","","163","","","","","","[{""stimulus"":""img/red_ll/1.jpg"",""time"":58},{""stimulus"":""img/red_ll/2.jpg"",""time"":106},{""stimulus"":""img/red_ll/3.jpg"",""time"":153},{""stimulus"":""img/red_ll/4.jpg"",""time"":212},{""stimulus"":""img/red_ll/5.jpg"",""time"":260},{""stimulus"":""img/red_ll/6.jpg"",""time"":305},{""stimulus"":""img/red_ll/7.jpg"",""time"":356},{""stimulus"":""img/red_ll/8.jpg"",""time"":411},{""stimulus"":""img/red_ll/9.jpg"",""time"":457},{""stimulus"":""img/red_ll/10.jpg"",""time"":506},{""stimulus"":""img/red_ll/11.jpg"",""time"":555}]","[]"
"image-keyboard-response","130","180087","0.0-5.0-1.63","5de8887aa2db898017debf1a","bdp_lott","Sat Mar 25 2023 17:46:55 GMT-0700 (Pacific Daylight Time)","381548","green","red","","518","","","","choice","","img/red_ll/choose11.jpg","1","162","green","0.5","0.5","0.5","l","",""
"animation","131","180693","0.0-5.0-2.63","5de8887aa2db898017debf1a","bdp_lott","Sat Mar 25 2023 17:46:55 GMT-0700 (Pacific Daylight Time)","381548","green","red","","","","","","","","","","162","","","","","","[{""stimulus"":""img/green_ll/1.jpg"",""time"":56},{""stimulus"":""img/green_ll/2.jpg"",""time"":112},{""stimulus"":""img/green_ll/3.jpg"",""time"":157},{""stimulus"":""img/green_ll/4.jpg"",""time"":206},{""stimulus"":""img/green_ll/5.jpg"",""time"":254},{""stimulus"":""img/green_ll/6.jpg"",""time"":312},{""stimulus"":""img/green_ll/7.jpg"",""time"":360},{""stimulus"":""img/green_ll/8.jpg"",""time"":408},{""stimulus"":""img/green_ll/9.jpg"",""time"":456},{""stimulus"":""img/green_ll/10.jpg"",""time"":512},{""stimulus"":""img/green_ll/11.jpg"",""time"":558}]","[]"
"image-keyboard-response","132","181420","0.0-5.0-1.64","5de8887aa2db898017debf1a","bdp_lott","Sat Mar 25 2023 17:46:55 GMT-0700 (Pacific Daylight Time)","381548","green","red","","726","","","","choice","","img/green_ll/choose11.jpg","1","161","green","0.5","0.5","0.5","w","",""
"animation","133","182032","0.0-5.0-2.64","5de8887aa2db898017debf1a","bdp_lott","Sat Mar 25 2023 17:46:55 GMT-0700 (Pacific Daylight Time)","381548","green","red","","","","","","","","","","161","","","","","","[{""stimulus"":""img/green_wl/1.jpg"",""time"":59},{""stimulus"":""img/green_wl/2.jpg"",""time"":104},{""stimulus"":""img/green_wl/3.jpg"",""time"":154},{""stimulus"":""img/green_wl/4.jpg"",""time"":211},{""stimulus"":""img/green_wl/5.jpg"",""time"":259},{""stimulus"":""img/green_wl/6.jpg"",""time"":307},{""stimulus"":""img/green_wl/7.jpg"",""time"":354},{""stimulus"":""img/green_wl/8.jpg"",""time"":409},{""stimulus"":""img/green_wl/9.jpg"",""time"":459},{""stimulus"":""img/green_wl/10.jpg"",""time"":504},{""stimulus"":""img/green_wl/11.jpg"",""time"":554}]","[]"
"image-keyboard-response","134","182643","0.0-5.0-1.65","5de8887aa2db898017debf1a","bdp_lott","Sat Mar 25 2023 17:46:55 GMT-0700 (Pacific Daylight Time)","381548","green","red","","610","","","","choice","","img/green_wl/choose11.jpg","2","160","red","0.5","0.5","0.5","l","",""
"animation","135","183252","0.0-5.0-2.65","5de8887aa2db898017debf1a","bdp_lott","Sat Mar 25 2023 17:46:55 GMT-0700 (Pacific Daylight Time)","381548","green","red","","","","","","","","","","160","","","","","","[{""stimulus"":""img/red_wl/1.jpg"",""time"":61},{""stimulus"":""img/red_wl/2.jpg"",""time"":109},{""stimulus"":""img/red_wl/3.jpg"",""time"":157},{""stimulus"":""img/red_wl/4.jpg"",""time"":210},{""stimulus"":""img/red_wl/5.jpg"",""time"":258},{""stimulus"":""img/red_wl/6.jpg"",""time"":301},{""stimulus"":""img/red_wl/7.jpg"",""time"":354},{""stimulus"":""img/red_wl/8.jpg"",""time"":413},{""stimulus"":""img/red_wl/9.jpg"",""time"":461},{""stimulus"":""img/red_wl/10.jpg"",""time"":509},{""stimulus"":""img/red_wl/11.jpg"",""time"":557}]","[]"
"image-keyboard-response","136","183996","0.0-5.0-1.66","5de8887aa2db898017debf1a","bdp_lott","Sat Mar 25 2023 17:46:55 GMT-0700 (Pacific Daylight Time)","381548","green","red","","742","","","","choice","","img/red_wl/choose11.jpg","1","159","green","0.5","0.5","0.5","l","",""
"animation","137","184608","0.0-5.0-2.66","5de8887aa2db898017debf1a","bdp_lott","Sat Mar 25 2023 17:46:55 GMT-0700 (Pacific Daylight Time)","381548","green","red","","","","","","","","","","159","","","","","","[{""stimulus"":""img/green_ll/1.jpg"",""time"":57},{""stimulus"":""img/green_ll/2.jpg"",""time"":105},{""stimulus"":""img/green_ll/3.jpg"",""time"":154},{""stimulus"":""img/green_ll/4.jpg"",""time"":212},{""stimulus"":""img/green_ll/5.jpg"",""time"":259},{""stimulus"":""img/green_ll/6.jpg"",""time"":308},{""stimulus"":""img/green_ll/7.jpg"",""time"":356},{""stimulus"":""img/green_ll/8.jpg"",""time"":409},{""stimulus"":""img/green_ll/9.jpg"",""time"":459},{""stimulus"":""img/green_ll/10.jpg"",""time"":506},{""stimulus"":""img/green_ll/11.jpg"",""time"":554}]","[]"
"image-keyboard-response","138","185230","0.0-5.0-1.67","5de8887aa2db898017debf1a","bdp_lott","Sat Mar 25 2023 17:46:55 GMT-0700 (Pacific Daylight Time)","381548","green","red","","621","","","","choice","","img/green_ll/choose11.jpg","2","158","red","0.5","0.5","0.5","l","",""
"animation","139","185840","0.0-5.0-2.67","5de8887aa2db898017debf1a","bdp_lott","Sat Mar 25 2023 17:46:55 GMT-0700 (Pacific Daylight Time)","381548","green","red","","","","","","","","","","158","","","","","","[{""stimulus"":""img/red_ll/1.jpg"",""time"":54},{""stimulus"":""img/red_ll/2.jpg"",""time"":103},{""stimulus"":""img/red_ll/3.jpg"",""time"":161},{""stimulus"":""img/red_ll/4.jpg"",""time"":209},{""stimulus"":""img/red_ll/5.jpg"",""time"":257},{""stimulus"":""img/red_ll/6.jpg"",""time"":311},{""stimulus"":""img/red_ll/7.jpg"",""time"":361},{""stimulus"":""img/red_ll/8.jpg"",""time"":406},{""stimulus"":""img/red_ll/9.jpg"",""time"":454},{""stimulus"":""img/red_ll/10.jpg"",""time"":503},{""stimulus"":""img/red_ll/11.jpg"",""time"":561}]","[]"
"image-keyboard-response","140","186615","0.0-5.0-1.68","5de8887aa2db898017debf1a","bdp_lott","Sat Mar 25 2023 17:46:55 GMT-0700 (Pacific Daylight Time)","381548","green","red","","774","","","","choice","","img/red_ll/choose11.jpg","1","157","green","0.5","0.5","0.5","l","",""
"animation","141","187220","0.0-5.0-2.68","5de8887aa2db898017debf1a","bdp_lott","Sat Mar 25 2023 17:46:55 GMT-0700 (Pacific Daylight Time)","381548","green","red","","","","","","","","","","157","","","","","","[{""stimulus"":""img/green_ll/1.jpg"",""time"":56},{""stimulus"":""img/green_ll/2.jpg"",""time"":109},{""stimulus"":""img/green_ll/3.jpg"",""time"":159},{""stimulus"":""img/green_ll/4.jpg"",""time"":205},{""stimulus"":""img/green_ll/5.jpg"",""time"":253},{""stimulus"":""img/green_ll/6.jpg"",""time"":312},{""stimulus"":""img/green_ll/7.jpg"",""time"":359},{""stimulus"":""img/green_ll/8.jpg"",""time"":408},{""stimulus"":""img/green_ll/9.jpg"",""time"":456},{""stimulus"":""img/green_ll/10.jpg"",""time"":509},{""stimulus"":""img/green_ll/11.jpg"",""time"":559}]","[]"
"image-keyboard-response","142","187852","0.0-5.0-1.69","5de8887aa2db898017debf1a","bdp_lott","Sat Mar 25 2023 17:46:55 GMT-0700 (Pacific Daylight Time)","381548","green","red","","631","","","","choice","","img/green_ll/choose11.jpg","2","156","red","0.5","0.5","0.5","l","",""
"animation","143","188464","0.0-5.0-2.69","5de8887aa2db898017debf1a","bdp_lott","Sat Mar 25 2023 17:46:55 GMT-0700 (Pacific Daylight Time)","381548","green","red","","","","","","","","","","156","","","","","","[{""stimulus"":""img/red_ll/1.jpg"",""time"":56},{""stimulus"":""img/red_ll/2.jpg"",""time"":106},{""stimulus"":""img/red_ll/3.jpg"",""time"":163},{""stimulus"":""img/red_ll/4.jpg"",""time"":205},{""stimulus"":""img/red_ll/5.jpg"",""time"":259},{""stimulus"":""img/red_ll/6.jpg"",""time"":303},{""stimulus"":""img/red_ll/7.jpg"",""time"":360},{""stimulus"":""img/red_ll/8.jpg"",""time"":407},{""stimulus"":""img/red_ll/9.jpg"",""time"":457},{""stimulus"":""img/red_ll/10.jpg"",""time"":506},{""stimulus"":""img/red_ll/11.jpg"",""time"":559}]","[]"
"image-keyboard-response","144","189163","0.0-5.0-1.70","5de8887aa2db898017debf1a","bdp_lott","Sat Mar 25 2023 17:46:55 GMT-0700 (Pacific Daylight Time)","381548","green","red","","698","","","","choice","","img/red_ll/choose11.jpg","1","155","green","0.5","0.5","0.5","w","",""
"animation","145","189775","0.0-5.0-2.70","5de8887aa2db898017debf1a","bdp_lott","Sat Mar 25 2023 17:46:55 GMT-0700 (Pacific Daylight Time)","381548","green","red","","","","","","","","","","155","","","","","","[{""stimulus"":""img/green_wl/1.jpg"",""time"":58},{""stimulus"":""img/green_wl/2.jpg"",""time"":106},{""stimulus"":""img/green_wl/3.jpg"",""time"":154},{""stimulus"":""img/green_wl/4.jpg"",""time"":212},{""stimulus"":""img/green_wl/5.jpg"",""time"":261},{""stimulus"":""img/green_wl/6.jpg"",""time"":308},{""stimulus"":""img/green_wl/7.jpg"",""time"":357},{""stimulus"":""img/green_wl/8.jpg"",""time"":412},{""stimulus"":""img/green_wl/9.jpg"",""time"":458},{""stimulus"":""img/green_wl/10.jpg"",""time"":506},{""stimulus"":""img/green_wl/11.jpg"",""time"":554}]","[]"
"image-keyboard-response","146","190428","0.0-5.0-1.71","5de8887aa2db898017debf1a","bdp_lott","Sat Mar 25 2023 17:46:55 GMT-0700 (Pacific Daylight Time)","381548","green","red","","652","","","","choice","","img/green_wl/choose11.jpg","2","154","red","0.5","0.5","0.5","w","",""
"animation","147","191036","0.0-5.0-2.71","5de8887aa2db898017debf1a","bdp_lott","Sat Mar 25 2023 17:46:55 GMT-0700 (Pacific Daylight Time)","381548","green","red","","","","","","","","","","154","","","","","","[{""stimulus"":""img/red_ww/1.jpg"",""time"":56},{""stimulus"":""img/red_ww/2.jpg"",""time"":105},{""stimulus"":""img/red_ww/3.jpg"",""time"":163},{""stimulus"":""img/red_ww/4.jpg"",""time"":208},{""stimulus"":""img/red_ww/5.jpg"",""time"":259},{""stimulus"":""img/red_ww/6.jpg"",""time"":303},{""stimulus"":""img/red_ww/7.jpg"",""time"":363},{""stimulus"":""img/red_ww/8.jpg"",""time"":407},{""stimulus"":""img/red_ww/9.jpg"",""time"":456},{""stimulus"":""img/red_ww/10.jpg"",""time"":505},{""stimulus"":""img/red_ww/11.jpg"",""time"":563}]","[]"
"image-keyboard-response","148","192099","0.0-5.0-1.72","5de8887aa2db898017debf1a","bdp_lott","Sat Mar 25 2023 17:46:55 GMT-0700 (Pacific Daylight Time)","381548","green","red","","1062","","","","choice","","img/red_ww/choose11.jpg","2","153","red","0.5","0.5","0.5","l","",""
"animation","149","192711","0.0-5.0-2.72","5de8887aa2db898017debf1a","bdp_lott","Sat Mar 25 2023 17:46:55 GMT-0700 (Pacific Daylight Time)","381548","green","red","","","","","","","","","","153","","","","","","[{""stimulus"":""img/red_wl/1.jpg"",""time"":61},{""stimulus"":""img/red_wl/2.jpg"",""time"":109},{""stimulus"":""img/red_wl/3.jpg"",""time"":157},{""stimulus"":""img/red_wl/4.jpg"",""time"":212},{""stimulus"":""img/red_wl/5.jpg"",""time"":260},{""stimulus"":""img/red_wl/6.jpg"",""time"":305},{""stimulus"":""img/red_wl/7.jpg"",""time"":356},{""stimulus"":""img/red_wl/8.jpg"",""time"":412},{""stimulus"":""img/red_wl/9.jpg"",""time"":461},{""stimulus"":""img/red_wl/10.jpg"",""time"":509},{""stimulus"":""img/red_wl/11.jpg"",""time"":557}]","[]"
"image-keyboard-response","150","193220","0.0-5.0-1.73","5de8887aa2db898017debf1a","bdp_lott","Sat Mar 25 2023 17:46:55 GMT-0700 (Pacific Daylight Time)","381548","green","red","","508","","","","choice","","img/red_wl/choose11.jpg","1","152","green","0.5","0.5","0.5","w","",""
"animation","151","193829","0.0-5.0-2.73","5de8887aa2db898017debf1a","bdp_lott","Sat Mar 25 2023 17:46:55 GMT-0700 (Pacific Daylight Time)","381548","green","red","","","","","","","","","","152","","","","","","[{""stimulus"":""img/green_wl/1.jpg"",""time"":59},{""stimulus"":""img/green_wl/2.jpg"",""time"":108},{""stimulus"":""img/green_wl/3.jpg"",""time"":163},{""stimulus"":""img/green_wl/4.jpg"",""time"":208},{""stimulus"":""img/green_wl/5.jpg"",""time"":259},{""stimulus"":""img/green_wl/6.jpg"",""time"":307},{""stimulus"":""img/green_wl/7.jpg"",""time"":363},{""stimulus"":""img/green_wl/8.jpg"",""time"":407},{""stimulus"":""img/green_wl/9.jpg"",""time"":459},{""stimulus"":""img/green_wl/10.jpg"",""time"":507},{""stimulus"":""img/green_wl/11.jpg"",""time"":563}]","[]"
"image-keyboard-response","152","194593","0.0-5.0-1.74","5de8887aa2db898017debf1a","bdp_lott","Sat Mar 25 2023 17:46:55 GMT-0700 (Pacific Daylight Time)","381548","green","red","","763","","","","choice","","img/green_wl/choose11.jpg","2","151","red","0.5","0.5","0.5","w","",""
"animation","153","195199","0.0-5.0-2.74","5de8887aa2db898017debf1a","bdp_lott","Sat Mar 25 2023 17:46:55 GMT-0700 (Pacific Daylight Time)","381548","green","red","","","","","","","","","","151","","","","","","[{""stimulus"":""img/red_ww/1.jpg"",""time"":63},{""stimulus"":""img/red_ww/2.jpg"",""time"":111},{""stimulus"":""img/red_ww/3.jpg"",""time"":159},{""stimulus"":""img/red_ww/4.jpg"",""time"":207},{""stimulus"":""img/red_ww/5.jpg"",""time"":260},{""stimulus"":""img/red_ww/6.jpg"",""time"":307},{""stimulus"":""img/red_ww/7.jpg"",""time"":357},{""stimulus"":""img/red_ww/8.jpg"",""time"":404},{""stimulus"":""img/red_ww/9.jpg"",""time"":463},{""stimulus"":""img/red_ww/10.jpg"",""time"":511},{""stimulus"":""img/red_ww/11.jpg"",""time"":559}]","[]"
"image-keyboard-response","154","195944","0.0-5.0-1.75","5de8887aa2db898017debf1a","bdp_lott","Sat Mar 25 2023 17:46:55 GMT-0700 (Pacific Daylight Time)","381548","green","red","","743","","","","choice","","img/red_ww/choose11.jpg","1","150","green","0.5","0.5","0.5","w","",""
"animation","155","196550","0.0-5.0-2.75","5de8887aa2db898017debf1a","bdp_lott","Sat Mar 25 2023 17:46:55 GMT-0700 (Pacific Daylight Time)","381548","green","red","","","","","","","","","","150","","","","","","[{""stimulus"":""img/green_ww/1.jpg"",""time"":61},{""stimulus"":""img/green_ww/2.jpg"",""time"":109},{""stimulus"":""img/green_ww/3.jpg"",""time"":156},{""stimulus"":""img/green_ww/4.jpg"",""time"":206},{""stimulus"":""img/green_ww/5.jpg"",""time"":264},{""stimulus"":""img/green_ww/6.jpg"",""time"":308},{""stimulus"":""img/green_ww/7.jpg"",""time"":360},{""stimulus"":""img/green_ww/8.jpg"",""time"":408},{""stimulus"":""img/green_ww/9.jpg"",""time"":461},{""stimulus"":""img/green_ww/10.jpg"",""time"":512},{""stimulus"":""img/green_ww/11.jpg"",""time"":556}]","[]"
"image-keyboard-response","156","197214","0.0-5.0-1.76","5de8887aa2db898017debf1a","bdp_lott","Sat Mar 25 2023 17:46:55 GMT-0700 (Pacific Daylight Time)","381548","green","red","","662","","","","choice","","img/green_ww/choose11.jpg","2","149","red","0.5","0.1","0.1","l","",""
"animation","157","197823","0.0-5.0-2.76","5de8887aa2db898017debf1a","bdp_lott","Sat Mar 25 2023 17:46:55 GMT-0700 (Pacific Daylight Time)","381548","green","red","","","","","","","","","","149","","","","","","[{""stimulus"":""img/red_wl/1.jpg"",""time"":55},{""stimulus"":""img/red_wl/2.jpg"",""time"":103},{""stimulus"":""img/red_wl/3.jpg"",""time"":162},{""stimulus"":""img/red_wl/4.jpg"",""time"":210},{""stimulus"":""img/red_wl/5.jpg"",""time"":258},{""stimulus"":""img/red_wl/6.jpg"",""time"":306},{""stimulus"":""img/red_wl/7.jpg"",""time"":359},{""stimulus"":""img/red_wl/8.jpg"",""time"":406},{""stimulus"":""img/red_wl/9.jpg"",""time"":455},{""stimulus"":""img/red_wl/10.jpg"",""time"":503},{""stimulus"":""img/red_wl/11.jpg"",""time"":562}]","[]"
"image-keyboard-response","158","198426","0.0-5.0-1.77","5de8887aa2db898017debf1a","bdp_lott","Sat Mar 25 2023 17:46:55 GMT-0700 (Pacific Daylight Time)","381548","green","red","","600","","","","choice","","img/red_wl/choose11.jpg","1","148","green","0.5","0.1","0.5","w","",""
"animation","159","199029","0.0-5.0-2.77","5de8887aa2db898017debf1a","bdp_lott","Sat Mar 25 2023 17:46:55 GMT-0700 (Pacific Daylight Time)","381548","green","red","","","","","","","","","","148","","","","","","[{""stimulus"":""img/green_wl/1.jpg"",""time"":59},{""stimulus"":""img/green_wl/2.jpg"",""time"":108},{""stimulus"":""img/green_wl/3.jpg"",""time"":158},{""stimulus"":""img/green_wl/4.jpg"",""time"":202},{""stimulus"":""img/green_wl/5.jpg"",""time"":262},{""stimulus"":""img/green_wl/6.jpg"",""time"":306},{""stimulus"":""img/green_wl/7.jpg"",""time"":358},{""stimulus"":""img/green_wl/8.jpg"",""time"":403},{""stimulus"":""img/green_wl/9.jpg"",""time"":459},{""stimulus"":""img/green_wl/10.jpg"",""time"":508},{""stimulus"":""img/green_wl/11.jpg"",""time"":558}]","[]"
"image-keyboard-response","160","199707","0.0-5.0-1.78","5de8887aa2db898017debf1a","bdp_lott","Sat Mar 25 2023 17:46:55 GMT-0700 (Pacific Daylight Time)","381548","green","red","","677","","","","choice","","img/green_wl/choose11.jpg","1","147","green","0.5","0.1","0.5","l","",""
"animation","161","200319","0.0-5.0-2.78","5de8887aa2db898017debf1a","bdp_lott","Sat Mar 25 2023 17:46:55 GMT-0700 (Pacific Daylight Time)","381548","green","red","","","","","","","","","","147","","","","","","[{""stimulus"":""img/green_ll/1.jpg"",""time"":59},{""stimulus"":""img/green_ll/2.jpg"",""time"":105},{""stimulus"":""img/green_ll/3.jpg"",""time"":153},{""stimulus"":""img/green_ll/4.jpg"",""time"":212},{""stimulus"":""img/green_ll/5.jpg"",""time"":259},{""stimulus"":""img/green_ll/6.jpg"",""time"":308},{""stimulus"":""img/green_ll/7.jpg"",""time"":356},{""stimulus"":""img/green_ll/8.jpg"",""time"":409},{""stimulus"":""img/green_ll/9.jpg"",""time"":459},{""stimulus"":""img/green_ll/10.jpg"",""time"":506},{""stimulus"":""img/green_ll/11.jpg"",""time"":553}]","[]"
"image-keyboard-response","162","201056","0.0-5.0-1.79","5de8887aa2db898017debf1a","bdp_lott","Sat Mar 25 2023 17:46:55 GMT-0700 (Pacific Daylight Time)","381548","green","red","","736","","","","choice","","img/green_ll/choose11.jpg","2","146","red","0.5","0.1","0.1","l","",""
"animation","163","201663","0.0-5.0-2.79","5de8887aa2db898017debf1a","bdp_lott","Sat Mar 25 2023 17:46:55 GMT-0700 (Pacific Daylight Time)","381548","green","red","","","","","","","","","","146","","","","","","[{""stimulus"":""img/red_ll/1.jpg"",""time"":53},{""stimulus"":""img/red_ll/2.jpg"",""time"":111},{""stimulus"":""img/red_ll/3.jpg"",""time"":160},{""stimulus"":""img/red_ll/4.jpg"",""time"":203},{""stimulus"":""img/red_ll/5.jpg"",""time"":256},{""stimulus"":""img/red_ll/6.jpg"",""time"":311},{""stimulus"":""img/red_ll/7.jpg"",""time"":356},{""stimulus"":""img/red_ll/8.jpg"",""time"":405},{""stimulus"":""img/red_ll/9.jpg"",""time"":453},{""stimulus"":""img/red_ll/10.jpg"",""time"":511},{""stimulus"":""img/red_ll/11.jpg"",""time"":560}]","[]"
"image-keyboard-response","164","202230","0.0-5.0-1.80","5de8887aa2db898017debf1a","bdp_lott","Sat Mar 25 2023 17:46:55 GMT-0700 (Pacific Daylight Time)","381548","green","red","","566","","","","choice","","img/red_ll/choose11.jpg","2","145","red","0.5","0.1","0.1","l","",""
"animation","165","202836","0.0-5.0-2.80","5de8887aa2db898017debf1a","bdp_lott","Sat Mar 25 2023 17:46:55 GMT-0700 (Pacific Daylight Time)","381548","green","red","","","","","","","","","","145","","","","","","[{""stimulus"":""img/red_ll/1.jpg"",""time"":58},{""stimulus"":""img/red_ll/2.jpg"",""time"":106},{""stimulus"":""img/red_ll/3.jpg"",""time"":159},{""stimulus"":""img/red_ll/4.jpg"",""time"":206},{""stimulus"":""img/red_ll/5.jpg"",""time"":255},{""stimulus"":""img/red_ll/6.jpg"",""time"":314},{""stimulus"":""img/red_ll/7.jpg"",""time"":362},{""stimulus"":""img/red_ll/8.jpg"",""time"":406},{""stimulus"":""img/red_ll/9.jpg"",""time"":458},{""stimulus"":""img/red_ll/10.jpg"",""time"":504},{""stimulus"":""img/red_ll/11.jpg"",""time"":559}]","[]"
"image-keyboard-response","166","203350","0.0-5.0-1.81","5de8887aa2db898017debf1a","bdp_lott","Sat Mar 25 2023 17:46:55 GMT-0700 (Pacific Daylight Time)","381548","green","red","","513","","","","choice","","img/red_ll/choose11.jpg","1","144","green","0.5","0.1","0.5","l","",""
"animation","167","203958","0.0-5.0-2.81","5de8887aa2db898017debf1a","bdp_lott","Sat Mar 25 2023 17:46:55 GMT-0700 (Pacific Daylight Time)","381548","green","red","","","","","","","","","","144","","","","","","[{""stimulus"":""img/green_ll/1.jpg"",""time"":57},{""stimulus"":""img/green_ll/2.jpg"",""time"":105},{""stimulus"":""img/green_ll/3.jpg"",""time"":153},{""stimulus"":""img/green_ll/4.jpg"",""time"":208},{""stimulus"":""img/green_ll/5.jpg"",""time"":254},{""stimulus"":""img/green_ll/6.jpg"",""time"":313},{""stimulus"":""img/green_ll/7.jpg"",""time"":361},{""stimulus"":""img/green_ll/8.jpg"",""time"":409},{""stimulus"":""img/green_ll/9.jpg"",""time"":457},{""stimulus"":""img/green_ll/10.jpg"",""time"":505},{""stimulus"":""img/green_ll/11.jpg"",""time"":558}]","[]"
"image-keyboard-response","168","204520","0.0-5.0-1.82","5de8887aa2db898017debf1a","bdp_lott","Sat Mar 25 2023 17:46:55 GMT-0700 (Pacific Daylight Time)","381548","green","red","","561","","","","choice","","img/green_ll/choose11.jpg","2","143","red","0.5","0.1","0.1","l","",""
"animation","169","205125","0.0-5.0-2.82","5de8887aa2db898017debf1a","bdp_lott","Sat Mar 25 2023 17:46:55 GMT-0700 (Pacific Daylight Time)","381548","green","red","","","","","","","","","","143","","","","","","[{""stimulus"":""img/red_ll/1.jpg"",""time"":61},{""stimulus"":""img/red_ll/2.jpg"",""time"":109},{""stimulus"":""img/red_ll/3.jpg"",""time"":160},{""stimulus"":""img/red_ll/4.jpg"",""time"":205},{""stimulus"":""img/red_ll/5.jpg"",""time"":264},{""stimulus"":""img/red_ll/6.jpg"",""time"":308},{""stimulus"":""img/red_ll/7.jpg"",""time"":360},{""stimulus"":""img/red_ll/8.jpg"",""time"":408},{""stimulus"":""img/red_ll/9.jpg"",""time"":464},{""stimulus"":""img/red_ll/10.jpg"",""time"":508},{""stimulus"":""img/red_ll/11.jpg"",""time"":560}]","[]"
"image-keyboard-response","170","205706","0.0-5.0-1.83","5de8887aa2db898017debf1a","bdp_lott","Sat Mar 25 2023 17:46:55 GMT-0700 (Pacific Daylight Time)","381548","green","red","","580","","","","choice","","img/red_ll/choose11.jpg","1","142","green","0.5","0.1","0.5","l","",""
"animation","171","206319","0.0-5.0-2.83","5de8887aa2db898017debf1a","bdp_lott","Sat Mar 25 2023 17:46:55 GMT-0700 (Pacific Daylight Time)","381548","green","red","","","","","","","","","","142","","","","","","[{""stimulus"":""img/green_ll/1.jpg"",""time"":57},{""stimulus"":""img/green_ll/2.jpg"",""time"":105},{""stimulus"":""img/green_ll/3.jpg"",""time"":154},{""stimulus"":""img/green_ll/4.jpg"",""time"":213},{""stimulus"":""img/green_ll/5.jpg"",""time"":260},{""stimulus"":""img/green_ll/6.jpg"",""time"":309},{""stimulus"":""img/green_ll/7.jpg"",""time"":357},{""stimulus"":""img/green_ll/8.jpg"",""time"":410},{""stimulus"":""img/green_ll/9.jpg"",""time"":460},{""stimulus"":""img/green_ll/10.jpg"",""time"":507},{""stimulus"":""img/green_ll/11.jpg"",""time"":553}]","[]"
"image-keyboard-response","172","206862","0.0-5.0-1.84","5de8887aa2db898017debf1a","bdp_lott","Sat Mar 25 2023 17:46:55 GMT-0700 (Pacific Daylight Time)","381548","green","red","","542","","","","choice","","img/green_ll/choose11.jpg","2","141","red","0.5","0.1","0.1","l","",""
"animation","173","207471","0.0-5.0-2.84","5de8887aa2db898017debf1a","bdp_lott","Sat Mar 25 2023 17:46:55 GMT-0700 (Pacific Daylight Time)","381548","green","red","","","","","","","","","","141","","","","","","[{""stimulus"":""img/red_ll/1.jpg"",""time"":53},{""stimulus"":""img/red_ll/2.jpg"",""time"":104},{""stimulus"":""img/red_ll/3.jpg"",""time"":161},{""stimulus"":""img/red_ll/4.jpg"",""time"":209},{""stimulus"":""img/red_ll/5.jpg"",""time"":257},{""stimulus"":""img/red_ll/6.jpg"",""time"":312},{""stimulus"":""img/red_ll/7.jpg"",""time"":358},{""stimulus"":""img/red_ll/8.jpg"",""time"":406},{""stimulus"":""img/red_ll/9.jpg"",""time"":454},{""stimulus"":""img/red_ll/10.jpg"",""time"":504},{""stimulus"":""img/red_ll/11.jpg"",""time"":561}]","[]"
"image-keyboard-response","174","208214","0.0-5.0-1.85","5de8887aa2db898017debf1a","bdp_lott","Sat Mar 25 2023 17:46:55 GMT-0700 (Pacific Daylight Time)","381548","green","red","","742","","","","choice","","img/red_ll/choose11.jpg","1","140","green","0.5","0.1","0.5","w","",""
"animation","175","208820","0.0-5.0-2.85","5de8887aa2db898017debf1a","bdp_lott","Sat Mar 25 2023 17:46:55 GMT-0700 (Pacific Daylight Time)","381548","green","red","","","","","","","","","","140","","","","","","[{""stimulus"":""img/green_wl/1.jpg"",""time"":57},{""stimulus"":""img/green_wl/2.jpg"",""time"":110},{""stimulus"":""img/green_wl/3.jpg"",""time"":160},{""stimulus"":""img/green_wl/4.jpg"",""time"":205},{""stimulus"":""img/green_wl/5.jpg"",""time"":254},{""stimulus"":""img/green_wl/6.jpg"",""time"":302},{""stimulus"":""img/green_wl/7.jpg"",""time"":360},{""stimulus"":""img/green_wl/8.jpg"",""time"":409},{""stimulus"":""img/green_wl/9.jpg"",""time"":457},{""stimulus"":""img/green_wl/10.jpg"",""time"":510},{""stimulus"":""img/green_wl/11.jpg"",""time"":560}]","[]"
"image-keyboard-response","176","209421","0.0-5.0-1.86","5de8887aa2db898017debf1a","bdp_lott","Sat Mar 25 2023 17:46:55 GMT-0700 (Pacific Daylight Time)","381548","green","red","","600","","","","choice","","img/green_wl/choose11.jpg","2","139","red","0.5","0.1","0.1","w","",""
"animation","177","210028","0.0-5.0-2.86","5de8887aa2db898017debf1a","bdp_lott","Sat Mar 25 2023 17:46:55 GMT-0700 (Pacific Daylight Time)","381548","green","red","","","","","","","","","","139","","","","","","[{""stimulus"":""img/red_ww/1.jpg"",""time"":58},{""stimulus"":""img/red_ww/2.jpg"",""time"":103},{""stimulus"":""img/red_ww/3.jpg"",""time"":162},{""stimulus"":""img/red_ww/4.jpg"",""time"":206},{""stimulus"":""img/red_ww/5.jpg"",""time"":258},{""stimulus"":""img/red_ww/6.jpg"",""time"":306},{""stimulus"":""img/red_ww/7.jpg"",""time"":362},{""stimulus"":""img/red_ww/8.jpg"",""time"":406},{""stimulus"":""img/red_ww/9.jpg"",""time"":457},{""stimulus"":""img/red_ww/10.jpg"",""time"":503},{""stimulus"":""img/red_ww/11.jpg"",""time"":561}]","[]"
"image-keyboard-response","178","210955","0.0-5.0-1.87","5de8887aa2db898017debf1a","bdp_lott","Sat Mar 25 2023 17:46:55 GMT-0700 (Pacific Daylight Time)","381548","green","red","","926","","","","choice","","img/red_ww/choose11.jpg","1","138","green","0.5","0.1","0.5","w","",""
"animation","179","211566","0.0-5.0-2.87","5de8887aa2db898017debf1a","bdp_lott","Sat Mar 25 2023 17:46:55 GMT-0700 (Pacific Daylight Time)","381548","green","red","","","","","","","","","","138","","","","","","[{""stimulus"":""img/green_ww/1.jpg"",""time"":57},{""stimulus"":""img/green_ww/2.jpg"",""time"":105},{""stimulus"":""img/green_ww/3.jpg"",""time"":153},{""stimulus"":""img/green_ww/4.jpg"",""time"":211},{""stimulus"":""img/green_ww/5.jpg"",""time"":259},{""stimulus"":""img/green_ww/6.jpg"",""time"":304},{""stimulus"":""img/green_ww/7.jpg"",""time"":353},{""stimulus"":""img/green_ww/8.jpg"",""time"":411},{""stimulus"":""img/green_ww/9.jpg"",""time"":456},{""stimulus"":""img/green_ww/10.jpg"",""time"":505},{""stimulus"":""img/green_ww/11.jpg"",""time"":552}]","[]"
"image-keyboard-response","180","212122","0.0-5.0-1.88","5de8887aa2db898017debf1a","bdp_lott","Sat Mar 25 2023 17:46:55 GMT-0700 (Pacific Daylight Time)","381548","green","red","","554","","","","choice","","img/green_ww/choose11.jpg","2","137","red","0.5","0.1","0.1","w","",""
"animation","181","212735","0.0-5.0-2.88","5de8887aa2db898017debf1a","bdp_lott","Sat Mar 25 2023 17:46:55 GMT-0700 (Pacific Daylight Time)","381548","green","red","","","","","","","","","","137","","","","","","[{""stimulus"":""img/red_ww/1.jpg"",""time"":57},{""stimulus"":""img/red_ww/2.jpg"",""time"":105},{""stimulus"":""img/red_ww/3.jpg"",""time"":156},{""stimulus"":""img/red_ww/4.jpg"",""time"":209},{""stimulus"":""img/red_ww/5.jpg"",""time"":261},{""stimulus"":""img/red_ww/6.jpg"",""time"":309},{""stimulus"":""img/red_ww/7.jpg"",""time"":356},{""stimulus"":""img/red_ww/8.jpg"",""time"":411},{""stimulus"":""img/red_ww/9.jpg"",""time"":461},{""stimulus"":""img/red_ww/10.jpg"",""time"":505},{""stimulus"":""img/red_ww/11.jpg"",""time"":556}]","[]"
"image-keyboard-response","182","213413","0.0-5.0-1.89","5de8887aa2db898017debf1a","bdp_lott","Sat Mar 25 2023 17:46:55 GMT-0700 (Pacific Daylight Time)","381548","green","red","","676","","","","choice","","img/red_ww/choose11.jpg","1","136","green","0.5","0.1","0.5","l","",""
"animation","183","214020","0.0-5.0-2.89","5de8887aa2db898017debf1a","bdp_lott","Sat Mar 25 2023 17:46:55 GMT-0700 (Pacific Daylight Time)","381548","green","red","","","","","","","","","","136","","","","","","[{""stimulus"":""img/green_lw/1.jpg"",""time"":59},{""stimulus"":""img/green_lw/2.jpg"",""time"":106},{""stimulus"":""img/green_lw/3.jpg"",""time"":162},{""stimulus"":""img/green_lw/4.jpg"",""time"":207},{""stimulus"":""img/green_lw/5.jpg"",""time"":256},{""stimulus"":""img/green_lw/6.jpg"",""time"":306},{""stimulus"":""img/green_lw/7.jpg"",""time"":362},{""stimulus"":""img/green_lw/8.jpg"",""time"":410},{""stimulus"":""img/green_lw/9.jpg"",""time"":458},{""stimulus"":""img/green_lw/10.jpg"",""time"":506},{""stimulus"":""img/green_lw/11.jpg"",""time"":562}]","[]"
"image-keyboard-response","184","214685","0.0-5.0-1.90","5de8887aa2db898017debf1a","bdp_lott","Sat Mar 25 2023 17:46:55 GMT-0700 (Pacific Daylight Time)","381548","green","red","","664","","","","choice","","img/green_lw/choose11.jpg","2","135","red","0.5","0.1","0.1","l","",""
"animation","185","215295","0.0-5.0-2.90","5de8887aa2db898017debf1a","bdp_lott","Sat Mar 25 2023 17:46:55 GMT-0700 (Pacific Daylight Time)","381548","green","red","","","","","","","","","","135","","","","","","[{""stimulus"":""img/red_ll/1.jpg"",""time"":56},{""stimulus"":""img/red_ll/2.jpg"",""time"":102},{""stimulus"":""img/red_ll/3.jpg"",""time"":161},{""stimulus"":""img/red_ll/4.jpg"",""time"":209},{""stimulus"":""img/red_ll/5.jpg"",""time"":252},{""stimulus"":""img/red_ll/6.jpg"",""time"":310},{""stimulus"":""img/red_ll/7.jpg"",""time"":359},{""stimulus"":""img/red_ll/8.jpg"",""time"":406},{""stimulus"":""img/red_ll/9.jpg"",""time"":456},{""stimulus"":""img/red_ll/10.jpg"",""time"":503},{""stimulus"":""img/red_ll/11.jpg"",""time"":561}]","[]"
"image-keyboard-response","186","216723","0.0-5.0-1.91","5de8887aa2db898017debf1a","bdp_lott","Sat Mar 25 2023 17:46:55 GMT-0700 (Pacific Daylight Time)","381548","green","red","","1426","","","","choice","","img/red_ll/choose11.jpg","2","134","red","0.5","0.1","0.1","l","",""
"animation","187","217333","0.0-5.0-2.91","5de8887aa2db898017debf1a","bdp_lott","Sat Mar 25 2023 17:46:55 GMT-0700 (Pacific Daylight Time)","381548","green","red","","","","","","","","","","134","","","","","","[{""stimulus"":""img/red_ll/1.jpg"",""time"":60},{""stimulus"":""img/red_ll/2.jpg"",""time"":105},{""stimulus"":""img/red_ll/3.jpg"",""time"":156},{""stimulus"":""img/red_ll/4.jpg"",""time"":211},{""stimulus"":""img/red_ll/5.jpg"",""time"":258},{""stimulus"":""img/red_ll/6.jpg"",""time"":305},{""stimulus"":""img/red_ll/7.jpg"",""time"":352},{""stimulus"":""img/red_ll/8.jpg"",""time"":412},{""stimulus"":""img/red_ll/9.jpg"",""time"":460},{""stimulus"":""img/red_ll/10.jpg"",""time"":505},{""stimulus"":""img/red_ll/11.jpg"",""time"":556}]","[]"
"image-keyboard-response","188","217804","0.0-5.0-1.92","5de8887aa2db898017debf1a","bdp_lott","Sat Mar 25 2023 17:46:55 GMT-0700 (Pacific Daylight Time)","381548","green","red","","470","","","","choice","","img/red_ll/choose11.jpg","1","133","green","0.5","0.1","0.5","l","",""
"animation","189","218415","0.0-5.0-2.92","5de8887aa2db898017debf1a","bdp_lott","Sat Mar 25 2023 17:46:55 GMT-0700 (Pacific Daylight Time)","381548","green","red","","","","","","","","","","133","","","","","","[{""stimulus"":""img/green_ll/1.jpg"",""time"":56},{""stimulus"":""img/green_ll/2.jpg"",""time"":104},{""stimulus"":""img/green_ll/3.jpg"",""time"":162},{""stimulus"":""img/green_ll/4.jpg"",""time"":210},{""stimulus"":""img/green_ll/5.jpg"",""time"":258},{""stimulus"":""img/green_ll/6.jpg"",""time"":303},{""stimulus"":""img/green_ll/7.jpg"",""time"":362},{""stimulus"":""img/green_ll/8.jpg"",""time"":408},{""stimulus"":""img/green_ll/9.jpg"",""time"":456},{""stimulus"":""img/green_ll/10.jpg"",""time"":503},{""stimulus"":""img/green_ll/11.jpg"",""time"":562}]","[]"
"image-keyboard-response","190","219326","0.0-5.0-1.93","5de8887aa2db898017debf1a","bdp_lott","Sat Mar 25 2023 17:46:55 GMT-0700 (Pacific Daylight Time)","381548","green","red","","910","","","","choice","","img/green_ll/choose11.jpg","1","132","green","0.5","0.1","0.5","l","",""
