"trial_type","trial_index","time_elapsed","internal_node_id","subject_id","task","startTime","totalTime","fairMachine","unfairMachine","view_history","rt","event","trial","time","trialtype","success","stimulus","key_press","roundsLeft","chosen","pFairMachWin","pUnfairMachWin","pTrialWin","outcome","animation_sequence","responses"
"pavlovia","0","4","0.0-0.0","63bb98852cdc67dece8adb8e","bdp_lott","Sat Mar 25 2023 18:40:56 GMT-0500 (Central Daylight Time)","289671","green","red","","","","","","","","","","","","","","","","",""
"instructions","1","3595","0.0-1.0","63bb98852cdc67dece8adb8e","bdp_lott","Sat Mar 25 2023 18:40:56 GMT-0500 (Central Daylight Time)","289671","green","red","[{""page_index"":0,""viewing_time"":3589}]","3590","","","","","","","","","","","","","","",""
"","","","","63bb98852cdc67dece8adb8e","bdp_lott","Sat Mar 25 2023 18:40:56 GMT-0500 (Central Daylight Time)","289671","green","red","","","fullscreenenter","2","5647","fullscreenenter","","","","","","","","","","",""
"fullscreen","2","6640","0.0-2.0","63bb98852cdc67dece8adb8e","bdp_lott","Sat Mar 25 2023 18:40:56 GMT-0500 (Central Daylight Time)","289671","green","red","","","","","","","true","","","","","","","","","",""
"instructions","3","30403","0.0-4.0","63bb98852cdc67dece8adb8e","bdp_lott","Sat Mar 25 2023 18:40:56 GMT-0500 (Central Daylight Time)","289671","green","red","[{""page_index"":0,""viewing_time"":23762}]","23762","","","","","","","","","","","","","","",""
"image-keyboard-response","4","31807","0.0-5.0-1.0","63bb98852cdc67dece8adb8e","bdp_lott","Sat Mar 25 2023 18:40:56 GMT-0500 (Central Daylight Time)","289671","green","red","","1402","","","","choice","","img/red_ll/initchoose11.jpg","1","225","green","0.5","0.5","0.5","l","",""
"animation","5","32411","0.0-5.0-2.0","63bb98852cdc67dece8adb8e","bdp_lott","Sat Mar 25 2023 18:40:56 GMT-0500 (Central Daylight Time)","289671","green","red","","","","","","","","","","225","","","","","","[{""stimulus"":""img/green_ll/1.jpg"",""time"":66},{""stimulus"":""img/green_ll/2.jpg"",""time"":104},{""stimulus"":""img/green_ll/3.jpg"",""time"":154},{""stimulus"":""img/green_ll/4.jpg"",""time"":202},{""stimulus"":""img/green_ll/5.jpg"",""time"":271},{""stimulus"":""img/green_ll/6.jpg"",""time"":305},{""stimulus"":""img/green_ll/7.jpg"",""time"":355},{""stimulus"":""img/green_ll/8.jpg"",""time"":403},{""stimulus"":""img/green_ll/9.jpg"",""time"":471},{""stimulus"":""img/green_ll/10.jpg"",""time"":504},{""stimulus"":""img/green_ll/11.jpg"",""time"":554}]","[]"
"image-keyboard-response","6","34108","0.0-5.0-1.1","63bb98852cdc67dece8adb8e","bdp_lott","Sat Mar 25 2023 18:40:56 GMT-0500 (Central Daylight Time)","289671","green","red","","1697","","","","choice","","img/green_ll/choose11.jpg","2","224","red","0.5","0.5","0.5","l","",""
"animation","7","34714","0.0-5.0-2.1","63bb98852cdc67dece8adb8e","bdp_lott","Sat Mar 25 2023 18:40:56 GMT-0500 (Central Daylight Time)","289671","green","red","","","","","","","","","","224","","","","","","[{""stimulus"":""img/red_ll/1.jpg"",""time"":58},{""stimulus"":""img/red_ll/2.jpg"",""time"":102},{""stimulus"":""img/red_ll/3.jpg"",""time"":170},{""stimulus"":""img/red_ll/4.jpg"",""time"":205},{""stimulus"":""img/red_ll/5.jpg"",""time"":254},{""stimulus"":""img/red_ll/6.jpg"",""time"":302},{""stimulus"":""img/red_ll/7.jpg"",""time"":370},{""stimulus"":""img/red_ll/8.jpg"",""time"":405},{""stimulus"":""img/red_ll/9.jpg"",""time"":454},{""stimulus"":""img/red_ll/10.jpg"",""time"":503},{""stimulus"":""img/red_ll/11.jpg"",""time"":558}]","[]"
"image-keyboard-response","8","35587","0.0-5.0-1.2","63bb98852cdc67dece8adb8e","bdp_lott","Sat Mar 25 2023 18:40:56 GMT-0500 (Central Daylight Time)","289671","green","red","","872","","","","choice","","img/red_ll/choose11.jpg","2","223","red","0.5","0.5","0.5","w","",""
"animation","9","36194","0.0-5.0-2.2","63bb98852cdc67dece8adb8e","bdp_lott","Sat Mar 25 2023 18:40:56 GMT-0500 (Central Daylight Time)","289671","green","red","","","","","","","","","","223","","","","","","[{""stimulus"":""img/red_lw/1.jpg"",""time"":69},{""stimulus"":""img/red_lw/2.jpg"",""time"":103},{""stimulus"":""img/red_lw/3.jpg"",""time"":158},{""stimulus"":""img/red_lw/4.jpg"",""time"":209},{""stimulus"":""img/red_lw/5.jpg"",""time"":255},{""stimulus"":""img/red_lw/6.jpg"",""time"":308},{""stimulus"":""img/red_lw/7.jpg"",""time"":351},{""stimulus"":""img/red_lw/8.jpg"",""time"":407},{""stimulus"":""img/red_lw/9.jpg"",""time"":455},{""stimulus"":""img/red_lw/10.jpg"",""time"":503},{""stimulus"":""img/red_lw/11.jpg"",""time"":551}]","[]"
"image-keyboard-response","10","37049","0.0-5.0-1.3","63bb98852cdc67dece8adb8e","bdp_lott","Sat Mar 25 2023 18:40:56 GMT-0500 (Central Daylight Time)","289671","green","red","","855","","","","choice","","img/red_lw/choose11.jpg","2","222","red","0.5","0.5","0.5","l","",""
"animation","11","37651","0.0-5.0-2.3","63bb98852cdc67dece8adb8e","bdp_lott","Sat Mar 25 2023 18:40:56 GMT-0500 (Central Daylight Time)","289671","green","red","","","","","","","","","","222","","","","","","[{""stimulus"":""img/red_ll/1.jpg"",""time"":63},{""stimulus"":""img/red_ll/2.jpg"",""time"":105},{""stimulus"":""img/red_ll/3.jpg"",""time"":153},{""stimulus"":""img/red_ll/4.jpg"",""time"":201},{""stimulus"":""img/red_ll/5.jpg"",""time"":257},{""stimulus"":""img/red_ll/6.jpg"",""time"":305},{""stimulus"":""img/red_ll/7.jpg"",""time"":353},{""stimulus"":""img/red_ll/8.jpg"",""time"":402},{""stimulus"":""img/red_ll/9.jpg"",""time"":457},{""stimulus"":""img/red_ll/10.jpg"",""time"":506},{""stimulus"":""img/red_ll/11.jpg"",""time"":554}]","[]"
"image-keyboard-response","12","38247","0.0-5.0-1.4","63bb98852cdc67dece8adb8e","bdp_lott","Sat Mar 25 2023 18:40:56 GMT-0500 (Central Daylight Time)","289671","green","red","","596","","","","choice","","img/red_ll/choose11.jpg","2","221","red","0.5","0.5","0.5","w","",""
"animation","13","38850","0.0-5.0-2.4","63bb98852cdc67dece8adb8e","bdp_lott","Sat Mar 25 2023 18:40:56 GMT-0500 (Central Daylight Time)","289671","green","red","","","","","","","","","","221","","","","","","[{""stimulus"":""img/red_lw/1.jpg"",""time"":59},{""stimulus"":""img/red_lw/2.jpg"",""time"":115},{""stimulus"":""img/red_lw/3.jpg"",""time"":155},{""stimulus"":""img/red_lw/4.jpg"",""time"":203},{""stimulus"":""img/red_lw/5.jpg"",""time"":251},{""stimulus"":""img/red_lw/6.jpg"",""time"":308},{""stimulus"":""img/red_lw/7.jpg"",""time"":355},{""stimulus"":""img/red_lw/8.jpg"",""time"":403},{""stimulus"":""img/red_lw/9.jpg"",""time"":452},{""stimulus"":""img/red_lw/10.jpg"",""time"":507},{""stimulus"":""img/red_lw/11.jpg"",""time"":555}]","[]"
"image-keyboard-response","14","39620","0.0-5.0-1.5","63bb98852cdc67dece8adb8e","bdp_lott","Sat Mar 25 2023 18:40:56 GMT-0500 (Central Daylight Time)","289671","green","red","","769","","","","choice","","img/red_lw/choose11.jpg","2","220","red","0.5","0.5","0.5","l","",""
"animation","15","40227","0.0-5.0-2.5","63bb98852cdc67dece8adb8e","bdp_lott","Sat Mar 25 2023 18:40:56 GMT-0500 (Central Daylight Time)","289671","green","red","","","","","","","","","","220","","","","","","[{""stimulus"":""img/red_ll/1.jpg"",""time"":68},{""stimulus"":""img/red_ll/2.jpg"",""time"":103},{""stimulus"":""img/red_ll/3.jpg"",""time"":158},{""stimulus"":""img/red_ll/4.jpg"",""time"":206},{""stimulus"":""img/red_ll/5.jpg"",""time"":254},{""stimulus"":""img/red_ll/6.jpg"",""time"":302},{""stimulus"":""img/red_ll/7.jpg"",""time"":359},{""stimulus"":""img/red_ll/8.jpg"",""time"":406},{""stimulus"":""img/red_ll/9.jpg"",""time"":454},{""stimulus"":""img/red_ll/10.jpg"",""time"":502},{""stimulus"":""img/red_ll/11.jpg"",""time"":558}]","[]"
"image-keyboard-response","16","40791","0.0-5.0-1.6","63bb98852cdc67dece8adb8e","bdp_lott","Sat Mar 25 2023 18:40:56 GMT-0500 (Central Daylight Time)","289671","green","red","","563","","","","choice","","img/red_ll/choose11.jpg","2","219","red","0.5","0.5","0.5","l","",""
"animation","17","41394","0.0-5.0-2.6","63bb98852cdc67dece8adb8e","bdp_lott","Sat Mar 25 2023 18:40:56 GMT-0500 (Central Daylight Time)","289671","green","red","","","","","","","","","","219","","","","","","[{""stimulus"":""img/red_ll/1.jpg"",""time"":51},{""stimulus"":""img/red_ll/2.jpg"",""time"":120},{""stimulus"":""img/red_ll/3.jpg"",""time"":156},{""stimulus"":""img/red_ll/4.jpg"",""time"":204},{""stimulus"":""img/red_ll/5.jpg"",""time"":251},{""stimulus"":""img/red_ll/6.jpg"",""time"":321},{""stimulus"":""img/red_ll/7.jpg"",""time"":356},{""stimulus"":""img/red_ll/8.jpg"",""time"":403},{""stimulus"":""img/red_ll/9.jpg"",""time"":454},{""stimulus"":""img/red_ll/10.jpg"",""time"":521},{""stimulus"":""img/red_ll/11.jpg"",""time"":555}]","[]"
"image-keyboard-response","18","42021","0.0-5.0-1.7","63bb98852cdc67dece8adb8e","bdp_lott","Sat Mar 25 2023 18:40:56 GMT-0500 (Central Daylight Time)","289671","green","red","","627","","","","choice","","img/red_ll/choose11.jpg","2","218","red","0.5","0.5","0.5","w","",""
"animation","19","42626","0.0-5.0-2.7","63bb98852cdc67dece8adb8e","bdp_lott","Sat Mar 25 2023 18:40:56 GMT-0500 (Central Daylight Time)","289671","green","red","","","","","","","","","","218","","","","","","[{""stimulus"":""img/red_lw/1.jpg"",""time"":64},{""stimulus"":""img/red_lw/2.jpg"",""time"":101},{""stimulus"":""img/red_lw/3.jpg"",""time"":157},{""stimulus"":""img/red_lw/4.jpg"",""time"":206},{""stimulus"":""img/red_lw/5.jpg"",""time"":253},{""stimulus"":""img/red_lw/6.jpg"",""time"":302},{""stimulus"":""img/red_lw/7.jpg"",""time"":357},{""stimulus"":""img/red_lw/8.jpg"",""time"":405},{""stimulus"":""img/red_lw/9.jpg"",""time"":454},{""stimulus"":""img/red_lw/10.jpg"",""time"":502},{""stimulus"":""img/red_lw/11.jpg"",""time"":558}]","[]"
"image-keyboard-response","20","43644","0.0-5.0-1.8","63bb98852cdc67dece8adb8e","bdp_lott","Sat Mar 25 2023 18:40:56 GMT-0500 (Central Daylight Time)","289671","green","red","","1018","","","","choice","","img/red_lw/choose11.jpg","2","217","red","0.5","0.5","0.5","l","",""
"animation","21","44251","0.0-5.0-2.8","63bb98852cdc67dece8adb8e","bdp_lott","Sat Mar 25 2023 18:40:56 GMT-0500 (Central Daylight Time)","289671","green","red","","","","","","","","","","217","","","","","","[{""stimulus"":""img/red_ll/1.jpg"",""time"":67},{""stimulus"":""img/red_ll/2.jpg"",""time"":103},{""stimulus"":""img/red_ll/3.jpg"",""time"":168},{""stimulus"":""img/red_ll/4.jpg"",""time"":206},{""stimulus"":""img/red_ll/5.jpg"",""time"":255},{""stimulus"":""img/red_ll/6.jpg"",""time"":302},{""stimulus"":""img/red_ll/7.jpg"",""time"":358},{""stimulus"":""img/red_ll/8.jpg"",""time"":406},{""stimulus"":""img/red_ll/9.jpg"",""time"":454},{""stimulus"":""img/red_ll/10.jpg"",""time"":503},{""stimulus"":""img/red_ll/11.jpg"",""time"":558}]","[]"
"image-keyboard-response","22","44594","0.0-5.0-1.9","63bb98852cdc67dece8adb8e","bdp_lott","Sat Mar 25 2023 18:40:56 GMT-0500 (Central Daylight Time)","289671","green","red","","343","","","","choice","","img/red_ll/choose11.jpg","2","216","red","0.5","0.5","0.5","l","",""
"animation","23","45202","0.0-5.0-2.9","63bb98852cdc67dece8adb8e","bdp_lott","Sat Mar 25 2023 18:40:56 GMT-0500 (Central Daylight Time)","289671","green","red","","","","","","","","","","216","","","","","","[{""stimulus"":""img/red_ll/1.jpg"",""time"":63},{""stimulus"":""img/red_ll/2.jpg"",""time"":118},{""stimulus"":""img/red_ll/3.jpg"",""time"":152},{""stimulus"":""img/red_ll/4.jpg"",""time"":209},{""stimulus"":""img/red_ll/5.jpg"",""time"":257},{""stimulus"":""img/red_ll/6.jpg"",""time"":305},{""stimulus"":""img/red_ll/7.jpg"",""time"":353},{""stimulus"":""img/red_ll/8.jpg"",""time"":409},{""stimulus"":""img/red_ll/9.jpg"",""time"":456},{""stimulus"":""img/red_ll/10.jpg"",""time"":504},{""stimulus"":""img/red_ll/11.jpg"",""time"":552}]","[]"
"image-keyboard-response","24","45711","0.0-5.0-1.10","63bb98852cdc67dece8adb8e","bdp_lott","Sat Mar 25 2023 18:40:56 GMT-0500 (Central Daylight Time)","289671","green","red","","509","","","","choice","","img/red_ll/choose11.jpg","1","215","green","0.5","0.5","0.5","w","",""
"animation","25","46314","0.0-5.0-2.10","63bb98852cdc67dece8adb8e","bdp_lott","Sat Mar 25 2023 18:40:56 GMT-0500 (Central Daylight Time)","289671","green","red","","","","","","","","","","215","","","","","","[{""stimulus"":""img/green_wl/1.jpg"",""time"":52},{""stimulus"":""img/green_wl/2.jpg"",""time"":103},{""stimulus"":""img/green_wl/3.jpg"",""time"":152},{""stimulus"":""img/green_wl/4.jpg"",""time"":203},{""stimulus"":""img/green_wl/5.jpg"",""time"":252},{""stimulus"":""img/green_wl/6.jpg"",""time"":307},{""stimulus"":""img/green_wl/7.jpg"",""time"":355},{""stimulus"":""img/green_wl/8.jpg"",""time"":403},{""stimulus"":""img/green_wl/9.jpg"",""time"":451},{""stimulus"":""img/green_wl/10.jpg"",""time"":507},{""stimulus"":""img/green_wl/11.jpg"",""time"":555}]","[]"
"image-keyboard-response","26","46759","0.0-5.0-1.11","63bb98852cdc67dece8adb8e","bdp_lott","Sat Mar 25 2023 18:40:56 GMT-0500 (Central Daylight Time)","289671","green","red","","444","","","","choice","","img/green_wl/choose11.jpg","1","214","green","0.5","0.5","0.5","w","",""
"animation","27","47362","0.0-5.0-2.11","63bb98852cdc67dece8adb8e","bdp_lott","Sat Mar 25 2023 18:40:56 GMT-0500 (Central Daylight Time)","289671","green","red","","","","","","","","","","214","","","","","","[{""stimulus"":""img/green_wl/1.jpg"",""time"":61},{""stimulus"":""img/green_wl/2.jpg"",""time"":119},{""stimulus"":""img/green_wl/3.jpg"",""time"":155},{""stimulus"":""img/green_wl/4.jpg"",""time"":203},{""stimulus"":""img/green_wl/5.jpg"",""time"":252},{""stimulus"":""img/green_wl/6.jpg"",""time"":320},{""stimulus"":""img/green_wl/7.jpg"",""time"":355},{""stimulus"":""img/green_wl/8.jpg"",""time"":403},{""stimulus"":""img/green_wl/9.jpg"",""time"":451},{""stimulus"":""img/green_wl/10.jpg"",""time"":519},{""stimulus"":""img/green_wl/11.jpg"",""time"":555}]","[]"
"image-keyboard-response","28","47671","0.0-5.0-1.12","63bb98852cdc67dece8adb8e","bdp_lott","Sat Mar 25 2023 18:40:56 GMT-0500 (Central Daylight Time)","289671","green","red","","309","","","","choice","","img/green_wl/choose11.jpg","1","213","green","0.5","0.5","0.5","w","",""
"animation","29","48275","0.0-5.0-2.12","63bb98852cdc67dece8adb8e","bdp_lott","Sat Mar 25 2023 18:40:56 GMT-0500 (Central Daylight Time)","289671","green","red","","","","","","","","","","213","","","","","","[{""stimulus"":""img/green_wl/1.jpg"",""time"":55},{""stimulus"":""img/green_wl/2.jpg"",""time"":108},{""stimulus"":""img/green_wl/3.jpg"",""time"":155},{""stimulus"":""img/green_wl/4.jpg"",""time"":203},{""stimulus"":""img/green_wl/5.jpg"",""time"":251},{""stimulus"":""img/green_wl/6.jpg"",""time"":307},{""stimulus"":""img/green_wl/7.jpg"",""time"":355},{""stimulus"":""img/green_wl/8.jpg"",""time"":403},{""stimulus"":""img/green_wl/9.jpg"",""time"":452},{""stimulus"":""img/green_wl/10.jpg"",""time"":507},{""stimulus"":""img/green_wl/11.jpg"",""time"":555}]","[]"
"image-keyboard-response","30","48595","0.0-5.0-1.13","63bb98852cdc67dece8adb8e","bdp_lott","Sat Mar 25 2023 18:40:56 GMT-0500 (Central Daylight Time)","289671","green","red","","320","","","","choice","","img/green_wl/choose11.jpg","1","212","green","0.5","0.5","0.5","l","",""
"animation","31","49202","0.0-5.0-2.13","63bb98852cdc67dece8adb8e","bdp_lott","Sat Mar 25 2023 18:40:56 GMT-0500 (Central Daylight Time)","289671","green","red","","","","","","","","","","212","","","","","","[{""stimulus"":""img/green_ll/1.jpg"",""time"":62},{""stimulus"":""img/green_ll/2.jpg"",""time"":117},{""stimulus"":""img/green_ll/3.jpg"",""time"":151},{""stimulus"":""img/green_ll/4.jpg"",""time"":217},{""stimulus"":""img/green_ll/5.jpg"",""time"":255},{""stimulus"":""img/green_ll/6.jpg"",""time"":304},{""stimulus"":""img/green_ll/7.jpg"",""time"":359},{""stimulus"":""img/green_ll/8.jpg"",""time"":408},{""stimulus"":""img/green_ll/9.jpg"",""time"":456},{""stimulus"":""img/green_ll/10.jpg"",""time"":503},{""stimulus"":""img/green_ll/11.jpg"",""time"":559}]","[]"
"image-keyboard-response","32","49581","0.0-5.0-1.14","63bb98852cdc67dece8adb8e","bdp_lott","Sat Mar 25 2023 18:40:56 GMT-0500 (Central Daylight Time)","289671","green","red","","378","","","","choice","","img/green_ll/choose11.jpg","1","211","green","0.5","0.5","0.5","w","",""
"animation","33","50186","0.0-5.0-2.14","63bb98852cdc67dece8adb8e","bdp_lott","Sat Mar 25 2023 18:40:56 GMT-0500 (Central Daylight Time)","289671","green","red","","","","","","","","","","211","","","","","","[{""stimulus"":""img/green_wl/1.jpg"",""time"":56},{""stimulus"":""img/green_wl/2.jpg"",""time"":114},{""stimulus"":""img/green_wl/3.jpg"",""time"":157},{""stimulus"":""img/green_wl/4.jpg"",""time"":214},{""stimulus"":""img/green_wl/5.jpg"",""time"":254},{""stimulus"":""img/green_wl/6.jpg"",""time"":302},{""stimulus"":""img/green_wl/7.jpg"",""time"":357},{""stimulus"":""img/green_wl/8.jpg"",""time"":406},{""stimulus"":""img/green_wl/9.jpg"",""time"":453},{""stimulus"":""img/green_wl/10.jpg"",""time"":501},{""stimulus"":""img/green_wl/11.jpg"",""time"":557}]","[]"
"image-keyboard-response","34","50603","0.0-5.0-1.15","63bb98852cdc67dece8adb8e","bdp_lott","Sat Mar 25 2023 18:40:56 GMT-0500 (Central Daylight Time)","289671","green","red","","417","","","","choice","","img/green_wl/choose11.jpg","1","210","green","0.5","0.5","0.5","w","",""
"animation","35","51210","0.0-5.0-2.15","63bb98852cdc67dece8adb8e","bdp_lott","Sat Mar 25 2023 18:40:56 GMT-0500 (Central Daylight Time)","289671","green","red","","","","","","","","","","210","","","","","","[{""stimulus"":""img/green_wl/1.jpg"",""time"":65},{""stimulus"":""img/green_wl/2.jpg"",""time"":103},{""stimulus"":""img/green_wl/3.jpg"",""time"":151},{""stimulus"":""img/green_wl/4.jpg"",""time"":207},{""stimulus"":""img/green_wl/5.jpg"",""time"":255},{""stimulus"":""img/green_wl/6.jpg"",""time"":303},{""stimulus"":""img/green_wl/7.jpg"",""time"":352},{""stimulus"":""img/green_wl/8.jpg"",""time"":408},{""stimulus"":""img/green_wl/9.jpg"",""time"":455},{""stimulus"":""img/green_wl/10.jpg"",""time"":504},{""stimulus"":""img/green_wl/11.jpg"",""time"":551}]","[]"
"image-keyboard-response","36","51608","0.0-5.0-1.16","63bb98852cdc67dece8adb8e","bdp_lott","Sat Mar 25 2023 18:40:56 GMT-0500 (Central Daylight Time)","289671","green","red","","398","","","","choice","","img/green_wl/choose11.jpg","1","209","green","0.5","0.5","0.5","l","",""
"animation","37","52211","0.0-5.0-2.16","63bb98852cdc67dece8adb8e","bdp_lott","Sat Mar 25 2023 18:40:56 GMT-0500 (Central Daylight Time)","289671","green","red","","","","","","","","","","209","","","","","","[{""stimulus"":""img/green_ll/1.jpg"",""time"":61},{""stimulus"":""img/green_ll/2.jpg"",""time"":106},{""stimulus"":""img/green_ll/3.jpg"",""time"":154},{""stimulus"":""img/green_ll/4.jpg"",""time"":202},{""stimulus"":""img/green_ll/5.jpg"",""time"":270},{""stimulus"":""img/green_ll/6.jpg"",""time"":306},{""stimulus"":""img/green_ll/7.jpg"",""time"":354},{""stimulus"":""img/green_ll/8.jpg"",""time"":403},{""stimulus"":""img/green_ll/9.jpg"",""time"":470},{""stimulus"":""img/green_ll/10.jpg"",""time"":507},{""stimulus"":""img/green_ll/11.jpg"",""time"":555}]","[]"
"image-keyboard-response","38","52719","0.0-5.0-1.17","63bb98852cdc67dece8adb8e","bdp_lott","Sat Mar 25 2023 18:40:56 GMT-0500 (Central Daylight Time)","289671","green","red","","508","","","","choice","","img/green_ll/choose11.jpg","1","208","green","0.5","0.5","0.5","l","",""
"animation","39","53322","0.0-5.0-2.17","63bb98852cdc67dece8adb8e","bdp_lott","Sat Mar 25 2023 18:40:56 GMT-0500 (Central Daylight Time)","289671","green","red","","","","","","","","","","208","","","","","","[{""stimulus"":""img/green_ll/1.jpg"",""time"":59},{""stimulus"":""img/green_ll/2.jpg"",""time"":108},{""stimulus"":""img/green_ll/3.jpg"",""time"":155},{""stimulus"":""img/green_ll/4.jpg"",""time"":203},{""stimulus"":""img/green_ll/5.jpg"",""time"":251},{""stimulus"":""img/green_ll/6.jpg"",""time"":307},{""stimulus"":""img/green_ll/7.jpg"",""time"":356},{""stimulus"":""img/green_ll/8.jpg"",""time"":403},{""stimulus"":""img/green_ll/9.jpg"",""time"":451},{""stimulus"":""img/green_ll/10.jpg"",""time"":508},{""stimulus"":""img/green_ll/11.jpg"",""time"":555}]","[]"
"image-keyboard-response","40","53981","0.0-5.0-1.18","63bb98852cdc67dece8adb8e","bdp_lott","Sat Mar 25 2023 18:40:56 GMT-0500 (Central Daylight Time)","289671","green","red","","658","","","","choice","","img/green_ll/choose11.jpg","1","207","green","0.5","0.5","0.5","w","",""
"animation","41","54586","0.0-5.0-2.18","63bb98852cdc67dece8adb8e","bdp_lott","Sat Mar 25 2023 18:40:56 GMT-0500 (Central Daylight Time)","289671","green","red","","","","","","","","","","207","","","","","","[{""stimulus"":""img/green_wl/1.jpg"",""time"":55},{""stimulus"":""img/green_wl/2.jpg"",""time"":115},{""stimulus"":""img/green_wl/3.jpg"",""time"":157},{""stimulus"":""img/green_wl/4.jpg"",""time"":214},{""stimulus"":""img/green_wl/5.jpg"",""time"":253},{""stimulus"":""img/green_wl/6.jpg"",""time"":302},{""stimulus"":""img/green_wl/7.jpg"",""time"":357},{""stimulus"":""img/green_wl/8.jpg"",""time"":405},{""stimulus"":""img/green_wl/9.jpg"",""time"":453},{""stimulus"":""img/green_wl/10.jpg"",""time"":501},{""stimulus"":""img/green_wl/11.jpg"",""time"":558}]","[]"
"image-keyboard-response","42","55215","0.0-5.0-1.19","63bb98852cdc67dece8adb8e","bdp_lott","Sat Mar 25 2023 18:40:56 GMT-0500 (Central Daylight Time)","289671","green","red","","629","","","","choice","","img/green_wl/choose11.jpg","1","206","green","0.5","0.5","0.5","w","",""
"animation","43","55818","0.0-5.0-2.19","63bb98852cdc67dece8adb8e","bdp_lott","Sat Mar 25 2023 18:40:56 GMT-0500 (Central Daylight Time)","289671","green","red","","","","","","","","","","206","","","","","","[{""stimulus"":""img/green_wl/1.jpg"",""time"":57},{""stimulus"":""img/green_wl/2.jpg"",""time"":114},{""stimulus"":""img/green_wl/3.jpg"",""time"":155},{""stimulus"":""img/green_wl/4.jpg"",""time"":203},{""stimulus"":""img/green_wl/5.jpg"",""time"":251},{""stimulus"":""img/green_wl/6.jpg"",""time"":308},{""stimulus"":""img/green_wl/7.jpg"",""time"":355},{""stimulus"":""img/green_wl/8.jpg"",""time"":404},{""stimulus"":""img/green_wl/9.jpg"",""time"":451},{""stimulus"":""img/green_wl/10.jpg"",""time"":507},{""stimulus"":""img/green_wl/11.jpg"",""time"":556}]","[]"
"image-keyboard-response","44","56241","0.0-5.0-1.20","63bb98852cdc67dece8adb8e","bdp_lott","Sat Mar 25 2023 18:40:56 GMT-0500 (Central Daylight Time)","289671","green","red","","423","","","","choice","","img/green_wl/choose11.jpg","1","205","green","0.5","0.5","0.5","w","",""
"animation","45","56845","0.0-5.0-2.20","63bb98852cdc67dece8adb8e","bdp_lott","Sat Mar 25 2023 18:40:56 GMT-0500 (Central Daylight Time)","289671","green","red","","","","","","","","","","205","","","","","","[{""stimulus"":""img/green_wl/1.jpg"",""time"":61},{""stimulus"":""img/green_wl/2.jpg"",""time"":106},{""stimulus"":""img/green_wl/3.jpg"",""time"":154},{""stimulus"":""img/green_wl/4.jpg"",""time"":201},{""stimulus"":""img/green_wl/5.jpg"",""time"":271},{""stimulus"":""img/green_wl/6.jpg"",""time"":305},{""stimulus"":""img/green_wl/7.jpg"",""time"":354},{""stimulus"":""img/green_wl/8.jpg"",""time"":401},{""stimulus"":""img/green_wl/9.jpg"",""time"":470},{""stimulus"":""img/green_wl/10.jpg"",""time"":505},{""stimulus"":""img/green_wl/11.jpg"",""time"":553}]","[]"
"image-keyboard-response","46","57247","0.0-5.0-1.21","63bb98852cdc67dece8adb8e","bdp_lott","Sat Mar 25 2023 18:40:56 GMT-0500 (Central Daylight Time)","289671","green","red","","401","","","","choice","","img/green_wl/choose11.jpg","1","204","green","0.5","0.5","0.5","l","",""
"animation","47","57851","0.0-5.0-2.21","63bb98852cdc67dece8adb8e","bdp_lott","Sat Mar 25 2023 18:40:56 GMT-0500 (Central Daylight Time)","289671","green","red","","","","","","","","","","204","","","","","","[{""stimulus"":""img/green_ll/1.jpg"",""time"":55},{""stimulus"":""img/green_ll/2.jpg"",""time"":115},{""stimulus"":""img/green_ll/3.jpg"",""time"":156},{""stimulus"":""img/green_ll/4.jpg"",""time"":203},{""stimulus"":""img/green_ll/5.jpg"",""time"":251},{""stimulus"":""img/green_ll/6.jpg"",""time"":307},{""stimulus"":""img/green_ll/7.jpg"",""time"":355},{""stimulus"":""img/green_ll/8.jpg"",""time"":403},{""stimulus"":""img/green_ll/9.jpg"",""time"":451},{""stimulus"":""img/green_ll/10.jpg"",""time"":507},{""stimulus"":""img/green_ll/11.jpg"",""time"":556}]","[]"
"image-keyboard-response","48","58571","0.0-5.0-1.22","63bb98852cdc67dece8adb8e","bdp_lott","Sat Mar 25 2023 18:40:56 GMT-0500 (Central Daylight Time)","289671","green","red","","720","","","","choice","","img/green_ll/choose11.jpg","1","203","green","0.5","0.5","0.5","w","",""
"animation","49","59178","0.0-5.0-2.22","63bb98852cdc67dece8adb8e","bdp_lott","Sat Mar 25 2023 18:40:56 GMT-0500 (Central Daylight Time)","289671","green","red","","","","","","","","","","203","","","","","","[{""stimulus"":""img/green_wl/1.jpg"",""time"":61},{""stimulus"":""img/green_wl/2.jpg"",""time"":103},{""stimulus"":""img/green_wl/3.jpg"",""time"":174},{""stimulus"":""img/green_wl/4.jpg"",""time"":207},{""stimulus"":""img/green_wl/5.jpg"",""time"":258},{""stimulus"":""img/green_wl/6.jpg"",""time"":303},{""stimulus"":""img/green_wl/7.jpg"",""time"":374},{""stimulus"":""img/green_wl/8.jpg"",""time"":407},{""stimulus"":""img/green_wl/9.jpg"",""time"":456},{""stimulus"":""img/green_wl/10.jpg"",""time"":503},{""stimulus"":""img/green_wl/11.jpg"",""time"":574}]","[]"
"image-keyboard-response","50","59606","0.0-5.0-1.23","63bb98852cdc67dece8adb8e","bdp_lott","Sat Mar 25 2023 18:40:56 GMT-0500 (Central Daylight Time)","289671","green","red","","428","","","","choice","","img/green_wl/choose11.jpg","1","202","green","0.5","0.5","0.5","l","",""
"animation","51","60210","0.0-5.0-2.23","63bb98852cdc67dece8adb8e","bdp_lott","Sat Mar 25 2023 18:40:56 GMT-0500 (Central Daylight Time)","289671","green","red","","","","","","","","","","202","","","","","","[{""stimulus"":""img/green_ll/1.jpg"",""time"":61},{""stimulus"":""img/green_ll/2.jpg"",""time"":123},{""stimulus"":""img/green_ll/3.jpg"",""time"":156},{""stimulus"":""img/green_ll/4.jpg"",""time"":205},{""stimulus"":""img/green_ll/5.jpg"",""time"":252},{""stimulus"":""img/green_ll/6.jpg"",""time"":323},{""stimulus"":""img/green_ll/7.jpg"",""time"":357},{""stimulus"":""img/green_ll/8.jpg"",""time"":404},{""stimulus"":""img/green_ll/9.jpg"",""time"":455},{""stimulus"":""img/green_ll/10.jpg"",""time"":522},{""stimulus"":""img/green_ll/11.jpg"",""time"":557}]","[]"
"image-keyboard-response","52","60738","0.0-5.0-1.24","63bb98852cdc67dece8adb8e","bdp_lott","Sat Mar 25 2023 18:40:56 GMT-0500 (Central Daylight Time)","289671","green","red","","528","","","","choice","","img/green_ll/choose11.jpg","1","201","green","0.5","0.5","0.5","w","",""
"animation","53","61361","0.0-5.0-2.24","63bb98852cdc67dece8adb8e","bdp_lott","Sat Mar 25 2023 18:40:56 GMT-0500 (Central Daylight Time)","289671","green","red","","","","","","","","","","201","","","","","","[{""stimulus"":""img/green_wl/1.jpg"",""time"":70},{""stimulus"":""img/green_wl/2.jpg"",""time"":105},{""stimulus"":""img/green_wl/3.jpg"",""time"":152},{""stimulus"":""img/green_wl/4.jpg"",""time"":208},{""stimulus"":""img/green_wl/5.jpg"",""time"":256},{""stimulus"":""img/green_wl/6.jpg"",""time"":304},{""stimulus"":""img/green_wl/7.jpg"",""time"":352},{""stimulus"":""img/green_wl/8.jpg"",""time"":423},{""stimulus"":""img/green_wl/9.jpg"",""time"":457},{""stimulus"":""img/green_wl/10.jpg"",""time"":507},{""stimulus"":""img/green_wl/11.jpg"",""time"":552}]","[]"
"image-keyboard-response","54","61752","0.0-5.0-1.25","63bb98852cdc67dece8adb8e","bdp_lott","Sat Mar 25 2023 18:40:56 GMT-0500 (Central Daylight Time)","289671","green","red","","389","","","","choice","","img/green_wl/choose11.jpg","1","200","green","0.5","0.5","0.5","w","",""
"animation","55","62355","0.0-5.0-2.25","63bb98852cdc67dece8adb8e","bdp_lott","Sat Mar 25 2023 18:40:56 GMT-0500 (Central Daylight Time)","289671","green","red","","","","","","","","","","200","","","","","","[{""stimulus"":""img/green_wl/1.jpg"",""time"":67},{""stimulus"":""img/green_wl/2.jpg"",""time"":106},{""stimulus"":""img/green_wl/3.jpg"",""time"":154},{""stimulus"":""img/green_wl/4.jpg"",""time"":202},{""stimulus"":""img/green_wl/5.jpg"",""time"":259},{""stimulus"":""img/green_wl/6.jpg"",""time"":306},{""stimulus"":""img/green_wl/7.jpg"",""time"":354},{""stimulus"":""img/green_wl/8.jpg"",""time"":403},{""stimulus"":""img/green_wl/9.jpg"",""time"":458},{""stimulus"":""img/green_wl/10.jpg"",""time"":507},{""stimulus"":""img/green_wl/11.jpg"",""time"":555}]","[]"
"image-keyboard-response","56","62822","0.0-5.0-1.26","63bb98852cdc67dece8adb8e","bdp_lott","Sat Mar 25 2023 18:40:56 GMT-0500 (Central Daylight Time)","289671","green","red","","466","","","","choice","","img/green_wl/choose11.jpg","1","199","green","0.5","0.5","0.5","l","",""
"animation","57","63426","0.0-5.0-2.26","63bb98852cdc67dece8adb8e","bdp_lott","Sat Mar 25 2023 18:40:56 GMT-0500 (Central Daylight Time)","289671","green","red","","","","","","","","","","199","","","","","","[{""stimulus"":""img/green_ll/1.jpg"",""time"":67},{""stimulus"":""img/green_ll/2.jpg"",""time"":123},{""stimulus"":""img/green_ll/3.jpg"",""time"":156},{""stimulus"":""img/green_ll/4.jpg"",""time"":206},{""stimulus"":""img/green_ll/5.jpg"",""time"":253},{""stimulus"":""img/green_ll/6.jpg"",""time"":323},{""stimulus"":""img/green_ll/7.jpg"",""time"":356},{""stimulus"":""img/green_ll/8.jpg"",""time"":405},{""stimulus"":""img/green_ll/9.jpg"",""time"":452},{""stimulus"":""img/green_ll/10.jpg"",""time"":523},{""stimulus"":""img/green_ll/11.jpg"",""time"":556}]","[]"
"image-keyboard-response","58","64030","0.0-5.0-1.27","63bb98852cdc67dece8adb8e","bdp_lott","Sat Mar 25 2023 18:40:56 GMT-0500 (Central Daylight Time)","289671","green","red","","604","","","","choice","","img/green_ll/choose11.jpg","1","198","green","0.5","0.5","0.5","w","",""
"animation","59","64634","0.0-5.0-2.27","63bb98852cdc67dece8adb8e","bdp_lott","Sat Mar 25 2023 18:40:56 GMT-0500 (Central Daylight Time)","289671","green","red","","","","","","","","","","198","","","","","","[{""stimulus"":""img/green_wl/1.jpg"",""time"":59},{""stimulus"":""img/green_wl/2.jpg"",""time"":115},{""stimulus"":""img/green_wl/3.jpg"",""time"":157},{""stimulus"":""img/green_wl/4.jpg"",""time"":204},{""stimulus"":""img/green_wl/5.jpg"",""time"":252},{""stimulus"":""img/green_wl/6.jpg"",""time"":309},{""stimulus"":""img/green_wl/7.jpg"",""time"":356},{""stimulus"":""img/green_wl/8.jpg"",""time"":404},{""stimulus"":""img/green_wl/9.jpg"",""time"":453},{""stimulus"":""img/green_wl/10.jpg"",""time"":508},{""stimulus"":""img/green_wl/11.jpg"",""time"":556}]","[]"
"image-keyboard-response","60","65050","0.0-5.0-1.28","63bb98852cdc67dece8adb8e","bdp_lott","Sat Mar 25 2023 18:40:56 GMT-0500 (Central Daylight Time)","289671","green","red","","414","","","","choice","","img/green_wl/choose11.jpg","1","197","green","0.5","0.5","0.5","l","",""
"animation","61","65658","0.0-5.0-2.28","63bb98852cdc67dece8adb8e","bdp_lott","Sat Mar 25 2023 18:40:56 GMT-0500 (Central Daylight Time)","289671","green","red","","","","","","","","","","197","","","","","","[{""stimulus"":""img/green_ll/1.jpg"",""time"":68},{""stimulus"":""img/green_ll/2.jpg"",""time"":104},{""stimulus"":""img/green_ll/3.jpg"",""time"":152},{""stimulus"":""img/green_ll/4.jpg"",""time"":209},{""stimulus"":""img/green_ll/5.jpg"",""time"":256},{""stimulus"":""img/green_ll/6.jpg"",""time"":305},{""stimulus"":""img/green_ll/7.jpg"",""time"":352},{""stimulus"":""img/green_ll/8.jpg"",""time"":408},{""stimulus"":""img/green_ll/9.jpg"",""time"":456},{""stimulus"":""img/green_ll/10.jpg"",""time"":505},{""stimulus"":""img/green_ll/11.jpg"",""time"":552}]","[]"
"image-keyboard-response","62","66230","0.0-5.0-1.29","63bb98852cdc67dece8adb8e","bdp_lott","Sat Mar 25 2023 18:40:56 GMT-0500 (Central Daylight Time)","289671","green","red","","572","","","","choice","","img/green_ll/choose11.jpg","1","196","green","0.5","0.5","0.5","w","",""
"animation","63","66835","0.0-5.0-2.29","63bb98852cdc67dece8adb8e","bdp_lott","Sat Mar 25 2023 18:40:56 GMT-0500 (Central Daylight Time)","289671","green","red","","","","","","","","","","196","","","","","","[{""stimulus"":""img/green_wl/1.jpg"",""time"":61},{""stimulus"":""img/green_wl/2.jpg"",""time"":116},{""stimulus"":""img/green_wl/3.jpg"",""time"":156},{""stimulus"":""img/green_wl/4.jpg"",""time"":204},{""stimulus"":""img/green_wl/5.jpg"",""time"":252},{""stimulus"":""img/green_wl/6.jpg"",""time"":309},{""stimulus"":""img/green_wl/7.jpg"",""time"":356},{""stimulus"":""img/green_wl/8.jpg"",""time"":405},{""stimulus"":""img/green_wl/9.jpg"",""time"":453},{""stimulus"":""img/green_wl/10.jpg"",""time"":508},{""stimulus"":""img/green_wl/11.jpg"",""time"":556}]","[]"
"image-keyboard-response","64","67226","0.0-5.0-1.30","63bb98852cdc67dece8adb8e","bdp_lott","Sat Mar 25 2023 18:40:56 GMT-0500 (Central Daylight Time)","289671","green","red","","391","","","","choice","","img/green_wl/choose11.jpg","1","195","green","0.5","0.5","0.5","w","",""
"animation","65","67845","0.0-5.0-2.30","63bb98852cdc67dece8adb8e","bdp_lott","Sat Mar 25 2023 18:40:56 GMT-0500 (Central Daylight Time)","289671","green","red","","","","","","","","","","195","","","","","","[{""stimulus"":""img/green_wl/1.jpg"",""time"":60},{""stimulus"":""img/green_wl/2.jpg"",""time"":119},{""stimulus"":""img/green_wl/3.jpg"",""time"":153},{""stimulus"":""img/green_wl/4.jpg"",""time"":207},{""stimulus"":""img/green_wl/5.jpg"",""time"":255},{""stimulus"":""img/green_wl/6.jpg"",""time"":303},{""stimulus"":""img/green_wl/7.jpg"",""time"":352},{""stimulus"":""img/green_wl/8.jpg"",""time"":407},{""stimulus"":""img/green_wl/9.jpg"",""time"":468},{""stimulus"":""img/green_wl/10.jpg"",""time"":504},{""stimulus"":""img/green_wl/11.jpg"",""time"":552}]","[]"
"image-keyboard-response","66","68262","0.0-5.0-1.31","63bb98852cdc67dece8adb8e","bdp_lott","Sat Mar 25 2023 18:40:56 GMT-0500 (Central Daylight Time)","289671","green","red","","417","","","","choice","","img/green_wl/choose11.jpg","1","194","green","0.5","0.5","0.5","w","",""
"animation","67","68866","0.0-5.0-2.31","63bb98852cdc67dece8adb8e","bdp_lott","Sat Mar 25 2023 18:40:56 GMT-0500 (Central Daylight Time)","289671","green","red","","","","","","","","","","194","","","","","","[{""stimulus"":""img/green_wl/1.jpg"",""time"":56},{""stimulus"":""img/green_wl/2.jpg"",""time"":118},{""stimulus"":""img/green_wl/3.jpg"",""time"":157},{""stimulus"":""img/green_wl/4.jpg"",""time"":204},{""stimulus"":""img/green_wl/5.jpg"",""time"":252},{""stimulus"":""img/green_wl/6.jpg"",""time"":308},{""stimulus"":""img/green_wl/7.jpg"",""time"":356},{""stimulus"":""img/green_wl/8.jpg"",""time"":404},{""stimulus"":""img/green_wl/9.jpg"",""time"":452},{""stimulus"":""img/green_wl/10.jpg"",""time"":508},{""stimulus"":""img/green_wl/11.jpg"",""time"":556}]","[]"
"image-keyboard-response","68","69257","0.0-5.0-1.32","63bb98852cdc67dece8adb8e","bdp_lott","Sat Mar 25 2023 18:40:56 GMT-0500 (Central Daylight Time)","289671","green","red","","391","","","","choice","","img/green_wl/choose11.jpg","1","193","green","0.5","0.5","0.5","l","",""
"animation","69","69858","0.0-5.0-2.32","63bb98852cdc67dece8adb8e","bdp_lott","Sat Mar 25 2023 18:40:56 GMT-0500 (Central Daylight Time)","289671","green","red","","","","","","","","","","193","","","","","","[{""stimulus"":""img/green_ll/1.jpg"",""time"":64},{""stimulus"":""img/green_ll/2.jpg"",""time"":105},{""stimulus"":""img/green_ll/3.jpg"",""time"":150},{""stimulus"":""img/green_ll/4.jpg"",""time"":201},{""stimulus"":""img/green_ll/5.jpg"",""time"":272},{""stimulus"":""img/green_ll/6.jpg"",""time"":305},{""stimulus"":""img/green_ll/7.jpg"",""time"":354},{""stimulus"":""img/green_ll/8.jpg"",""time"":405},{""stimulus"":""img/green_ll/9.jpg"",""time"":472},{""stimulus"":""img/green_ll/10.jpg"",""time"":505},{""stimulus"":""img/green_ll/11.jpg"",""time"":553}]","[]"
"image-keyboard-response","70","70400","0.0-5.0-1.33","63bb98852cdc67dece8adb8e","bdp_lott","Sat Mar 25 2023 18:40:56 GMT-0500 (Central Daylight Time)","289671","green","red","","541","","","","choice","","img/green_ll/choose11.jpg","1","192","green","0.5","0.5","0.5","l","",""
"animation","71","71002","0.0-5.0-2.33","63bb98852cdc67dece8adb8e","bdp_lott","Sat Mar 25 2023 18:40:56 GMT-0500 (Central Daylight Time)","289671","green","red","","","","","","","","","","192","","","","","","[{""stimulus"":""img/green_ll/1.jpg"",""time"":58},{""stimulus"":""img/green_ll/2.jpg"",""time"":111},{""stimulus"":""img/green_ll/3.jpg"",""time"":153},{""stimulus"":""img/green_ll/4.jpg"",""time"":201},{""stimulus"":""img/green_ll/5.jpg"",""time"":257},{""stimulus"":""img/green_ll/6.jpg"",""time"":305},{""stimulus"":""img/green_ll/7.jpg"",""time"":354},{""stimulus"":""img/green_ll/8.jpg"",""time"":401},{""stimulus"":""img/green_ll/9.jpg"",""time"":457},{""stimulus"":""img/green_ll/10.jpg"",""time"":507},{""stimulus"":""img/green_ll/11.jpg"",""time"":553}]","[]"
"image-keyboard-response","72","71394","0.0-5.0-1.34","63bb98852cdc67dece8adb8e","bdp_lott","Sat Mar 25 2023 18:40:56 GMT-0500 (Central Daylight Time)","289671","green","red","","391","","","","choice","","img/green_ll/choose11.jpg","1","191","green","0.5","0.5","0.5","w","",""
"animation","73","72003","0.0-5.0-2.34","63bb98852cdc67dece8adb8e","bdp_lott","Sat Mar 25 2023 18:40:56 GMT-0500 (Central Daylight Time)","289671","green","red","","","","","","","","","","191","","","","","","[{""stimulus"":""img/green_wl/1.jpg"",""time"":60},{""stimulus"":""img/green_wl/2.jpg"",""time"":102},{""stimulus"":""img/green_wl/3.jpg"",""time"":167},{""stimulus"":""img/green_wl/4.jpg"",""time"":208},{""stimulus"":""img/green_wl/5.jpg"",""time"":256},{""stimulus"":""img/green_wl/6.jpg"",""time"":305},{""stimulus"":""img/green_wl/7.jpg"",""time"":352},{""stimulus"":""img/green_wl/8.jpg"",""time"":409},{""stimulus"":""img/green_wl/9.jpg"",""time"":457},{""stimulus"":""img/green_wl/10.jpg"",""time"":505},{""stimulus"":""img/green_wl/11.jpg"",""time"":552}]","[]"
"image-keyboard-response","74","72553","0.0-5.0-1.35","63bb98852cdc67dece8adb8e","bdp_lott","Sat Mar 25 2023 18:40:56 GMT-0500 (Central Daylight Time)","289671","green","red","","550","","","","choice","","img/green_wl/choose11.jpg","1","190","green","0.5","0.5","0.5","l","",""
"animation","75","73162","0.0-5.0-2.35","63bb98852cdc67dece8adb8e","bdp_lott","Sat Mar 25 2023 18:40:56 GMT-0500 (Central Daylight Time)","289671","green","red","","","","","","","","","","190","","","","","","[{""stimulus"":""img/green_ll/1.jpg"",""time"":71},{""stimulus"":""img/green_ll/2.jpg"",""time"":105},{""stimulus"":""img/green_ll/3.jpg"",""time"":152},{""stimulus"":""img/green_ll/4.jpg"",""time"":208},{""stimulus"":""img/green_ll/5.jpg"",""time"":257},{""stimulus"":""img/green_ll/6.jpg"",""time"":305},{""stimulus"":""img/green_ll/7.jpg"",""time"":352},{""stimulus"":""img/green_ll/8.jpg"",""time"":408},{""stimulus"":""img/green_ll/9.jpg"",""time"":456},{""stimulus"":""img/green_ll/10.jpg"",""time"":505},{""stimulus"":""img/green_ll/11.jpg"",""time"":552}]","[]"
"image-keyboard-response","76","73689","0.0-5.0-1.36","63bb98852cdc67dece8adb8e","bdp_lott","Sat Mar 25 2023 18:40:56 GMT-0500 (Central Daylight Time)","289671","green","red","","527","","","","choice","","img/green_ll/choose11.jpg","1","189","green","0.5","0.5","0.5","w","",""
"animation","77","74290","0.0-5.0-2.36","63bb98852cdc67dece8adb8e","bdp_lott","Sat Mar 25 2023 18:40:56 GMT-0500 (Central Daylight Time)","289671","green","red","","","","","","","","","","189","","","","","","[{""stimulus"":""img/green_wl/1.jpg"",""time"":71},{""stimulus"":""img/green_wl/2.jpg"",""time"":106},{""stimulus"":""img/green_wl/3.jpg"",""time"":154},{""stimulus"":""img/green_wl/4.jpg"",""time"":202},{""stimulus"":""img/green_wl/5.jpg"",""time"":273},{""stimulus"":""img/green_wl/6.jpg"",""time"":305},{""stimulus"":""img/green_wl/7.jpg"",""time"":356},{""stimulus"":""img/green_wl/8.jpg"",""time"":401},{""stimulus"":""img/green_wl/9.jpg"",""time"":472},{""stimulus"":""img/green_wl/10.jpg"",""time"":506},{""stimulus"":""img/green_wl/11.jpg"",""time"":553}]","[]"
"image-keyboard-response","78","74785","0.0-5.0-1.37","63bb98852cdc67dece8adb8e","bdp_lott","Sat Mar 25 2023 18:40:56 GMT-0500 (Central Daylight Time)","289671","green","red","","495","","","","choice","","img/green_wl/choose11.jpg","1","188","green","0.5","0.5","0.5","w","",""
"animation","79","75386","0.0-5.0-2.37","63bb98852cdc67dece8adb8e","bdp_lott","Sat Mar 25 2023 18:40:56 GMT-0500 (Central Daylight Time)","289671","green","red","","","","","","","","","","188","","","","","","[{""stimulus"":""img/green_wl/1.jpg"",""time"":61},{""stimulus"":""img/green_wl/2.jpg"",""time"":105},{""stimulus"":""img/green_wl/3.jpg"",""time"":153},{""stimulus"":""img/green_wl/4.jpg"",""time"":201},{""stimulus"":""img/green_wl/5.jpg"",""time"":257},{""stimulus"":""img/green_wl/6.jpg"",""time"":305},{""stimulus"":""img/green_wl/7.jpg"",""time"":354},{""stimulus"":""img/green_wl/8.jpg"",""time"":402},{""stimulus"":""img/green_wl/9.jpg"",""time"":457},{""stimulus"":""img/green_wl/10.jpg"",""time"":505},{""stimulus"":""img/green_wl/11.jpg"",""time"":554}]","[]"
"image-keyboard-response","80","75847","0.0-5.0-1.38","63bb98852cdc67dece8adb8e","bdp_lott","Sat Mar 25 2023 18:40:56 GMT-0500 (Central Daylight Time)","289671","green","red","","460","","","","choice","","img/green_wl/choose11.jpg","1","187","green","0.5","0.5","0.5","w","",""
"animation","81","76451","0.0-5.0-2.38","63bb98852cdc67dece8adb8e","bdp_lott","Sat Mar 25 2023 18:40:56 GMT-0500 (Central Daylight Time)","289671","green","red","","","","","","","","","","187","","","","","","[{""stimulus"":""img/green_wl/1.jpg"",""time"":53},{""stimulus"":""img/green_wl/2.jpg"",""time"":114},{""stimulus"":""img/green_wl/3.jpg"",""time"":153},{""stimulus"":""img/green_wl/4.jpg"",""time"":204},{""stimulus"":""img/green_wl/5.jpg"",""time"":251},{""stimulus"":""img/green_wl/6.jpg"",""time"":307},{""stimulus"":""img/green_wl/7.jpg"",""time"":355},{""stimulus"":""img/green_wl/8.jpg"",""time"":404},{""stimulus"":""img/green_wl/9.jpg"",""time"":451},{""stimulus"":""img/green_wl/10.jpg"",""time"":507},{""stimulus"":""img/green_wl/11.jpg"",""time"":555}]","[]"
"image-keyboard-response","82","76953","0.0-5.0-1.39","63bb98852cdc67dece8adb8e","bdp_lott","Sat Mar 25 2023 18:40:56 GMT-0500 (Central Daylight Time)","289671","green","red","","502","","","","choice","","img/green_wl/choose11.jpg","1","186","green","0.5","0.5","0.5","l","",""
"animation","83","77554","0.0-5.0-2.39","63bb98852cdc67dece8adb8e","bdp_lott","Sat Mar 25 2023 18:40:56 GMT-0500 (Central Daylight Time)","289671","green","red","","","","","","","","","","186","","","","","","[{""stimulus"":""img/green_ll/1.jpg"",""time"":59},{""stimulus"":""img/green_ll/2.jpg"",""time"":105},{""stimulus"":""img/green_ll/3.jpg"",""time"":152},{""stimulus"":""img/green_ll/4.jpg"",""time"":201},{""stimulus"":""img/green_ll/5.jpg"",""time"":257},{""stimulus"":""img/green_ll/6.jpg"",""time"":306},{""stimulus"":""img/green_ll/7.jpg"",""time"":353},{""stimulus"":""img/green_ll/8.jpg"",""time"":401},{""stimulus"":""img/green_ll/9.jpg"",""time"":458},{""stimulus"":""img/green_ll/10.jpg"",""time"":506},{""stimulus"":""img/green_ll/11.jpg"",""time"":554}]","[]"
"image-keyboard-response","84","78178","0.0-5.0-1.40","63bb98852cdc67dece8adb8e","bdp_lott","Sat Mar 25 2023 18:40:56 GMT-0500 (Central Daylight Time)","289671","green","red","","623","","","","choice","","img/green_ll/choose11.jpg","2","185","red","0.5","0.5","0.5","l","",""
"animation","85","78786","0.0-5.0-2.40","63bb98852cdc67dece8adb8e","bdp_lott","Sat Mar 25 2023 18:40:56 GMT-0500 (Central Daylight Time)","289671","green","red","","","","","","","","","","185","","","","","","[{""stimulus"":""img/red_ll/1.jpg"",""time"":59},{""stimulus"":""img/red_ll/2.jpg"",""time"":118},{""stimulus"":""img/red_ll/3.jpg"",""time"":152},{""stimulus"":""img/red_ll/4.jpg"",""time"":208},{""stimulus"":""img/red_ll/5.jpg"",""time"":257},{""stimulus"":""img/red_ll/6.jpg"",""time"":304},{""stimulus"":""img/red_ll/7.jpg"",""time"":352},{""stimulus"":""img/red_ll/8.jpg"",""time"":408},{""stimulus"":""img/red_ll/9.jpg"",""time"":457},{""stimulus"":""img/red_ll/10.jpg"",""time"":505},{""stimulus"":""img/red_ll/11.jpg"",""time"":552}]","[]"
"image-keyboard-response","86","79261","0.0-5.0-1.41","63bb98852cdc67dece8adb8e","bdp_lott","Sat Mar 25 2023 18:40:56 GMT-0500 (Central Daylight Time)","289671","green","red","","474","","","","choice","","img/red_ll/choose11.jpg","2","184","red","0.5","0.5","0.5","w","",""
"animation","87","79866","0.0-5.0-2.41","63bb98852cdc67dece8adb8e","bdp_lott","Sat Mar 25 2023 18:40:56 GMT-0500 (Central Daylight Time)","289671","green","red","","","","","","","","","","184","","","","","","[{""stimulus"":""img/red_lw/1.jpg"",""time"":53},{""stimulus"":""img/red_lw/2.jpg"",""time"":100},{""stimulus"":""img/red_lw/3.jpg"",""time"":159},{""stimulus"":""img/red_lw/4.jpg"",""time"":216},{""stimulus"":""img/red_lw/5.jpg"",""time"":252},{""stimulus"":""img/red_lw/6.jpg"",""time"":308},{""stimulus"":""img/red_lw/7.jpg"",""time"":356},{""stimulus"":""img/red_lw/8.jpg"",""time"":404},{""stimulus"":""img/red_lw/9.jpg"",""time"":452},{""stimulus"":""img/red_lw/10.jpg"",""time"":501},{""stimulus"":""img/red_lw/11.jpg"",""time"":556}]","[]"
"image-keyboard-response","88","80171","0.0-5.0-1.42","63bb98852cdc67dece8adb8e","bdp_lott","Sat Mar 25 2023 18:40:56 GMT-0500 (Central Daylight Time)","289671","green","red","","305","","","","choice","","img/red_lw/choose11.jpg","1","183","green","0.5","0.5","0.5","l","",""
"animation","89","80778","0.0-5.0-2.42","63bb98852cdc67dece8adb8e","bdp_lott","Sat Mar 25 2023 18:40:56 GMT-0500 (Central Daylight Time)","289671","green","red","","","","","","","","","","183","","","","","","[{""stimulus"":""img/green_lw/1.jpg"",""time"":56},{""stimulus"":""img/green_lw/2.jpg"",""time"":103},{""stimulus"":""img/green_lw/3.jpg"",""time"":151},{""stimulus"":""img/green_lw/4.jpg"",""time"":207},{""stimulus"":""img/green_lw/5.jpg"",""time"":255},{""stimulus"":""img/green_lw/6.jpg"",""time"":303},{""stimulus"":""img/green_lw/7.jpg"",""time"":351},{""stimulus"":""img/green_lw/8.jpg"",""time"":408},{""stimulus"":""img/green_lw/9.jpg"",""time"":456},{""stimulus"":""img/green_lw/10.jpg"",""time"":503},{""stimulus"":""img/green_lw/11.jpg"",""time"":552}]","[]"
"image-keyboard-response","90","81319","0.0-5.0-1.43","63bb98852cdc67dece8adb8e","bdp_lott","Sat Mar 25 2023 18:40:56 GMT-0500 (Central Daylight Time)","289671","green","red","","541","","","","choice","","img/green_lw/choose11.jpg","1","182","green","0.5","0.5","0.5","l","",""
"animation","91","81922","0.0-5.0-2.43","63bb98852cdc67dece8adb8e","bdp_lott","Sat Mar 25 2023 18:40:56 GMT-0500 (Central Daylight Time)","289671","green","red","","","","","","","","","","182","","","","","","[{""stimulus"":""img/green_lw/1.jpg"",""time"":57},{""stimulus"":""img/green_lw/2.jpg"",""time"":110},{""stimulus"":""img/green_lw/3.jpg"",""time"":155},{""stimulus"":""img/green_lw/4.jpg"",""time"":204},{""stimulus"":""img/green_lw/5.jpg"",""time"":251},{""stimulus"":""img/green_lw/6.jpg"",""time"":307},{""stimulus"":""img/green_lw/7.jpg"",""time"":356},{""stimulus"":""img/green_lw/8.jpg"",""time"":403},{""stimulus"":""img/green_lw/9.jpg"",""time"":451},{""stimulus"":""img/green_lw/10.jpg"",""time"":507},{""stimulus"":""img/green_lw/11.jpg"",""time"":555}]","[]"
"image-keyboard-response","92","82390","0.0-5.0-1.44","63bb98852cdc67dece8adb8e","bdp_lott","Sat Mar 25 2023 18:40:56 GMT-0500 (Central Daylight Time)","289671","green","red","","467","","","","choice","","img/green_lw/choose11.jpg","1","181","green","0.5","0.5","0.5","l","",""
"animation","93","82994","0.0-5.0-2.44","63bb98852cdc67dece8adb8e","bdp_lott","Sat Mar 25 2023 18:40:56 GMT-0500 (Central Daylight Time)","289671","green","red","","","","","","","","","","181","","","","","","[{""stimulus"":""img/green_lw/1.jpg"",""time"":57},{""stimulus"":""img/green_lw/2.jpg"",""time"":121},{""stimulus"":""img/green_lw/3.jpg"",""time"":155},{""stimulus"":""img/green_lw/4.jpg"",""time"":203},{""stimulus"":""img/green_lw/5.jpg"",""time"":251},{""stimulus"":""img/green_lw/6.jpg"",""time"":320},{""stimulus"":""img/green_lw/7.jpg"",""time"":355},{""stimulus"":""img/green_lw/8.jpg"",""time"":404},{""stimulus"":""img/green_lw/9.jpg"",""time"":451},{""stimulus"":""img/green_lw/10.jpg"",""time"":521},{""stimulus"":""img/green_lw/11.jpg"",""time"":555}]","[]"
"image-keyboard-response","94","83608","0.0-5.0-1.45","63bb98852cdc67dece8adb8e","bdp_lott","Sat Mar 25 2023 18:40:56 GMT-0500 (Central Daylight Time)","289671","green","red","","614","","","","choice","","img/green_lw/choose11.jpg","1","180","green","0.5","0.5","0.5","w","",""
"animation","95","84209","0.0-5.0-2.45","63bb98852cdc67dece8adb8e","bdp_lott","Sat Mar 25 2023 18:40:56 GMT-0500 (Central Daylight Time)","289671","green","red","","","","","","","","","","180","","","","","","[{""stimulus"":""img/green_ww/1.jpg"",""time"":62},{""stimulus"":""img/green_ww/2.jpg"",""time"":105},{""stimulus"":""img/green_ww/3.jpg"",""time"":154},{""stimulus"":""img/green_ww/4.jpg"",""time"":202},{""stimulus"":""img/green_ww/5.jpg"",""time"":271},{""stimulus"":""img/green_ww/6.jpg"",""time"":306},{""stimulus"":""img/green_ww/7.jpg"",""time"":354},{""stimulus"":""img/green_ww/8.jpg"",""time"":402},{""stimulus"":""img/green_ww/9.jpg"",""time"":459},{""stimulus"":""img/green_ww/10.jpg"",""time"":506},{""stimulus"":""img/green_ww/11.jpg"",""time"":555}]","[]"
"image-keyboard-response","96","85096","0.0-5.0-1.46","63bb98852cdc67dece8adb8e","bdp_lott","Sat Mar 25 2023 18:40:56 GMT-0500 (Central Daylight Time)","289671","green","red","","886","","","","choice","","img/green_ww/choose11.jpg","1","179","green","0.5","0.5","0.5","w","",""
"animation","97","85712","0.0-5.0-2.46","63bb98852cdc67dece8adb8e","bdp_lott","Sat Mar 25 2023 18:40:56 GMT-0500 (Central Daylight Time)","289671","green","red","","","","","","","","","","179","","","","","","[{""stimulus"":""img/green_ww/1.jpg"",""time"":62},{""stimulus"":""img/green_ww/2.jpg"",""time"":116},{""stimulus"":""img/green_ww/3.jpg"",""time"":154},{""stimulus"":""img/green_ww/4.jpg"",""time"":215},{""stimulus"":""img/green_ww/5.jpg"",""time"":251},{""stimulus"":""img/green_ww/6.jpg"",""time"":306},{""stimulus"":""img/green_ww/7.jpg"",""time"":355},{""stimulus"":""img/green_ww/8.jpg"",""time"":402},{""stimulus"":""img/green_ww/9.jpg"",""time"":458},{""stimulus"":""img/green_ww/10.jpg"",""time"":507},{""stimulus"":""img/green_ww/11.jpg"",""time"":554}]","[]"
"image-keyboard-response","98","86175","0.0-5.0-1.47","63bb98852cdc67dece8adb8e","bdp_lott","Sat Mar 25 2023 18:40:56 GMT-0500 (Central Daylight Time)","289671","green","red","","463","","","","choice","","img/green_ww/choose11.jpg","1","178","green","0.5","0.5","0.5","l","",""
"animation","99","86779","0.0-5.0-2.47","63bb98852cdc67dece8adb8e","bdp_lott","Sat Mar 25 2023 18:40:56 GMT-0500 (Central Daylight Time)","289671","green","red","","","","","","","","","","178","","","","","","[{""stimulus"":""img/green_lw/1.jpg"",""time"":58},{""stimulus"":""img/green_lw/2.jpg"",""time"":121},{""stimulus"":""img/green_lw/3.jpg"",""time"":155},{""stimulus"":""img/green_lw/4.jpg"",""time"":203},{""stimulus"":""img/green_lw/5.jpg"",""time"":251},{""stimulus"":""img/green_lw/6.jpg"",""time"":320},{""stimulus"":""img/green_lw/7.jpg"",""time"":356},{""stimulus"":""img/green_lw/8.jpg"",""time"":403},{""stimulus"":""img/green_lw/9.jpg"",""time"":451},{""stimulus"":""img/green_lw/10.jpg"",""time"":520},{""stimulus"":""img/green_lw/11.jpg"",""time"":556}]","[]"
"image-keyboard-response","100","87752","0.0-5.0-1.48","63bb98852cdc67dece8adb8e","bdp_lott","Sat Mar 25 2023 18:40:56 GMT-0500 (Central Daylight Time)","289671","green","red","","972","","","","choice","","img/green_lw/choose11.jpg","2","177","red","0.5","0.5","0.5","l","",""
"animation","101","88355","0.0-5.0-2.48","63bb98852cdc67dece8adb8e","bdp_lott","Sat Mar 25 2023 18:40:56 GMT-0500 (Central Daylight Time)","289671","green","red","","","","","","","","","","177","","","","","","[{""stimulus"":""img/red_ll/1.jpg"",""time"":62},{""stimulus"":""img/red_ll/2.jpg"",""time"":106},{""stimulus"":""img/red_ll/3.jpg"",""time"":154},{""stimulus"":""img/red_ll/4.jpg"",""time"":202},{""stimulus"":""img/red_ll/5.jpg"",""time"":258},{""stimulus"":""img/red_ll/6.jpg"",""time"":306},{""stimulus"":""img/red_ll/7.jpg"",""time"":354},{""stimulus"":""img/red_ll/8.jpg"",""time"":403},{""stimulus"":""img/red_ll/9.jpg"",""time"":459},{""stimulus"":""img/red_ll/10.jpg"",""time"":507},{""stimulus"":""img/red_ll/11.jpg"",""time"":554}]","[]"
"image-keyboard-response","102","88880","0.0-5.0-1.49","63bb98852cdc67dece8adb8e","bdp_lott","Sat Mar 25 2023 18:40:56 GMT-0500 (Central Daylight Time)","289671","green","red","","525","","","","choice","","img/red_ll/choose11.jpg","2","176","red","0.5","0.5","0.5","l","",""
"animation","103","89482","0.0-5.0-2.49","63bb98852cdc67dece8adb8e","bdp_lott","Sat Mar 25 2023 18:40:56 GMT-0500 (Central Daylight Time)","289671","green","red","","","","","","","","","","176","","","","","","[{""stimulus"":""img/red_ll/1.jpg"",""time"":64},{""stimulus"":""img/red_ll/2.jpg"",""time"":106},{""stimulus"":""img/red_ll/3.jpg"",""time"":155},{""stimulus"":""img/red_ll/4.jpg"",""time"":202},{""stimulus"":""img/red_ll/5.jpg"",""time"":258},{""stimulus"":""img/red_ll/6.jpg"",""time"":307},{""stimulus"":""img/red_ll/7.jpg"",""time"":354},{""stimulus"":""img/red_ll/8.jpg"",""time"":402},{""stimulus"":""img/red_ll/9.jpg"",""time"":458},{""stimulus"":""img/red_ll/10.jpg"",""time"":507},{""stimulus"":""img/red_ll/11.jpg"",""time"":555}]","[]"
"image-keyboard-response","104","89822","0.0-5.0-1.50","63bb98852cdc67dece8adb8e","bdp_lott","Sat Mar 25 2023 18:40:56 GMT-0500 (Central Daylight Time)","289671","green","red","","340","","","","choice","","img/red_ll/choose11.jpg","1","175","green","0.5","0.5","0.5","l","",""
"animation","105","90426","0.0-5.0-2.50","63bb98852cdc67dece8adb8e","bdp_lott","Sat Mar 25 2023 18:40:56 GMT-0500 (Central Daylight Time)","289671","green","red","","","","","","","","","","175","","","","","","[{""stimulus"":""img/green_ll/1.jpg"",""time"":67},{""stimulus"":""img/green_ll/2.jpg"",""time"":123},{""stimulus"":""img/green_ll/3.jpg"",""time"":156},{""stimulus"":""img/green_ll/4.jpg"",""time"":204},{""stimulus"":""img/green_ll/5.jpg"",""time"":252},{""stimulus"":""img/green_ll/6.jpg"",""time"":323},{""stimulus"":""img/green_ll/7.jpg"",""time"":357},{""stimulus"":""img/green_ll/8.jpg"",""time"":404},{""stimulus"":""img/green_ll/9.jpg"",""time"":452},{""stimulus"":""img/green_ll/10.jpg"",""time"":523},{""stimulus"":""img/green_ll/11.jpg"",""time"":556}]","[]"
"image-keyboard-response","106","90901","0.0-5.0-1.51","63bb98852cdc67dece8adb8e","bdp_lott","Sat Mar 25 2023 18:40:56 GMT-0500 (Central Daylight Time)","289671","green","red","","474","","","","choice","","img/green_ll/choose11.jpg","1","174","green","0.5","0.5","0.5","l","",""
"animation","107","91506","0.0-5.0-2.51","63bb98852cdc67dece8adb8e","bdp_lott","Sat Mar 25 2023 18:40:56 GMT-0500 (Central Daylight Time)","289671","green","red","","","","","","","","","","174","","","","","","[{""stimulus"":""img/green_ll/1.jpg"",""time"":62},{""stimulus"":""img/green_ll/2.jpg"",""time"":102},{""stimulus"":""img/green_ll/3.jpg"",""time"":157},{""stimulus"":""img/green_ll/4.jpg"",""time"":206},{""stimulus"":""img/green_ll/5.jpg"",""time"":254},{""stimulus"":""img/green_ll/6.jpg"",""time"":302},{""stimulus"":""img/green_ll/7.jpg"",""time"":357},{""stimulus"":""img/green_ll/8.jpg"",""time"":405},{""stimulus"":""img/green_ll/9.jpg"",""time"":454},{""stimulus"":""img/green_ll/10.jpg"",""time"":501},{""stimulus"":""img/green_ll/11.jpg"",""time"":557}]","[]"
"image-keyboard-response","108","92146","0.0-5.0-1.52","63bb98852cdc67dece8adb8e","bdp_lott","Sat Mar 25 2023 18:40:56 GMT-0500 (Central Daylight Time)","289671","green","red","","639","","","","choice","","img/green_ll/choose11.jpg","1","173","green","0.5","0.5","0.5","w","",""
"animation","109","92754","0.0-5.0-2.52","63bb98852cdc67dece8adb8e","bdp_lott","Sat Mar 25 2023 18:40:56 GMT-0500 (Central Daylight Time)","289671","green","red","","","","","","","","","","173","","","","","","[{""stimulus"":""img/green_wl/1.jpg"",""time"":56},{""stimulus"":""img/green_wl/2.jpg"",""time"":115},{""stimulus"":""img/green_wl/3.jpg"",""time"":152},{""stimulus"":""img/green_wl/4.jpg"",""time"":207},{""stimulus"":""img/green_wl/5.jpg"",""time"":256},{""stimulus"":""img/green_wl/6.jpg"",""time"":303},{""stimulus"":""img/green_wl/7.jpg"",""time"":365},{""stimulus"":""img/green_wl/8.jpg"",""time"":407},{""stimulus"":""img/green_wl/9.jpg"",""time"":456},{""stimulus"":""img/green_wl/10.jpg"",""time"":503},{""stimulus"":""img/green_wl/11.jpg"",""time"":551}]","[]"
"image-keyboard-response","110","93354","0.0-5.0-1.53","63bb98852cdc67dece8adb8e","bdp_lott","Sat Mar 25 2023 18:40:56 GMT-0500 (Central Daylight Time)","289671","green","red","","598","","","","choice","","img/green_wl/choose11.jpg","1","172","green","0.5","0.5","0.5","l","",""
"animation","111","93963","0.0-5.0-2.53","63bb98852cdc67dece8adb8e","bdp_lott","Sat Mar 25 2023 18:40:56 GMT-0500 (Central Daylight Time)","289671","green","red","","","","","","","","","","172","","","","","","[{""stimulus"":""img/green_ll/1.jpg"",""time"":67},{""stimulus"":""img/green_ll/2.jpg"",""time"":105},{""stimulus"":""img/green_ll/3.jpg"",""time"":152},{""stimulus"":""img/green_ll/4.jpg"",""time"":209},{""stimulus"":""img/green_ll/5.jpg"",""time"":257},{""stimulus"":""img/green_ll/6.jpg"",""time"":305},{""stimulus"":""img/green_ll/7.jpg"",""time"":352},{""stimulus"":""img/green_ll/8.jpg"",""time"":408},{""stimulus"":""img/green_ll/9.jpg"",""time"":456},{""stimulus"":""img/green_ll/10.jpg"",""time"":504},{""stimulus"":""img/green_ll/11.jpg"",""time"":552}]","[]"
"image-keyboard-response","112","94358","0.0-5.0-1.54","63bb98852cdc67dece8adb8e","bdp_lott","Sat Mar 25 2023 18:40:56 GMT-0500 (Central Daylight Time)","289671","green","red","","395","","","","choice","","img/green_ll/choose11.jpg","1","171","green","0.5","0.5","0.5","l","",""
"animation","113","94962","0.0-5.0-2.54","63bb98852cdc67dece8adb8e","bdp_lott","Sat Mar 25 2023 18:40:56 GMT-0500 (Central Daylight Time)","289671","green","red","","","","","","","","","","171","","","","","","[{""stimulus"":""img/green_ll/1.jpg"",""time"":61},{""stimulus"":""img/green_ll/2.jpg"",""time"":121},{""stimulus"":""img/green_ll/3.jpg"",""time"":156},{""stimulus"":""img/green_ll/4.jpg"",""time"":205},{""stimulus"":""img/green_ll/5.jpg"",""time"":252},{""stimulus"":""img/green_ll/6.jpg"",""time"":304},{""stimulus"":""img/green_ll/7.jpg"",""time"":371},{""stimulus"":""img/green_ll/8.jpg"",""time"":405},{""stimulus"":""img/green_ll/9.jpg"",""time"":452},{""stimulus"":""img/green_ll/10.jpg"",""time"":519},{""stimulus"":""img/green_ll/11.jpg"",""time"":557}]","[]"
"image-keyboard-response","114","95357","0.0-5.0-1.55","63bb98852cdc67dece8adb8e","bdp_lott","Sat Mar 25 2023 18:40:56 GMT-0500 (Central Daylight Time)","289671","green","red","","394","","","","choice","","img/green_ll/choose11.jpg","1","170","green","0.5","0.5","0.5","l","",""
"animation","115","95963","0.0-5.0-2.55","63bb98852cdc67dece8adb8e","bdp_lott","Sat Mar 25 2023 18:40:56 GMT-0500 (Central Daylight Time)","289671","green","red","","","","","","","","","","170","","","","","","[{""stimulus"":""img/green_ll/1.jpg"",""time"":62},{""stimulus"":""img/green_ll/2.jpg"",""time"":101},{""stimulus"":""img/green_ll/3.jpg"",""time"":171},{""stimulus"":""img/green_ll/4.jpg"",""time"":206},{""stimulus"":""img/green_ll/5.jpg"",""time"":253},{""stimulus"":""img/green_ll/6.jpg"",""time"":304},{""stimulus"":""img/green_ll/7.jpg"",""time"":371},{""stimulus"":""img/green_ll/8.jpg"",""time"":406},{""stimulus"":""img/green_ll/9.jpg"",""time"":454},{""stimulus"":""img/green_ll/10.jpg"",""time"":505},{""stimulus"":""img/green_ll/11.jpg"",""time"":572}]","[]"
"image-keyboard-response","116","96431","0.0-5.0-1.56","63bb98852cdc67dece8adb8e","bdp_lott","Sat Mar 25 2023 18:40:56 GMT-0500 (Central Daylight Time)","289671","green","red","","468","","","","choice","","img/green_ll/choose11.jpg","1","169","green","0.5","0.5","0.5","w","",""
"animation","117","97034","0.0-5.0-2.56","63bb98852cdc67dece8adb8e","bdp_lott","Sat Mar 25 2023 18:40:56 GMT-0500 (Central Daylight Time)","289671","green","red","","","","","","","","","","169","","","","","","[{""stimulus"":""img/green_wl/1.jpg"",""time"":51},{""stimulus"":""img/green_wl/2.jpg"",""time"":114},{""stimulus"":""img/green_wl/3.jpg"",""time"":156},{""stimulus"":""img/green_wl/4.jpg"",""time"":203},{""stimulus"":""img/green_wl/5.jpg"",""time"":252},{""stimulus"":""img/green_wl/6.jpg"",""time"":308},{""stimulus"":""img/green_wl/7.jpg"",""time"":355},{""stimulus"":""img/green_wl/8.jpg"",""time"":403},{""stimulus"":""img/green_wl/9.jpg"",""time"":452},{""stimulus"":""img/green_wl/10.jpg"",""time"":507},{""stimulus"":""img/green_wl/11.jpg"",""time"":555}]","[]"
"image-keyboard-response","118","97689","0.0-5.0-1.57","63bb98852cdc67dece8adb8e","bdp_lott","Sat Mar 25 2023 18:40:56 GMT-0500 (Central Daylight Time)","289671","green","red","","655","","","","choice","","img/green_wl/choose11.jpg","1","168","green","0.5","0.5","0.5","w","",""
"animation","119","98290","0.0-5.0-2.57","63bb98852cdc67dece8adb8e","bdp_lott","Sat Mar 25 2023 18:40:56 GMT-0500 (Central Daylight Time)","289671","green","red","","","","","","","","","","168","","","","","","[{""stimulus"":""img/green_wl/1.jpg"",""time"":63},{""stimulus"":""img/green_wl/2.jpg"",""time"":105},{""stimulus"":""img/green_wl/3.jpg"",""time"":153},{""stimulus"":""img/green_wl/4.jpg"",""time"":202},{""stimulus"":""img/green_wl/5.jpg"",""time"":273},{""stimulus"":""img/green_wl/6.jpg"",""time"":305},{""stimulus"":""img/green_wl/7.jpg"",""time"":356},{""stimulus"":""img/green_wl/8.jpg"",""time"":402},{""stimulus"":""img/green_wl/9.jpg"",""time"":472},{""stimulus"":""img/green_wl/10.jpg"",""time"":505},{""stimulus"":""img/green_wl/11.jpg"",""time"":556}]","[]"
"image-keyboard-response","120","98757","0.0-5.0-1.58","63bb98852cdc67dece8adb8e","bdp_lott","Sat Mar 25 2023 18:40:56 GMT-0500 (Central Daylight Time)","289671","green","red","","467","","","","choice","","img/green_wl/choose11.jpg","1","167","green","0.5","0.5","0.5","w","",""
"animation","121","99363","0.0-5.0-2.58","63bb98852cdc67dece8adb8e","bdp_lott","Sat Mar 25 2023 18:40:56 GMT-0500 (Central Daylight Time)","289671","green","red","","","","","","","","","","167","","","","","","[{""stimulus"":""img/green_wl/1.jpg"",""time"":57},{""stimulus"":""img/green_wl/2.jpg"",""time"":101},{""stimulus"":""img/green_wl/3.jpg"",""time"":171},{""stimulus"":""img/green_wl/4.jpg"",""time"":205},{""stimulus"":""img/green_wl/5.jpg"",""time"":254},{""stimulus"":""img/green_wl/6.jpg"",""time"":305},{""stimulus"":""img/green_wl/7.jpg"",""time"":371},{""stimulus"":""img/green_wl/8.jpg"",""time"":406},{""stimulus"":""img/green_wl/9.jpg"",""time"":453},{""stimulus"":""img/green_wl/10.jpg"",""time"":505},{""stimulus"":""img/green_wl/11.jpg"",""time"":571}]","[]"
"image-keyboard-response","122","99810","0.0-5.0-1.59","63bb98852cdc67dece8adb8e","bdp_lott","Sat Mar 25 2023 18:40:56 GMT-0500 (Central Daylight Time)","289671","green","red","","447","","","","choice","","img/green_wl/choose11.jpg","1","166","green","0.5","0.5","0.5","w","",""
"animation","123","100418","0.0-5.0-2.59","63bb98852cdc67dece8adb8e","bdp_lott","Sat Mar 25 2023 18:40:56 GMT-0500 (Central Daylight Time)","289671","green","red","","","","","","","","","","166","","","","","","[{""stimulus"":""img/green_wl/1.jpg"",""time"":56},{""stimulus"":""img/green_wl/2.jpg"",""time"":119},{""stimulus"":""img/green_wl/3.jpg"",""time"":152},{""stimulus"":""img/green_wl/4.jpg"",""time"":209},{""stimulus"":""img/green_wl/5.jpg"",""time"":256},{""stimulus"":""img/green_wl/6.jpg"",""time"":304},{""stimulus"":""img/green_wl/7.jpg"",""time"":353},{""stimulus"":""img/green_wl/8.jpg"",""time"":408},{""stimulus"":""img/green_wl/9.jpg"",""time"":456},{""stimulus"":""img/green_wl/10.jpg"",""time"":504},{""stimulus"":""img/green_wl/11.jpg"",""time"":552}]","[]"
"image-keyboard-response","124","100873","0.0-5.0-1.60","63bb98852cdc67dece8adb8e","bdp_lott","Sat Mar 25 2023 18:40:56 GMT-0500 (Central Daylight Time)","289671","green","red","","455","","","","choice","","img/green_wl/choose11.jpg","1","165","green","0.5","0.5","0.5","l","",""
"animation","125","101474","0.0-5.0-2.60","63bb98852cdc67dece8adb8e","bdp_lott","Sat Mar 25 2023 18:40:56 GMT-0500 (Central Daylight Time)","289671","green","red","","","","","","","","","","165","","","","","","[{""stimulus"":""img/green_ll/1.jpg"",""time"":59},{""stimulus"":""img/green_ll/2.jpg"",""time"":106},{""stimulus"":""img/green_ll/3.jpg"",""time"":153},{""stimulus"":""img/green_ll/4.jpg"",""time"":201},{""stimulus"":""img/green_ll/5.jpg"",""time"":272},{""stimulus"":""img/green_ll/6.jpg"",""time"":305},{""stimulus"":""img/green_ll/7.jpg"",""time"":353},{""stimulus"":""img/green_ll/8.jpg"",""time"":401},{""stimulus"":""img/green_ll/9.jpg"",""time"":472},{""stimulus"":""img/green_ll/10.jpg"",""time"":505},{""stimulus"":""img/green_ll/11.jpg"",""time"":553}]","[]"
"image-keyboard-response","126","102563","0.0-5.0-1.61","63bb98852cdc67dece8adb8e","bdp_lott","Sat Mar 25 2023 18:40:56 GMT-0500 (Central Daylight Time)","289671","green","red","","1089","","","","choice","","img/green_ll/choose11.jpg","2","164","red","0.5","0.5","0.5","l","",""
"animation","127","103170","0.0-5.0-2.61","63bb98852cdc67dece8adb8e","bdp_lott","Sat Mar 25 2023 18:40:56 GMT-0500 (Central Daylight Time)","289671","green","red","","","","","","","","","","164","","","","","","[{""stimulus"":""img/red_ll/1.jpg"",""time"":60},{""stimulus"":""img/red_ll/2.jpg"",""time"":115},{""stimulus"":""img/red_ll/3.jpg"",""time"":152},{""stimulus"":""img/red_ll/4.jpg"",""time"":207},{""stimulus"":""img/red_ll/5.jpg"",""time"":256},{""stimulus"":""img/red_ll/6.jpg"",""time"":303},{""stimulus"":""img/red_ll/7.jpg"",""time"":352},{""stimulus"":""img/red_ll/8.jpg"",""time"":407},{""stimulus"":""img/red_ll/9.jpg"",""time"":455},{""stimulus"":""img/red_ll/10.jpg"",""time"":503},{""stimulus"":""img/red_ll/11.jpg"",""time"":551}]","[]"
"image-keyboard-response","128","103503","0.0-5.0-1.62","63bb98852cdc67dece8adb8e","bdp_lott","Sat Mar 25 2023 18:40:56 GMT-0500 (Central Daylight Time)","289671","green","red","","332","","","","choice","","img/red_ll/choose11.jpg","2","163","red","0.5","0.5","0.5","l","",""
"animation","129","104106","0.0-5.0-2.62","63bb98852cdc67dece8adb8e","bdp_lott","Sat Mar 25 2023 18:40:56 GMT-0500 (Central Daylight Time)","289671","green","red","","","","","","","","","","163","","","","","","[{""stimulus"":""img/red_ll/1.jpg"",""time"":70},{""stimulus"":""img/red_ll/2.jpg"",""time"":107},{""stimulus"":""img/red_ll/3.jpg"",""time"":156},{""stimulus"":""img/red_ll/4.jpg"",""time"":204},{""stimulus"":""img/red_ll/5.jpg"",""time"":260},{""stimulus"":""img/red_ll/6.jpg"",""time"":308},{""stimulus"":""img/red_ll/7.jpg"",""time"":355},{""stimulus"":""img/red_ll/8.jpg"",""time"":403},{""stimulus"":""img/red_ll/9.jpg"",""time"":460},{""stimulus"":""img/red_ll/10.jpg"",""time"":508},{""stimulus"":""img/red_ll/11.jpg"",""time"":555}]","[]"
"image-keyboard-response","130","104750","0.0-5.0-1.63","63bb98852cdc67dece8adb8e","bdp_lott","Sat Mar 25 2023 18:40:56 GMT-0500 (Central Daylight Time)","289671","green","red","","643","","","","choice","","img/red_ll/choose11.jpg","2","162","red","0.5","0.5","0.5","w","",""
"animation","131","105354","0.0-5.0-2.63","63bb98852cdc67dece8adb8e","bdp_lott","Sat Mar 25 2023 18:40:56 GMT-0500 (Central Daylight Time)","289671","green","red","","","","","","","","","","162","","","","","","[{""stimulus"":""img/red_lw/1.jpg"",""time"":54},{""stimulus"":""img/red_lw/2.jpg"",""time"":112},{""stimulus"":""img/red_lw/3.jpg"",""time"":156},{""stimulus"":""img/red_lw/4.jpg"",""time"":204},{""stimulus"":""img/red_lw/5.jpg"",""time"":252},{""stimulus"":""img/red_lw/6.jpg"",""time"":308},{""stimulus"":""img/red_lw/7.jpg"",""time"":357},{""stimulus"":""img/red_lw/8.jpg"",""time"":404},{""stimulus"":""img/red_lw/9.jpg"",""time"":452},{""stimulus"":""img/red_lw/10.jpg"",""time"":508},{""stimulus"":""img/red_lw/11.jpg"",""time"":556}]","[]"
"image-keyboard-response","132","105996","0.0-5.0-1.64","63bb98852cdc67dece8adb8e","bdp_lott","Sat Mar 25 2023 18:40:56 GMT-0500 (Central Daylight Time)","289671","green","red","","641","","","","choice","","img/red_lw/choose11.jpg","1","161","green","0.5","0.5","0.5","w","",""
"animation","133","106603","0.0-5.0-2.64","63bb98852cdc67dece8adb8e","bdp_lott","Sat Mar 25 2023 18:40:56 GMT-0500 (Central Daylight Time)","289671","green","red","","","","","","","","","","161","","","","","","[{""stimulus"":""img/green_ww/1.jpg"",""time"":57},{""stimulus"":""img/green_ww/2.jpg"",""time"":116},{""stimulus"":""img/green_ww/3.jpg"",""time"":159},{""stimulus"":""img/green_ww/4.jpg"",""time"":207},{""stimulus"":""img/green_ww/5.jpg"",""time"":255},{""stimulus"":""img/green_ww/6.jpg"",""time"":303},{""stimulus"":""img/green_ww/7.jpg"",""time"":358},{""stimulus"":""img/green_ww/8.jpg"",""time"":406},{""stimulus"":""img/green_ww/9.jpg"",""time"":454},{""stimulus"":""img/green_ww/10.jpg"",""time"":502},{""stimulus"":""img/green_ww/11.jpg"",""time"":559}]","[]"
"image-keyboard-response","134","106978","0.0-5.0-1.65","63bb98852cdc67dece8adb8e","bdp_lott","Sat Mar 25 2023 18:40:56 GMT-0500 (Central Daylight Time)","289671","green","red","","375","","","","choice","","img/green_ww/choose11.jpg","1","160","green","0.5","0.5","0.5","l","",""
"animation","135","107587","0.0-5.0-2.65","63bb98852cdc67dece8adb8e","bdp_lott","Sat Mar 25 2023 18:40:56 GMT-0500 (Central Daylight Time)","289671","green","red","","","","","","","","","","160","","","","","","[{""stimulus"":""img/green_lw/1.jpg"",""time"":60},{""stimulus"":""img/green_lw/2.jpg"",""time"":117},{""stimulus"":""img/green_lw/3.jpg"",""time"":151},{""stimulus"":""img/green_lw/4.jpg"",""time"":217},{""stimulus"":""img/green_lw/5.jpg"",""time"":256},{""stimulus"":""img/green_lw/6.jpg"",""time"":305},{""stimulus"":""img/green_lw/7.jpg"",""time"":352},{""stimulus"":""img/green_lw/8.jpg"",""time"":408},{""stimulus"":""img/green_lw/9.jpg"",""time"":456},{""stimulus"":""img/green_lw/10.jpg"",""time"":505},{""stimulus"":""img/green_lw/11.jpg"",""time"":552}]","[]"
"image-keyboard-response","136","108351","0.0-5.0-1.66","63bb98852cdc67dece8adb8e","bdp_lott","Sat Mar 25 2023 18:40:56 GMT-0500 (Central Daylight Time)","289671","green","red","","764","","","","choice","","img/green_lw/choose11.jpg","1","159","green","0.5","0.5","0.5","l","",""
"animation","137","108954","0.0-5.0-2.66","63bb98852cdc67dece8adb8e","bdp_lott","Sat Mar 25 2023 18:40:56 GMT-0500 (Central Daylight Time)","289671","green","red","","","","","","","","","","159","","","","","","[{""stimulus"":""img/green_lw/1.jpg"",""time"":60},{""stimulus"":""img/green_lw/2.jpg"",""time"":107},{""stimulus"":""img/green_lw/3.jpg"",""time"":154},{""stimulus"":""img/green_lw/4.jpg"",""time"":202},{""stimulus"":""img/green_lw/5.jpg"",""time"":250},{""stimulus"":""img/green_lw/6.jpg"",""time"":307},{""stimulus"":""img/green_lw/7.jpg"",""time"":354},{""stimulus"":""img/green_lw/8.jpg"",""time"":402},{""stimulus"":""img/green_lw/9.jpg"",""time"":458},{""stimulus"":""img/green_lw/10.jpg"",""time"":506},{""stimulus"":""img/green_lw/11.jpg"",""time"":554}]","[]"
"image-keyboard-response","138","109451","0.0-5.0-1.67","63bb98852cdc67dece8adb8e","bdp_lott","Sat Mar 25 2023 18:40:56 GMT-0500 (Central Daylight Time)","289671","green","red","","496","","","","choice","","img/green_lw/choose11.jpg","1","158","green","0.5","0.5","0.5","w","",""
"animation","139","110058","0.0-5.0-2.67","63bb98852cdc67dece8adb8e","bdp_lott","Sat Mar 25 2023 18:40:56 GMT-0500 (Central Daylight Time)","289671","green","red","","","","","","","","","","158","","","","","","[{""stimulus"":""img/green_ww/1.jpg"",""time"":61},{""stimulus"":""img/green_ww/2.jpg"",""time"":104},{""stimulus"":""img/green_ww/3.jpg"",""time"":152},{""stimulus"":""img/green_ww/4.jpg"",""time"":207},{""stimulus"":""img/green_ww/5.jpg"",""time"":256},{""stimulus"":""img/green_ww/6.jpg"",""time"":303},{""stimulus"":""img/green_ww/7.jpg"",""time"":351},{""stimulus"":""img/green_ww/8.jpg"",""time"":407},{""stimulus"":""img/green_ww/9.jpg"",""time"":455},{""stimulus"":""img/green_ww/10.jpg"",""time"":503},{""stimulus"":""img/green_ww/11.jpg"",""time"":551}]","[]"
"image-keyboard-response","140","110538","0.0-5.0-1.68","63bb98852cdc67dece8adb8e","bdp_lott","Sat Mar 25 2023 18:40:56 GMT-0500 (Central Daylight Time)","289671","green","red","","479","","","","choice","","img/green_ww/choose11.jpg","1","157","green","0.5","0.5","0.5","w","",""
"animation","141","111146","0.0-5.0-2.68","63bb98852cdc67dece8adb8e","bdp_lott","Sat Mar 25 2023 18:40:56 GMT-0500 (Central Daylight Time)","289671","green","red","","","","","","","","","","157","","","","","","[{""stimulus"":""img/green_ww/1.jpg"",""time"":59},{""stimulus"":""img/green_ww/2.jpg"",""time"":105},{""stimulus"":""img/green_ww/3.jpg"",""time"":153},{""stimulus"":""img/green_ww/4.jpg"",""time"":223},{""stimulus"":""img/green_ww/5.jpg"",""time"":256},{""stimulus"":""img/green_ww/6.jpg"",""time"":307},{""stimulus"":""img/green_ww/7.jpg"",""time"":353},{""stimulus"":""img/green_ww/8.jpg"",""time"":423},{""stimulus"":""img/green_ww/9.jpg"",""time"":456},{""stimulus"":""img/green_ww/10.jpg"",""time"":506},{""stimulus"":""img/green_ww/11.jpg"",""time"":552}]","[]"
"image-keyboard-response","142","111503","0.0-5.0-1.69","63bb98852cdc67dece8adb8e","bdp_lott","Sat Mar 25 2023 18:40:56 GMT-0500 (Central Daylight Time)","289671","green","red","","357","","","","choice","","img/green_ww/choose11.jpg","1","156","green","0.5","0.5","0.5","w","",""
"animation","143","112107","0.0-5.0-2.69","63bb98852cdc67dece8adb8e","bdp_lott","Sat Mar 25 2023 18:40:56 GMT-0500 (Central Daylight Time)","289671","green","red","","","","","","","","","","156","","","","","","[{""stimulus"":""img/green_ww/1.jpg"",""time"":53},{""stimulus"":""img/green_ww/2.jpg"",""time"":109},{""stimulus"":""img/green_ww/3.jpg"",""time"":156},{""stimulus"":""img/green_ww/4.jpg"",""time"":203},{""stimulus"":""img/green_ww/5.jpg"",""time"":251},{""stimulus"":""img/green_ww/6.jpg"",""time"":307},{""stimulus"":""img/green_ww/7.jpg"",""time"":355},{""stimulus"":""img/green_ww/8.jpg"",""time"":403},{""stimulus"":""img/green_ww/9.jpg"",""time"":452},{""stimulus"":""img/green_ww/10.jpg"",""time"":507},{""stimulus"":""img/green_ww/11.jpg"",""time"":555}]","[]"
"image-keyboard-response","144","112529","0.0-5.0-1.70","63bb98852cdc67dece8adb8e","bdp_lott","Sat Mar 25 2023 18:40:56 GMT-0500 (Central Daylight Time)","289671","green","red","","422","","","","choice","","img/green_ww/choose11.jpg","1","155","green","0.5","0.5","0.5","w","",""
"animation","145","113130","0.0-5.0-2.70","63bb98852cdc67dece8adb8e","bdp_lott","Sat Mar 25 2023 18:40:56 GMT-0500 (Central Daylight Time)","289671","green","red","","","","","","","","","","155","","","","","","[{""stimulus"":""img/green_ww/1.jpg"",""time"":72},{""stimulus"":""img/green_ww/2.jpg"",""time"":105},{""stimulus"":""img/green_ww/3.jpg"",""time"":153},{""stimulus"":""img/green_ww/4.jpg"",""time"":201},{""stimulus"":""img/green_ww/5.jpg"",""time"":251},{""stimulus"":""img/green_ww/6.jpg"",""time"":300},{""stimulus"":""img/green_ww/7.jpg"",""time"":350},{""stimulus"":""img/green_ww/8.jpg"",""time"":401},{""stimulus"":""img/green_ww/9.jpg"",""time"":457},{""stimulus"":""img/green_ww/10.jpg"",""time"":506},{""stimulus"":""img/green_ww/11.jpg"",""time"":553}]","[]"
"image-keyboard-response","146","113525","0.0-5.0-1.71","63bb98852cdc67dece8adb8e","bdp_lott","Sat Mar 25 2023 18:40:56 GMT-0500 (Central Daylight Time)","289671","green","red","","394","","","","choice","","img/green_ww/choose11.jpg","1","154","green","0.5","0.5","0.5","w","",""
"animation","147","114130","0.0-5.0-2.71","63bb98852cdc67dece8adb8e","bdp_lott","Sat Mar 25 2023 18:40:56 GMT-0500 (Central Daylight Time)","289671","green","red","","","","","","","","","","154","","","","","","[{""stimulus"":""img/green_ww/1.jpg"",""time"":62},{""stimulus"":""img/green_ww/2.jpg"",""time"":102},{""stimulus"":""img/green_ww/3.jpg"",""time"":162},{""stimulus"":""img/green_ww/4.jpg"",""time"":220},{""stimulus"":""img/green_ww/5.jpg"",""time"":253},{""stimulus"":""img/green_ww/6.jpg"",""time"":301},{""stimulus"":""img/green_ww/7.jpg"",""time"":370},{""stimulus"":""img/green_ww/8.jpg"",""time"":405},{""stimulus"":""img/green_ww/9.jpg"",""time"":453},{""stimulus"":""img/green_ww/10.jpg"",""time"":501},{""stimulus"":""img/green_ww/11.jpg"",""time"":570}]","[]"
"image-keyboard-response","148","114522","0.0-5.0-1.72","63bb98852cdc67dece8adb8e","bdp_lott","Sat Mar 25 2023 18:40:56 GMT-0500 (Central Daylight Time)","289671","green","red","","391","","","","choice","","img/green_ww/choose11.jpg","1","153","green","0.5","0.5","0.5","l","",""
"animation","149","115145","0.0-5.0-2.72","63bb98852cdc67dece8adb8e","bdp_lott","Sat Mar 25 2023 18:40:56 GMT-0500 (Central Daylight Time)","289671","green","red","","","","","","","","","","153","","","","","","[{""stimulus"":""img/green_lw/1.jpg"",""time"":65},{""stimulus"":""img/green_lw/2.jpg"",""time"":104},{""stimulus"":""img/green_lw/3.jpg"",""time"":153},{""stimulus"":""img/green_lw/4.jpg"",""time"":222},{""stimulus"":""img/green_lw/5.jpg"",""time"":256},{""stimulus"":""img/green_lw/6.jpg"",""time"":304},{""stimulus"":""img/green_lw/7.jpg"",""time"":352},{""stimulus"":""img/green_lw/8.jpg"",""time"":423},{""stimulus"":""img/green_lw/9.jpg"",""time"":456},{""stimulus"":""img/green_lw/10.jpg"",""time"":505},{""stimulus"":""img/green_lw/11.jpg"",""time"":553}]","[]"
"image-keyboard-response","150","115947","0.0-5.0-1.73","63bb98852cdc67dece8adb8e","bdp_lott","Sat Mar 25 2023 18:40:56 GMT-0500 (Central Daylight Time)","289671","green","red","","802","","","","choice","","img/green_lw/choose11.jpg","1","152","green","0.5","0.5","0.5","l","",""
"animation","151","116554","0.0-5.0-2.73","63bb98852cdc67dece8adb8e","bdp_lott","Sat Mar 25 2023 18:40:56 GMT-0500 (Central Daylight Time)","289671","green","red","","","","","","","","","","152","","","","","","[{""stimulus"":""img/green_lw/1.jpg"",""time"":61},{""stimulus"":""img/green_lw/2.jpg"",""time"":115},{""stimulus"":""img/green_lw/3.jpg"",""time"":151},{""stimulus"":""img/green_lw/4.jpg"",""time"":206},{""stimulus"":""img/green_lw/5.jpg"",""time"":254},{""stimulus"":""img/green_lw/6.jpg"",""time"":302},{""stimulus"":""img/green_lw/7.jpg"",""time"":359},{""stimulus"":""img/green_lw/8.jpg"",""time"":406},{""stimulus"":""img/green_lw/9.jpg"",""time"":455},{""stimulus"":""img/green_lw/10.jpg"",""time"":503},{""stimulus"":""img/green_lw/11.jpg"",""time"":559}]","[]"
"image-keyboard-response","152","116925","0.0-5.0-1.74","63bb98852cdc67dece8adb8e","bdp_lott","Sat Mar 25 2023 18:40:56 GMT-0500 (Central Daylight Time)","289671","green","red","","370","","","","choice","","img/green_lw/choose11.jpg","1","151","green","0.5","0.5","0.5","l","",""
"animation","153","117531","0.0-5.0-2.74","63bb98852cdc67dece8adb8e","bdp_lott","Sat Mar 25 2023 18:40:56 GMT-0500 (Central Daylight Time)","289671","green","red","","","","","","","","","","151","","","","","","[{""stimulus"":""img/green_lw/1.jpg"",""time"":63},{""stimulus"":""img/green_lw/2.jpg"",""time"":102},{""stimulus"":""img/green_lw/3.jpg"",""time"":170},{""stimulus"":""img/green_lw/4.jpg"",""time"":205},{""stimulus"":""img/green_lw/5.jpg"",""time"":254},{""stimulus"":""img/green_lw/6.jpg"",""time"":301},{""stimulus"":""img/green_lw/7.jpg"",""time"":370},{""stimulus"":""img/green_lw/8.jpg"",""time"":405},{""stimulus"":""img/green_lw/9.jpg"",""time"":454},{""stimulus"":""img/green_lw/10.jpg"",""time"":502},{""stimulus"":""img/green_lw/11.jpg"",""time"":569}]","[]"
"image-keyboard-response","154","117962","0.0-5.0-1.75","63bb98852cdc67dece8adb8e","bdp_lott","Sat Mar 25 2023 18:40:56 GMT-0500 (Central Daylight Time)","289671","green","red","","431","","","","choice","","img/green_lw/choose11.jpg","1","150","green","0.5","0.5","0.5","w","",""
"animation","155","118570","0.0-5.0-2.75","63bb98852cdc67dece8adb8e","bdp_lott","Sat Mar 25 2023 18:40:56 GMT-0500 (Central Daylight Time)","289671","green","red","","","","","","","","","","150","","","","","","[{""stimulus"":""img/green_ww/1.jpg"",""time"":71},{""stimulus"":""img/green_ww/2.jpg"",""time"":105},{""stimulus"":""img/green_ww/3.jpg"",""time"":152},{""stimulus"":""img/green_ww/4.jpg"",""time"":216},{""stimulus"":""img/green_ww/5.jpg"",""time"":257},{""stimulus"":""img/green_ww/6.jpg"",""time"":304},{""stimulus"":""img/green_ww/7.jpg"",""time"":352},{""stimulus"":""img/green_ww/8.jpg"",""time"":409},{""stimulus"":""img/green_ww/9.jpg"",""time"":457},{""stimulus"":""img/green_ww/10.jpg"",""time"":504},{""stimulus"":""img/green_ww/11.jpg"",""time"":552}]","[]"
"image-keyboard-response","156","119017","0.0-5.0-1.76","63bb98852cdc67dece8adb8e","bdp_lott","Sat Mar 25 2023 18:40:56 GMT-0500 (Central Daylight Time)","289671","green","red","","446","","","","choice","","img/green_ww/choose11.jpg","1","149","green","0.5","0.1","0.5","l","",""
"animation","157","119618","0.0-5.0-2.76","63bb98852cdc67dece8adb8e","bdp_lott","Sat Mar 25 2023 18:40:56 GMT-0500 (Central Daylight Time)","289671","green","red","","","","","","","","","","149","","","","","","[{""stimulus"":""img/green_lw/1.jpg"",""time"":66},{""stimulus"":""img/green_lw/2.jpg"",""time"":105},{""stimulus"":""img/green_lw/3.jpg"",""time"":154},{""stimulus"":""img/green_lw/4.jpg"",""time"":201},{""stimulus"":""img/green_lw/5.jpg"",""time"":257},{""stimulus"":""img/green_lw/6.jpg"",""time"":305},{""stimulus"":""img/green_lw/7.jpg"",""time"":353},{""stimulus"":""img/green_lw/8.jpg"",""time"":402},{""stimulus"":""img/green_lw/9.jpg"",""time"":457},{""stimulus"":""img/green_lw/10.jpg"",""time"":505},{""stimulus"":""img/green_lw/11.jpg"",""time"":553}]","[]"
"image-keyboard-response","158","120125","0.0-5.0-1.77","63bb98852cdc67dece8adb8e","bdp_lott","Sat Mar 25 2023 18:40:56 GMT-0500 (Central Daylight Time)","289671","green","red","","506","","","","choice","","img/green_lw/choose11.jpg","1","148","green","0.5","0.1","0.5","l","",""
"animation","159","120731","0.0-5.0-2.77","63bb98852cdc67dece8adb8e","bdp_lott","Sat Mar 25 2023 18:40:56 GMT-0500 (Central Daylight Time)","289671","green","red","","","","","","","","","","148","","","","","","[{""stimulus"":""img/green_lw/1.jpg"",""time"":53},{""stimulus"":""img/green_lw/2.jpg"",""time"":100},{""stimulus"":""img/green_lw/3.jpg"",""time"":168},{""stimulus"":""img/green_lw/4.jpg"",""time"":204},{""stimulus"":""img/green_lw/5.jpg"",""time"":253},{""stimulus"":""img/green_lw/6.jpg"",""time"":301},{""stimulus"":""img/green_lw/7.jpg"",""time"":368},{""stimulus"":""img/green_lw/8.jpg"",""time"":404},{""stimulus"":""img/green_lw/9.jpg"",""time"":453},{""stimulus"":""img/green_lw/10.jpg"",""time"":501},{""stimulus"":""img/green_lw/11.jpg"",""time"":569}]","[]"
"image-keyboard-response","160","121288","0.0-5.0-1.78","63bb98852cdc67dece8adb8e","bdp_lott","Sat Mar 25 2023 18:40:56 GMT-0500 (Central Daylight Time)","289671","green","red","","557","","","","choice","","img/green_lw/choose11.jpg","1","147","green","0.5","0.1","0.5","w","",""
"animation","161","121891","0.0-5.0-2.78","63bb98852cdc67dece8adb8e","bdp_lott","Sat Mar 25 2023 18:40:56 GMT-0500 (Central Daylight Time)","289671","green","red","","","","","","","","","","147","","","","","","[{""stimulus"":""img/green_ww/1.jpg"",""time"":71},{""stimulus"":""img/green_ww/2.jpg"",""time"":107},{""stimulus"":""img/green_ww/3.jpg"",""time"":155},{""stimulus"":""img/green_ww/4.jpg"",""time"":202},{""stimulus"":""img/green_ww/5.jpg"",""time"":274},{""stimulus"":""img/green_ww/6.jpg"",""time"":306},{""stimulus"":""img/green_ww/7.jpg"",""time"":355},{""stimulus"":""img/green_ww/8.jpg"",""time"":407},{""stimulus"":""img/green_ww/9.jpg"",""time"":459},{""stimulus"":""img/green_ww/10.jpg"",""time"":507},{""stimulus"":""img/green_ww/11.jpg"",""time"":554}]","[]"
"image-keyboard-response","162","122324","0.0-5.0-1.79","63bb98852cdc67dece8adb8e","bdp_lott","Sat Mar 25 2023 18:40:56 GMT-0500 (Central Daylight Time)","289671","green","red","","433","","","","choice","","img/green_ww/choose11.jpg","1","146","green","0.5","0.1","0.5","w","",""
"animation","163","122945","0.0-5.0-2.79","63bb98852cdc67dece8adb8e","bdp_lott","Sat Mar 25 2023 18:40:56 GMT-0500 (Central Daylight Time)","289671","green","red","","","","","","","","","","146","","","","","","[{""stimulus"":""img/green_ww/1.jpg"",""time"":60},{""stimulus"":""img/green_ww/2.jpg"",""time"":103},{""stimulus"":""img/green_ww/3.jpg"",""time"":167},{""stimulus"":""img/green_ww/4.jpg"",""time"":221},{""stimulus"":""img/green_ww/5.jpg"",""time"":255},{""stimulus"":""img/green_ww/6.jpg"",""time"":302},{""stimulus"":""img/green_ww/7.jpg"",""time"":371},{""stimulus"":""img/green_ww/8.jpg"",""time"":407},{""stimulus"":""img/green_ww/9.jpg"",""time"":455},{""stimulus"":""img/green_ww/10.jpg"",""time"":503},{""stimulus"":""img/green_ww/11.jpg"",""time"":554}]","[]"
"image-keyboard-response","164","123381","0.0-5.0-1.80","63bb98852cdc67dece8adb8e","bdp_lott","Sat Mar 25 2023 18:40:56 GMT-0500 (Central Daylight Time)","289671","green","red","","435","","","","choice","","img/green_ww/choose11.jpg","1","145","green","0.5","0.1","0.5","l","",""
"animation","165","123986","0.0-5.0-2.80","63bb98852cdc67dece8adb8e","bdp_lott","Sat Mar 25 2023 18:40:56 GMT-0500 (Central Daylight Time)","289671","green","red","","","","","","","","","","145","","","","","","[{""stimulus"":""img/green_lw/1.jpg"",""time"":53},{""stimulus"":""img/green_lw/2.jpg"",""time"":115},{""stimulus"":""img/green_lw/3.jpg"",""time"":156},{""stimulus"":""img/green_lw/4.jpg"",""time"":205},{""stimulus"":""img/green_lw/5.jpg"",""time"":254},{""stimulus"":""img/green_lw/6.jpg"",""time"":301},{""stimulus"":""img/green_lw/7.jpg"",""time"":358},{""stimulus"":""img/green_lw/8.jpg"",""time"":405},{""stimulus"":""img/green_lw/9.jpg"",""time"":453},{""stimulus"":""img/green_lw/10.jpg"",""time"":501},{""stimulus"":""img/green_lw/11.jpg"",""time"":557}]","[]"
"image-keyboard-response","166","124583","0.0-5.0-1.81","63bb98852cdc67dece8adb8e","bdp_lott","Sat Mar 25 2023 18:40:56 GMT-0500 (Central Daylight Time)","289671","green","red","","597","","","","choice","","img/green_lw/choose11.jpg","1","144","green","0.5","0.1","0.5","l","",""
"animation","167","125186","0.0-5.0-2.81","63bb98852cdc67dece8adb8e","bdp_lott","Sat Mar 25 2023 18:40:56 GMT-0500 (Central Daylight Time)","289671","green","red","","","","","","","","","","144","","","","","","[{""stimulus"":""img/green_lw/1.jpg"",""time"":57},{""stimulus"":""img/green_lw/2.jpg"",""time"":112},{""stimulus"":""img/green_lw/3.jpg"",""time"":155},{""stimulus"":""img/green_lw/4.jpg"",""time"":204},{""stimulus"":""img/green_lw/5.jpg"",""time"":252},{""stimulus"":""img/green_lw/6.jpg"",""time"":307},{""stimulus"":""img/green_lw/7.jpg"",""time"":362},{""stimulus"":""img/green_lw/8.jpg"",""time"":403},{""stimulus"":""img/green_lw/9.jpg"",""time"":451},{""stimulus"":""img/green_lw/10.jpg"",""time"":508},{""stimulus"":""img/green_lw/11.jpg"",""time"":555}]","[]"
"image-keyboard-response","168","125597","0.0-5.0-1.82","63bb98852cdc67dece8adb8e","bdp_lott","Sat Mar 25 2023 18:40:56 GMT-0500 (Central Daylight Time)","289671","green","red","","410","","","","choice","","img/green_lw/choose11.jpg","1","143","green","0.5","0.1","0.5","w","",""
"animation","169","126203","0.0-5.0-2.82","63bb98852cdc67dece8adb8e","bdp_lott","Sat Mar 25 2023 18:40:56 GMT-0500 (Central Daylight Time)","289671","green","red","","","","","","","","","","143","","","","","","[{""stimulus"":""img/green_ww/1.jpg"",""time"":56},{""stimulus"":""img/green_ww/2.jpg"",""time"":115},{""stimulus"":""img/green_ww/3.jpg"",""time"":158},{""stimulus"":""img/green_ww/4.jpg"",""time"":205},{""stimulus"":""img/green_ww/5.jpg"",""time"":253},{""stimulus"":""img/green_ww/6.jpg"",""time"":301},{""stimulus"":""img/green_ww/7.jpg"",""time"":358},{""stimulus"":""img/green_ww/8.jpg"",""time"":406},{""stimulus"":""img/green_ww/9.jpg"",""time"":454},{""stimulus"":""img/green_ww/10.jpg"",""time"":502},{""stimulus"":""img/green_ww/11.jpg"",""time"":557}]","[]"
"image-keyboard-response","170","126622","0.0-5.0-1.83","63bb98852cdc67dece8adb8e","bdp_lott","Sat Mar 25 2023 18:40:56 GMT-0500 (Central Daylight Time)","289671","green","red","","419","","","","choice","","img/green_ww/choose11.jpg","1","142","green","0.5","0.1","0.5","w","",""
"animation","171","127227","0.0-5.0-2.83","63bb98852cdc67dece8adb8e","bdp_lott","Sat Mar 25 2023 18:40:56 GMT-0500 (Central Daylight Time)","289671","green","red","","","","","","","","","","142","","","","","","[{""stimulus"":""img/green_ww/1.jpg"",""time"":63},{""stimulus"":""img/green_ww/2.jpg"",""time"":109},{""stimulus"":""img/green_ww/3.jpg"",""time"":157},{""stimulus"":""img/green_ww/4.jpg"",""time"":204},{""stimulus"":""img/green_ww/5.jpg"",""time"":253},{""stimulus"":""img/green_ww/6.jpg"",""time"":322},{""stimulus"":""img/green_ww/7.jpg"",""time"":357},{""stimulus"":""img/green_ww/8.jpg"",""time"":404},{""stimulus"":""img/green_ww/9.jpg"",""time"":456},{""stimulus"":""img/green_ww/10.jpg"",""time"":524},{""stimulus"":""img/green_ww/11.jpg"",""time"":557}]","[]"
"image-keyboard-response","172","127647","0.0-5.0-1.84","63bb98852cdc67dece8adb8e","bdp_lott","Sat Mar 25 2023 18:40:56 GMT-0500 (Central Daylight Time)","289671","green","red","","420","","","","choice","","img/green_ww/choose11.jpg","1","141","green","0.5","0.1","0.5","l","",""
"animation","173","128250","0.0-5.0-2.84","63bb98852cdc67dece8adb8e","bdp_lott","Sat Mar 25 2023 18:40:56 GMT-0500 (Central Daylight Time)","289671","green","red","","","","","","","","","","141","","","","","","[{""stimulus"":""img/green_lw/1.jpg"",""time"":55},{""stimulus"":""img/green_lw/2.jpg"",""time"":115},{""stimulus"":""img/green_lw/3.jpg"",""time"":156},{""stimulus"":""img/green_lw/4.jpg"",""time"":203},{""stimulus"":""img/green_lw/5.jpg"",""time"":252},{""stimulus"":""img/green_lw/6.jpg"",""time"":307},{""stimulus"":""img/green_lw/7.jpg"",""time"":356},{""stimulus"":""img/green_lw/8.jpg"",""time"":404},{""stimulus"":""img/green_lw/9.jpg"",""time"":451},{""stimulus"":""img/green_lw/10.jpg"",""time"":508},{""stimulus"":""img/green_lw/11.jpg"",""time"":555}]","[]"
"image-keyboard-response","174","128841","0.0-5.0-1.85","63bb98852cdc67dece8adb8e","bdp_lott","Sat Mar 25 2023 18:40:56 GMT-0500 (Central Daylight Time)","289671","green","red","","590","","","","choice","","img/green_lw/choose11.jpg","1","140","green","0.5","0.1","0.5","l","",""
"animation","175","129445","0.0-5.0-2.85","63bb98852cdc67dece8adb8e","bdp_lott","Sat Mar 25 2023 18:40:56 GMT-0500 (Central Daylight Time)","289671","green","red","","","","","","","","","","140","","","","","","[{""stimulus"":""img/green_lw/1.jpg"",""time"":72},{""stimulus"":""img/green_lw/2.jpg"",""time"":105},{""stimulus"":""img/green_lw/3.jpg"",""time"":154},{""stimulus"":""img/green_lw/4.jpg"",""time"":202},{""stimulus"":""img/green_lw/5.jpg"",""time"":271},{""stimulus"":""img/green_lw/6.jpg"",""time"":305},{""stimulus"":""img/green_lw/7.jpg"",""time"":353},{""stimulus"":""img/green_lw/8.jpg"",""time"":403},{""stimulus"":""img/green_lw/9.jpg"",""time"":471},{""stimulus"":""img/green_lw/10.jpg"",""time"":506},{""stimulus"":""img/green_lw/11.jpg"",""time"":553}]","[]"
"image-keyboard-response","176","129955","0.0-5.0-1.86","63bb98852cdc67dece8adb8e","bdp_lott","Sat Mar 25 2023 18:40:56 GMT-0500 (Central Daylight Time)","289671","green","red","","510","","","","choice","","img/green_lw/choose11.jpg","1","139","green","0.5","0.1","0.5","w","",""
"animation","177","130562","0.0-5.0-2.86","63bb98852cdc67dece8adb8e","bdp_lott","Sat Mar 25 2023 18:40:56 GMT-0500 (Central Daylight Time)","289671","green","red","","","","","","","","","","139","","","","","","[{""stimulus"":""img/green_ww/1.jpg"",""time"":60},{""stimulus"":""img/green_ww/2.jpg"",""time"":103},{""stimulus"":""img/green_ww/3.jpg"",""time"":151},{""stimulus"":""img/green_ww/4.jpg"",""time"":208},{""stimulus"":""img/green_ww/5.jpg"",""time"":256},{""stimulus"":""img/green_ww/6.jpg"",""time"":303},{""stimulus"":""img/green_ww/7.jpg"",""time"":352},{""stimulus"":""img/green_ww/8.jpg"",""time"":407},{""stimulus"":""img/green_ww/9.jpg"",""time"":456},{""stimulus"":""img/green_ww/10.jpg"",""time"":504},{""stimulus"":""img/green_ww/11.jpg"",""time"":551}]","[]"
"image-keyboard-response","178","131104","0.0-5.0-1.87","63bb98852cdc67dece8adb8e","bdp_lott","Sat Mar 25 2023 18:40:56 GMT-0500 (Central Daylight Time)","289671","green","red","","542","","","","choice","","img/green_ww/choose11.jpg","1","138","green","0.5","0.1","0.5","w","",""
"animation","179","131706","0.0-5.0-2.87","63bb98852cdc67dece8adb8e","bdp_lott","Sat Mar 25 2023 18:40:56 GMT-0500 (Central Daylight Time)","289671","green","red","","","","","","","","","","138","","","","","","[{""stimulus"":""img/green_ww/1.jpg"",""time"":71},{""stimulus"":""img/green_ww/2.jpg"",""time"":107},{""stimulus"":""img/green_ww/3.jpg"",""time"":154},{""stimulus"":""img/green_ww/4.jpg"",""time"":202},{""stimulus"":""img/green_ww/5.jpg"",""time"":258},{""stimulus"":""img/green_ww/6.jpg"",""time"":306},{""stimulus"":""img/green_ww/7.jpg"",""time"":354},{""stimulus"":""img/green_ww/8.jpg"",""time"":402},{""stimulus"":""img/green_ww/9.jpg"",""time"":458},{""stimulus"":""img/green_ww/10.jpg"",""time"":506},{""stimulus"":""img/green_ww/11.jpg"",""time"":554}]","[]"
"image-keyboard-response","180","132126","0.0-5.0-1.88","63bb98852cdc67dece8adb8e","bdp_lott","Sat Mar 25 2023 18:40:56 GMT-0500 (Central Daylight Time)","289671","green","red","","419","","","","choice","","img/green_ww/choose11.jpg","1","137","green","0.5","0.1","0.5","w","",""
"animation","181","132730","0.0-5.0-2.88","63bb98852cdc67dece8adb8e","bdp_lott","Sat Mar 25 2023 18:40:56 GMT-0500 (Central Daylight Time)","289671","green","red","","","","","","","","","","137","","","","","","[{""stimulus"":""img/green_ww/1.jpg"",""time"":59},{""stimulus"":""img/green_ww/2.jpg"",""time"":119},{""stimulus"":""img/green_ww/3.jpg"",""time"":156},{""stimulus"":""img/green_ww/4.jpg"",""time"":205},{""stimulus"":""img/green_ww/5.jpg"",""time"":252},{""stimulus"":""img/green_ww/6.jpg"",""time"":319},{""stimulus"":""img/green_ww/7.jpg"",""time"":356},{""stimulus"":""img/green_ww/8.jpg"",""time"":405},{""stimulus"":""img/green_ww/9.jpg"",""time"":452},{""stimulus"":""img/green_ww/10.jpg"",""time"":519},{""stimulus"":""img/green_ww/11.jpg"",""time"":557}]","[]"
"image-keyboard-response","182","133142","0.0-5.0-1.89","63bb98852cdc67dece8adb8e","bdp_lott","Sat Mar 25 2023 18:40:56 GMT-0500 (Central Daylight Time)","289671","green","red","","411","","","","choice","","img/green_ww/choose11.jpg","1","136","green","0.5","0.1","0.5","w","",""
"animation","183","133747","0.0-5.0-2.89","63bb98852cdc67dece8adb8e","bdp_lott","Sat Mar 25 2023 18:40:56 GMT-0500 (Central Daylight Time)","289671","green","red","","","","","","","","","","136","","","","","","[{""stimulus"":""img/green_ww/1.jpg"",""time"":60},{""stimulus"":""img/green_ww/2.jpg"",""time"":119},{""stimulus"":""img/green_ww/3.jpg"",""time"":158},{""stimulus"":""img/green_ww/4.jpg"",""time"":206},{""stimulus"":""img/green_ww/5.jpg"",""time"":252},{""stimulus"":""img/green_ww/6.jpg"",""time"":320},{""stimulus"":""img/green_ww/7.jpg"",""time"":357},{""stimulus"":""img/green_ww/8.jpg"",""time"":406},{""stimulus"":""img/green_ww/9.jpg"",""time"":452},{""stimulus"":""img/green_ww/10.jpg"",""time"":519},{""stimulus"":""img/green_ww/11.jpg"",""time"":557}]","[]"
"image-keyboard-response","184","134291","0.0-5.0-1.90","63bb98852cdc67dece8adb8e","bdp_lott","Sat Mar 25 2023 18:40:56 GMT-0500 (Central Daylight Time)","289671","green","red","","544","","","","choice","","img/green_ww/choose11.jpg","1","135","green","0.5","0.1","0.5","l","",""
"animation","185","134912","0.0-5.0-2.90","63bb98852cdc67dece8adb8e","bdp_lott","Sat Mar 25 2023 18:40:56 GMT-0500 (Central Daylight Time)","289671","green","red","","","","","","","","","","135","","","","","","[{""stimulus"":""img/green_lw/1.jpg"",""time"":69},{""stimulus"":""img/green_lw/2.jpg"",""time"":103},{""stimulus"":""img/green_lw/3.jpg"",""time"":152},{""stimulus"":""img/green_lw/4.jpg"",""time"":221},{""stimulus"":""img/green_lw/5.jpg"",""time"":255},{""stimulus"":""img/green_lw/6.jpg"",""time"":303},{""stimulus"":""img/green_lw/7.jpg"",""time"":352},{""stimulus"":""img/green_lw/8.jpg"",""time"":420},{""stimulus"":""img/green_lw/9.jpg"",""time"":455},{""stimulus"":""img/green_lw/10.jpg"",""time"":504},{""stimulus"":""img/green_lw/11.jpg"",""time"":551}]","[]"
"image-keyboard-response","186","135553","0.0-5.0-1.91","63bb98852cdc67dece8adb8e","bdp_lott","Sat Mar 25 2023 18:40:56 GMT-0500 (Central Daylight Time)","289671","green","red","","641","","","","choice","","img/green_lw/choose11.jpg","1","134","green","0.5","0.1","0.5","l","",""
"animation","187","136154","0.0-5.0-2.91","63bb98852cdc67dece8adb8e","bdp_lott","Sat Mar 25 2023 18:40:56 GMT-0500 (Central Daylight Time)","289671","green","red","","","","","","","","","","134","","","","","","[{""stimulus"":""img/green_lw/1.jpg"",""time"":67},{""stimulus"":""img/green_lw/2.jpg"",""time"":106},{""stimulus"":""img/green_lw/3.jpg"",""time"":154},{""stimulus"":""img/green_lw/4.jpg"",""time"":202},{""stimulus"":""img/green_lw/5.jpg"",""time"":258},{""stimulus"":""img/green_lw/6.jpg"",""time"":305},{""stimulus"":""img/green_lw/7.jpg"",""time"":353},{""stimulus"":""img/green_lw/8.jpg"",""time"":402},{""stimulus"":""img/green_lw/9.jpg"",""time"":458},{""stimulus"":""img/green_lw/10.jpg"",""time"":506},{""stimulus"":""img/green_lw/11.jpg"",""time"":553}]","[]"
"image-keyboard-response","188","136626","0.0-5.0-1.92","63bb98852cdc67dece8adb8e","bdp_lott","Sat Mar 25 2023 18:40:56 GMT-0500 (Central Daylight Time)","289671","green","red","","472","","","","choice","","img/green_lw/choose11.jpg","1","133","green","0.5","0.1","0.5","w","",""
"animation","189","137234","0.0-5.0-2.92","63bb98852cdc67dece8adb8e","bdp_lott","Sat Mar 25 2023 18:40:56 GMT-0500 (Central Daylight Time)","289671","green","red","","","","","","","","","","133","","","","","","[{""stimulus"":""img/green_ww/1.jpg"",""time"":71},{""stimulus"":""img/green_ww/2.jpg"",""time"":105},{""stimulus"":""img/green_ww/3.jpg"",""time"":152},{""stimulus"":""img/green_ww/4.jpg"",""time"":219},{""stimulus"":""img/green_ww/5.jpg"",""time"":257},{""stimulus"":""img/green_ww/6.jpg"",""time"":305},{""stimulus"":""img/green_ww/7.jpg"",""time"":353},{""stimulus"":""img/green_ww/8.jpg"",""time"":418},{""stimulus"":""img/green_ww/9.jpg"",""time"":457},{""stimulus"":""img/green_ww/10.jpg"",""time"":504},{""stimulus"":""img/green_ww/11.jpg"",""time"":553}]","[]"
"image-keyboard-response","190","137940","0.0-5.0-1.93","63bb98852cdc67dece8adb8e","bdp_lott","Sat Mar 25 2023 18:40:56 GMT-0500 (Central Daylight Time)","289671","green","red","","706","","","","choice","","img/green_ww/choose11.jpg","1","132","green","0.5","0.1","0.5","w","",""
