"trial_type","trial_index","time_elapsed","internal_node_id","subject_id","task","startTime","totalTime","fairMachine","unfairMachine","view_history","rt","event","trial","time","trialtype","success","stimulus","key_press","roundsLeft","chosen","pFairMachWin","pUnfairMachWin","pTrialWin","outcome","animation_sequence","responses"
"pavlovia","0","3","0.0-0.0","5efc1d4ee23e2a011ded073e","bdp_lott","Sun Apr 09 2023 15:26:45 GMT-0700 (Pacific Daylight Time)","316357","red","green","","","","","","","","","","","","","","","","",""
"instructions","1","5202","0.0-1.0","5efc1d4ee23e2a011ded073e","bdp_lott","Sun Apr 09 2023 15:26:45 GMT-0700 (Pacific Daylight Time)","316357","red","green","[{""page_index"":0,""viewing_time"":5197}]","5197","","","","","","","","","","","","","","",""
"","","","","5efc1d4ee23e2a011ded073e","bdp_lott","Sun Apr 09 2023 15:26:45 GMT-0700 (Pacific Daylight Time)","316357","red","green","","","fullscreenenter","2","8304","fullscreenenter","","","","","","","","","","",""
"fullscreen","2","9294","0.0-2.0","5efc1d4ee23e2a011ded073e","bdp_lott","Sun Apr 09 2023 15:26:45 GMT-0700 (Pacific Daylight Time)","316357","red","green","","","","","","","true","","","","","","","","","",""
"instructions","3","64980","0.0-4.0","5efc1d4ee23e2a011ded073e","bdp_lott","Sun Apr 09 2023 15:26:45 GMT-0700 (Pacific Daylight Time)","316357","red","green","[{""page_index"":0,""viewing_time"":55685}]","55685","","","","","","","","","","","","","","",""
"image-keyboard-response","4","70229","0.0-5.0-1.0","5efc1d4ee23e2a011ded073e","bdp_lott","Sun Apr 09 2023 15:26:45 GMT-0700 (Pacific Daylight Time)","316357","red","green","","5247","","","","choice","","img/red_ll/initchoose11.jpg","1","225","green","0.5","0.5","0.5","l","",""
"animation","5","70830","0.0-5.0-2.0","5efc1d4ee23e2a011ded073e","bdp_lott","Sun Apr 09 2023 15:26:45 GMT-0700 (Pacific Daylight Time)","316357","red","green","","","","","","","","","","225","","","","","","[{""stimulus"":""img/green_ll/1.jpg"",""time"":52},{""stimulus"":""img/green_ll/2.jpg"",""time"":104},{""stimulus"":""img/green_ll/3.jpg"",""time"":152},{""stimulus"":""img/green_ll/4.jpg"",""time"":203},{""stimulus"":""img/green_ll/5.jpg"",""time"":253},{""stimulus"":""img/green_ll/6.jpg"",""time"":316},{""stimulus"":""img/green_ll/7.jpg"",""time"":353},{""stimulus"":""img/green_ll/8.jpg"",""time"":403},{""stimulus"":""img/green_ll/9.jpg"",""time"":451},{""stimulus"":""img/green_ll/10.jpg"",""time"":502},{""stimulus"":""img/green_ll/11.jpg"",""time"":551}]","[]"
"image-keyboard-response","6","73329","0.0-5.0-1.1","5efc1d4ee23e2a011ded073e","bdp_lott","Sun Apr 09 2023 15:26:45 GMT-0700 (Pacific Daylight Time)","316357","red","green","","2498","","","","choice","","img/green_ll/choose11.jpg","1","224","green","0.5","0.5","0.5","l","",""
"animation","7","73930","0.0-5.0-2.1","5efc1d4ee23e2a011ded073e","bdp_lott","Sun Apr 09 2023 15:26:45 GMT-0700 (Pacific Daylight Time)","316357","red","green","","","","","","","","","","224","","","","","","[{""stimulus"":""img/green_ll/1.jpg"",""time"":52},{""stimulus"":""img/green_ll/2.jpg"",""time"":101},{""stimulus"":""img/green_ll/3.jpg"",""time"":151},{""stimulus"":""img/green_ll/4.jpg"",""time"":201},{""stimulus"":""img/green_ll/5.jpg"",""time"":251},{""stimulus"":""img/green_ll/6.jpg"",""time"":301},{""stimulus"":""img/green_ll/7.jpg"",""time"":351},{""stimulus"":""img/green_ll/8.jpg"",""time"":401},{""stimulus"":""img/green_ll/9.jpg"",""time"":451},{""stimulus"":""img/green_ll/10.jpg"",""time"":501},{""stimulus"":""img/green_ll/11.jpg"",""time"":550}]","[]"
"image-keyboard-response","8","74736","0.0-5.0-1.2","5efc1d4ee23e2a011ded073e","bdp_lott","Sun Apr 09 2023 15:26:45 GMT-0700 (Pacific Daylight Time)","316357","red","green","","805","","","","choice","","img/green_ll/choose11.jpg","2","223","red","0.5","0.5","0.5","l","",""
"animation","9","75337","0.0-5.0-2.2","5efc1d4ee23e2a011ded073e","bdp_lott","Sun Apr 09 2023 15:26:45 GMT-0700 (Pacific Daylight Time)","316357","red","green","","","","","","","","","","223","","","","","","[{""stimulus"":""img/red_ll/1.jpg"",""time"":57},{""stimulus"":""img/red_ll/2.jpg"",""time"":102},{""stimulus"":""img/red_ll/3.jpg"",""time"":159},{""stimulus"":""img/red_ll/4.jpg"",""time"":201},{""stimulus"":""img/red_ll/5.jpg"",""time"":251},{""stimulus"":""img/red_ll/6.jpg"",""time"":309},{""stimulus"":""img/red_ll/7.jpg"",""time"":350},{""stimulus"":""img/red_ll/8.jpg"",""time"":401},{""stimulus"":""img/red_ll/9.jpg"",""time"":451},{""stimulus"":""img/red_ll/10.jpg"",""time"":500},{""stimulus"":""img/red_ll/11.jpg"",""time"":551}]","[]"
"image-keyboard-response","10","75949","0.0-5.0-1.3","5efc1d4ee23e2a011ded073e","bdp_lott","Sun Apr 09 2023 15:26:45 GMT-0700 (Pacific Daylight Time)","316357","red","green","","611","","","","choice","","img/red_ll/choose11.jpg","2","222","red","0.5","0.5","0.5","w","",""
"animation","11","76550","0.0-5.0-2.3","5efc1d4ee23e2a011ded073e","bdp_lott","Sun Apr 09 2023 15:26:45 GMT-0700 (Pacific Daylight Time)","316357","red","green","","","","","","","","","","222","","","","","","[{""stimulus"":""img/red_lw/1.jpg"",""time"":62},{""stimulus"":""img/red_lw/2.jpg"",""time"":102},{""stimulus"":""img/red_lw/3.jpg"",""time"":161},{""stimulus"":""img/red_lw/4.jpg"",""time"":201},{""stimulus"":""img/red_lw/5.jpg"",""time"":261},{""stimulus"":""img/red_lw/6.jpg"",""time"":300},{""stimulus"":""img/red_lw/7.jpg"",""time"":351},{""stimulus"":""img/red_lw/8.jpg"",""time"":413},{""stimulus"":""img/red_lw/9.jpg"",""time"":459},{""stimulus"":""img/red_lw/10.jpg"",""time"":510},{""stimulus"":""img/red_lw/11.jpg"",""time"":551}]","[]"
"image-keyboard-response","12","76997","0.0-5.0-1.4","5efc1d4ee23e2a011ded073e","bdp_lott","Sun Apr 09 2023 15:26:45 GMT-0700 (Pacific Daylight Time)","316357","red","green","","447","","","","choice","","img/red_lw/choose11.jpg","2","221","red","0.5","0.5","0.5","l","",""
"animation","13","77599","0.0-5.0-2.4","5efc1d4ee23e2a011ded073e","bdp_lott","Sun Apr 09 2023 15:26:45 GMT-0700 (Pacific Daylight Time)","316357","red","green","","","","","","","","","","221","","","","","","[{""stimulus"":""img/red_ll/1.jpg"",""time"":62},{""stimulus"":""img/red_ll/2.jpg"",""time"":112},{""stimulus"":""img/red_ll/3.jpg"",""time"":162},{""stimulus"":""img/red_ll/4.jpg"",""time"":201},{""stimulus"":""img/red_ll/5.jpg"",""time"":261},{""stimulus"":""img/red_ll/6.jpg"",""time"":301},{""stimulus"":""img/red_ll/7.jpg"",""time"":350},{""stimulus"":""img/red_ll/8.jpg"",""time"":400},{""stimulus"":""img/red_ll/9.jpg"",""time"":450},{""stimulus"":""img/red_ll/10.jpg"",""time"":500},{""stimulus"":""img/red_ll/11.jpg"",""time"":551}]","[]"
"image-keyboard-response","14","78187","0.0-5.0-1.5","5efc1d4ee23e2a011ded073e","bdp_lott","Sun Apr 09 2023 15:26:45 GMT-0700 (Pacific Daylight Time)","316357","red","green","","587","","","","choice","","img/red_ll/choose11.jpg","2","220","red","0.5","0.5","0.5","w","",""
"animation","15","78788","0.0-5.0-2.5","5efc1d4ee23e2a011ded073e","bdp_lott","Sun Apr 09 2023 15:26:45 GMT-0700 (Pacific Daylight Time)","316357","red","green","","","","","","","","","","220","","","","","","[{""stimulus"":""img/red_lw/1.jpg"",""time"":54},{""stimulus"":""img/red_lw/2.jpg"",""time"":102},{""stimulus"":""img/red_lw/3.jpg"",""time"":151},{""stimulus"":""img/red_lw/4.jpg"",""time"":203},{""stimulus"":""img/red_lw/5.jpg"",""time"":251},{""stimulus"":""img/red_lw/6.jpg"",""time"":301},{""stimulus"":""img/red_lw/7.jpg"",""time"":351},{""stimulus"":""img/red_lw/8.jpg"",""time"":403},{""stimulus"":""img/red_lw/9.jpg"",""time"":451},{""stimulus"":""img/red_lw/10.jpg"",""time"":504},{""stimulus"":""img/red_lw/11.jpg"",""time"":551}]","[]"
"image-keyboard-response","16","79056","0.0-5.0-1.6","5efc1d4ee23e2a011ded073e","bdp_lott","Sun Apr 09 2023 15:26:45 GMT-0700 (Pacific Daylight Time)","316357","red","green","","267","","","","choice","","img/red_lw/choose11.jpg","1","219","green","0.5","0.5","0.5","w","",""
"animation","17","79657","0.0-5.0-2.6","5efc1d4ee23e2a011ded073e","bdp_lott","Sun Apr 09 2023 15:26:45 GMT-0700 (Pacific Daylight Time)","316357","red","green","","","","","","","","","","219","","","","","","[{""stimulus"":""img/green_ww/1.jpg"",""time"":52},{""stimulus"":""img/green_ww/2.jpg"",""time"":101},{""stimulus"":""img/green_ww/3.jpg"",""time"":153},{""stimulus"":""img/green_ww/4.jpg"",""time"":202},{""stimulus"":""img/green_ww/5.jpg"",""time"":271},{""stimulus"":""img/green_ww/6.jpg"",""time"":302},{""stimulus"":""img/green_ww/7.jpg"",""time"":352},{""stimulus"":""img/green_ww/8.jpg"",""time"":402},{""stimulus"":""img/green_ww/9.jpg"",""time"":451},{""stimulus"":""img/green_ww/10.jpg"",""time"":503},{""stimulus"":""img/green_ww/11.jpg"",""time"":570}]","[]"
"image-keyboard-response","18","82315","0.0-5.0-1.7","5efc1d4ee23e2a011ded073e","bdp_lott","Sun Apr 09 2023 15:26:45 GMT-0700 (Pacific Daylight Time)","316357","red","green","","2657","","","","choice","","img/green_ww/choose11.jpg","1","218","green","0.5","0.5","0.5","l","",""
"animation","19","82921","0.0-5.0-2.7","5efc1d4ee23e2a011ded073e","bdp_lott","Sun Apr 09 2023 15:26:45 GMT-0700 (Pacific Daylight Time)","316357","red","green","","","","","","","","","","218","","","","","","[{""stimulus"":""img/green_lw/1.jpg"",""time"":55},{""stimulus"":""img/green_lw/2.jpg"",""time"":101},{""stimulus"":""img/green_lw/3.jpg"",""time"":158},{""stimulus"":""img/green_lw/4.jpg"",""time"":201},{""stimulus"":""img/green_lw/5.jpg"",""time"":250},{""stimulus"":""img/green_lw/6.jpg"",""time"":301},{""stimulus"":""img/green_lw/7.jpg"",""time"":356},{""stimulus"":""img/green_lw/8.jpg"",""time"":401},{""stimulus"":""img/green_lw/9.jpg"",""time"":451},{""stimulus"":""img/green_lw/10.jpg"",""time"":501},{""stimulus"":""img/green_lw/11.jpg"",""time"":551}]","[]"
"image-keyboard-response","20","84270","0.0-5.0-1.8","5efc1d4ee23e2a011ded073e","bdp_lott","Sun Apr 09 2023 15:26:45 GMT-0700 (Pacific Daylight Time)","316357","red","green","","1348","","","","choice","","img/green_lw/choose11.jpg","2","217","red","0.5","0.5","0.5","l","",""
"animation","21","84871","0.0-5.0-2.8","5efc1d4ee23e2a011ded073e","bdp_lott","Sun Apr 09 2023 15:26:45 GMT-0700 (Pacific Daylight Time)","316357","red","green","","","","","","","","","","217","","","","","","[{""stimulus"":""img/red_ll/1.jpg"",""time"":51},{""stimulus"":""img/red_ll/2.jpg"",""time"":100},{""stimulus"":""img/red_ll/3.jpg"",""time"":150},{""stimulus"":""img/red_ll/4.jpg"",""time"":217},{""stimulus"":""img/red_ll/5.jpg"",""time"":251},{""stimulus"":""img/red_ll/6.jpg"",""time"":301},{""stimulus"":""img/red_ll/7.jpg"",""time"":351},{""stimulus"":""img/red_ll/8.jpg"",""time"":401},{""stimulus"":""img/red_ll/9.jpg"",""time"":450},{""stimulus"":""img/red_ll/10.jpg"",""time"":500},{""stimulus"":""img/red_ll/11.jpg"",""time"":550}]","[]"
"image-keyboard-response","22","85356","0.0-5.0-1.9","5efc1d4ee23e2a011ded073e","bdp_lott","Sun Apr 09 2023 15:26:45 GMT-0700 (Pacific Daylight Time)","316357","red","green","","484","","","","choice","","img/red_ll/choose11.jpg","2","216","red","0.5","0.5","0.5","w","",""
"animation","23","85958","0.0-5.0-2.9","5efc1d4ee23e2a011ded073e","bdp_lott","Sun Apr 09 2023 15:26:45 GMT-0700 (Pacific Daylight Time)","316357","red","green","","","","","","","","","","216","","","","","","[{""stimulus"":""img/red_lw/1.jpg"",""time"":53},{""stimulus"":""img/red_lw/2.jpg"",""time"":101},{""stimulus"":""img/red_lw/3.jpg"",""time"":165},{""stimulus"":""img/red_lw/4.jpg"",""time"":201},{""stimulus"":""img/red_lw/5.jpg"",""time"":264},{""stimulus"":""img/red_lw/6.jpg"",""time"":301},{""stimulus"":""img/red_lw/7.jpg"",""time"":363},{""stimulus"":""img/red_lw/8.jpg"",""time"":401},{""stimulus"":""img/red_lw/9.jpg"",""time"":463},{""stimulus"":""img/red_lw/10.jpg"",""time"":501},{""stimulus"":""img/red_lw/11.jpg"",""time"":551}]","[]"
"image-keyboard-response","24","86852","0.0-5.0-1.10","5efc1d4ee23e2a011ded073e","bdp_lott","Sun Apr 09 2023 15:26:45 GMT-0700 (Pacific Daylight Time)","316357","red","green","","893","","","","choice","","img/red_lw/choose11.jpg","2","215","red","0.5","0.5","0.5","w","",""
"animation","25","87468","0.0-5.0-2.10","5efc1d4ee23e2a011ded073e","bdp_lott","Sun Apr 09 2023 15:26:45 GMT-0700 (Pacific Daylight Time)","316357","red","green","","","","","","","","","","215","","","","","","[{""stimulus"":""img/red_lw/1.jpg"",""time"":50},{""stimulus"":""img/red_lw/2.jpg"",""time"":101},{""stimulus"":""img/red_lw/3.jpg"",""time"":165},{""stimulus"":""img/red_lw/4.jpg"",""time"":216},{""stimulus"":""img/red_lw/5.jpg"",""time"":251},{""stimulus"":""img/red_lw/6.jpg"",""time"":301},{""stimulus"":""img/red_lw/7.jpg"",""time"":351},{""stimulus"":""img/red_lw/8.jpg"",""time"":401},{""stimulus"":""img/red_lw/9.jpg"",""time"":451},{""stimulus"":""img/red_lw/10.jpg"",""time"":501},{""stimulus"":""img/red_lw/11.jpg"",""time"":551}]","[]"
"image-keyboard-response","26","88277","0.0-5.0-1.11","5efc1d4ee23e2a011ded073e","bdp_lott","Sun Apr 09 2023 15:26:45 GMT-0700 (Pacific Daylight Time)","316357","red","green","","809","","","","choice","","img/red_lw/choose11.jpg","2","214","red","0.5","0.5","0.5","w","",""
"animation","27","88883","0.0-5.0-2.11","5efc1d4ee23e2a011ded073e","bdp_lott","Sun Apr 09 2023 15:26:45 GMT-0700 (Pacific Daylight Time)","316357","red","green","","","","","","","","","","214","","","","","","[{""stimulus"":""img/red_lw/1.jpg"",""time"":56},{""stimulus"":""img/red_lw/2.jpg"",""time"":101},{""stimulus"":""img/red_lw/3.jpg"",""time"":151},{""stimulus"":""img/red_lw/4.jpg"",""time"":201},{""stimulus"":""img/red_lw/5.jpg"",""time"":251},{""stimulus"":""img/red_lw/6.jpg"",""time"":301},{""stimulus"":""img/red_lw/7.jpg"",""time"":351},{""stimulus"":""img/red_lw/8.jpg"",""time"":401},{""stimulus"":""img/red_lw/9.jpg"",""time"":450},{""stimulus"":""img/red_lw/10.jpg"",""time"":505},{""stimulus"":""img/red_lw/11.jpg"",""time"":554}]","[]"
"image-keyboard-response","28","89499","0.0-5.0-1.12","5efc1d4ee23e2a011ded073e","bdp_lott","Sun Apr 09 2023 15:26:45 GMT-0700 (Pacific Daylight Time)","316357","red","green","","614","","","","choice","","img/red_lw/choose11.jpg","2","213","red","0.5","0.5","0.5","w","",""
"animation","29","90100","0.0-5.0-2.12","5efc1d4ee23e2a011ded073e","bdp_lott","Sun Apr 09 2023 15:26:45 GMT-0700 (Pacific Daylight Time)","316357","red","green","","","","","","","","","","213","","","","","","[{""stimulus"":""img/red_lw/1.jpg"",""time"":65},{""stimulus"":""img/red_lw/2.jpg"",""time"":100},{""stimulus"":""img/red_lw/3.jpg"",""time"":151},{""stimulus"":""img/red_lw/4.jpg"",""time"":202},{""stimulus"":""img/red_lw/5.jpg"",""time"":251},{""stimulus"":""img/red_lw/6.jpg"",""time"":301},{""stimulus"":""img/red_lw/7.jpg"",""time"":350},{""stimulus"":""img/red_lw/8.jpg"",""time"":401},{""stimulus"":""img/red_lw/9.jpg"",""time"":469},{""stimulus"":""img/red_lw/10.jpg"",""time"":501},{""stimulus"":""img/red_lw/11.jpg"",""time"":551}]","[]"
"image-keyboard-response","30","90596","0.0-5.0-1.13","5efc1d4ee23e2a011ded073e","bdp_lott","Sun Apr 09 2023 15:26:45 GMT-0700 (Pacific Daylight Time)","316357","red","green","","495","","","","choice","","img/red_lw/choose11.jpg","2","212","red","0.5","0.5","0.5","w","",""
"animation","31","91197","0.0-5.0-2.13","5efc1d4ee23e2a011ded073e","bdp_lott","Sun Apr 09 2023 15:26:45 GMT-0700 (Pacific Daylight Time)","316357","red","green","","","","","","","","","","212","","","","","","[{""stimulus"":""img/red_lw/1.jpg"",""time"":51},{""stimulus"":""img/red_lw/2.jpg"",""time"":101},{""stimulus"":""img/red_lw/3.jpg"",""time"":170},{""stimulus"":""img/red_lw/4.jpg"",""time"":200},{""stimulus"":""img/red_lw/5.jpg"",""time"":252},{""stimulus"":""img/red_lw/6.jpg"",""time"":320},{""stimulus"":""img/red_lw/7.jpg"",""time"":350},{""stimulus"":""img/red_lw/8.jpg"",""time"":402},{""stimulus"":""img/red_lw/9.jpg"",""time"":470},{""stimulus"":""img/red_lw/10.jpg"",""time"":500},{""stimulus"":""img/red_lw/11.jpg"",""time"":552}]","[]"
"image-keyboard-response","32","91526","0.0-5.0-1.14","5efc1d4ee23e2a011ded073e","bdp_lott","Sun Apr 09 2023 15:26:45 GMT-0700 (Pacific Daylight Time)","316357","red","green","","329","","","","choice","","img/red_lw/choose11.jpg","2","211","red","0.5","0.5","0.5","l","",""
"animation","33","92127","0.0-5.0-2.14","5efc1d4ee23e2a011ded073e","bdp_lott","Sun Apr 09 2023 15:26:45 GMT-0700 (Pacific Daylight Time)","316357","red","green","","","","","","","","","","211","","","","","","[{""stimulus"":""img/red_ll/1.jpg"",""time"":55},{""stimulus"":""img/red_ll/2.jpg"",""time"":102},{""stimulus"":""img/red_ll/3.jpg"",""time"":155},{""stimulus"":""img/red_ll/4.jpg"",""time"":201},{""stimulus"":""img/red_ll/5.jpg"",""time"":251},{""stimulus"":""img/red_ll/6.jpg"",""time"":301},{""stimulus"":""img/red_ll/7.jpg"",""time"":354},{""stimulus"":""img/red_ll/8.jpg"",""time"":401},{""stimulus"":""img/red_ll/9.jpg"",""time"":452},{""stimulus"":""img/red_ll/10.jpg"",""time"":501},{""stimulus"":""img/red_ll/11.jpg"",""time"":555}]","[]"
"image-keyboard-response","34","92626","0.0-5.0-1.15","5efc1d4ee23e2a011ded073e","bdp_lott","Sun Apr 09 2023 15:26:45 GMT-0700 (Pacific Daylight Time)","316357","red","green","","498","","","","choice","","img/red_ll/choose11.jpg","2","210","red","0.5","0.5","0.5","w","",""
"animation","35","93230","0.0-5.0-2.15","5efc1d4ee23e2a011ded073e","bdp_lott","Sun Apr 09 2023 15:26:45 GMT-0700 (Pacific Daylight Time)","316357","red","green","","","","","","","","","","210","","","","","","[{""stimulus"":""img/red_lw/1.jpg"",""time"":54},{""stimulus"":""img/red_lw/2.jpg"",""time"":102},{""stimulus"":""img/red_lw/3.jpg"",""time"":155},{""stimulus"":""img/red_lw/4.jpg"",""time"":201},{""stimulus"":""img/red_lw/5.jpg"",""time"":272},{""stimulus"":""img/red_lw/6.jpg"",""time"":302},{""stimulus"":""img/red_lw/7.jpg"",""time"":352},{""stimulus"":""img/red_lw/8.jpg"",""time"":402},{""stimulus"":""img/red_lw/9.jpg"",""time"":451},{""stimulus"":""img/red_lw/10.jpg"",""time"":501},{""stimulus"":""img/red_lw/11.jpg"",""time"":552}]","[]"
"image-keyboard-response","36","93557","0.0-5.0-1.16","5efc1d4ee23e2a011ded073e","bdp_lott","Sun Apr 09 2023 15:26:45 GMT-0700 (Pacific Daylight Time)","316357","red","green","","326","","","","choice","","img/red_lw/choose11.jpg","2","209","red","0.5","0.5","0.5","w","",""
"animation","37","94159","0.0-5.0-2.16","5efc1d4ee23e2a011ded073e","bdp_lott","Sun Apr 09 2023 15:26:45 GMT-0700 (Pacific Daylight Time)","316357","red","green","","","","","","","","","","209","","","","","","[{""stimulus"":""img/red_lw/1.jpg"",""time"":55},{""stimulus"":""img/red_lw/2.jpg"",""time"":101},{""stimulus"":""img/red_lw/3.jpg"",""time"":156},{""stimulus"":""img/red_lw/4.jpg"",""time"":201},{""stimulus"":""img/red_lw/5.jpg"",""time"":251},{""stimulus"":""img/red_lw/6.jpg"",""time"":301},{""stimulus"":""img/red_lw/7.jpg"",""time"":350},{""stimulus"":""img/red_lw/8.jpg"",""time"":400},{""stimulus"":""img/red_lw/9.jpg"",""time"":455},{""stimulus"":""img/red_lw/10.jpg"",""time"":503},{""stimulus"":""img/red_lw/11.jpg"",""time"":551}]","[]"
"image-keyboard-response","38","94587","0.0-5.0-1.17","5efc1d4ee23e2a011ded073e","bdp_lott","Sun Apr 09 2023 15:26:45 GMT-0700 (Pacific Daylight Time)","316357","red","green","","427","","","","choice","","img/red_lw/choose11.jpg","2","208","red","0.5","0.5","0.5","l","",""
"animation","39","95194","0.0-5.0-2.17","5efc1d4ee23e2a011ded073e","bdp_lott","Sun Apr 09 2023 15:26:45 GMT-0700 (Pacific Daylight Time)","316357","red","green","","","","","","","","","","208","","","","","","[{""stimulus"":""img/red_ll/1.jpg"",""time"":58},{""stimulus"":""img/red_ll/2.jpg"",""time"":100},{""stimulus"":""img/red_ll/3.jpg"",""time"":159},{""stimulus"":""img/red_ll/4.jpg"",""time"":208},{""stimulus"":""img/red_ll/5.jpg"",""time"":251},{""stimulus"":""img/red_ll/6.jpg"",""time"":301},{""stimulus"":""img/red_ll/7.jpg"",""time"":351},{""stimulus"":""img/red_ll/8.jpg"",""time"":401},{""stimulus"":""img/red_ll/9.jpg"",""time"":451},{""stimulus"":""img/red_ll/10.jpg"",""time"":508},{""stimulus"":""img/red_ll/11.jpg"",""time"":551}]","[]"
"image-keyboard-response","40","96405","0.0-5.0-1.18","5efc1d4ee23e2a011ded073e","bdp_lott","Sun Apr 09 2023 15:26:45 GMT-0700 (Pacific Daylight Time)","316357","red","green","","1211","","","","choice","","img/red_ll/choose11.jpg","2","207","red","0.5","0.5","0.5","w","",""
"animation","41","97006","0.0-5.0-2.18","5efc1d4ee23e2a011ded073e","bdp_lott","Sun Apr 09 2023 15:26:45 GMT-0700 (Pacific Daylight Time)","316357","red","green","","","","","","","","","","207","","","","","","[{""stimulus"":""img/red_lw/1.jpg"",""time"":56},{""stimulus"":""img/red_lw/2.jpg"",""time"":101},{""stimulus"":""img/red_lw/3.jpg"",""time"":151},{""stimulus"":""img/red_lw/4.jpg"",""time"":201},{""stimulus"":""img/red_lw/5.jpg"",""time"":251},{""stimulus"":""img/red_lw/6.jpg"",""time"":304},{""stimulus"":""img/red_lw/7.jpg"",""time"":351},{""stimulus"":""img/red_lw/8.jpg"",""time"":405},{""stimulus"":""img/red_lw/9.jpg"",""time"":451},{""stimulus"":""img/red_lw/10.jpg"",""time"":505},{""stimulus"":""img/red_lw/11.jpg"",""time"":551}]","[]"
"image-keyboard-response","42","97393","0.0-5.0-1.19","5efc1d4ee23e2a011ded073e","bdp_lott","Sun Apr 09 2023 15:26:45 GMT-0700 (Pacific Daylight Time)","316357","red","green","","387","","","","choice","","img/red_lw/choose11.jpg","2","206","red","0.5","0.5","0.5","l","",""
"animation","43","97996","0.0-5.0-2.19","5efc1d4ee23e2a011ded073e","bdp_lott","Sun Apr 09 2023 15:26:45 GMT-0700 (Pacific Daylight Time)","316357","red","green","","","","","","","","","","206","","","","","","[{""stimulus"":""img/red_ll/1.jpg"",""time"":65},{""stimulus"":""img/red_ll/2.jpg"",""time"":100},{""stimulus"":""img/red_ll/3.jpg"",""time"":151},{""stimulus"":""img/red_ll/4.jpg"",""time"":201},{""stimulus"":""img/red_ll/5.jpg"",""time"":267},{""stimulus"":""img/red_ll/6.jpg"",""time"":301},{""stimulus"":""img/red_ll/7.jpg"",""time"":351},{""stimulus"":""img/red_ll/8.jpg"",""time"":401},{""stimulus"":""img/red_ll/9.jpg"",""time"":451},{""stimulus"":""img/red_ll/10.jpg"",""time"":501},{""stimulus"":""img/red_ll/11.jpg"",""time"":551}]","[]"
"image-keyboard-response","44","98406","0.0-5.0-1.20","5efc1d4ee23e2a011ded073e","bdp_lott","Sun Apr 09 2023 15:26:45 GMT-0700 (Pacific Daylight Time)","316357","red","green","","410","","","","choice","","img/red_ll/choose11.jpg","1","205","green","0.5","0.5","0.5","w","",""
"animation","45","99008","0.0-5.0-2.20","5efc1d4ee23e2a011ded073e","bdp_lott","Sun Apr 09 2023 15:26:45 GMT-0700 (Pacific Daylight Time)","316357","red","green","","","","","","","","","","205","","","","","","[{""stimulus"":""img/green_wl/1.jpg"",""time"":52},{""stimulus"":""img/green_wl/2.jpg"",""time"":101},{""stimulus"":""img/green_wl/3.jpg"",""time"":153},{""stimulus"":""img/green_wl/4.jpg"",""time"":203},{""stimulus"":""img/green_wl/5.jpg"",""time"":252},{""stimulus"":""img/green_wl/6.jpg"",""time"":321},{""stimulus"":""img/green_wl/7.jpg"",""time"":351},{""stimulus"":""img/green_wl/8.jpg"",""time"":403},{""stimulus"":""img/green_wl/9.jpg"",""time"":451},{""stimulus"":""img/green_wl/10.jpg"",""time"":501},{""stimulus"":""img/green_wl/11.jpg"",""time"":552}]","[]"
"image-keyboard-response","46","99848","0.0-5.0-1.21","5efc1d4ee23e2a011ded073e","bdp_lott","Sun Apr 09 2023 15:26:45 GMT-0700 (Pacific Daylight Time)","316357","red","green","","839","","","","choice","","img/green_wl/choose11.jpg","1","204","green","0.5","0.5","0.5","l","",""
"animation","47","100449","0.0-5.0-2.21","5efc1d4ee23e2a011ded073e","bdp_lott","Sun Apr 09 2023 15:26:45 GMT-0700 (Pacific Daylight Time)","316357","red","green","","","","","","","","","","204","","","","","","[{""stimulus"":""img/green_ll/1.jpg"",""time"":58},{""stimulus"":""img/green_ll/2.jpg"",""time"":101},{""stimulus"":""img/green_ll/3.jpg"",""time"":151},{""stimulus"":""img/green_ll/4.jpg"",""time"":208},{""stimulus"":""img/green_ll/5.jpg"",""time"":250},{""stimulus"":""img/green_ll/6.jpg"",""time"":307},{""stimulus"":""img/green_ll/7.jpg"",""time"":351},{""stimulus"":""img/green_ll/8.jpg"",""time"":402},{""stimulus"":""img/green_ll/9.jpg"",""time"":450},{""stimulus"":""img/green_ll/10.jpg"",""time"":507},{""stimulus"":""img/green_ll/11.jpg"",""time"":551}]","[]"
"image-keyboard-response","48","101142","0.0-5.0-1.22","5efc1d4ee23e2a011ded073e","bdp_lott","Sun Apr 09 2023 15:26:45 GMT-0700 (Pacific Daylight Time)","316357","red","green","","692","","","","choice","","img/green_ll/choose11.jpg","2","203","red","0.5","0.5","0.5","w","",""
"animation","49","101744","0.0-5.0-2.22","5efc1d4ee23e2a011ded073e","bdp_lott","Sun Apr 09 2023 15:26:45 GMT-0700 (Pacific Daylight Time)","316357","red","green","","","","","","","","","","203","","","","","","[{""stimulus"":""img/red_lw/1.jpg"",""time"":63},{""stimulus"":""img/red_lw/2.jpg"",""time"":100},{""stimulus"":""img/red_lw/3.jpg"",""time"":162},{""stimulus"":""img/red_lw/4.jpg"",""time"":200},{""stimulus"":""img/red_lw/5.jpg"",""time"":251},{""stimulus"":""img/red_lw/6.jpg"",""time"":301},{""stimulus"":""img/red_lw/7.jpg"",""time"":363},{""stimulus"":""img/red_lw/8.jpg"",""time"":401},{""stimulus"":""img/red_lw/9.jpg"",""time"":450},{""stimulus"":""img/red_lw/10.jpg"",""time"":500},{""stimulus"":""img/red_lw/11.jpg"",""time"":550}]","[]"
"image-keyboard-response","50","102037","0.0-5.0-1.23","5efc1d4ee23e2a011ded073e","bdp_lott","Sun Apr 09 2023 15:26:45 GMT-0700 (Pacific Daylight Time)","316357","red","green","","293","","","","choice","","img/red_lw/choose11.jpg","2","202","red","0.5","0.5","0.5","w","",""
"animation","51","102638","0.0-5.0-2.23","5efc1d4ee23e2a011ded073e","bdp_lott","Sun Apr 09 2023 15:26:45 GMT-0700 (Pacific Daylight Time)","316357","red","green","","","","","","","","","","202","","","","","","[{""stimulus"":""img/red_lw/1.jpg"",""time"":51},{""stimulus"":""img/red_lw/2.jpg"",""time"":100},{""stimulus"":""img/red_lw/3.jpg"",""time"":151},{""stimulus"":""img/red_lw/4.jpg"",""time"":201},{""stimulus"":""img/red_lw/5.jpg"",""time"":270},{""stimulus"":""img/red_lw/6.jpg"",""time"":302},{""stimulus"":""img/red_lw/7.jpg"",""time"":370},{""stimulus"":""img/red_lw/8.jpg"",""time"":401},{""stimulus"":""img/red_lw/9.jpg"",""time"":452},{""stimulus"":""img/red_lw/10.jpg"",""time"":519},{""stimulus"":""img/red_lw/11.jpg"",""time"":551}]","[]"
"image-keyboard-response","52","102892","0.0-5.0-1.24","5efc1d4ee23e2a011ded073e","bdp_lott","Sun Apr 09 2023 15:26:45 GMT-0700 (Pacific Daylight Time)","316357","red","green","","253","","","","choice","","img/red_lw/choose11.jpg","2","201","red","0.5","0.5","0.5","l","",""
"animation","53","103493","0.0-5.0-2.24","5efc1d4ee23e2a011ded073e","bdp_lott","Sun Apr 09 2023 15:26:45 GMT-0700 (Pacific Daylight Time)","316357","red","green","","","","","","","","","","201","","","","","","[{""stimulus"":""img/red_ll/1.jpg"",""time"":62},{""stimulus"":""img/red_ll/2.jpg"",""time"":101},{""stimulus"":""img/red_ll/3.jpg"",""time"":150},{""stimulus"":""img/red_ll/4.jpg"",""time"":201},{""stimulus"":""img/red_ll/5.jpg"",""time"":251},{""stimulus"":""img/red_ll/6.jpg"",""time"":301},{""stimulus"":""img/red_ll/7.jpg"",""time"":351},{""stimulus"":""img/red_ll/8.jpg"",""time"":401},{""stimulus"":""img/red_ll/9.jpg"",""time"":451},{""stimulus"":""img/red_ll/10.jpg"",""time"":501},{""stimulus"":""img/red_ll/11.jpg"",""time"":551}]","[]"
"image-keyboard-response","54","103868","0.0-5.0-1.25","5efc1d4ee23e2a011ded073e","bdp_lott","Sun Apr 09 2023 15:26:45 GMT-0700 (Pacific Daylight Time)","316357","red","green","","373","","","","choice","","img/red_ll/choose11.jpg","2","200","red","0.5","0.5","0.5","w","",""
"animation","55","104469","0.0-5.0-2.25","5efc1d4ee23e2a011ded073e","bdp_lott","Sun Apr 09 2023 15:26:45 GMT-0700 (Pacific Daylight Time)","316357","red","green","","","","","","","","","","200","","","","","","[{""stimulus"":""img/red_lw/1.jpg"",""time"":53},{""stimulus"":""img/red_lw/2.jpg"",""time"":102},{""stimulus"":""img/red_lw/3.jpg"",""time"":153},{""stimulus"":""img/red_lw/4.jpg"",""time"":201},{""stimulus"":""img/red_lw/5.jpg"",""time"":253},{""stimulus"":""img/red_lw/6.jpg"",""time"":302},{""stimulus"":""img/red_lw/7.jpg"",""time"":351},{""stimulus"":""img/red_lw/8.jpg"",""time"":401},{""stimulus"":""img/red_lw/9.jpg"",""time"":451},{""stimulus"":""img/red_lw/10.jpg"",""time"":501},{""stimulus"":""img/red_lw/11.jpg"",""time"":551}]","[]"
"image-keyboard-response","56","104790","0.0-5.0-1.26","5efc1d4ee23e2a011ded073e","bdp_lott","Sun Apr 09 2023 15:26:45 GMT-0700 (Pacific Daylight Time)","316357","red","green","","320","","","","choice","","img/red_lw/choose11.jpg","2","199","red","0.5","0.5","0.5","l","",""
"animation","57","105391","0.0-5.0-2.26","5efc1d4ee23e2a011ded073e","bdp_lott","Sun Apr 09 2023 15:26:45 GMT-0700 (Pacific Daylight Time)","316357","red","green","","","","","","","","","","199","","","","","","[{""stimulus"":""img/red_ll/1.jpg"",""time"":62},{""stimulus"":""img/red_ll/2.jpg"",""time"":101},{""stimulus"":""img/red_ll/3.jpg"",""time"":150},{""stimulus"":""img/red_ll/4.jpg"",""time"":200},{""stimulus"":""img/red_ll/5.jpg"",""time"":250},{""stimulus"":""img/red_ll/6.jpg"",""time"":312},{""stimulus"":""img/red_ll/7.jpg"",""time"":350},{""stimulus"":""img/red_ll/8.jpg"",""time"":411},{""stimulus"":""img/red_ll/9.jpg"",""time"":460},{""stimulus"":""img/red_ll/10.jpg"",""time"":500},{""stimulus"":""img/red_ll/11.jpg"",""time"":562}]","[]"
"image-keyboard-response","58","105739","0.0-5.0-1.27","5efc1d4ee23e2a011ded073e","bdp_lott","Sun Apr 09 2023 15:26:45 GMT-0700 (Pacific Daylight Time)","316357","red","green","","347","","","","choice","","img/red_ll/choose11.jpg","2","198","red","0.5","0.5","0.5","l","",""
"animation","59","106341","0.0-5.0-2.27","5efc1d4ee23e2a011ded073e","bdp_lott","Sun Apr 09 2023 15:26:45 GMT-0700 (Pacific Daylight Time)","316357","red","green","","","","","","","","","","198","","","","","","[{""stimulus"":""img/red_ll/1.jpg"",""time"":64},{""stimulus"":""img/red_ll/2.jpg"",""time"":102},{""stimulus"":""img/red_ll/3.jpg"",""time"":165},{""stimulus"":""img/red_ll/4.jpg"",""time"":201},{""stimulus"":""img/red_ll/5.jpg"",""time"":264},{""stimulus"":""img/red_ll/6.jpg"",""time"":301},{""stimulus"":""img/red_ll/7.jpg"",""time"":350},{""stimulus"":""img/red_ll/8.jpg"",""time"":401},{""stimulus"":""img/red_ll/9.jpg"",""time"":451},{""stimulus"":""img/red_ll/10.jpg"",""time"":500},{""stimulus"":""img/red_ll/11.jpg"",""time"":551}]","[]"
"image-keyboard-response","60","106702","0.0-5.0-1.28","5efc1d4ee23e2a011ded073e","bdp_lott","Sun Apr 09 2023 15:26:45 GMT-0700 (Pacific Daylight Time)","316357","red","green","","361","","","","choice","","img/red_ll/choose11.jpg","2","197","red","0.5","0.5","0.5","w","",""
"animation","61","107305","0.0-5.0-2.28","5efc1d4ee23e2a011ded073e","bdp_lott","Sun Apr 09 2023 15:26:45 GMT-0700 (Pacific Daylight Time)","316357","red","green","","","","","","","","","","197","","","","","","[{""stimulus"":""img/red_lw/1.jpg"",""time"":66},{""stimulus"":""img/red_lw/2.jpg"",""time"":100},{""stimulus"":""img/red_lw/3.jpg"",""time"":167},{""stimulus"":""img/red_lw/4.jpg"",""time"":200},{""stimulus"":""img/red_lw/5.jpg"",""time"":250},{""stimulus"":""img/red_lw/6.jpg"",""time"":300},{""stimulus"":""img/red_lw/7.jpg"",""time"":350},{""stimulus"":""img/red_lw/8.jpg"",""time"":400},{""stimulus"":""img/red_lw/9.jpg"",""time"":451},{""stimulus"":""img/red_lw/10.jpg"",""time"":501},{""stimulus"":""img/red_lw/11.jpg"",""time"":551}]","[]"
"image-keyboard-response","62","107786","0.0-5.0-1.29","5efc1d4ee23e2a011ded073e","bdp_lott","Sun Apr 09 2023 15:26:45 GMT-0700 (Pacific Daylight Time)","316357","red","green","","481","","","","choice","","img/red_lw/choose11.jpg","2","196","red","0.5","0.5","0.5","w","",""
"animation","63","108399","0.0-5.0-2.29","5efc1d4ee23e2a011ded073e","bdp_lott","Sun Apr 09 2023 15:26:45 GMT-0700 (Pacific Daylight Time)","316357","red","green","","","","","","","","","","196","","","","","","[{""stimulus"":""img/red_lw/1.jpg"",""time"":64},{""stimulus"":""img/red_lw/2.jpg"",""time"":100},{""stimulus"":""img/red_lw/3.jpg"",""time"":165},{""stimulus"":""img/red_lw/4.jpg"",""time"":201},{""stimulus"":""img/red_lw/5.jpg"",""time"":251},{""stimulus"":""img/red_lw/6.jpg"",""time"":301},{""stimulus"":""img/red_lw/7.jpg"",""time"":351},{""stimulus"":""img/red_lw/8.jpg"",""time"":401},{""stimulus"":""img/red_lw/9.jpg"",""time"":464},{""stimulus"":""img/red_lw/10.jpg"",""time"":512},{""stimulus"":""img/red_lw/11.jpg"",""time"":564}]","[]"
"image-keyboard-response","64","108767","0.0-5.0-1.30","5efc1d4ee23e2a011ded073e","bdp_lott","Sun Apr 09 2023 15:26:45 GMT-0700 (Pacific Daylight Time)","316357","red","green","","367","","","","choice","","img/red_lw/choose11.jpg","2","195","red","0.5","0.5","0.5","w","",""
"animation","65","109369","0.0-5.0-2.30","5efc1d4ee23e2a011ded073e","bdp_lott","Sun Apr 09 2023 15:26:45 GMT-0700 (Pacific Daylight Time)","316357","red","green","","","","","","","","","","195","","","","","","[{""stimulus"":""img/red_lw/1.jpg"",""time"":66},{""stimulus"":""img/red_lw/2.jpg"",""time"":101},{""stimulus"":""img/red_lw/3.jpg"",""time"":151},{""stimulus"":""img/red_lw/4.jpg"",""time"":218},{""stimulus"":""img/red_lw/5.jpg"",""time"":250},{""stimulus"":""img/red_lw/6.jpg"",""time"":301},{""stimulus"":""img/red_lw/7.jpg"",""time"":351},{""stimulus"":""img/red_lw/8.jpg"",""time"":401},{""stimulus"":""img/red_lw/9.jpg"",""time"":451},{""stimulus"":""img/red_lw/10.jpg"",""time"":501},{""stimulus"":""img/red_lw/11.jpg"",""time"":551}]","[]"
"image-keyboard-response","66","109877","0.0-5.0-1.31","5efc1d4ee23e2a011ded073e","bdp_lott","Sun Apr 09 2023 15:26:45 GMT-0700 (Pacific Daylight Time)","316357","red","green","","507","","","","choice","","img/red_lw/choose11.jpg","2","194","red","0.5","0.5","0.5","w","",""
"animation","67","110479","0.0-5.0-2.31","5efc1d4ee23e2a011ded073e","bdp_lott","Sun Apr 09 2023 15:26:45 GMT-0700 (Pacific Daylight Time)","316357","red","green","","","","","","","","","","194","","","","","","[{""stimulus"":""img/red_lw/1.jpg"",""time"":54},{""stimulus"":""img/red_lw/2.jpg"",""time"":100},{""stimulus"":""img/red_lw/3.jpg"",""time"":156},{""stimulus"":""img/red_lw/4.jpg"",""time"":200},{""stimulus"":""img/red_lw/5.jpg"",""time"":255},{""stimulus"":""img/red_lw/6.jpg"",""time"":301},{""stimulus"":""img/red_lw/7.jpg"",""time"":355},{""stimulus"":""img/red_lw/8.jpg"",""time"":401},{""stimulus"":""img/red_lw/9.jpg"",""time"":450},{""stimulus"":""img/red_lw/10.jpg"",""time"":503},{""stimulus"":""img/red_lw/11.jpg"",""time"":551}]","[]"
"image-keyboard-response","68","110817","0.0-5.0-1.32","5efc1d4ee23e2a011ded073e","bdp_lott","Sun Apr 09 2023 15:26:45 GMT-0700 (Pacific Daylight Time)","316357","red","green","","338","","","","choice","","img/red_lw/choose11.jpg","2","193","red","0.5","0.5","0.5","l","",""
"animation","69","111418","0.0-5.0-2.32","5efc1d4ee23e2a011ded073e","bdp_lott","Sun Apr 09 2023 15:26:45 GMT-0700 (Pacific Daylight Time)","316357","red","green","","","","","","","","","","193","","","","","","[{""stimulus"":""img/red_ll/1.jpg"",""time"":66},{""stimulus"":""img/red_ll/2.jpg"",""time"":101},{""stimulus"":""img/red_ll/3.jpg"",""time"":151},{""stimulus"":""img/red_ll/4.jpg"",""time"":213},{""stimulus"":""img/red_ll/5.jpg"",""time"":251},{""stimulus"":""img/red_ll/6.jpg"",""time"":313},{""stimulus"":""img/red_ll/7.jpg"",""time"":351},{""stimulus"":""img/red_ll/8.jpg"",""time"":401},{""stimulus"":""img/red_ll/9.jpg"",""time"":463},{""stimulus"":""img/red_ll/10.jpg"",""time"":501},{""stimulus"":""img/red_ll/11.jpg"",""time"":551}]","[]"
"image-keyboard-response","70","111672","0.0-5.0-1.33","5efc1d4ee23e2a011ded073e","bdp_lott","Sun Apr 09 2023 15:26:45 GMT-0700 (Pacific Daylight Time)","316357","red","green","","253","","","","choice","","img/red_ll/choose11.jpg","2","192","red","0.5","0.5","0.5","w","",""
"animation","71","112281","0.0-5.0-2.33","5efc1d4ee23e2a011ded073e","bdp_lott","Sun Apr 09 2023 15:26:45 GMT-0700 (Pacific Daylight Time)","316357","red","green","","","","","","","","","","192","","","","","","[{""stimulus"":""img/red_lw/1.jpg"",""time"":58},{""stimulus"":""img/red_lw/2.jpg"",""time"":101},{""stimulus"":""img/red_lw/3.jpg"",""time"":159},{""stimulus"":""img/red_lw/4.jpg"",""time"":207},{""stimulus"":""img/red_lw/5.jpg"",""time"":250},{""stimulus"":""img/red_lw/6.jpg"",""time"":300},{""stimulus"":""img/red_lw/7.jpg"",""time"":350},{""stimulus"":""img/red_lw/8.jpg"",""time"":401},{""stimulus"":""img/red_lw/9.jpg"",""time"":451},{""stimulus"":""img/red_lw/10.jpg"",""time"":508},{""stimulus"":""img/red_lw/11.jpg"",""time"":556}]","[]"
"image-keyboard-response","72","112566","0.0-5.0-1.34","5efc1d4ee23e2a011ded073e","bdp_lott","Sun Apr 09 2023 15:26:45 GMT-0700 (Pacific Daylight Time)","316357","red","green","","285","","","","choice","","img/red_lw/choose11.jpg","2","191","red","0.5","0.5","0.5","l","",""
"animation","73","113167","0.0-5.0-2.34","5efc1d4ee23e2a011ded073e","bdp_lott","Sun Apr 09 2023 15:26:45 GMT-0700 (Pacific Daylight Time)","316357","red","green","","","","","","","","","","191","","","","","","[{""stimulus"":""img/red_ll/1.jpg"",""time"":64},{""stimulus"":""img/red_ll/2.jpg"",""time"":101},{""stimulus"":""img/red_ll/3.jpg"",""time"":166},{""stimulus"":""img/red_ll/4.jpg"",""time"":213},{""stimulus"":""img/red_ll/5.jpg"",""time"":251},{""stimulus"":""img/red_ll/6.jpg"",""time"":301},{""stimulus"":""img/red_ll/7.jpg"",""time"":351},{""stimulus"":""img/red_ll/8.jpg"",""time"":412},{""stimulus"":""img/red_ll/9.jpg"",""time"":464},{""stimulus"":""img/red_ll/10.jpg"",""time"":513},{""stimulus"":""img/red_ll/11.jpg"",""time"":563}]","[]"
"image-keyboard-response","74","113391","0.0-5.0-1.35","5efc1d4ee23e2a011ded073e","bdp_lott","Sun Apr 09 2023 15:26:45 GMT-0700 (Pacific Daylight Time)","316357","red","green","","224","","","","choice","","img/red_ll/choose11.jpg","2","190","red","0.5","0.5","0.5","l","",""
"animation","75","113992","0.0-5.0-2.35","5efc1d4ee23e2a011ded073e","bdp_lott","Sun Apr 09 2023 15:26:45 GMT-0700 (Pacific Daylight Time)","316357","red","green","","","","","","","","","","190","","","","","","[{""stimulus"":""img/red_ll/1.jpg"",""time"":55},{""stimulus"":""img/red_ll/2.jpg"",""time"":101},{""stimulus"":""img/red_ll/3.jpg"",""time"":157},{""stimulus"":""img/red_ll/4.jpg"",""time"":205},{""stimulus"":""img/red_ll/5.jpg"",""time"":251},{""stimulus"":""img/red_ll/6.jpg"",""time"":301},{""stimulus"":""img/red_ll/7.jpg"",""time"":351},{""stimulus"":""img/red_ll/8.jpg"",""time"":401},{""stimulus"":""img/red_ll/9.jpg"",""time"":451},{""stimulus"":""img/red_ll/10.jpg"",""time"":501},{""stimulus"":""img/red_ll/11.jpg"",""time"":551}]","[]"
"image-keyboard-response","76","114265","0.0-5.0-1.36","5efc1d4ee23e2a011ded073e","bdp_lott","Sun Apr 09 2023 15:26:45 GMT-0700 (Pacific Daylight Time)","316357","red","green","","273","","","","choice","","img/red_ll/choose11.jpg","1","189","green","0.5","0.5","0.5","w","",""
"animation","77","114866","0.0-5.0-2.36","5efc1d4ee23e2a011ded073e","bdp_lott","Sun Apr 09 2023 15:26:45 GMT-0700 (Pacific Daylight Time)","316357","red","green","","","","","","","","","","189","","","","","","[{""stimulus"":""img/green_wl/1.jpg"",""time"":64},{""stimulus"":""img/green_wl/2.jpg"",""time"":102},{""stimulus"":""img/green_wl/3.jpg"",""time"":166},{""stimulus"":""img/green_wl/4.jpg"",""time"":202},{""stimulus"":""img/green_wl/5.jpg"",""time"":251},{""stimulus"":""img/green_wl/6.jpg"",""time"":311},{""stimulus"":""img/green_wl/7.jpg"",""time"":364},{""stimulus"":""img/green_wl/8.jpg"",""time"":401},{""stimulus"":""img/green_wl/9.jpg"",""time"":451},{""stimulus"":""img/green_wl/10.jpg"",""time"":501},{""stimulus"":""img/green_wl/11.jpg"",""time"":565}]","[]"
"image-keyboard-response","78","115424","0.0-5.0-1.37","5efc1d4ee23e2a011ded073e","bdp_lott","Sun Apr 09 2023 15:26:45 GMT-0700 (Pacific Daylight Time)","316357","red","green","","557","","","","choice","","img/green_wl/choose11.jpg","1","188","green","0.5","0.5","0.5","l","",""
"animation","79","116025","0.0-5.0-2.37","5efc1d4ee23e2a011ded073e","bdp_lott","Sun Apr 09 2023 15:26:45 GMT-0700 (Pacific Daylight Time)","316357","red","green","","","","","","","","","","188","","","","","","[{""stimulus"":""img/green_ll/1.jpg"",""time"":54},{""stimulus"":""img/green_ll/2.jpg"",""time"":102},{""stimulus"":""img/green_ll/3.jpg"",""time"":155},{""stimulus"":""img/green_ll/4.jpg"",""time"":202},{""stimulus"":""img/green_ll/5.jpg"",""time"":254},{""stimulus"":""img/green_ll/6.jpg"",""time"":305},{""stimulus"":""img/green_ll/7.jpg"",""time"":352},{""stimulus"":""img/green_ll/8.jpg"",""time"":402},{""stimulus"":""img/green_ll/9.jpg"",""time"":452},{""stimulus"":""img/green_ll/10.jpg"",""time"":504},{""stimulus"":""img/green_ll/11.jpg"",""time"":552}]","[]"
"image-keyboard-response","80","116571","0.0-5.0-1.38","5efc1d4ee23e2a011ded073e","bdp_lott","Sun Apr 09 2023 15:26:45 GMT-0700 (Pacific Daylight Time)","316357","red","green","","546","","","","choice","","img/green_ll/choose11.jpg","2","187","red","0.5","0.5","0.5","w","",""
"animation","81","117172","0.0-5.0-2.38","5efc1d4ee23e2a011ded073e","bdp_lott","Sun Apr 09 2023 15:26:45 GMT-0700 (Pacific Daylight Time)","316357","red","green","","","","","","","","","","187","","","","","","[{""stimulus"":""img/red_lw/1.jpg"",""time"":56},{""stimulus"":""img/red_lw/2.jpg"",""time"":102},{""stimulus"":""img/red_lw/3.jpg"",""time"":152},{""stimulus"":""img/red_lw/4.jpg"",""time"":205},{""stimulus"":""img/red_lw/5.jpg"",""time"":257},{""stimulus"":""img/red_lw/6.jpg"",""time"":305},{""stimulus"":""img/red_lw/7.jpg"",""time"":351},{""stimulus"":""img/red_lw/8.jpg"",""time"":401},{""stimulus"":""img/red_lw/9.jpg"",""time"":451},{""stimulus"":""img/red_lw/10.jpg"",""time"":501},{""stimulus"":""img/red_lw/11.jpg"",""time"":552}]","[]"
"image-keyboard-response","82","117671","0.0-5.0-1.39","5efc1d4ee23e2a011ded073e","bdp_lott","Sun Apr 09 2023 15:26:45 GMT-0700 (Pacific Daylight Time)","316357","red","green","","499","","","","choice","","img/red_lw/choose11.jpg","2","186","red","0.5","0.5","0.5","w","",""
"animation","83","118273","0.0-5.0-2.39","5efc1d4ee23e2a011ded073e","bdp_lott","Sun Apr 09 2023 15:26:45 GMT-0700 (Pacific Daylight Time)","316357","red","green","","","","","","","","","","186","","","","","","[{""stimulus"":""img/red_lw/1.jpg"",""time"":51},{""stimulus"":""img/red_lw/2.jpg"",""time"":101},{""stimulus"":""img/red_lw/3.jpg"",""time"":157},{""stimulus"":""img/red_lw/4.jpg"",""time"":205},{""stimulus"":""img/red_lw/5.jpg"",""time"":256},{""stimulus"":""img/red_lw/6.jpg"",""time"":304},{""stimulus"":""img/red_lw/7.jpg"",""time"":354},{""stimulus"":""img/red_lw/8.jpg"",""time"":405},{""stimulus"":""img/red_lw/9.jpg"",""time"":454},{""stimulus"":""img/red_lw/10.jpg"",""time"":501},{""stimulus"":""img/red_lw/11.jpg"",""time"":552}]","[]"
"image-keyboard-response","84","118692","0.0-5.0-1.40","5efc1d4ee23e2a011ded073e","bdp_lott","Sun Apr 09 2023 15:26:45 GMT-0700 (Pacific Daylight Time)","316357","red","green","","419","","","","choice","","img/red_lw/choose11.jpg","2","185","red","0.5","0.5","0.5","l","",""
"animation","85","119293","0.0-5.0-2.40","5efc1d4ee23e2a011ded073e","bdp_lott","Sun Apr 09 2023 15:26:45 GMT-0700 (Pacific Daylight Time)","316357","red","green","","","","","","","","","","185","","","","","","[{""stimulus"":""img/red_ll/1.jpg"",""time"":51},{""stimulus"":""img/red_ll/2.jpg"",""time"":100},{""stimulus"":""img/red_ll/3.jpg"",""time"":167},{""stimulus"":""img/red_ll/4.jpg"",""time"":200},{""stimulus"":""img/red_ll/5.jpg"",""time"":268},{""stimulus"":""img/red_ll/6.jpg"",""time"":300},{""stimulus"":""img/red_ll/7.jpg"",""time"":350},{""stimulus"":""img/red_ll/8.jpg"",""time"":400},{""stimulus"":""img/red_ll/9.jpg"",""time"":450},{""stimulus"":""img/red_ll/10.jpg"",""time"":500},{""stimulus"":""img/red_ll/11.jpg"",""time"":550}]","[]"
"image-keyboard-response","86","119955","0.0-5.0-1.41","5efc1d4ee23e2a011ded073e","bdp_lott","Sun Apr 09 2023 15:26:45 GMT-0700 (Pacific Daylight Time)","316357","red","green","","661","","","","choice","","img/red_ll/choose11.jpg","1","184","green","0.5","0.5","0.5","l","",""
"animation","87","120556","0.0-5.0-2.41","5efc1d4ee23e2a011ded073e","bdp_lott","Sun Apr 09 2023 15:26:45 GMT-0700 (Pacific Daylight Time)","316357","red","green","","","","","","","","","","184","","","","","","[{""stimulus"":""img/green_ll/1.jpg"",""time"":53},{""stimulus"":""img/green_ll/2.jpg"",""time"":102},{""stimulus"":""img/green_ll/3.jpg"",""time"":153},{""stimulus"":""img/green_ll/4.jpg"",""time"":202},{""stimulus"":""img/green_ll/5.jpg"",""time"":251},{""stimulus"":""img/green_ll/6.jpg"",""time"":301},{""stimulus"":""img/green_ll/7.jpg"",""time"":352},{""stimulus"":""img/green_ll/8.jpg"",""time"":402},{""stimulus"":""img/green_ll/9.jpg"",""time"":451},{""stimulus"":""img/green_ll/10.jpg"",""time"":501},{""stimulus"":""img/green_ll/11.jpg"",""time"":551}]","[]"
"image-keyboard-response","88","120906","0.0-5.0-1.42","5efc1d4ee23e2a011ded073e","bdp_lott","Sun Apr 09 2023 15:26:45 GMT-0700 (Pacific Daylight Time)","316357","red","green","","349","","","","choice","","img/green_ll/choose11.jpg","1","183","green","0.5","0.5","0.5","w","",""
"animation","89","121507","0.0-5.0-2.42","5efc1d4ee23e2a011ded073e","bdp_lott","Sun Apr 09 2023 15:26:45 GMT-0700 (Pacific Daylight Time)","316357","red","green","","","","","","","","","","183","","","","","","[{""stimulus"":""img/green_wl/1.jpg"",""time"":53},{""stimulus"":""img/green_wl/2.jpg"",""time"":101},{""stimulus"":""img/green_wl/3.jpg"",""time"":151},{""stimulus"":""img/green_wl/4.jpg"",""time"":202},{""stimulus"":""img/green_wl/5.jpg"",""time"":251},{""stimulus"":""img/green_wl/6.jpg"",""time"":302},{""stimulus"":""img/green_wl/7.jpg"",""time"":352},{""stimulus"":""img/green_wl/8.jpg"",""time"":402},{""stimulus"":""img/green_wl/9.jpg"",""time"":451},{""stimulus"":""img/green_wl/10.jpg"",""time"":519},{""stimulus"":""img/green_wl/11.jpg"",""time"":552}]","[]"
"image-keyboard-response","90","122225","0.0-5.0-1.43","5efc1d4ee23e2a011ded073e","bdp_lott","Sun Apr 09 2023 15:26:45 GMT-0700 (Pacific Daylight Time)","316357","red","green","","717","","","","choice","","img/green_wl/choose11.jpg","1","182","green","0.5","0.5","0.5","l","",""
"animation","91","122826","0.0-5.0-2.43","5efc1d4ee23e2a011ded073e","bdp_lott","Sun Apr 09 2023 15:26:45 GMT-0700 (Pacific Daylight Time)","316357","red","green","","","","","","","","","","182","","","","","","[{""stimulus"":""img/green_ll/1.jpg"",""time"":64},{""stimulus"":""img/green_ll/2.jpg"",""time"":101},{""stimulus"":""img/green_ll/3.jpg"",""time"":165},{""stimulus"":""img/green_ll/4.jpg"",""time"":215},{""stimulus"":""img/green_ll/5.jpg"",""time"":263},{""stimulus"":""img/green_ll/6.jpg"",""time"":310},{""stimulus"":""img/green_ll/7.jpg"",""time"":351},{""stimulus"":""img/green_ll/8.jpg"",""time"":414},{""stimulus"":""img/green_ll/9.jpg"",""time"":451},{""stimulus"":""img/green_ll/10.jpg"",""time"":502},{""stimulus"":""img/green_ll/11.jpg"",""time"":564}]","[]"
"image-keyboard-response","92","123415","0.0-5.0-1.44","5efc1d4ee23e2a011ded073e","bdp_lott","Sun Apr 09 2023 15:26:45 GMT-0700 (Pacific Daylight Time)","316357","red","green","","589","","","","choice","","img/green_ll/choose11.jpg","2","181","red","0.5","0.5","0.5","w","",""
"animation","93","124016","0.0-5.0-2.44","5efc1d4ee23e2a011ded073e","bdp_lott","Sun Apr 09 2023 15:26:45 GMT-0700 (Pacific Daylight Time)","316357","red","green","","","","","","","","","","181","","","","","","[{""stimulus"":""img/red_lw/1.jpg"",""time"":56},{""stimulus"":""img/red_lw/2.jpg"",""time"":102},{""stimulus"":""img/red_lw/3.jpg"",""time"":152},{""stimulus"":""img/red_lw/4.jpg"",""time"":207},{""stimulus"":""img/red_lw/5.jpg"",""time"":256},{""stimulus"":""img/red_lw/6.jpg"",""time"":306},{""stimulus"":""img/red_lw/7.jpg"",""time"":351},{""stimulus"":""img/red_lw/8.jpg"",""time"":405},{""stimulus"":""img/red_lw/9.jpg"",""time"":451},{""stimulus"":""img/red_lw/10.jpg"",""time"":501},{""stimulus"":""img/red_lw/11.jpg"",""time"":555}]","[]"
"image-keyboard-response","94","124486","0.0-5.0-1.45","5efc1d4ee23e2a011ded073e","bdp_lott","Sun Apr 09 2023 15:26:45 GMT-0700 (Pacific Daylight Time)","316357","red","green","","470","","","","choice","","img/red_lw/choose11.jpg","2","180","red","0.5","0.5","0.5","w","",""
"animation","95","125087","0.0-5.0-2.45","5efc1d4ee23e2a011ded073e","bdp_lott","Sun Apr 09 2023 15:26:45 GMT-0700 (Pacific Daylight Time)","316357","red","green","","","","","","","","","","180","","","","","","[{""stimulus"":""img/red_lw/1.jpg"",""time"":51},{""stimulus"":""img/red_lw/2.jpg"",""time"":101},{""stimulus"":""img/red_lw/3.jpg"",""time"":170},{""stimulus"":""img/red_lw/4.jpg"",""time"":201},{""stimulus"":""img/red_lw/5.jpg"",""time"":252},{""stimulus"":""img/red_lw/6.jpg"",""time"":319},{""stimulus"":""img/red_lw/7.jpg"",""time"":351},{""stimulus"":""img/red_lw/8.jpg"",""time"":419},{""stimulus"":""img/red_lw/9.jpg"",""time"":451},{""stimulus"":""img/red_lw/10.jpg"",""time"":502},{""stimulus"":""img/red_lw/11.jpg"",""time"":569}]","[]"
"image-keyboard-response","96","126078","0.0-5.0-1.46","5efc1d4ee23e2a011ded073e","bdp_lott","Sun Apr 09 2023 15:26:45 GMT-0700 (Pacific Daylight Time)","316357","red","green","","990","","","","choice","","img/red_lw/choose11.jpg","1","179","green","0.5","0.5","0.5","l","",""
"animation","97","126679","0.0-5.0-2.46","5efc1d4ee23e2a011ded073e","bdp_lott","Sun Apr 09 2023 15:26:45 GMT-0700 (Pacific Daylight Time)","316357","red","green","","","","","","","","","","179","","","","","","[{""stimulus"":""img/green_lw/1.jpg"",""time"":58},{""stimulus"":""img/green_lw/2.jpg"",""time"":102},{""stimulus"":""img/green_lw/3.jpg"",""time"":160},{""stimulus"":""img/green_lw/4.jpg"",""time"":201},{""stimulus"":""img/green_lw/5.jpg"",""time"":257},{""stimulus"":""img/green_lw/6.jpg"",""time"":307},{""stimulus"":""img/green_lw/7.jpg"",""time"":358},{""stimulus"":""img/green_lw/8.jpg"",""time"":401},{""stimulus"":""img/green_lw/9.jpg"",""time"":451},{""stimulus"":""img/green_lw/10.jpg"",""time"":502},{""stimulus"":""img/green_lw/11.jpg"",""time"":552}]","[]"
"image-keyboard-response","98","127530","0.0-5.0-1.47","5efc1d4ee23e2a011ded073e","bdp_lott","Sun Apr 09 2023 15:26:45 GMT-0700 (Pacific Daylight Time)","316357","red","green","","850","","","","choice","","img/green_lw/choose11.jpg","2","178","red","0.5","0.5","0.5","w","",""
"animation","99","128130","0.0-5.0-2.47","5efc1d4ee23e2a011ded073e","bdp_lott","Sun Apr 09 2023 15:26:45 GMT-0700 (Pacific Daylight Time)","316357","red","green","","","","","","","","","","178","","","","","","[{""stimulus"":""img/red_lw/1.jpg"",""time"":55},{""stimulus"":""img/red_lw/2.jpg"",""time"":107},{""stimulus"":""img/red_lw/3.jpg"",""time"":155},{""stimulus"":""img/red_lw/4.jpg"",""time"":201},{""stimulus"":""img/red_lw/5.jpg"",""time"":254},{""stimulus"":""img/red_lw/6.jpg"",""time"":301},{""stimulus"":""img/red_lw/7.jpg"",""time"":353},{""stimulus"":""img/red_lw/8.jpg"",""time"":404},{""stimulus"":""img/red_lw/9.jpg"",""time"":453},{""stimulus"":""img/red_lw/10.jpg"",""time"":504},{""stimulus"":""img/red_lw/11.jpg"",""time"":552}]","[]"
"image-keyboard-response","100","128489","0.0-5.0-1.48","5efc1d4ee23e2a011ded073e","bdp_lott","Sun Apr 09 2023 15:26:45 GMT-0700 (Pacific Daylight Time)","316357","red","green","","357","","","","choice","","img/red_lw/choose11.jpg","2","177","red","0.5","0.5","0.5","l","",""
"animation","101","129090","0.0-5.0-2.48","5efc1d4ee23e2a011ded073e","bdp_lott","Sun Apr 09 2023 15:26:45 GMT-0700 (Pacific Daylight Time)","316357","red","green","","","","","","","","","","177","","","","","","[{""stimulus"":""img/red_ll/1.jpg"",""time"":62},{""stimulus"":""img/red_ll/2.jpg"",""time"":101},{""stimulus"":""img/red_ll/3.jpg"",""time"":161},{""stimulus"":""img/red_ll/4.jpg"",""time"":211},{""stimulus"":""img/red_ll/5.jpg"",""time"":260},{""stimulus"":""img/red_ll/6.jpg"",""time"":302},{""stimulus"":""img/red_ll/7.jpg"",""time"":361},{""stimulus"":""img/red_ll/8.jpg"",""time"":400},{""stimulus"":""img/red_ll/9.jpg"",""time"":451},{""stimulus"":""img/red_ll/10.jpg"",""time"":510},{""stimulus"":""img/red_ll/11.jpg"",""time"":551}]","[]"
"image-keyboard-response","102","129565","0.0-5.0-1.49","5efc1d4ee23e2a011ded073e","bdp_lott","Sun Apr 09 2023 15:26:45 GMT-0700 (Pacific Daylight Time)","316357","red","green","","474","","","","choice","","img/red_ll/choose11.jpg","2","176","red","0.5","0.5","0.5","w","",""
"animation","103","130166","0.0-5.0-2.49","5efc1d4ee23e2a011ded073e","bdp_lott","Sun Apr 09 2023 15:26:45 GMT-0700 (Pacific Daylight Time)","316357","red","green","","","","","","","","","","176","","","","","","[{""stimulus"":""img/red_lw/1.jpg"",""time"":52},{""stimulus"":""img/red_lw/2.jpg"",""time"":101},{""stimulus"":""img/red_lw/3.jpg"",""time"":152},{""stimulus"":""img/red_lw/4.jpg"",""time"":201},{""stimulus"":""img/red_lw/5.jpg"",""time"":252},{""stimulus"":""img/red_lw/6.jpg"",""time"":301},{""stimulus"":""img/red_lw/7.jpg"",""time"":351},{""stimulus"":""img/red_lw/8.jpg"",""time"":401},{""stimulus"":""img/red_lw/9.jpg"",""time"":469},{""stimulus"":""img/red_lw/10.jpg"",""time"":501},{""stimulus"":""img/red_lw/11.jpg"",""time"":551}]","[]"
"image-keyboard-response","104","130545","0.0-5.0-1.50","5efc1d4ee23e2a011ded073e","bdp_lott","Sun Apr 09 2023 15:26:45 GMT-0700 (Pacific Daylight Time)","316357","red","green","","379","","","","choice","","img/red_lw/choose11.jpg","2","175","red","0.5","0.5","0.5","w","",""
"animation","105","131146","0.0-5.0-2.50","5efc1d4ee23e2a011ded073e","bdp_lott","Sun Apr 09 2023 15:26:45 GMT-0700 (Pacific Daylight Time)","316357","red","green","","","","","","","","","","175","","","","","","[{""stimulus"":""img/red_lw/1.jpg"",""time"":54},{""stimulus"":""img/red_lw/2.jpg"",""time"":102},{""stimulus"":""img/red_lw/3.jpg"",""time"":155},{""stimulus"":""img/red_lw/4.jpg"",""time"":203},{""stimulus"":""img/red_lw/5.jpg"",""time"":254},{""stimulus"":""img/red_lw/6.jpg"",""time"":303},{""stimulus"":""img/red_lw/7.jpg"",""time"":351},{""stimulus"":""img/red_lw/8.jpg"",""time"":401},{""stimulus"":""img/red_lw/9.jpg"",""time"":452},{""stimulus"":""img/red_lw/10.jpg"",""time"":501},{""stimulus"":""img/red_lw/11.jpg"",""time"":551}]","[]"
"image-keyboard-response","106","131377","0.0-5.0-1.51","5efc1d4ee23e2a011ded073e","bdp_lott","Sun Apr 09 2023 15:26:45 GMT-0700 (Pacific Daylight Time)","316357","red","green","","230","","","","choice","","img/red_lw/choose11.jpg","2","174","red","0.5","0.5","0.5","l","",""
"animation","107","131978","0.0-5.0-2.51","5efc1d4ee23e2a011ded073e","bdp_lott","Sun Apr 09 2023 15:26:45 GMT-0700 (Pacific Daylight Time)","316357","red","green","","","","","","","","","","174","","","","","","[{""stimulus"":""img/red_ll/1.jpg"",""time"":54},{""stimulus"":""img/red_ll/2.jpg"",""time"":106},{""stimulus"":""img/red_ll/3.jpg"",""time"":154},{""stimulus"":""img/red_ll/4.jpg"",""time"":201},{""stimulus"":""img/red_ll/5.jpg"",""time"":254},{""stimulus"":""img/red_ll/6.jpg"",""time"":304},{""stimulus"":""img/red_ll/7.jpg"",""time"":353},{""stimulus"":""img/red_ll/8.jpg"",""time"":400},{""stimulus"":""img/red_ll/9.jpg"",""time"":450},{""stimulus"":""img/red_ll/10.jpg"",""time"":503},{""stimulus"":""img/red_ll/11.jpg"",""time"":552}]","[]"
"image-keyboard-response","108","132293","0.0-5.0-1.52","5efc1d4ee23e2a011ded073e","bdp_lott","Sun Apr 09 2023 15:26:45 GMT-0700 (Pacific Daylight Time)","316357","red","green","","314","","","","choice","","img/red_ll/choose11.jpg","2","173","red","0.5","0.5","0.5","l","",""
"animation","109","132895","0.0-5.0-2.52","5efc1d4ee23e2a011ded073e","bdp_lott","Sun Apr 09 2023 15:26:45 GMT-0700 (Pacific Daylight Time)","316357","red","green","","","","","","","","","","173","","","","","","[{""stimulus"":""img/red_ll/1.jpg"",""time"":54},{""stimulus"":""img/red_ll/2.jpg"",""time"":101},{""stimulus"":""img/red_ll/3.jpg"",""time"":153},{""stimulus"":""img/red_ll/4.jpg"",""time"":201},{""stimulus"":""img/red_ll/5.jpg"",""time"":253},{""stimulus"":""img/red_ll/6.jpg"",""time"":301},{""stimulus"":""img/red_ll/7.jpg"",""time"":351},{""stimulus"":""img/red_ll/8.jpg"",""time"":400},{""stimulus"":""img/red_ll/9.jpg"",""time"":451},{""stimulus"":""img/red_ll/10.jpg"",""time"":501},{""stimulus"":""img/red_ll/11.jpg"",""time"":551}]","[]"
"image-keyboard-response","110","133191","0.0-5.0-1.53","5efc1d4ee23e2a011ded073e","bdp_lott","Sun Apr 09 2023 15:26:45 GMT-0700 (Pacific Daylight Time)","316357","red","green","","296","","","","choice","","img/red_ll/choose11.jpg","2","172","red","0.5","0.5","0.5","w","",""
"animation","111","133792","0.0-5.0-2.53","5efc1d4ee23e2a011ded073e","bdp_lott","Sun Apr 09 2023 15:26:45 GMT-0700 (Pacific Daylight Time)","316357","red","green","","","","","","","","","","172","","","","","","[{""stimulus"":""img/red_lw/1.jpg"",""time"":56},{""stimulus"":""img/red_lw/2.jpg"",""time"":101},{""stimulus"":""img/red_lw/3.jpg"",""time"":157},{""stimulus"":""img/red_lw/4.jpg"",""time"":202},{""stimulus"":""img/red_lw/5.jpg"",""time"":251},{""stimulus"":""img/red_lw/6.jpg"",""time"":302},{""stimulus"":""img/red_lw/7.jpg"",""time"":351},{""stimulus"":""img/red_lw/8.jpg"",""time"":402},{""stimulus"":""img/red_lw/9.jpg"",""time"":452},{""stimulus"":""img/red_lw/10.jpg"",""time"":502},{""stimulus"":""img/red_lw/11.jpg"",""time"":552}]","[]"
"image-keyboard-response","112","134010","0.0-5.0-1.54","5efc1d4ee23e2a011ded073e","bdp_lott","Sun Apr 09 2023 15:26:45 GMT-0700 (Pacific Daylight Time)","316357","red","green","","217","","","","choice","","img/red_lw/choose11.jpg","2","171","red","0.5","0.5","0.5","w","",""
"animation","113","134611","0.0-5.0-2.54","5efc1d4ee23e2a011ded073e","bdp_lott","Sun Apr 09 2023 15:26:45 GMT-0700 (Pacific Daylight Time)","316357","red","green","","","","","","","","","","171","","","","","","[{""stimulus"":""img/red_lw/1.jpg"",""time"":53},{""stimulus"":""img/red_lw/2.jpg"",""time"":101},{""stimulus"":""img/red_lw/3.jpg"",""time"":164},{""stimulus"":""img/red_lw/4.jpg"",""time"":221},{""stimulus"":""img/red_lw/5.jpg"",""time"":251},{""stimulus"":""img/red_lw/6.jpg"",""time"":304},{""stimulus"":""img/red_lw/7.jpg"",""time"":351},{""stimulus"":""img/red_lw/8.jpg"",""time"":402},{""stimulus"":""img/red_lw/9.jpg"",""time"":452},{""stimulus"":""img/red_lw/10.jpg"",""time"":502},{""stimulus"":""img/red_lw/11.jpg"",""time"":551}]","[]"
"image-keyboard-response","114","134861","0.0-5.0-1.55","5efc1d4ee23e2a011ded073e","bdp_lott","Sun Apr 09 2023 15:26:45 GMT-0700 (Pacific Daylight Time)","316357","red","green","","249","","","","choice","","img/red_lw/choose11.jpg","2","170","red","0.5","0.5","0.5","l","",""
"animation","115","135463","0.0-5.0-2.55","5efc1d4ee23e2a011ded073e","bdp_lott","Sun Apr 09 2023 15:26:45 GMT-0700 (Pacific Daylight Time)","316357","red","green","","","","","","","","","","170","","","","","","[{""stimulus"":""img/red_ll/1.jpg"",""time"":67},{""stimulus"":""img/red_ll/2.jpg"",""time"":102},{""stimulus"":""img/red_ll/3.jpg"",""time"":151},{""stimulus"":""img/red_ll/4.jpg"",""time"":201},{""stimulus"":""img/red_ll/5.jpg"",""time"":252},{""stimulus"":""img/red_ll/6.jpg"",""time"":301},{""stimulus"":""img/red_ll/7.jpg"",""time"":366},{""stimulus"":""img/red_ll/8.jpg"",""time"":402},{""stimulus"":""img/red_ll/9.jpg"",""time"":452},{""stimulus"":""img/red_ll/10.jpg"",""time"":519},{""stimulus"":""img/red_ll/11.jpg"",""time"":552}]","[]"
"image-keyboard-response","116","135753","0.0-5.0-1.56","5efc1d4ee23e2a011ded073e","bdp_lott","Sun Apr 09 2023 15:26:45 GMT-0700 (Pacific Daylight Time)","316357","red","green","","290","","","","choice","","img/red_ll/choose11.jpg","2","169","red","0.5","0.5","0.5","w","",""
"animation","117","136355","0.0-5.0-2.56","5efc1d4ee23e2a011ded073e","bdp_lott","Sun Apr 09 2023 15:26:45 GMT-0700 (Pacific Daylight Time)","316357","red","green","","","","","","","","","","169","","","","","","[{""stimulus"":""img/red_lw/1.jpg"",""time"":58},{""stimulus"":""img/red_lw/2.jpg"",""time"":101},{""stimulus"":""img/red_lw/3.jpg"",""time"":150},{""stimulus"":""img/red_lw/4.jpg"",""time"":207},{""stimulus"":""img/red_lw/5.jpg"",""time"":252},{""stimulus"":""img/red_lw/6.jpg"",""time"":300},{""stimulus"":""img/red_lw/7.jpg"",""time"":356},{""stimulus"":""img/red_lw/8.jpg"",""time"":400},{""stimulus"":""img/red_lw/9.jpg"",""time"":450},{""stimulus"":""img/red_lw/10.jpg"",""time"":506},{""stimulus"":""img/red_lw/11.jpg"",""time"":551}]","[]"
"image-keyboard-response","118","136625","0.0-5.0-1.57","5efc1d4ee23e2a011ded073e","bdp_lott","Sun Apr 09 2023 15:26:45 GMT-0700 (Pacific Daylight Time)","316357","red","green","","270","","","","choice","","img/red_lw/choose11.jpg","2","168","red","0.5","0.5","0.5","l","",""
"animation","119","137227","0.0-5.0-2.57","5efc1d4ee23e2a011ded073e","bdp_lott","Sun Apr 09 2023 15:26:45 GMT-0700 (Pacific Daylight Time)","316357","red","green","","","","","","","","","","168","","","","","","[{""stimulus"":""img/red_ll/1.jpg"",""time"":52},{""stimulus"":""img/red_ll/2.jpg"",""time"":101},{""stimulus"":""img/red_ll/3.jpg"",""time"":153},{""stimulus"":""img/red_ll/4.jpg"",""time"":202},{""stimulus"":""img/red_ll/5.jpg"",""time"":252},{""stimulus"":""img/red_ll/6.jpg"",""time"":302},{""stimulus"":""img/red_ll/7.jpg"",""time"":351},{""stimulus"":""img/red_ll/8.jpg"",""time"":420},{""stimulus"":""img/red_ll/9.jpg"",""time"":452},{""stimulus"":""img/red_ll/10.jpg"",""time"":520},{""stimulus"":""img/red_ll/11.jpg"",""time"":552}]","[]"
"image-keyboard-response","120","137631","0.0-5.0-1.58","5efc1d4ee23e2a011ded073e","bdp_lott","Sun Apr 09 2023 15:26:45 GMT-0700 (Pacific Daylight Time)","316357","red","green","","403","","","","choice","","img/red_ll/choose11.jpg","1","167","green","0.5","0.5","0.5","l","",""
"animation","121","138232","0.0-5.0-2.58","5efc1d4ee23e2a011ded073e","bdp_lott","Sun Apr 09 2023 15:26:45 GMT-0700 (Pacific Daylight Time)","316357","red","green","","","","","","","","","","167","","","","","","[{""stimulus"":""img/green_ll/1.jpg"",""time"":62},{""stimulus"":""img/green_ll/2.jpg"",""time"":102},{""stimulus"":""img/green_ll/3.jpg"",""time"":163},{""stimulus"":""img/green_ll/4.jpg"",""time"":201},{""stimulus"":""img/green_ll/5.jpg"",""time"":251},{""stimulus"":""img/green_ll/6.jpg"",""time"":310},{""stimulus"":""img/green_ll/7.jpg"",""time"":362},{""stimulus"":""img/green_ll/8.jpg"",""time"":410},{""stimulus"":""img/green_ll/9.jpg"",""time"":451},{""stimulus"":""img/green_ll/10.jpg"",""time"":512},{""stimulus"":""img/green_ll/11.jpg"",""time"":551}]","[]"
"image-keyboard-response","122","138688","0.0-5.0-1.59","5efc1d4ee23e2a011ded073e","bdp_lott","Sun Apr 09 2023 15:26:45 GMT-0700 (Pacific Daylight Time)","316357","red","green","","456","","","","choice","","img/green_ll/choose11.jpg","1","166","green","0.5","0.5","0.5","w","",""
"animation","123","139290","0.0-5.0-2.59","5efc1d4ee23e2a011ded073e","bdp_lott","Sun Apr 09 2023 15:26:45 GMT-0700 (Pacific Daylight Time)","316357","red","green","","","","","","","","","","166","","","","","","[{""stimulus"":""img/green_wl/1.jpg"",""time"":53},{""stimulus"":""img/green_wl/2.jpg"",""time"":100},{""stimulus"":""img/green_wl/3.jpg"",""time"":154},{""stimulus"":""img/green_wl/4.jpg"",""time"":201},{""stimulus"":""img/green_wl/5.jpg"",""time"":250},{""stimulus"":""img/green_wl/6.jpg"",""time"":301},{""stimulus"":""img/green_wl/7.jpg"",""time"":351},{""stimulus"":""img/green_wl/8.jpg"",""time"":403},{""stimulus"":""img/green_wl/9.jpg"",""time"":451},{""stimulus"":""img/green_wl/10.jpg"",""time"":501},{""stimulus"":""img/green_wl/11.jpg"",""time"":552}]","[]"
"image-keyboard-response","124","139536","0.0-5.0-1.60","5efc1d4ee23e2a011ded073e","bdp_lott","Sun Apr 09 2023 15:26:45 GMT-0700 (Pacific Daylight Time)","316357","red","green","","246","","","","choice","","img/green_wl/choose11.jpg","2","165","red","0.5","0.5","0.5","l","",""
"animation","125","140141","0.0-5.0-2.60","5efc1d4ee23e2a011ded073e","bdp_lott","Sun Apr 09 2023 15:26:45 GMT-0700 (Pacific Daylight Time)","316357","red","green","","","","","","","","","","165","","","","","","[{""stimulus"":""img/red_wl/1.jpg"",""time"":55},{""stimulus"":""img/red_wl/2.jpg"",""time"":102},{""stimulus"":""img/red_wl/3.jpg"",""time"":157},{""stimulus"":""img/red_wl/4.jpg"",""time"":201},{""stimulus"":""img/red_wl/5.jpg"",""time"":251},{""stimulus"":""img/red_wl/6.jpg"",""time"":300},{""stimulus"":""img/red_wl/7.jpg"",""time"":351},{""stimulus"":""img/red_wl/8.jpg"",""time"":400},{""stimulus"":""img/red_wl/9.jpg"",""time"":451},{""stimulus"":""img/red_wl/10.jpg"",""time"":503},{""stimulus"":""img/red_wl/11.jpg"",""time"":557}]","[]"
"image-keyboard-response","126","140571","0.0-5.0-1.61","5efc1d4ee23e2a011ded073e","bdp_lott","Sun Apr 09 2023 15:26:45 GMT-0700 (Pacific Daylight Time)","316357","red","green","","429","","","","choice","","img/red_wl/choose11.jpg","1","164","green","0.5","0.5","0.5","w","",""
"animation","127","141174","0.0-5.0-2.61","5efc1d4ee23e2a011ded073e","bdp_lott","Sun Apr 09 2023 15:26:45 GMT-0700 (Pacific Daylight Time)","316357","red","green","","","","","","","","","","164","","","","","","[{""stimulus"":""img/green_wl/1.jpg"",""time"":53},{""stimulus"":""img/green_wl/2.jpg"",""time"":101},{""stimulus"":""img/green_wl/3.jpg"",""time"":154},{""stimulus"":""img/green_wl/4.jpg"",""time"":202},{""stimulus"":""img/green_wl/5.jpg"",""time"":251},{""stimulus"":""img/green_wl/6.jpg"",""time"":303},{""stimulus"":""img/green_wl/7.jpg"",""time"":352},{""stimulus"":""img/green_wl/8.jpg"",""time"":402},{""stimulus"":""img/green_wl/9.jpg"",""time"":452},{""stimulus"":""img/green_wl/10.jpg"",""time"":522},{""stimulus"":""img/green_wl/11.jpg"",""time"":551}]","[]"
"image-keyboard-response","128","141498","0.0-5.0-1.62","5efc1d4ee23e2a011ded073e","bdp_lott","Sun Apr 09 2023 15:26:45 GMT-0700 (Pacific Daylight Time)","316357","red","green","","323","","","","choice","","img/green_wl/choose11.jpg","1","163","green","0.5","0.5","0.5","l","",""
"animation","129","142106","0.0-5.0-2.62","5efc1d4ee23e2a011ded073e","bdp_lott","Sun Apr 09 2023 15:26:45 GMT-0700 (Pacific Daylight Time)","316357","red","green","","","","","","","","","","163","","","","","","[{""stimulus"":""img/green_ll/1.jpg"",""time"":57},{""stimulus"":""img/green_ll/2.jpg"",""time"":100},{""stimulus"":""img/green_ll/3.jpg"",""time"":160},{""stimulus"":""img/green_ll/4.jpg"",""time"":208},{""stimulus"":""img/green_ll/5.jpg"",""time"":251},{""stimulus"":""img/green_ll/6.jpg"",""time"":307},{""stimulus"":""img/green_ll/7.jpg"",""time"":358},{""stimulus"":""img/green_ll/8.jpg"",""time"":400},{""stimulus"":""img/green_ll/9.jpg"",""time"":458},{""stimulus"":""img/green_ll/10.jpg"",""time"":500},{""stimulus"":""img/green_ll/11.jpg"",""time"":550}]","[]"
"image-keyboard-response","130","142542","0.0-5.0-1.63","5efc1d4ee23e2a011ded073e","bdp_lott","Sun Apr 09 2023 15:26:45 GMT-0700 (Pacific Daylight Time)","316357","red","green","","435","","","","choice","","img/green_ll/choose11.jpg","2","162","red","0.5","0.5","0.5","l","",""
"animation","131","143154","0.0-5.0-2.63","5efc1d4ee23e2a011ded073e","bdp_lott","Sun Apr 09 2023 15:26:45 GMT-0700 (Pacific Daylight Time)","316357","red","green","","","","","","","","","","162","","","","","","[{""stimulus"":""img/red_ll/1.jpg"",""time"":62},{""stimulus"":""img/red_ll/2.jpg"",""time"":102},{""stimulus"":""img/red_ll/3.jpg"",""time"":165},{""stimulus"":""img/red_ll/4.jpg"",""time"":213},{""stimulus"":""img/red_ll/5.jpg"",""time"":251},{""stimulus"":""img/red_ll/6.jpg"",""time"":301},{""stimulus"":""img/red_ll/7.jpg"",""time"":351},{""stimulus"":""img/red_ll/8.jpg"",""time"":401},{""stimulus"":""img/red_ll/9.jpg"",""time"":463},{""stimulus"":""img/red_ll/10.jpg"",""time"":501},{""stimulus"":""img/red_ll/11.jpg"",""time"":562}]","[]"
"image-keyboard-response","132","143433","0.0-5.0-1.64","5efc1d4ee23e2a011ded073e","bdp_lott","Sun Apr 09 2023 15:26:45 GMT-0700 (Pacific Daylight Time)","316357","red","green","","278","","","","choice","","img/red_ll/choose11.jpg","2","161","red","0.5","0.5","0.5","l","",""
"animation","133","144035","0.0-5.0-2.64","5efc1d4ee23e2a011ded073e","bdp_lott","Sun Apr 09 2023 15:26:45 GMT-0700 (Pacific Daylight Time)","316357","red","green","","","","","","","","","","161","","","","","","[{""stimulus"":""img/red_ll/1.jpg"",""time"":54},{""stimulus"":""img/red_ll/2.jpg"",""time"":102},{""stimulus"":""img/red_ll/3.jpg"",""time"":155},{""stimulus"":""img/red_ll/4.jpg"",""time"":200},{""stimulus"":""img/red_ll/5.jpg"",""time"":253},{""stimulus"":""img/red_ll/6.jpg"",""time"":323},{""stimulus"":""img/red_ll/7.jpg"",""time"":351},{""stimulus"":""img/red_ll/8.jpg"",""time"":405},{""stimulus"":""img/red_ll/9.jpg"",""time"":450},{""stimulus"":""img/red_ll/10.jpg"",""time"":500},{""stimulus"":""img/red_ll/11.jpg"",""time"":551}]","[]"
"image-keyboard-response","134","144297","0.0-5.0-1.65","5efc1d4ee23e2a011ded073e","bdp_lott","Sun Apr 09 2023 15:26:45 GMT-0700 (Pacific Daylight Time)","316357","red","green","","262","","","","choice","","img/red_ll/choose11.jpg","2","160","red","0.5","0.5","0.5","l","",""
"animation","135","144899","0.0-5.0-2.65","5efc1d4ee23e2a011ded073e","bdp_lott","Sun Apr 09 2023 15:26:45 GMT-0700 (Pacific Daylight Time)","316357","red","green","","","","","","","","","","160","","","","","","[{""stimulus"":""img/red_ll/1.jpg"",""time"":57},{""stimulus"":""img/red_ll/2.jpg"",""time"":110},{""stimulus"":""img/red_ll/3.jpg"",""time"":157},{""stimulus"":""img/red_ll/4.jpg"",""time"":201},{""stimulus"":""img/red_ll/5.jpg"",""time"":257},{""stimulus"":""img/red_ll/6.jpg"",""time"":305},{""stimulus"":""img/red_ll/7.jpg"",""time"":352},{""stimulus"":""img/red_ll/8.jpg"",""time"":402},{""stimulus"":""img/red_ll/9.jpg"",""time"":451},{""stimulus"":""img/red_ll/10.jpg"",""time"":501},{""stimulus"":""img/red_ll/11.jpg"",""time"":552}]","[]"
"image-keyboard-response","136","145158","0.0-5.0-1.66","5efc1d4ee23e2a011ded073e","bdp_lott","Sun Apr 09 2023 15:26:45 GMT-0700 (Pacific Daylight Time)","316357","red","green","","258","","","","choice","","img/red_ll/choose11.jpg","2","159","red","0.5","0.5","0.5","w","",""
"animation","137","145760","0.0-5.0-2.66","5efc1d4ee23e2a011ded073e","bdp_lott","Sun Apr 09 2023 15:26:45 GMT-0700 (Pacific Daylight Time)","316357","red","green","","","","","","","","","","159","","","","","","[{""stimulus"":""img/red_lw/1.jpg"",""time"":61},{""stimulus"":""img/red_lw/2.jpg"",""time"":101},{""stimulus"":""img/red_lw/3.jpg"",""time"":151},{""stimulus"":""img/red_lw/4.jpg"",""time"":201},{""stimulus"":""img/red_lw/5.jpg"",""time"":250},{""stimulus"":""img/red_lw/6.jpg"",""time"":301},{""stimulus"":""img/red_lw/7.jpg"",""time"":350},{""stimulus"":""img/red_lw/8.jpg"",""time"":411},{""stimulus"":""img/red_lw/9.jpg"",""time"":460},{""stimulus"":""img/red_lw/10.jpg"",""time"":500},{""stimulus"":""img/red_lw/11.jpg"",""time"":560}]","[]"
"image-keyboard-response","138","146198","0.0-5.0-1.67","5efc1d4ee23e2a011ded073e","bdp_lott","Sun Apr 09 2023 15:26:45 GMT-0700 (Pacific Daylight Time)","316357","red","green","","438","","","","choice","","img/red_lw/choose11.jpg","2","158","red","0.5","0.5","0.5","w","",""
"animation","139","146799","0.0-5.0-2.67","5efc1d4ee23e2a011ded073e","bdp_lott","Sun Apr 09 2023 15:26:45 GMT-0700 (Pacific Daylight Time)","316357","red","green","","","","","","","","","","158","","","","","","[{""stimulus"":""img/red_lw/1.jpg"",""time"":53},{""stimulus"":""img/red_lw/2.jpg"",""time"":102},{""stimulus"":""img/red_lw/3.jpg"",""time"":151},{""stimulus"":""img/red_lw/4.jpg"",""time"":201},{""stimulus"":""img/red_lw/5.jpg"",""time"":253},{""stimulus"":""img/red_lw/6.jpg"",""time"":300},{""stimulus"":""img/red_lw/7.jpg"",""time"":353},{""stimulus"":""img/red_lw/8.jpg"",""time"":404},{""stimulus"":""img/red_lw/9.jpg"",""time"":453},{""stimulus"":""img/red_lw/10.jpg"",""time"":501},{""stimulus"":""img/red_lw/11.jpg"",""time"":550}]","[]"
"image-keyboard-response","140","147346","0.0-5.0-1.68","5efc1d4ee23e2a011ded073e","bdp_lott","Sun Apr 09 2023 15:26:45 GMT-0700 (Pacific Daylight Time)","316357","red","green","","546","","","","choice","","img/red_lw/choose11.jpg","2","157","red","0.5","0.5","0.5","w","",""
"animation","141","147947","0.0-5.0-2.68","5efc1d4ee23e2a011ded073e","bdp_lott","Sun Apr 09 2023 15:26:45 GMT-0700 (Pacific Daylight Time)","316357","red","green","","","","","","","","","","157","","","","","","[{""stimulus"":""img/red_lw/1.jpg"",""time"":50},{""stimulus"":""img/red_lw/2.jpg"",""time"":101},{""stimulus"":""img/red_lw/3.jpg"",""time"":157},{""stimulus"":""img/red_lw/4.jpg"",""time"":205},{""stimulus"":""img/red_lw/5.jpg"",""time"":255},{""stimulus"":""img/red_lw/6.jpg"",""time"":304},{""stimulus"":""img/red_lw/7.jpg"",""time"":351},{""stimulus"":""img/red_lw/8.jpg"",""time"":403},{""stimulus"":""img/red_lw/9.jpg"",""time"":451},{""stimulus"":""img/red_lw/10.jpg"",""time"":505},{""stimulus"":""img/red_lw/11.jpg"",""time"":551}]","[]"
"image-keyboard-response","142","148263","0.0-5.0-1.69","5efc1d4ee23e2a011ded073e","bdp_lott","Sun Apr 09 2023 15:26:45 GMT-0700 (Pacific Daylight Time)","316357","red","green","","315","","","","choice","","img/red_lw/choose11.jpg","2","156","red","0.5","0.5","0.5","l","",""
"animation","143","148865","0.0-5.0-2.69","5efc1d4ee23e2a011ded073e","bdp_lott","Sun Apr 09 2023 15:26:45 GMT-0700 (Pacific Daylight Time)","316357","red","green","","","","","","","","","","156","","","","","","[{""stimulus"":""img/red_ll/1.jpg"",""time"":53},{""stimulus"":""img/red_ll/2.jpg"",""time"":101},{""stimulus"":""img/red_ll/3.jpg"",""time"":154},{""stimulus"":""img/red_ll/4.jpg"",""time"":201},{""stimulus"":""img/red_ll/5.jpg"",""time"":251},{""stimulus"":""img/red_ll/6.jpg"",""time"":301},{""stimulus"":""img/red_ll/7.jpg"",""time"":350},{""stimulus"":""img/red_ll/8.jpg"",""time"":404},{""stimulus"":""img/red_ll/9.jpg"",""time"":451},{""stimulus"":""img/red_ll/10.jpg"",""time"":500},{""stimulus"":""img/red_ll/11.jpg"",""time"":551}]","[]"
"image-keyboard-response","144","149461","0.0-5.0-1.70","5efc1d4ee23e2a011ded073e","bdp_lott","Sun Apr 09 2023 15:26:45 GMT-0700 (Pacific Daylight Time)","316357","red","green","","595","","","","choice","","img/red_ll/choose11.jpg","2","155","red","0.5","0.5","0.5","w","",""
"animation","145","150066","0.0-5.0-2.70","5efc1d4ee23e2a011ded073e","bdp_lott","Sun Apr 09 2023 15:26:45 GMT-0700 (Pacific Daylight Time)","316357","red","green","","","","","","","","","","155","","","","","","[{""stimulus"":""img/red_lw/1.jpg"",""time"":51},{""stimulus"":""img/red_lw/2.jpg"",""time"":101},{""stimulus"":""img/red_lw/3.jpg"",""time"":158},{""stimulus"":""img/red_lw/4.jpg"",""time"":206},{""stimulus"":""img/red_lw/5.jpg"",""time"":251},{""stimulus"":""img/red_lw/6.jpg"",""time"":301},{""stimulus"":""img/red_lw/7.jpg"",""time"":351},{""stimulus"":""img/red_lw/8.jpg"",""time"":406},{""stimulus"":""img/red_lw/9.jpg"",""time"":451},{""stimulus"":""img/red_lw/10.jpg"",""time"":505},{""stimulus"":""img/red_lw/11.jpg"",""time"":551}]","[]"
"image-keyboard-response","146","150347","0.0-5.0-1.71","5efc1d4ee23e2a011ded073e","bdp_lott","Sun Apr 09 2023 15:26:45 GMT-0700 (Pacific Daylight Time)","316357","red","green","","280","","","","choice","","img/red_lw/choose11.jpg","2","154","red","0.5","0.5","0.5","l","",""
"animation","147","150948","0.0-5.0-2.71","5efc1d4ee23e2a011ded073e","bdp_lott","Sun Apr 09 2023 15:26:45 GMT-0700 (Pacific Daylight Time)","316357","red","green","","","","","","","","","","154","","","","","","[{""stimulus"":""img/red_ll/1.jpg"",""time"":52},{""stimulus"":""img/red_ll/2.jpg"",""time"":101},{""stimulus"":""img/red_ll/3.jpg"",""time"":153},{""stimulus"":""img/red_ll/4.jpg"",""time"":221},{""stimulus"":""img/red_ll/5.jpg"",""time"":251},{""stimulus"":""img/red_ll/6.jpg"",""time"":303},{""stimulus"":""img/red_ll/7.jpg"",""time"":370},{""stimulus"":""img/red_ll/8.jpg"",""time"":402},{""stimulus"":""img/red_ll/9.jpg"",""time"":470},{""stimulus"":""img/red_ll/10.jpg"",""time"":501},{""stimulus"":""img/red_ll/11.jpg"",""time"":553}]","[]"
"image-keyboard-response","148","151423","0.0-5.0-1.72","5efc1d4ee23e2a011ded073e","bdp_lott","Sun Apr 09 2023 15:26:45 GMT-0700 (Pacific Daylight Time)","316357","red","green","","475","","","","choice","","img/red_ll/choose11.jpg","2","153","red","0.5","0.5","0.5","l","",""
"animation","149","152025","0.0-5.0-2.72","5efc1d4ee23e2a011ded073e","bdp_lott","Sun Apr 09 2023 15:26:45 GMT-0700 (Pacific Daylight Time)","316357","red","green","","","","","","","","","","153","","","","","","[{""stimulus"":""img/red_ll/1.jpg"",""time"":58},{""stimulus"":""img/red_ll/2.jpg"",""time"":101},{""stimulus"":""img/red_ll/3.jpg"",""time"":159},{""stimulus"":""img/red_ll/4.jpg"",""time"":207},{""stimulus"":""img/red_ll/5.jpg"",""time"":254},{""stimulus"":""img/red_ll/6.jpg"",""time"":309},{""stimulus"":""img/red_ll/7.jpg"",""time"":351},{""stimulus"":""img/red_ll/8.jpg"",""time"":408},{""stimulus"":""img/red_ll/9.jpg"",""time"":457},{""stimulus"":""img/red_ll/10.jpg"",""time"":507},{""stimulus"":""img/red_ll/11.jpg"",""time"":551}]","[]"
"image-keyboard-response","150","152375","0.0-5.0-1.73","5efc1d4ee23e2a011ded073e","bdp_lott","Sun Apr 09 2023 15:26:45 GMT-0700 (Pacific Daylight Time)","316357","red","green","","349","","","","choice","","img/red_ll/choose11.jpg","1","152","green","0.5","0.5","0.5","l","",""
"animation","151","152976","0.0-5.0-2.73","5efc1d4ee23e2a011ded073e","bdp_lott","Sun Apr 09 2023 15:26:45 GMT-0700 (Pacific Daylight Time)","316357","red","green","","","","","","","","","","152","","","","","","[{""stimulus"":""img/green_ll/1.jpg"",""time"":56},{""stimulus"":""img/green_ll/2.jpg"",""time"":108},{""stimulus"":""img/green_ll/3.jpg"",""time"":151},{""stimulus"":""img/green_ll/4.jpg"",""time"":201},{""stimulus"":""img/green_ll/5.jpg"",""time"":251},{""stimulus"":""img/green_ll/6.jpg"",""time"":301},{""stimulus"":""img/green_ll/7.jpg"",""time"":352},{""stimulus"":""img/green_ll/8.jpg"",""time"":405},{""stimulus"":""img/green_ll/9.jpg"",""time"":456},{""stimulus"":""img/green_ll/10.jpg"",""time"":504},{""stimulus"":""img/green_ll/11.jpg"",""time"":551}]","[]"
"image-keyboard-response","152","153306","0.0-5.0-1.74","5efc1d4ee23e2a011ded073e","bdp_lott","Sun Apr 09 2023 15:26:45 GMT-0700 (Pacific Daylight Time)","316357","red","green","","330","","","","choice","","img/green_ll/choose11.jpg","1","151","green","0.5","0.5","0.5","l","",""
"animation","153","153912","0.0-5.0-2.74","5efc1d4ee23e2a011ded073e","bdp_lott","Sun Apr 09 2023 15:26:45 GMT-0700 (Pacific Daylight Time)","316357","red","green","","","","","","","","","","151","","","","","","[{""stimulus"":""img/green_ll/1.jpg"",""time"":58},{""stimulus"":""img/green_ll/2.jpg"",""time"":101},{""stimulus"":""img/green_ll/3.jpg"",""time"":158},{""stimulus"":""img/green_ll/4.jpg"",""time"":201},{""stimulus"":""img/green_ll/5.jpg"",""time"":251},{""stimulus"":""img/green_ll/6.jpg"",""time"":308},{""stimulus"":""img/green_ll/7.jpg"",""time"":351},{""stimulus"":""img/green_ll/8.jpg"",""time"":401},{""stimulus"":""img/green_ll/9.jpg"",""time"":451},{""stimulus"":""img/green_ll/10.jpg"",""time"":505},{""stimulus"":""img/green_ll/11.jpg"",""time"":551}]","[]"
"image-keyboard-response","154","154195","0.0-5.0-1.75","5efc1d4ee23e2a011ded073e","bdp_lott","Sun Apr 09 2023 15:26:45 GMT-0700 (Pacific Daylight Time)","316357","red","green","","282","","","","choice","","img/green_ll/choose11.jpg","1","150","green","0.5","0.5","0.5","w","",""
"animation","155","154796","0.0-5.0-2.75","5efc1d4ee23e2a011ded073e","bdp_lott","Sun Apr 09 2023 15:26:45 GMT-0700 (Pacific Daylight Time)","316357","red","green","","","","","","","","","","150","","","","","","[{""stimulus"":""img/green_wl/1.jpg"",""time"":51},{""stimulus"":""img/green_wl/2.jpg"",""time"":101},{""stimulus"":""img/green_wl/3.jpg"",""time"":152},{""stimulus"":""img/green_wl/4.jpg"",""time"":220},{""stimulus"":""img/green_wl/5.jpg"",""time"":252},{""stimulus"":""img/green_wl/6.jpg"",""time"":320},{""stimulus"":""img/green_wl/7.jpg"",""time"":352},{""stimulus"":""img/green_wl/8.jpg"",""time"":401},{""stimulus"":""img/green_wl/9.jpg"",""time"":451},{""stimulus"":""img/green_wl/10.jpg"",""time"":501},{""stimulus"":""img/green_wl/11.jpg"",""time"":551}]","[]"
"image-keyboard-response","156","155365","0.0-5.0-1.76","5efc1d4ee23e2a011ded073e","bdp_lott","Sun Apr 09 2023 15:26:45 GMT-0700 (Pacific Daylight Time)","316357","red","green","","569","","","","choice","","img/green_wl/choose11.jpg","1","149","green","0.5","0.1","0.1","l","",""
"animation","157","155966","0.0-5.0-2.76","5efc1d4ee23e2a011ded073e","bdp_lott","Sun Apr 09 2023 15:26:45 GMT-0700 (Pacific Daylight Time)","316357","red","green","","","","","","","","","","149","","","","","","[{""stimulus"":""img/green_ll/1.jpg"",""time"":64},{""stimulus"":""img/green_ll/2.jpg"",""time"":101},{""stimulus"":""img/green_ll/3.jpg"",""time"":164},{""stimulus"":""img/green_ll/4.jpg"",""time"":202},{""stimulus"":""img/green_ll/5.jpg"",""time"":263},{""stimulus"":""img/green_ll/6.jpg"",""time"":313},{""stimulus"":""img/green_ll/7.jpg"",""time"":351},{""stimulus"":""img/green_ll/8.jpg"",""time"":401},{""stimulus"":""img/green_ll/9.jpg"",""time"":462},{""stimulus"":""img/green_ll/10.jpg"",""time"":512},{""stimulus"":""img/green_ll/11.jpg"",""time"":551}]","[]"
"image-keyboard-response","158","156335","0.0-5.0-1.77","5efc1d4ee23e2a011ded073e","bdp_lott","Sun Apr 09 2023 15:26:45 GMT-0700 (Pacific Daylight Time)","316357","red","green","","368","","","","choice","","img/green_ll/choose11.jpg","1","148","green","0.5","0.1","0.1","l","",""
"animation","159","156943","0.0-5.0-2.77","5efc1d4ee23e2a011ded073e","bdp_lott","Sun Apr 09 2023 15:26:45 GMT-0700 (Pacific Daylight Time)","316357","red","green","","","","","","","","","","148","","","","","","[{""stimulus"":""img/green_ll/1.jpg"",""time"":59},{""stimulus"":""img/green_ll/2.jpg"",""time"":101},{""stimulus"":""img/green_ll/3.jpg"",""time"":160},{""stimulus"":""img/green_ll/4.jpg"",""time"":200},{""stimulus"":""img/green_ll/5.jpg"",""time"":251},{""stimulus"":""img/green_ll/6.jpg"",""time"":301},{""stimulus"":""img/green_ll/7.jpg"",""time"":351},{""stimulus"":""img/green_ll/8.jpg"",""time"":401},{""stimulus"":""img/green_ll/9.jpg"",""time"":459},{""stimulus"":""img/green_ll/10.jpg"",""time"":509},{""stimulus"":""img/green_ll/11.jpg"",""time"":551}]","[]"
"image-keyboard-response","160","157218","0.0-5.0-1.78","5efc1d4ee23e2a011ded073e","bdp_lott","Sun Apr 09 2023 15:26:45 GMT-0700 (Pacific Daylight Time)","316357","red","green","","274","","","","choice","","img/green_ll/choose11.jpg","2","147","red","0.5","0.1","0.5","w","",""
"animation","161","157820","0.0-5.0-2.78","5efc1d4ee23e2a011ded073e","bdp_lott","Sun Apr 09 2023 15:26:45 GMT-0700 (Pacific Daylight Time)","316357","red","green","","","","","","","","","","147","","","","","","[{""stimulus"":""img/red_lw/1.jpg"",""time"":58},{""stimulus"":""img/red_lw/2.jpg"",""time"":102},{""stimulus"":""img/red_lw/3.jpg"",""time"":158},{""stimulus"":""img/red_lw/4.jpg"",""time"":201},{""stimulus"":""img/red_lw/5.jpg"",""time"":254},{""stimulus"":""img/red_lw/6.jpg"",""time"":301},{""stimulus"":""img/red_lw/7.jpg"",""time"":357},{""stimulus"":""img/red_lw/8.jpg"",""time"":408},{""stimulus"":""img/red_lw/9.jpg"",""time"":451},{""stimulus"":""img/red_lw/10.jpg"",""time"":501},{""stimulus"":""img/red_lw/11.jpg"",""time"":551}]","[]"
"image-keyboard-response","162","158081","0.0-5.0-1.79","5efc1d4ee23e2a011ded073e","bdp_lott","Sun Apr 09 2023 15:26:45 GMT-0700 (Pacific Daylight Time)","316357","red","green","","261","","","","choice","","img/red_lw/choose11.jpg","2","146","red","0.5","0.1","0.5","l","",""
"animation","163","158682","0.0-5.0-2.79","5efc1d4ee23e2a011ded073e","bdp_lott","Sun Apr 09 2023 15:26:45 GMT-0700 (Pacific Daylight Time)","316357","red","green","","","","","","","","","","146","","","","","","[{""stimulus"":""img/red_ll/1.jpg"",""time"":61},{""stimulus"":""img/red_ll/2.jpg"",""time"":100},{""stimulus"":""img/red_ll/3.jpg"",""time"":150},{""stimulus"":""img/red_ll/4.jpg"",""time"":200},{""stimulus"":""img/red_ll/5.jpg"",""time"":251},{""stimulus"":""img/red_ll/6.jpg"",""time"":301},{""stimulus"":""img/red_ll/7.jpg"",""time"":351},{""stimulus"":""img/red_ll/8.jpg"",""time"":401},{""stimulus"":""img/red_ll/9.jpg"",""time"":451},{""stimulus"":""img/red_ll/10.jpg"",""time"":509},{""stimulus"":""img/red_ll/11.jpg"",""time"":551}]","[]"
"image-keyboard-response","164","159037","0.0-5.0-1.80","5efc1d4ee23e2a011ded073e","bdp_lott","Sun Apr 09 2023 15:26:45 GMT-0700 (Pacific Daylight Time)","316357","red","green","","354","","","","choice","","img/red_ll/choose11.jpg","2","145","red","0.5","0.1","0.5","w","",""
"animation","165","159639","0.0-5.0-2.80","5efc1d4ee23e2a011ded073e","bdp_lott","Sun Apr 09 2023 15:26:45 GMT-0700 (Pacific Daylight Time)","316357","red","green","","","","","","","","","","145","","","","","","[{""stimulus"":""img/red_lw/1.jpg"",""time"":57},{""stimulus"":""img/red_lw/2.jpg"",""time"":101},{""stimulus"":""img/red_lw/3.jpg"",""time"":151},{""stimulus"":""img/red_lw/4.jpg"",""time"":206},{""stimulus"":""img/red_lw/5.jpg"",""time"":253},{""stimulus"":""img/red_lw/6.jpg"",""time"":305},{""stimulus"":""img/red_lw/7.jpg"",""time"":351},{""stimulus"":""img/red_lw/8.jpg"",""time"":401},{""stimulus"":""img/red_lw/9.jpg"",""time"":451},{""stimulus"":""img/red_lw/10.jpg"",""time"":504},{""stimulus"":""img/red_lw/11.jpg"",""time"":552}]","[]"
"image-keyboard-response","166","159940","0.0-5.0-1.81","5efc1d4ee23e2a011ded073e","bdp_lott","Sun Apr 09 2023 15:26:45 GMT-0700 (Pacific Daylight Time)","316357","red","green","","301","","","","choice","","img/red_lw/choose11.jpg","2","144","red","0.5","0.1","0.5","l","",""
"animation","167","160542","0.0-5.0-2.81","5efc1d4ee23e2a011ded073e","bdp_lott","Sun Apr 09 2023 15:26:45 GMT-0700 (Pacific Daylight Time)","316357","red","green","","","","","","","","","","144","","","","","","[{""stimulus"":""img/red_ll/1.jpg"",""time"":51},{""stimulus"":""img/red_ll/2.jpg"",""time"":102},{""stimulus"":""img/red_ll/3.jpg"",""time"":151},{""stimulus"":""img/red_ll/4.jpg"",""time"":201},{""stimulus"":""img/red_ll/5.jpg"",""time"":252},{""stimulus"":""img/red_ll/6.jpg"",""time"":301},{""stimulus"":""img/red_ll/7.jpg"",""time"":370},{""stimulus"":""img/red_ll/8.jpg"",""time"":400},{""stimulus"":""img/red_ll/9.jpg"",""time"":452},{""stimulus"":""img/red_ll/10.jpg"",""time"":500},{""stimulus"":""img/red_ll/11.jpg"",""time"":570}]","[]"
"image-keyboard-response","168","160832","0.0-5.0-1.82","5efc1d4ee23e2a011ded073e","bdp_lott","Sun Apr 09 2023 15:26:45 GMT-0700 (Pacific Daylight Time)","316357","red","green","","289","","","","choice","","img/red_ll/choose11.jpg","2","143","red","0.5","0.1","0.5","w","",""
"animation","169","161433","0.0-5.0-2.82","5efc1d4ee23e2a011ded073e","bdp_lott","Sun Apr 09 2023 15:26:45 GMT-0700 (Pacific Daylight Time)","316357","red","green","","","","","","","","","","143","","","","","","[{""stimulus"":""img/red_lw/1.jpg"",""time"":58},{""stimulus"":""img/red_lw/2.jpg"",""time"":101},{""stimulus"":""img/red_lw/3.jpg"",""time"":151},{""stimulus"":""img/red_lw/4.jpg"",""time"":207},{""stimulus"":""img/red_lw/5.jpg"",""time"":251},{""stimulus"":""img/red_lw/6.jpg"",""time"":307},{""stimulus"":""img/red_lw/7.jpg"",""time"":356},{""stimulus"":""img/red_lw/8.jpg"",""time"":400},{""stimulus"":""img/red_lw/9.jpg"",""time"":456},{""stimulus"":""img/red_lw/10.jpg"",""time"":507},{""stimulus"":""img/red_lw/11.jpg"",""time"":550}]","[]"
"image-keyboard-response","170","161712","0.0-5.0-1.83","5efc1d4ee23e2a011ded073e","bdp_lott","Sun Apr 09 2023 15:26:45 GMT-0700 (Pacific Daylight Time)","316357","red","green","","278","","","","choice","","img/red_lw/choose11.jpg","2","142","red","0.5","0.1","0.5","w","",""
"animation","171","162313","0.0-5.0-2.83","5efc1d4ee23e2a011ded073e","bdp_lott","Sun Apr 09 2023 15:26:45 GMT-0700 (Pacific Daylight Time)","316357","red","green","","","","","","","","","","142","","","","","","[{""stimulus"":""img/red_lw/1.jpg"",""time"":62},{""stimulus"":""img/red_lw/2.jpg"",""time"":102},{""stimulus"":""img/red_lw/3.jpg"",""time"":151},{""stimulus"":""img/red_lw/4.jpg"",""time"":201},{""stimulus"":""img/red_lw/5.jpg"",""time"":251},{""stimulus"":""img/red_lw/6.jpg"",""time"":311},{""stimulus"":""img/red_lw/7.jpg"",""time"":360},{""stimulus"":""img/red_lw/8.jpg"",""time"":410},{""stimulus"":""img/red_lw/9.jpg"",""time"":451},{""stimulus"":""img/red_lw/10.jpg"",""time"":510},{""stimulus"":""img/red_lw/11.jpg"",""time"":551}]","[]"
"image-keyboard-response","172","162671","0.0-5.0-1.84","5efc1d4ee23e2a011ded073e","bdp_lott","Sun Apr 09 2023 15:26:45 GMT-0700 (Pacific Daylight Time)","316357","red","green","","358","","","","choice","","img/red_lw/choose11.jpg","2","141","red","0.5","0.1","0.5","l","",""
"animation","173","163290","0.0-5.0-2.84","5efc1d4ee23e2a011ded073e","bdp_lott","Sun Apr 09 2023 15:26:45 GMT-0700 (Pacific Daylight Time)","316357","red","green","","","","","","","","","","141","","","","","","[{""stimulus"":""img/red_ll/1.jpg"",""time"":52},{""stimulus"":""img/red_ll/2.jpg"",""time"":102},{""stimulus"":""img/red_ll/3.jpg"",""time"":170},{""stimulus"":""img/red_ll/4.jpg"",""time"":201},{""stimulus"":""img/red_ll/5.jpg"",""time"":252},{""stimulus"":""img/red_ll/6.jpg"",""time"":301},{""stimulus"":""img/red_ll/7.jpg"",""time"":351},{""stimulus"":""img/red_ll/8.jpg"",""time"":420},{""stimulus"":""img/red_ll/9.jpg"",""time"":451},{""stimulus"":""img/red_ll/10.jpg"",""time"":501},{""stimulus"":""img/red_ll/11.jpg"",""time"":551}]","[]"
"image-keyboard-response","174","163990","0.0-5.0-1.85","5efc1d4ee23e2a011ded073e","bdp_lott","Sun Apr 09 2023 15:26:45 GMT-0700 (Pacific Daylight Time)","316357","red","green","","698","","","","choice","","img/red_ll/choose11.jpg","2","140","red","0.5","0.1","0.5","l","",""
"animation","175","164592","0.0-5.0-2.85","5efc1d4ee23e2a011ded073e","bdp_lott","Sun Apr 09 2023 15:26:45 GMT-0700 (Pacific Daylight Time)","316357","red","green","","","","","","","","","","140","","","","","","[{""stimulus"":""img/red_ll/1.jpg"",""time"":64},{""stimulus"":""img/red_ll/2.jpg"",""time"":102},{""stimulus"":""img/red_ll/3.jpg"",""time"":151},{""stimulus"":""img/red_ll/4.jpg"",""time"":216},{""stimulus"":""img/red_ll/5.jpg"",""time"":250},{""stimulus"":""img/red_ll/6.jpg"",""time"":300},{""stimulus"":""img/red_ll/7.jpg"",""time"":351},{""stimulus"":""img/red_ll/8.jpg"",""time"":412},{""stimulus"":""img/red_ll/9.jpg"",""time"":450},{""stimulus"":""img/red_ll/10.jpg"",""time"":513},{""stimulus"":""img/red_ll/11.jpg"",""time"":551}]","[]"
"image-keyboard-response","176","164927","0.0-5.0-1.86","5efc1d4ee23e2a011ded073e","bdp_lott","Sun Apr 09 2023 15:26:45 GMT-0700 (Pacific Daylight Time)","316357","red","green","","334","","","","choice","","img/red_ll/choose11.jpg","1","139","green","0.5","0.1","0.1","l","",""
"animation","177","165528","0.0-5.0-2.86","5efc1d4ee23e2a011ded073e","bdp_lott","Sun Apr 09 2023 15:26:45 GMT-0700 (Pacific Daylight Time)","316357","red","green","","","","","","","","","","139","","","","","","[{""stimulus"":""img/green_ll/1.jpg"",""time"":60},{""stimulus"":""img/green_ll/2.jpg"",""time"":100},{""stimulus"":""img/green_ll/3.jpg"",""time"":162},{""stimulus"":""img/green_ll/4.jpg"",""time"":209},{""stimulus"":""img/green_ll/5.jpg"",""time"":260},{""stimulus"":""img/green_ll/6.jpg"",""time"":310},{""stimulus"":""img/green_ll/7.jpg"",""time"":359},{""stimulus"":""img/green_ll/8.jpg"",""time"":409},{""stimulus"":""img/green_ll/9.jpg"",""time"":458},{""stimulus"":""img/green_ll/10.jpg"",""time"":501},{""stimulus"":""img/green_ll/11.jpg"",""time"":560}]","[]"
"image-keyboard-response","178","166078","0.0-5.0-1.87","5efc1d4ee23e2a011ded073e","bdp_lott","Sun Apr 09 2023 15:26:45 GMT-0700 (Pacific Daylight Time)","316357","red","green","","550","","","","choice","","img/green_ll/choose11.jpg","1","138","green","0.5","0.1","0.1","l","",""
"animation","179","166684","0.0-5.0-2.87","5efc1d4ee23e2a011ded073e","bdp_lott","Sun Apr 09 2023 15:26:45 GMT-0700 (Pacific Daylight Time)","316357","red","green","","","","","","","","","","138","","","","","","[{""stimulus"":""img/green_ll/1.jpg"",""time"":57},{""stimulus"":""img/green_ll/2.jpg"",""time"":109},{""stimulus"":""img/green_ll/3.jpg"",""time"":157},{""stimulus"":""img/green_ll/4.jpg"",""time"":208},{""stimulus"":""img/green_ll/5.jpg"",""time"":251},{""stimulus"":""img/green_ll/6.jpg"",""time"":301},{""stimulus"":""img/green_ll/7.jpg"",""time"":350},{""stimulus"":""img/green_ll/8.jpg"",""time"":400},{""stimulus"":""img/green_ll/9.jpg"",""time"":453},{""stimulus"":""img/green_ll/10.jpg"",""time"":506},{""stimulus"":""img/green_ll/11.jpg"",""time"":550}]","[]"
"image-keyboard-response","180","166869","0.0-5.0-1.88","5efc1d4ee23e2a011ded073e","bdp_lott","Sun Apr 09 2023 15:26:45 GMT-0700 (Pacific Daylight Time)","316357","red","green","","185","","","","choice","","img/green_ll/choose11.jpg","2","137","red","0.5","0.1","0.5","w","",""
"animation","181","167471","0.0-5.0-2.88","5efc1d4ee23e2a011ded073e","bdp_lott","Sun Apr 09 2023 15:26:45 GMT-0700 (Pacific Daylight Time)","316357","red","green","","","","","","","","","","137","","","","","","[{""stimulus"":""img/red_lw/1.jpg"",""time"":66},{""stimulus"":""img/red_lw/2.jpg"",""time"":100},{""stimulus"":""img/red_lw/3.jpg"",""time"":165},{""stimulus"":""img/red_lw/4.jpg"",""time"":200},{""stimulus"":""img/red_lw/5.jpg"",""time"":250},{""stimulus"":""img/red_lw/6.jpg"",""time"":300},{""stimulus"":""img/red_lw/7.jpg"",""time"":350},{""stimulus"":""img/red_lw/8.jpg"",""time"":400},{""stimulus"":""img/red_lw/9.jpg"",""time"":467},{""stimulus"":""img/red_lw/10.jpg"",""time"":501},{""stimulus"":""img/red_lw/11.jpg"",""time"":566}]","[]"
"image-keyboard-response","182","167776","0.0-5.0-1.89","5efc1d4ee23e2a011ded073e","bdp_lott","Sun Apr 09 2023 15:26:45 GMT-0700 (Pacific Daylight Time)","316357","red","green","","304","","","","choice","","img/red_lw/choose11.jpg","2","136","red","0.5","0.1","0.5","l","",""
"animation","183","168377","0.0-5.0-2.89","5efc1d4ee23e2a011ded073e","bdp_lott","Sun Apr 09 2023 15:26:45 GMT-0700 (Pacific Daylight Time)","316357","red","green","","","","","","","","","","136","","","","","","[{""stimulus"":""img/red_ll/1.jpg"",""time"":59},{""stimulus"":""img/red_ll/2.jpg"",""time"":102},{""stimulus"":""img/red_ll/3.jpg"",""time"":160},{""stimulus"":""img/red_ll/4.jpg"",""time"":209},{""stimulus"":""img/red_ll/5.jpg"",""time"":258},{""stimulus"":""img/red_ll/6.jpg"",""time"":308},{""stimulus"":""img/red_ll/7.jpg"",""time"":355},{""stimulus"":""img/red_ll/8.jpg"",""time"":401},{""stimulus"":""img/red_ll/9.jpg"",""time"":452},{""stimulus"":""img/red_ll/10.jpg"",""time"":501},{""stimulus"":""img/red_ll/11.jpg"",""time"":551}]","[]"
"image-keyboard-response","184","168723","0.0-5.0-1.90","5efc1d4ee23e2a011ded073e","bdp_lott","Sun Apr 09 2023 15:26:45 GMT-0700 (Pacific Daylight Time)","316357","red","green","","345","","","","choice","","img/red_ll/choose11.jpg","2","135","red","0.5","0.1","0.5","l","",""
"animation","185","169331","0.0-5.0-2.90","5efc1d4ee23e2a011ded073e","bdp_lott","Sun Apr 09 2023 15:26:45 GMT-0700 (Pacific Daylight Time)","316357","red","green","","","","","","","","","","135","","","","","","[{""stimulus"":""img/red_ll/1.jpg"",""time"":59},{""stimulus"":""img/red_ll/2.jpg"",""time"":101},{""stimulus"":""img/red_ll/3.jpg"",""time"":161},{""stimulus"":""img/red_ll/4.jpg"",""time"":201},{""stimulus"":""img/red_ll/5.jpg"",""time"":251},{""stimulus"":""img/red_ll/6.jpg"",""time"":309},{""stimulus"":""img/red_ll/7.jpg"",""time"":351},{""stimulus"":""img/red_ll/8.jpg"",""time"":409},{""stimulus"":""img/red_ll/9.jpg"",""time"":451},{""stimulus"":""img/red_ll/10.jpg"",""time"":501},{""stimulus"":""img/red_ll/11.jpg"",""time"":551}]","[]"
"image-keyboard-response","186","169717","0.0-5.0-1.91","5efc1d4ee23e2a011ded073e","bdp_lott","Sun Apr 09 2023 15:26:45 GMT-0700 (Pacific Daylight Time)","316357","red","green","","385","","","","choice","","img/red_ll/choose11.jpg","1","134","green","0.5","0.1","0.1","l","",""
"animation","187","170319","0.0-5.0-2.91","5efc1d4ee23e2a011ded073e","bdp_lott","Sun Apr 09 2023 15:26:45 GMT-0700 (Pacific Daylight Time)","316357","red","green","","","","","","","","","","134","","","","","","[{""stimulus"":""img/green_ll/1.jpg"",""time"":52},{""stimulus"":""img/green_ll/2.jpg"",""time"":101},{""stimulus"":""img/green_ll/3.jpg"",""time"":166},{""stimulus"":""img/green_ll/4.jpg"",""time"":201},{""stimulus"":""img/green_ll/5.jpg"",""time"":251},{""stimulus"":""img/green_ll/6.jpg"",""time"":301},{""stimulus"":""img/green_ll/7.jpg"",""time"":351},{""stimulus"":""img/green_ll/8.jpg"",""time"":401},{""stimulus"":""img/green_ll/9.jpg"",""time"":451},{""stimulus"":""img/green_ll/10.jpg"",""time"":501},{""stimulus"":""img/green_ll/11.jpg"",""time"":551}]","[]"
"image-keyboard-response","188","170683","0.0-5.0-1.92","5efc1d4ee23e2a011ded073e","bdp_lott","Sun Apr 09 2023 15:26:45 GMT-0700 (Pacific Daylight Time)","316357","red","green","","364","","","","choice","","img/green_ll/choose11.jpg","1","133","green","0.5","0.1","0.1","l","",""
"animation","189","171284","0.0-5.0-2.92","5efc1d4ee23e2a011ded073e","bdp_lott","Sun Apr 09 2023 15:26:45 GMT-0700 (Pacific Daylight Time)","316357","red","green","","","","","","","","","","133","","","","","","[{""stimulus"":""img/green_ll/1.jpg"",""time"":63},{""stimulus"":""img/green_ll/2.jpg"",""time"":101},{""stimulus"":""img/green_ll/3.jpg"",""time"":151},{""stimulus"":""img/green_ll/4.jpg"",""time"":217},{""stimulus"":""img/green_ll/5.jpg"",""time"":251},{""stimulus"":""img/green_ll/6.jpg"",""time"":301},{""stimulus"":""img/green_ll/7.jpg"",""time"":351},{""stimulus"":""img/green_ll/8.jpg"",""time"":401},{""stimulus"":""img/green_ll/9.jpg"",""time"":452},{""stimulus"":""img/green_ll/10.jpg"",""time"":501},{""stimulus"":""img/green_ll/11.jpg"",""time"":552}]","[]"
"image-keyboard-response","190","171596","0.0-5.0-1.93","5efc1d4ee23e2a011ded073e","bdp_lott","Sun Apr 09 2023 15:26:45 GMT-0700 (Pacific Daylight Time)","316357","red","green","","310","","","","choice","","img/green_ll/choose11.jpg","2","132","red","0.5","0.1","0.5","w","",""
"animation","191","172197","0.0-5.0-2.93","5efc1d4ee23e2a011ded073e","bdp_lott","Sun Apr 09 2023 15:26:45 GMT-0700 (Pacific Daylight Time)","316357","red","green","","","","","","","","","","132","","","","","","[{""stimulus"":""img/red_lw/1.jpg"",""time"":52},{""stimulus"":""img/red_lw/2.jpg"",""time"":101},{""stimulus"":""img/red_lw/3.jpg"",""time"":153},{""stimulus"":""img/red_lw/4.jpg"",""time"":201},{""stimulus"":""img/red_lw/5.jpg"",""time"":251},{""stimulus"":""img/red_lw/6.jpg"",""time"":301},{""stimulus"":""img/red_lw/7.jpg"",""time"":351},{""stimulus"":""img/red_lw/8.jpg"",""time"":402},{""stimulus"":""img/red_lw/9.jpg"",""time"":451},{""stimulus"":""img/red_lw/10.jpg"",""time"":502},{""stimulus"":""img/red_lw/11.jpg"",""time"":551}]","[]"
"image-keyboard-response","192","172480","0.0-5.0-1.94","5efc1d4ee23e2a011ded073e","bdp_lott","Sun Apr 09 2023 15:26:45 GMT-0700 (Pacific Daylight Time)","316357","red","green","","283","","","","choice","","img/red_lw/choose11.jpg","2","131","red","0.5","0.1","0.5","w","",""
