"trial_type","trial_index","time_elapsed","internal_node_id","subject_id","task","startTime","totalTime","fairMachine","unfairMachine","view_history","rt","event","trial","time","trialtype","success","stimulus","key_press","roundsLeft","chosen","pFairMachWin","pUnfairMachWin","pTrialWin","outcome","animation_sequence","responses"
"pavlovia","0","8","0.0-0.0","6150e9017c1b2aa8bf683c32","bdp_lott","Wed Mar 29 2023 13:47:14 GMT-0400 (Eastern Daylight Time)","361108","red","green","","","","","","","","","","","","","","","","",""
"instructions","1","2377","0.0-1.0","6150e9017c1b2aa8bf683c32","bdp_lott","Wed Mar 29 2023 13:47:14 GMT-0400 (Eastern Daylight Time)","361108","red","green","[{""page_index"":0,""viewing_time"":2368}]","2368","","","","","","","","","","","","","","",""
"","","","","6150e9017c1b2aa8bf683c32","bdp_lott","Wed Mar 29 2023 13:47:14 GMT-0400 (Eastern Daylight Time)","361108","red","green","","","fullscreenenter","2","5241","fullscreenenter","","","","","","","","","","",""
"fullscreen","2","6196","0.0-2.0","6150e9017c1b2aa8bf683c32","bdp_lott","Wed Mar 29 2023 13:47:14 GMT-0400 (Eastern Daylight Time)","361108","red","green","","","","","","","true","","","","","","","","","",""
"instructions","3","48511","0.0-4.0","6150e9017c1b2aa8bf683c32","bdp_lott","Wed Mar 29 2023 13:47:14 GMT-0400 (Eastern Daylight Time)","361108","red","green","[{""page_index"":0,""viewing_time"":42312}]","42312","","","","","","","","","","","","","","",""
"image-keyboard-response","4","51184","0.0-5.0-1.0","6150e9017c1b2aa8bf683c32","bdp_lott","Wed Mar 29 2023 13:47:14 GMT-0400 (Eastern Daylight Time)","361108","red","green","","2667","","","","choice","","img/red_ll/initchoose11.jpg","1","225","green","0.5","0.5","0.5","l","",""
"animation","5","51787","0.0-5.0-2.0","6150e9017c1b2aa8bf683c32","bdp_lott","Wed Mar 29 2023 13:47:14 GMT-0400 (Eastern Daylight Time)","361108","red","green","","","","","","","","","","225","","","","","","[{""stimulus"":""img/green_ll/1.jpg"",""time"":55},{""stimulus"":""img/green_ll/2.jpg"",""time"":102},{""stimulus"":""img/green_ll/3.jpg"",""time"":152},{""stimulus"":""img/green_ll/4.jpg"",""time"":201},{""stimulus"":""img/green_ll/5.jpg"",""time"":251},{""stimulus"":""img/green_ll/6.jpg"",""time"":302},{""stimulus"":""img/green_ll/7.jpg"",""time"":351},{""stimulus"":""img/green_ll/8.jpg"",""time"":401},{""stimulus"":""img/green_ll/9.jpg"",""time"":452},{""stimulus"":""img/green_ll/10.jpg"",""time"":502},{""stimulus"":""img/green_ll/11.jpg"",""time"":552}]","[]"
"image-keyboard-response","6","53514","0.0-5.0-1.1","6150e9017c1b2aa8bf683c32","bdp_lott","Wed Mar 29 2023 13:47:14 GMT-0400 (Eastern Daylight Time)","361108","red","green","","1724","","","","choice","","img/green_ll/choose11.jpg","2","224","red","0.5","0.5","0.5","w","",""
"animation","7","54116","0.0-5.0-2.1","6150e9017c1b2aa8bf683c32","bdp_lott","Wed Mar 29 2023 13:47:14 GMT-0400 (Eastern Daylight Time)","361108","red","green","","","","","","","","","","224","","","","","","[{""stimulus"":""img/red_lw/1.jpg"",""time"":53},{""stimulus"":""img/red_lw/2.jpg"",""time"":101},{""stimulus"":""img/red_lw/3.jpg"",""time"":151},{""stimulus"":""img/red_lw/4.jpg"",""time"":202},{""stimulus"":""img/red_lw/5.jpg"",""time"":251},{""stimulus"":""img/red_lw/6.jpg"",""time"":302},{""stimulus"":""img/red_lw/7.jpg"",""time"":352},{""stimulus"":""img/red_lw/8.jpg"",""time"":401},{""stimulus"":""img/red_lw/9.jpg"",""time"":451},{""stimulus"":""img/red_lw/10.jpg"",""time"":502},{""stimulus"":""img/red_lw/11.jpg"",""time"":551}]","[]"
"image-keyboard-response","8","55989","0.0-5.0-1.2","6150e9017c1b2aa8bf683c32","bdp_lott","Wed Mar 29 2023 13:47:14 GMT-0400 (Eastern Daylight Time)","361108","red","green","","1872","","","","choice","","img/red_lw/choose11.jpg","2","223","red","0.5","0.5","0.5","w","",""
"animation","9","56591","0.0-5.0-2.2","6150e9017c1b2aa8bf683c32","bdp_lott","Wed Mar 29 2023 13:47:14 GMT-0400 (Eastern Daylight Time)","361108","red","green","","","","","","","","","","223","","","","","","[{""stimulus"":""img/red_lw/1.jpg"",""time"":52},{""stimulus"":""img/red_lw/2.jpg"",""time"":101},{""stimulus"":""img/red_lw/3.jpg"",""time"":151},{""stimulus"":""img/red_lw/4.jpg"",""time"":201},{""stimulus"":""img/red_lw/5.jpg"",""time"":252},{""stimulus"":""img/red_lw/6.jpg"",""time"":302},{""stimulus"":""img/red_lw/7.jpg"",""time"":351},{""stimulus"":""img/red_lw/8.jpg"",""time"":401},{""stimulus"":""img/red_lw/9.jpg"",""time"":451},{""stimulus"":""img/red_lw/10.jpg"",""time"":502},{""stimulus"":""img/red_lw/11.jpg"",""time"":551}]","[]"
"image-keyboard-response","10","57881","0.0-5.0-1.3","6150e9017c1b2aa8bf683c32","bdp_lott","Wed Mar 29 2023 13:47:14 GMT-0400 (Eastern Daylight Time)","361108","red","green","","1287","","","","choice","","img/red_lw/choose11.jpg","2","222","red","0.5","0.5","0.5","w","",""
"animation","11","58483","0.0-5.0-2.3","6150e9017c1b2aa8bf683c32","bdp_lott","Wed Mar 29 2023 13:47:14 GMT-0400 (Eastern Daylight Time)","361108","red","green","","","","","","","","","","222","","","","","","[{""stimulus"":""img/red_lw/1.jpg"",""time"":51},{""stimulus"":""img/red_lw/2.jpg"",""time"":100},{""stimulus"":""img/red_lw/3.jpg"",""time"":150},{""stimulus"":""img/red_lw/4.jpg"",""time"":200},{""stimulus"":""img/red_lw/5.jpg"",""time"":250},{""stimulus"":""img/red_lw/6.jpg"",""time"":300},{""stimulus"":""img/red_lw/7.jpg"",""time"":350},{""stimulus"":""img/red_lw/8.jpg"",""time"":400},{""stimulus"":""img/red_lw/9.jpg"",""time"":451},{""stimulus"":""img/red_lw/10.jpg"",""time"":500},{""stimulus"":""img/red_lw/11.jpg"",""time"":550}]","[]"
"image-keyboard-response","12","59442","0.0-5.0-1.4","6150e9017c1b2aa8bf683c32","bdp_lott","Wed Mar 29 2023 13:47:14 GMT-0400 (Eastern Daylight Time)","361108","red","green","","958","","","","choice","","img/red_lw/choose11.jpg","2","221","red","0.5","0.5","0.5","w","",""
"animation","13","60044","0.0-5.0-2.4","6150e9017c1b2aa8bf683c32","bdp_lott","Wed Mar 29 2023 13:47:14 GMT-0400 (Eastern Daylight Time)","361108","red","green","","","","","","","","","","221","","","","","","[{""stimulus"":""img/red_lw/1.jpg"",""time"":52},{""stimulus"":""img/red_lw/2.jpg"",""time"":102},{""stimulus"":""img/red_lw/3.jpg"",""time"":151},{""stimulus"":""img/red_lw/4.jpg"",""time"":202},{""stimulus"":""img/red_lw/5.jpg"",""time"":259},{""stimulus"":""img/red_lw/6.jpg"",""time"":302},{""stimulus"":""img/red_lw/7.jpg"",""time"":352},{""stimulus"":""img/red_lw/8.jpg"",""time"":401},{""stimulus"":""img/red_lw/9.jpg"",""time"":452},{""stimulus"":""img/red_lw/10.jpg"",""time"":501},{""stimulus"":""img/red_lw/11.jpg"",""time"":552}]","[]"
"image-keyboard-response","14","60828","0.0-5.0-1.5","6150e9017c1b2aa8bf683c32","bdp_lott","Wed Mar 29 2023 13:47:14 GMT-0400 (Eastern Daylight Time)","361108","red","green","","781","","","","choice","","img/red_lw/choose11.jpg","2","220","red","0.5","0.5","0.5","w","",""
"animation","15","61430","0.0-5.0-2.5","6150e9017c1b2aa8bf683c32","bdp_lott","Wed Mar 29 2023 13:47:14 GMT-0400 (Eastern Daylight Time)","361108","red","green","","","","","","","","","","220","","","","","","[{""stimulus"":""img/red_lw/1.jpg"",""time"":53},{""stimulus"":""img/red_lw/2.jpg"",""time"":102},{""stimulus"":""img/red_lw/3.jpg"",""time"":152},{""stimulus"":""img/red_lw/4.jpg"",""time"":202},{""stimulus"":""img/red_lw/5.jpg"",""time"":251},{""stimulus"":""img/red_lw/6.jpg"",""time"":301},{""stimulus"":""img/red_lw/7.jpg"",""time"":352},{""stimulus"":""img/red_lw/8.jpg"",""time"":403},{""stimulus"":""img/red_lw/9.jpg"",""time"":452},{""stimulus"":""img/red_lw/10.jpg"",""time"":502},{""stimulus"":""img/red_lw/11.jpg"",""time"":552}]","[]"
"image-keyboard-response","16","62182","0.0-5.0-1.6","6150e9017c1b2aa8bf683c32","bdp_lott","Wed Mar 29 2023 13:47:14 GMT-0400 (Eastern Daylight Time)","361108","red","green","","749","","","","choice","","img/red_lw/choose11.jpg","2","219","red","0.5","0.5","0.5","l","",""
"animation","17","62784","0.0-5.0-2.6","6150e9017c1b2aa8bf683c32","bdp_lott","Wed Mar 29 2023 13:47:14 GMT-0400 (Eastern Daylight Time)","361108","red","green","","","","","","","","","","219","","","","","","[{""stimulus"":""img/red_ll/1.jpg"",""time"":51},{""stimulus"":""img/red_ll/2.jpg"",""time"":101},{""stimulus"":""img/red_ll/3.jpg"",""time"":151},{""stimulus"":""img/red_ll/4.jpg"",""time"":200},{""stimulus"":""img/red_ll/5.jpg"",""time"":252},{""stimulus"":""img/red_ll/6.jpg"",""time"":301},{""stimulus"":""img/red_ll/7.jpg"",""time"":352},{""stimulus"":""img/red_ll/8.jpg"",""time"":401},{""stimulus"":""img/red_ll/9.jpg"",""time"":451},{""stimulus"":""img/red_ll/10.jpg"",""time"":501},{""stimulus"":""img/red_ll/11.jpg"",""time"":551}]","[]"
"image-keyboard-response","18","63357","0.0-5.0-1.7","6150e9017c1b2aa8bf683c32","bdp_lott","Wed Mar 29 2023 13:47:14 GMT-0400 (Eastern Daylight Time)","361108","red","green","","571","","","","choice","","img/red_ll/choose11.jpg","1","218","green","0.5","0.5","0.5","l","",""
"animation","19","63959","0.0-5.0-2.7","6150e9017c1b2aa8bf683c32","bdp_lott","Wed Mar 29 2023 13:47:14 GMT-0400 (Eastern Daylight Time)","361108","red","green","","","","","","","","","","218","","","","","","[{""stimulus"":""img/green_ll/1.jpg"",""time"":52},{""stimulus"":""img/green_ll/2.jpg"",""time"":102},{""stimulus"":""img/green_ll/3.jpg"",""time"":151},{""stimulus"":""img/green_ll/4.jpg"",""time"":202},{""stimulus"":""img/green_ll/5.jpg"",""time"":252},{""stimulus"":""img/green_ll/6.jpg"",""time"":302},{""stimulus"":""img/green_ll/7.jpg"",""time"":351},{""stimulus"":""img/green_ll/8.jpg"",""time"":401},{""stimulus"":""img/green_ll/9.jpg"",""time"":453},{""stimulus"":""img/green_ll/10.jpg"",""time"":502},{""stimulus"":""img/green_ll/11.jpg"",""time"":552}]","[]"
"image-keyboard-response","20","65316","0.0-5.0-1.8","6150e9017c1b2aa8bf683c32","bdp_lott","Wed Mar 29 2023 13:47:14 GMT-0400 (Eastern Daylight Time)","361108","red","green","","1354","","","","choice","","img/green_ll/choose11.jpg","2","217","red","0.5","0.5","0.5","w","",""
"animation","21","65918","0.0-5.0-2.8","6150e9017c1b2aa8bf683c32","bdp_lott","Wed Mar 29 2023 13:47:14 GMT-0400 (Eastern Daylight Time)","361108","red","green","","","","","","","","","","217","","","","","","[{""stimulus"":""img/red_lw/1.jpg"",""time"":52},{""stimulus"":""img/red_lw/2.jpg"",""time"":102},{""stimulus"":""img/red_lw/3.jpg"",""time"":152},{""stimulus"":""img/red_lw/4.jpg"",""time"":202},{""stimulus"":""img/red_lw/5.jpg"",""time"":252},{""stimulus"":""img/red_lw/6.jpg"",""time"":302},{""stimulus"":""img/red_lw/7.jpg"",""time"":351},{""stimulus"":""img/red_lw/8.jpg"",""time"":401},{""stimulus"":""img/red_lw/9.jpg"",""time"":452},{""stimulus"":""img/red_lw/10.jpg"",""time"":502},{""stimulus"":""img/red_lw/11.jpg"",""time"":551}]","[]"
"image-keyboard-response","22","67512","0.0-5.0-1.9","6150e9017c1b2aa8bf683c32","bdp_lott","Wed Mar 29 2023 13:47:14 GMT-0400 (Eastern Daylight Time)","361108","red","green","","1592","","","","choice","","img/red_lw/choose11.jpg","2","216","red","0.5","0.5","0.5","w","",""
"animation","23","68114","0.0-5.0-2.9","6150e9017c1b2aa8bf683c32","bdp_lott","Wed Mar 29 2023 13:47:14 GMT-0400 (Eastern Daylight Time)","361108","red","green","","","","","","","","","","216","","","","","","[{""stimulus"":""img/red_lw/1.jpg"",""time"":53},{""stimulus"":""img/red_lw/2.jpg"",""time"":101},{""stimulus"":""img/red_lw/3.jpg"",""time"":151},{""stimulus"":""img/red_lw/4.jpg"",""time"":201},{""stimulus"":""img/red_lw/5.jpg"",""time"":251},{""stimulus"":""img/red_lw/6.jpg"",""time"":302},{""stimulus"":""img/red_lw/7.jpg"",""time"":351},{""stimulus"":""img/red_lw/8.jpg"",""time"":401},{""stimulus"":""img/red_lw/9.jpg"",""time"":451},{""stimulus"":""img/red_lw/10.jpg"",""time"":501},{""stimulus"":""img/red_lw/11.jpg"",""time"":551}]","[]"
"image-keyboard-response","24","68835","0.0-5.0-1.10","6150e9017c1b2aa8bf683c32","bdp_lott","Wed Mar 29 2023 13:47:14 GMT-0400 (Eastern Daylight Time)","361108","red","green","","718","","","","choice","","img/red_lw/choose11.jpg","2","215","red","0.5","0.5","0.5","l","",""
"animation","25","69437","0.0-5.0-2.10","6150e9017c1b2aa8bf683c32","bdp_lott","Wed Mar 29 2023 13:47:14 GMT-0400 (Eastern Daylight Time)","361108","red","green","","","","","","","","","","215","","","","","","[{""stimulus"":""img/red_ll/1.jpg"",""time"":53},{""stimulus"":""img/red_ll/2.jpg"",""time"":101},{""stimulus"":""img/red_ll/3.jpg"",""time"":153},{""stimulus"":""img/red_ll/4.jpg"",""time"":202},{""stimulus"":""img/red_ll/5.jpg"",""time"":251},{""stimulus"":""img/red_ll/6.jpg"",""time"":302},{""stimulus"":""img/red_ll/7.jpg"",""time"":352},{""stimulus"":""img/red_ll/8.jpg"",""time"":403},{""stimulus"":""img/red_ll/9.jpg"",""time"":452},{""stimulus"":""img/red_ll/10.jpg"",""time"":502},{""stimulus"":""img/red_ll/11.jpg"",""time"":552}]","[]"
"image-keyboard-response","26","70823","0.0-5.0-1.11","6150e9017c1b2aa8bf683c32","bdp_lott","Wed Mar 29 2023 13:47:14 GMT-0400 (Eastern Daylight Time)","361108","red","green","","1384","","","","choice","","img/red_ll/choose11.jpg","1","214","green","0.5","0.5","0.5","w","",""
"animation","27","71425","0.0-5.0-2.11","6150e9017c1b2aa8bf683c32","bdp_lott","Wed Mar 29 2023 13:47:14 GMT-0400 (Eastern Daylight Time)","361108","red","green","","","","","","","","","","214","","","","","","[{""stimulus"":""img/green_wl/1.jpg"",""time"":52},{""stimulus"":""img/green_wl/2.jpg"",""time"":101},{""stimulus"":""img/green_wl/3.jpg"",""time"":151},{""stimulus"":""img/green_wl/4.jpg"",""time"":201},{""stimulus"":""img/green_wl/5.jpg"",""time"":252},{""stimulus"":""img/green_wl/6.jpg"",""time"":301},{""stimulus"":""img/green_wl/7.jpg"",""time"":352},{""stimulus"":""img/green_wl/8.jpg"",""time"":401},{""stimulus"":""img/green_wl/9.jpg"",""time"":451},{""stimulus"":""img/green_wl/10.jpg"",""time"":502},{""stimulus"":""img/green_wl/11.jpg"",""time"":551}]","[]"
"image-keyboard-response","28","72240","0.0-5.0-1.12","6150e9017c1b2aa8bf683c32","bdp_lott","Wed Mar 29 2023 13:47:14 GMT-0400 (Eastern Daylight Time)","361108","red","green","","812","","","","choice","","img/green_wl/choose11.jpg","1","213","green","0.5","0.5","0.5","w","",""
"animation","29","72842","0.0-5.0-2.12","6150e9017c1b2aa8bf683c32","bdp_lott","Wed Mar 29 2023 13:47:14 GMT-0400 (Eastern Daylight Time)","361108","red","green","","","","","","","","","","213","","","","","","[{""stimulus"":""img/green_wl/1.jpg"",""time"":52},{""stimulus"":""img/green_wl/2.jpg"",""time"":102},{""stimulus"":""img/green_wl/3.jpg"",""time"":152},{""stimulus"":""img/green_wl/4.jpg"",""time"":203},{""stimulus"":""img/green_wl/5.jpg"",""time"":252},{""stimulus"":""img/green_wl/6.jpg"",""time"":303},{""stimulus"":""img/green_wl/7.jpg"",""time"":352},{""stimulus"":""img/green_wl/8.jpg"",""time"":402},{""stimulus"":""img/green_wl/9.jpg"",""time"":452},{""stimulus"":""img/green_wl/10.jpg"",""time"":502},{""stimulus"":""img/green_wl/11.jpg"",""time"":552}]","[]"
"image-keyboard-response","30","73400","0.0-5.0-1.13","6150e9017c1b2aa8bf683c32","bdp_lott","Wed Mar 29 2023 13:47:14 GMT-0400 (Eastern Daylight Time)","361108","red","green","","556","","","","choice","","img/green_wl/choose11.jpg","1","212","green","0.5","0.5","0.5","w","",""
"animation","31","74003","0.0-5.0-2.13","6150e9017c1b2aa8bf683c32","bdp_lott","Wed Mar 29 2023 13:47:14 GMT-0400 (Eastern Daylight Time)","361108","red","green","","","","","","","","","","212","","","","","","[{""stimulus"":""img/green_wl/1.jpg"",""time"":53},{""stimulus"":""img/green_wl/2.jpg"",""time"":102},{""stimulus"":""img/green_wl/3.jpg"",""time"":151},{""stimulus"":""img/green_wl/4.jpg"",""time"":202},{""stimulus"":""img/green_wl/5.jpg"",""time"":251},{""stimulus"":""img/green_wl/6.jpg"",""time"":302},{""stimulus"":""img/green_wl/7.jpg"",""time"":352},{""stimulus"":""img/green_wl/8.jpg"",""time"":402},{""stimulus"":""img/green_wl/9.jpg"",""time"":453},{""stimulus"":""img/green_wl/10.jpg"",""time"":502},{""stimulus"":""img/green_wl/11.jpg"",""time"":551}]","[]"
"image-keyboard-response","32","74620","0.0-5.0-1.14","6150e9017c1b2aa8bf683c32","bdp_lott","Wed Mar 29 2023 13:47:14 GMT-0400 (Eastern Daylight Time)","361108","red","green","","614","","","","choice","","img/green_wl/choose11.jpg","1","211","green","0.5","0.5","0.5","l","",""
"animation","33","75222","0.0-5.0-2.14","6150e9017c1b2aa8bf683c32","bdp_lott","Wed Mar 29 2023 13:47:14 GMT-0400 (Eastern Daylight Time)","361108","red","green","","","","","","","","","","211","","","","","","[{""stimulus"":""img/green_ll/1.jpg"",""time"":53},{""stimulus"":""img/green_ll/2.jpg"",""time"":102},{""stimulus"":""img/green_ll/3.jpg"",""time"":152},{""stimulus"":""img/green_ll/4.jpg"",""time"":202},{""stimulus"":""img/green_ll/5.jpg"",""time"":251},{""stimulus"":""img/green_ll/6.jpg"",""time"":302},{""stimulus"":""img/green_ll/7.jpg"",""time"":352},{""stimulus"":""img/green_ll/8.jpg"",""time"":402},{""stimulus"":""img/green_ll/9.jpg"",""time"":453},{""stimulus"":""img/green_ll/10.jpg"",""time"":502},{""stimulus"":""img/green_ll/11.jpg"",""time"":552}]","[]"
"image-keyboard-response","34","77391","0.0-5.0-1.15","6150e9017c1b2aa8bf683c32","bdp_lott","Wed Mar 29 2023 13:47:14 GMT-0400 (Eastern Daylight Time)","361108","red","green","","2166","","","","choice","","img/green_ll/choose11.jpg","1","210","green","0.5","0.5","0.5","l","",""
"animation","35","77992","0.0-5.0-2.15","6150e9017c1b2aa8bf683c32","bdp_lott","Wed Mar 29 2023 13:47:14 GMT-0400 (Eastern Daylight Time)","361108","red","green","","","","","","","","","","210","","","","","","[{""stimulus"":""img/green_ll/1.jpg"",""time"":53},{""stimulus"":""img/green_ll/2.jpg"",""time"":103},{""stimulus"":""img/green_ll/3.jpg"",""time"":151},{""stimulus"":""img/green_ll/4.jpg"",""time"":201},{""stimulus"":""img/green_ll/5.jpg"",""time"":251},{""stimulus"":""img/green_ll/6.jpg"",""time"":302},{""stimulus"":""img/green_ll/7.jpg"",""time"":351},{""stimulus"":""img/green_ll/8.jpg"",""time"":402},{""stimulus"":""img/green_ll/9.jpg"",""time"":451},{""stimulus"":""img/green_ll/10.jpg"",""time"":503},{""stimulus"":""img/green_ll/11.jpg"",""time"":551}]","[]"
"image-keyboard-response","36","78675","0.0-5.0-1.16","6150e9017c1b2aa8bf683c32","bdp_lott","Wed Mar 29 2023 13:47:14 GMT-0400 (Eastern Daylight Time)","361108","red","green","","680","","","","choice","","img/green_ll/choose11.jpg","2","209","red","0.5","0.5","0.5","l","",""
"animation","37","79277","0.0-5.0-2.16","6150e9017c1b2aa8bf683c32","bdp_lott","Wed Mar 29 2023 13:47:14 GMT-0400 (Eastern Daylight Time)","361108","red","green","","","","","","","","","","209","","","","","","[{""stimulus"":""img/red_ll/1.jpg"",""time"":52},{""stimulus"":""img/red_ll/2.jpg"",""time"":102},{""stimulus"":""img/red_ll/3.jpg"",""time"":152},{""stimulus"":""img/red_ll/4.jpg"",""time"":201},{""stimulus"":""img/red_ll/5.jpg"",""time"":251},{""stimulus"":""img/red_ll/6.jpg"",""time"":303},{""stimulus"":""img/red_ll/7.jpg"",""time"":352},{""stimulus"":""img/red_ll/8.jpg"",""time"":402},{""stimulus"":""img/red_ll/9.jpg"",""time"":452},{""stimulus"":""img/red_ll/10.jpg"",""time"":502},{""stimulus"":""img/red_ll/11.jpg"",""time"":552}]","[]"
"image-keyboard-response","38","79924","0.0-5.0-1.17","6150e9017c1b2aa8bf683c32","bdp_lott","Wed Mar 29 2023 13:47:14 GMT-0400 (Eastern Daylight Time)","361108","red","green","","645","","","","choice","","img/red_ll/choose11.jpg","1","208","green","0.5","0.5","0.5","w","",""
"animation","39","80526","0.0-5.0-2.17","6150e9017c1b2aa8bf683c32","bdp_lott","Wed Mar 29 2023 13:47:14 GMT-0400 (Eastern Daylight Time)","361108","red","green","","","","","","","","","","208","","","","","","[{""stimulus"":""img/green_wl/1.jpg"",""time"":53},{""stimulus"":""img/green_wl/2.jpg"",""time"":102},{""stimulus"":""img/green_wl/3.jpg"",""time"":152},{""stimulus"":""img/green_wl/4.jpg"",""time"":201},{""stimulus"":""img/green_wl/5.jpg"",""time"":252},{""stimulus"":""img/green_wl/6.jpg"",""time"":302},{""stimulus"":""img/green_wl/7.jpg"",""time"":353},{""stimulus"":""img/green_wl/8.jpg"",""time"":402},{""stimulus"":""img/green_wl/9.jpg"",""time"":451},{""stimulus"":""img/green_wl/10.jpg"",""time"":502},{""stimulus"":""img/green_wl/11.jpg"",""time"":551}]","[]"
"image-keyboard-response","40","81287","0.0-5.0-1.18","6150e9017c1b2aa8bf683c32","bdp_lott","Wed Mar 29 2023 13:47:14 GMT-0400 (Eastern Daylight Time)","361108","red","green","","759","","","","choice","","img/green_wl/choose11.jpg","1","207","green","0.5","0.5","0.5","w","",""
"animation","41","81889","0.0-5.0-2.18","6150e9017c1b2aa8bf683c32","bdp_lott","Wed Mar 29 2023 13:47:14 GMT-0400 (Eastern Daylight Time)","361108","red","green","","","","","","","","","","207","","","","","","[{""stimulus"":""img/green_wl/1.jpg"",""time"":53},{""stimulus"":""img/green_wl/2.jpg"",""time"":102},{""stimulus"":""img/green_wl/3.jpg"",""time"":153},{""stimulus"":""img/green_wl/4.jpg"",""time"":202},{""stimulus"":""img/green_wl/5.jpg"",""time"":252},{""stimulus"":""img/green_wl/6.jpg"",""time"":303},{""stimulus"":""img/green_wl/7.jpg"",""time"":352},{""stimulus"":""img/green_wl/8.jpg"",""time"":402},{""stimulus"":""img/green_wl/9.jpg"",""time"":452},{""stimulus"":""img/green_wl/10.jpg"",""time"":502},{""stimulus"":""img/green_wl/11.jpg"",""time"":552}]","[]"
"image-keyboard-response","42","82476","0.0-5.0-1.19","6150e9017c1b2aa8bf683c32","bdp_lott","Wed Mar 29 2023 13:47:14 GMT-0400 (Eastern Daylight Time)","361108","red","green","","585","","","","choice","","img/green_wl/choose11.jpg","1","206","green","0.5","0.5","0.5","w","",""
"animation","43","83078","0.0-5.0-2.19","6150e9017c1b2aa8bf683c32","bdp_lott","Wed Mar 29 2023 13:47:14 GMT-0400 (Eastern Daylight Time)","361108","red","green","","","","","","","","","","206","","","","","","[{""stimulus"":""img/green_wl/1.jpg"",""time"":52},{""stimulus"":""img/green_wl/2.jpg"",""time"":101},{""stimulus"":""img/green_wl/3.jpg"",""time"":151},{""stimulus"":""img/green_wl/4.jpg"",""time"":201},{""stimulus"":""img/green_wl/5.jpg"",""time"":251},{""stimulus"":""img/green_wl/6.jpg"",""time"":301},{""stimulus"":""img/green_wl/7.jpg"",""time"":351},{""stimulus"":""img/green_wl/8.jpg"",""time"":402},{""stimulus"":""img/green_wl/9.jpg"",""time"":452},{""stimulus"":""img/green_wl/10.jpg"",""time"":501},{""stimulus"":""img/green_wl/11.jpg"",""time"":552}]","[]"
"image-keyboard-response","44","83682","0.0-5.0-1.20","6150e9017c1b2aa8bf683c32","bdp_lott","Wed Mar 29 2023 13:47:14 GMT-0400 (Eastern Daylight Time)","361108","red","green","","601","","","","choice","","img/green_wl/choose11.jpg","1","205","green","0.5","0.5","0.5","w","",""
"animation","45","84285","0.0-5.0-2.20","6150e9017c1b2aa8bf683c32","bdp_lott","Wed Mar 29 2023 13:47:14 GMT-0400 (Eastern Daylight Time)","361108","red","green","","","","","","","","","","205","","","","","","[{""stimulus"":""img/green_wl/1.jpg"",""time"":53},{""stimulus"":""img/green_wl/2.jpg"",""time"":101},{""stimulus"":""img/green_wl/3.jpg"",""time"":152},{""stimulus"":""img/green_wl/4.jpg"",""time"":203},{""stimulus"":""img/green_wl/5.jpg"",""time"":253},{""stimulus"":""img/green_wl/6.jpg"",""time"":302},{""stimulus"":""img/green_wl/7.jpg"",""time"":351},{""stimulus"":""img/green_wl/8.jpg"",""time"":402},{""stimulus"":""img/green_wl/9.jpg"",""time"":452},{""stimulus"":""img/green_wl/10.jpg"",""time"":501},{""stimulus"":""img/green_wl/11.jpg"",""time"":552}]","[]"
"image-keyboard-response","46","84804","0.0-5.0-1.21","6150e9017c1b2aa8bf683c32","bdp_lott","Wed Mar 29 2023 13:47:14 GMT-0400 (Eastern Daylight Time)","361108","red","green","","515","","","","choice","","img/green_wl/choose11.jpg","1","204","green","0.5","0.5","0.5","w","",""
"animation","47","85405","0.0-5.0-2.21","6150e9017c1b2aa8bf683c32","bdp_lott","Wed Mar 29 2023 13:47:14 GMT-0400 (Eastern Daylight Time)","361108","red","green","","","","","","","","","","204","","","","","","[{""stimulus"":""img/green_wl/1.jpg"",""time"":55},{""stimulus"":""img/green_wl/2.jpg"",""time"":101},{""stimulus"":""img/green_wl/3.jpg"",""time"":152},{""stimulus"":""img/green_wl/4.jpg"",""time"":201},{""stimulus"":""img/green_wl/5.jpg"",""time"":252},{""stimulus"":""img/green_wl/6.jpg"",""time"":302},{""stimulus"":""img/green_wl/7.jpg"",""time"":352},{""stimulus"":""img/green_wl/8.jpg"",""time"":402},{""stimulus"":""img/green_wl/9.jpg"",""time"":451},{""stimulus"":""img/green_wl/10.jpg"",""time"":503},{""stimulus"":""img/green_wl/11.jpg"",""time"":552}]","[]"
"image-keyboard-response","48","86035","0.0-5.0-1.22","6150e9017c1b2aa8bf683c32","bdp_lott","Wed Mar 29 2023 13:47:14 GMT-0400 (Eastern Daylight Time)","361108","red","green","","628","","","","choice","","img/green_wl/choose11.jpg","1","203","green","0.5","0.5","0.5","w","",""
"animation","49","86637","0.0-5.0-2.22","6150e9017c1b2aa8bf683c32","bdp_lott","Wed Mar 29 2023 13:47:14 GMT-0400 (Eastern Daylight Time)","361108","red","green","","","","","","","","","","203","","","","","","[{""stimulus"":""img/green_wl/1.jpg"",""time"":60},{""stimulus"":""img/green_wl/2.jpg"",""time"":101},{""stimulus"":""img/green_wl/3.jpg"",""time"":151},{""stimulus"":""img/green_wl/4.jpg"",""time"":202},{""stimulus"":""img/green_wl/5.jpg"",""time"":252},{""stimulus"":""img/green_wl/6.jpg"",""time"":301},{""stimulus"":""img/green_wl/7.jpg"",""time"":352},{""stimulus"":""img/green_wl/8.jpg"",""time"":401},{""stimulus"":""img/green_wl/9.jpg"",""time"":451},{""stimulus"":""img/green_wl/10.jpg"",""time"":501},{""stimulus"":""img/green_wl/11.jpg"",""time"":551}]","[]"
"image-keyboard-response","50","87282","0.0-5.0-1.23","6150e9017c1b2aa8bf683c32","bdp_lott","Wed Mar 29 2023 13:47:14 GMT-0400 (Eastern Daylight Time)","361108","red","green","","643","","","","choice","","img/green_wl/choose11.jpg","1","202","green","0.5","0.5","0.5","w","",""
"animation","51","87884","0.0-5.0-2.23","6150e9017c1b2aa8bf683c32","bdp_lott","Wed Mar 29 2023 13:47:14 GMT-0400 (Eastern Daylight Time)","361108","red","green","","","","","","","","","","202","","","","","","[{""stimulus"":""img/green_wl/1.jpg"",""time"":53},{""stimulus"":""img/green_wl/2.jpg"",""time"":103},{""stimulus"":""img/green_wl/3.jpg"",""time"":152},{""stimulus"":""img/green_wl/4.jpg"",""time"":202},{""stimulus"":""img/green_wl/5.jpg"",""time"":251},{""stimulus"":""img/green_wl/6.jpg"",""time"":302},{""stimulus"":""img/green_wl/7.jpg"",""time"":351},{""stimulus"":""img/green_wl/8.jpg"",""time"":401},{""stimulus"":""img/green_wl/9.jpg"",""time"":451},{""stimulus"":""img/green_wl/10.jpg"",""time"":501},{""stimulus"":""img/green_wl/11.jpg"",""time"":551}]","[]"
"image-keyboard-response","52","88383","0.0-5.0-1.24","6150e9017c1b2aa8bf683c32","bdp_lott","Wed Mar 29 2023 13:47:14 GMT-0400 (Eastern Daylight Time)","361108","red","green","","497","","","","choice","","img/green_wl/choose11.jpg","1","201","green","0.5","0.5","0.5","w","",""
"animation","53","88985","0.0-5.0-2.24","6150e9017c1b2aa8bf683c32","bdp_lott","Wed Mar 29 2023 13:47:14 GMT-0400 (Eastern Daylight Time)","361108","red","green","","","","","","","","","","201","","","","","","[{""stimulus"":""img/green_wl/1.jpg"",""time"":52},{""stimulus"":""img/green_wl/2.jpg"",""time"":102},{""stimulus"":""img/green_wl/3.jpg"",""time"":152},{""stimulus"":""img/green_wl/4.jpg"",""time"":202},{""stimulus"":""img/green_wl/5.jpg"",""time"":252},{""stimulus"":""img/green_wl/6.jpg"",""time"":302},{""stimulus"":""img/green_wl/7.jpg"",""time"":351},{""stimulus"":""img/green_wl/8.jpg"",""time"":402},{""stimulus"":""img/green_wl/9.jpg"",""time"":452},{""stimulus"":""img/green_wl/10.jpg"",""time"":514},{""stimulus"":""img/green_wl/11.jpg"",""time"":552}]","[]"
"image-keyboard-response","54","89485","0.0-5.0-1.25","6150e9017c1b2aa8bf683c32","bdp_lott","Wed Mar 29 2023 13:47:14 GMT-0400 (Eastern Daylight Time)","361108","red","green","","498","","","","choice","","img/green_wl/choose11.jpg","1","200","green","0.5","0.5","0.5","w","",""
"animation","55","90087","0.0-5.0-2.25","6150e9017c1b2aa8bf683c32","bdp_lott","Wed Mar 29 2023 13:47:14 GMT-0400 (Eastern Daylight Time)","361108","red","green","","","","","","","","","","200","","","","","","[{""stimulus"":""img/green_wl/1.jpg"",""time"":52},{""stimulus"":""img/green_wl/2.jpg"",""time"":101},{""stimulus"":""img/green_wl/3.jpg"",""time"":152},{""stimulus"":""img/green_wl/4.jpg"",""time"":202},{""stimulus"":""img/green_wl/5.jpg"",""time"":252},{""stimulus"":""img/green_wl/6.jpg"",""time"":302},{""stimulus"":""img/green_wl/7.jpg"",""time"":352},{""stimulus"":""img/green_wl/8.jpg"",""time"":403},{""stimulus"":""img/green_wl/9.jpg"",""time"":452},{""stimulus"":""img/green_wl/10.jpg"",""time"":502},{""stimulus"":""img/green_wl/11.jpg"",""time"":552}]","[]"
"image-keyboard-response","56","90556","0.0-5.0-1.26","6150e9017c1b2aa8bf683c32","bdp_lott","Wed Mar 29 2023 13:47:14 GMT-0400 (Eastern Daylight Time)","361108","red","green","","466","","","","choice","","img/green_wl/choose11.jpg","1","199","green","0.5","0.5","0.5","l","",""
"animation","57","91158","0.0-5.0-2.26","6150e9017c1b2aa8bf683c32","bdp_lott","Wed Mar 29 2023 13:47:14 GMT-0400 (Eastern Daylight Time)","361108","red","green","","","","","","","","","","199","","","","","","[{""stimulus"":""img/green_ll/1.jpg"",""time"":53},{""stimulus"":""img/green_ll/2.jpg"",""time"":101},{""stimulus"":""img/green_ll/3.jpg"",""time"":152},{""stimulus"":""img/green_ll/4.jpg"",""time"":203},{""stimulus"":""img/green_ll/5.jpg"",""time"":252},{""stimulus"":""img/green_ll/6.jpg"",""time"":302},{""stimulus"":""img/green_ll/7.jpg"",""time"":352},{""stimulus"":""img/green_ll/8.jpg"",""time"":402},{""stimulus"":""img/green_ll/9.jpg"",""time"":452},{""stimulus"":""img/green_ll/10.jpg"",""time"":502},{""stimulus"":""img/green_ll/11.jpg"",""time"":552}]","[]"
"image-keyboard-response","58","91938","0.0-5.0-1.27","6150e9017c1b2aa8bf683c32","bdp_lott","Wed Mar 29 2023 13:47:14 GMT-0400 (Eastern Daylight Time)","361108","red","green","","778","","","","choice","","img/green_ll/choose11.jpg","2","198","red","0.5","0.5","0.5","l","",""
"animation","59","92539","0.0-5.0-2.27","6150e9017c1b2aa8bf683c32","bdp_lott","Wed Mar 29 2023 13:47:14 GMT-0400 (Eastern Daylight Time)","361108","red","green","","","","","","","","","","198","","","","","","[{""stimulus"":""img/red_ll/1.jpg"",""time"":52},{""stimulus"":""img/red_ll/2.jpg"",""time"":102},{""stimulus"":""img/red_ll/3.jpg"",""time"":152},{""stimulus"":""img/red_ll/4.jpg"",""time"":202},{""stimulus"":""img/red_ll/5.jpg"",""time"":252},{""stimulus"":""img/red_ll/6.jpg"",""time"":302},{""stimulus"":""img/red_ll/7.jpg"",""time"":352},{""stimulus"":""img/red_ll/8.jpg"",""time"":402},{""stimulus"":""img/red_ll/9.jpg"",""time"":452},{""stimulus"":""img/red_ll/10.jpg"",""time"":501},{""stimulus"":""img/red_ll/11.jpg"",""time"":552}]","[]"
"image-keyboard-response","60","93306","0.0-5.0-1.28","6150e9017c1b2aa8bf683c32","bdp_lott","Wed Mar 29 2023 13:47:14 GMT-0400 (Eastern Daylight Time)","361108","red","green","","764","","","","choice","","img/red_ll/choose11.jpg","2","197","red","0.5","0.5","0.5","w","",""
"animation","61","93907","0.0-5.0-2.28","6150e9017c1b2aa8bf683c32","bdp_lott","Wed Mar 29 2023 13:47:14 GMT-0400 (Eastern Daylight Time)","361108","red","green","","","","","","","","","","197","","","","","","[{""stimulus"":""img/red_lw/1.jpg"",""time"":60},{""stimulus"":""img/red_lw/2.jpg"",""time"":101},{""stimulus"":""img/red_lw/3.jpg"",""time"":152},{""stimulus"":""img/red_lw/4.jpg"",""time"":202},{""stimulus"":""img/red_lw/5.jpg"",""time"":251},{""stimulus"":""img/red_lw/6.jpg"",""time"":302},{""stimulus"":""img/red_lw/7.jpg"",""time"":352},{""stimulus"":""img/red_lw/8.jpg"",""time"":401},{""stimulus"":""img/red_lw/9.jpg"",""time"":452},{""stimulus"":""img/red_lw/10.jpg"",""time"":502},{""stimulus"":""img/red_lw/11.jpg"",""time"":552}]","[]"
"image-keyboard-response","62","94693","0.0-5.0-1.29","6150e9017c1b2aa8bf683c32","bdp_lott","Wed Mar 29 2023 13:47:14 GMT-0400 (Eastern Daylight Time)","361108","red","green","","784","","","","choice","","img/red_lw/choose11.jpg","2","196","red","0.5","0.5","0.5","l","",""
"animation","63","95295","0.0-5.0-2.29","6150e9017c1b2aa8bf683c32","bdp_lott","Wed Mar 29 2023 13:47:14 GMT-0400 (Eastern Daylight Time)","361108","red","green","","","","","","","","","","196","","","","","","[{""stimulus"":""img/red_ll/1.jpg"",""time"":52},{""stimulus"":""img/red_ll/2.jpg"",""time"":103},{""stimulus"":""img/red_ll/3.jpg"",""time"":152},{""stimulus"":""img/red_ll/4.jpg"",""time"":202},{""stimulus"":""img/red_ll/5.jpg"",""time"":252},{""stimulus"":""img/red_ll/6.jpg"",""time"":302},{""stimulus"":""img/red_ll/7.jpg"",""time"":352},{""stimulus"":""img/red_ll/8.jpg"",""time"":402},{""stimulus"":""img/red_ll/9.jpg"",""time"":452},{""stimulus"":""img/red_ll/10.jpg"",""time"":501},{""stimulus"":""img/red_ll/11.jpg"",""time"":552}]","[]"
"image-keyboard-response","64","95932","0.0-5.0-1.30","6150e9017c1b2aa8bf683c32","bdp_lott","Wed Mar 29 2023 13:47:14 GMT-0400 (Eastern Daylight Time)","361108","red","green","","634","","","","choice","","img/red_ll/choose11.jpg","2","195","red","0.5","0.5","0.5","w","",""
"animation","65","96535","0.0-5.0-2.30","6150e9017c1b2aa8bf683c32","bdp_lott","Wed Mar 29 2023 13:47:14 GMT-0400 (Eastern Daylight Time)","361108","red","green","","","","","","","","","","195","","","","","","[{""stimulus"":""img/red_lw/1.jpg"",""time"":65},{""stimulus"":""img/red_lw/2.jpg"",""time"":111},{""stimulus"":""img/red_lw/3.jpg"",""time"":151},{""stimulus"":""img/red_lw/4.jpg"",""time"":201},{""stimulus"":""img/red_lw/5.jpg"",""time"":251},{""stimulus"":""img/red_lw/6.jpg"",""time"":301},{""stimulus"":""img/red_lw/7.jpg"",""time"":351},{""stimulus"":""img/red_lw/8.jpg"",""time"":401},{""stimulus"":""img/red_lw/9.jpg"",""time"":451},{""stimulus"":""img/red_lw/10.jpg"",""time"":500},{""stimulus"":""img/red_lw/11.jpg"",""time"":551}]","[]"
"image-keyboard-response","66","96923","0.0-5.0-1.31","6150e9017c1b2aa8bf683c32","bdp_lott","Wed Mar 29 2023 13:47:14 GMT-0400 (Eastern Daylight Time)","361108","red","green","","385","","","","choice","","img/red_lw/choose11.jpg","1","194","green","0.5","0.5","0.5","l","",""
"animation","67","97524","0.0-5.0-2.31","6150e9017c1b2aa8bf683c32","bdp_lott","Wed Mar 29 2023 13:47:14 GMT-0400 (Eastern Daylight Time)","361108","red","green","","","","","","","","","","194","","","","","","[{""stimulus"":""img/green_lw/1.jpg"",""time"":54},{""stimulus"":""img/green_lw/2.jpg"",""time"":101},{""stimulus"":""img/green_lw/3.jpg"",""time"":152},{""stimulus"":""img/green_lw/4.jpg"",""time"":202},{""stimulus"":""img/green_lw/5.jpg"",""time"":252},{""stimulus"":""img/green_lw/6.jpg"",""time"":302},{""stimulus"":""img/green_lw/7.jpg"",""time"":352},{""stimulus"":""img/green_lw/8.jpg"",""time"":402},{""stimulus"":""img/green_lw/9.jpg"",""time"":451},{""stimulus"":""img/green_lw/10.jpg"",""time"":501},{""stimulus"":""img/green_lw/11.jpg"",""time"":552}]","[]"
"image-keyboard-response","68","98460","0.0-5.0-1.32","6150e9017c1b2aa8bf683c32","bdp_lott","Wed Mar 29 2023 13:47:14 GMT-0400 (Eastern Daylight Time)","361108","red","green","","934","","","","choice","","img/green_lw/choose11.jpg","2","193","red","0.5","0.5","0.5","l","",""
"animation","69","99062","0.0-5.0-2.32","6150e9017c1b2aa8bf683c32","bdp_lott","Wed Mar 29 2023 13:47:14 GMT-0400 (Eastern Daylight Time)","361108","red","green","","","","","","","","","","193","","","","","","[{""stimulus"":""img/red_ll/1.jpg"",""time"":52},{""stimulus"":""img/red_ll/2.jpg"",""time"":102},{""stimulus"":""img/red_ll/3.jpg"",""time"":152},{""stimulus"":""img/red_ll/4.jpg"",""time"":202},{""stimulus"":""img/red_ll/5.jpg"",""time"":252},{""stimulus"":""img/red_ll/6.jpg"",""time"":301},{""stimulus"":""img/red_ll/7.jpg"",""time"":352},{""stimulus"":""img/red_ll/8.jpg"",""time"":401},{""stimulus"":""img/red_ll/9.jpg"",""time"":451},{""stimulus"":""img/red_ll/10.jpg"",""time"":501},{""stimulus"":""img/red_ll/11.jpg"",""time"":551}]","[]"
"image-keyboard-response","70","99765","0.0-5.0-1.33","6150e9017c1b2aa8bf683c32","bdp_lott","Wed Mar 29 2023 13:47:14 GMT-0400 (Eastern Daylight Time)","361108","red","green","","701","","","","choice","","img/red_ll/choose11.jpg","1","192","green","0.5","0.5","0.5","l","",""
"animation","71","100367","0.0-5.0-2.33","6150e9017c1b2aa8bf683c32","bdp_lott","Wed Mar 29 2023 13:47:14 GMT-0400 (Eastern Daylight Time)","361108","red","green","","","","","","","","","","192","","","","","","[{""stimulus"":""img/green_ll/1.jpg"",""time"":52},{""stimulus"":""img/green_ll/2.jpg"",""time"":102},{""stimulus"":""img/green_ll/3.jpg"",""time"":152},{""stimulus"":""img/green_ll/4.jpg"",""time"":202},{""stimulus"":""img/green_ll/5.jpg"",""time"":251},{""stimulus"":""img/green_ll/6.jpg"",""time"":301},{""stimulus"":""img/green_ll/7.jpg"",""time"":352},{""stimulus"":""img/green_ll/8.jpg"",""time"":402},{""stimulus"":""img/green_ll/9.jpg"",""time"":451},{""stimulus"":""img/green_ll/10.jpg"",""time"":501},{""stimulus"":""img/green_ll/11.jpg"",""time"":551}]","[]"
"image-keyboard-response","72","100914","0.0-5.0-1.34","6150e9017c1b2aa8bf683c32","bdp_lott","Wed Mar 29 2023 13:47:14 GMT-0400 (Eastern Daylight Time)","361108","red","green","","545","","","","choice","","img/green_ll/choose11.jpg","2","191","red","0.5","0.5","0.5","l","",""
"animation","73","101516","0.0-5.0-2.34","6150e9017c1b2aa8bf683c32","bdp_lott","Wed Mar 29 2023 13:47:14 GMT-0400 (Eastern Daylight Time)","361108","red","green","","","","","","","","","","191","","","","","","[{""stimulus"":""img/red_ll/1.jpg"",""time"":52},{""stimulus"":""img/red_ll/2.jpg"",""time"":101},{""stimulus"":""img/red_ll/3.jpg"",""time"":152},{""stimulus"":""img/red_ll/4.jpg"",""time"":201},{""stimulus"":""img/red_ll/5.jpg"",""time"":252},{""stimulus"":""img/red_ll/6.jpg"",""time"":302},{""stimulus"":""img/red_ll/7.jpg"",""time"":351},{""stimulus"":""img/red_ll/8.jpg"",""time"":401},{""stimulus"":""img/red_ll/9.jpg"",""time"":451},{""stimulus"":""img/red_ll/10.jpg"",""time"":501},{""stimulus"":""img/red_ll/11.jpg"",""time"":552}]","[]"
"image-keyboard-response","74","102149","0.0-5.0-1.35","6150e9017c1b2aa8bf683c32","bdp_lott","Wed Mar 29 2023 13:47:14 GMT-0400 (Eastern Daylight Time)","361108","red","green","","631","","","","choice","","img/red_ll/choose11.jpg","2","190","red","0.5","0.5","0.5","l","",""
"animation","75","102750","0.0-5.0-2.35","6150e9017c1b2aa8bf683c32","bdp_lott","Wed Mar 29 2023 13:47:14 GMT-0400 (Eastern Daylight Time)","361108","red","green","","","","","","","","","","190","","","","","","[{""stimulus"":""img/red_ll/1.jpg"",""time"":52},{""stimulus"":""img/red_ll/2.jpg"",""time"":102},{""stimulus"":""img/red_ll/3.jpg"",""time"":152},{""stimulus"":""img/red_ll/4.jpg"",""time"":202},{""stimulus"":""img/red_ll/5.jpg"",""time"":252},{""stimulus"":""img/red_ll/6.jpg"",""time"":302},{""stimulus"":""img/red_ll/7.jpg"",""time"":352},{""stimulus"":""img/red_ll/8.jpg"",""time"":405},{""stimulus"":""img/red_ll/9.jpg"",""time"":451},{""stimulus"":""img/red_ll/10.jpg"",""time"":501},{""stimulus"":""img/red_ll/11.jpg"",""time"":552}]","[]"
"image-keyboard-response","76","103416","0.0-5.0-1.36","6150e9017c1b2aa8bf683c32","bdp_lott","Wed Mar 29 2023 13:47:14 GMT-0400 (Eastern Daylight Time)","361108","red","green","","664","","","","choice","","img/red_ll/choose11.jpg","1","189","green","0.5","0.5","0.5","l","",""
"animation","77","104017","0.0-5.0-2.36","6150e9017c1b2aa8bf683c32","bdp_lott","Wed Mar 29 2023 13:47:14 GMT-0400 (Eastern Daylight Time)","361108","red","green","","","","","","","","","","189","","","","","","[{""stimulus"":""img/green_ll/1.jpg"",""time"":64},{""stimulus"":""img/green_ll/2.jpg"",""time"":103},{""stimulus"":""img/green_ll/3.jpg"",""time"":152},{""stimulus"":""img/green_ll/4.jpg"",""time"":203},{""stimulus"":""img/green_ll/5.jpg"",""time"":252},{""stimulus"":""img/green_ll/6.jpg"",""time"":302},{""stimulus"":""img/green_ll/7.jpg"",""time"":362},{""stimulus"":""img/green_ll/8.jpg"",""time"":402},{""stimulus"":""img/green_ll/9.jpg"",""time"":453},{""stimulus"":""img/green_ll/10.jpg"",""time"":503},{""stimulus"":""img/green_ll/11.jpg"",""time"":551}]","[]"
"image-keyboard-response","78","104543","0.0-5.0-1.37","6150e9017c1b2aa8bf683c32","bdp_lott","Wed Mar 29 2023 13:47:14 GMT-0400 (Eastern Daylight Time)","361108","red","green","","524","","","","choice","","img/green_ll/choose11.jpg","1","188","green","0.5","0.5","0.5","w","",""
"animation","79","105145","0.0-5.0-2.37","6150e9017c1b2aa8bf683c32","bdp_lott","Wed Mar 29 2023 13:47:14 GMT-0400 (Eastern Daylight Time)","361108","red","green","","","","","","","","","","188","","","","","","[{""stimulus"":""img/green_wl/1.jpg"",""time"":52},{""stimulus"":""img/green_wl/2.jpg"",""time"":101},{""stimulus"":""img/green_wl/3.jpg"",""time"":151},{""stimulus"":""img/green_wl/4.jpg"",""time"":201},{""stimulus"":""img/green_wl/5.jpg"",""time"":252},{""stimulus"":""img/green_wl/6.jpg"",""time"":301},{""stimulus"":""img/green_wl/7.jpg"",""time"":352},{""stimulus"":""img/green_wl/8.jpg"",""time"":401},{""stimulus"":""img/green_wl/9.jpg"",""time"":451},{""stimulus"":""img/green_wl/10.jpg"",""time"":501},{""stimulus"":""img/green_wl/11.jpg"",""time"":551}]","[]"
"image-keyboard-response","80","105824","0.0-5.0-1.38","6150e9017c1b2aa8bf683c32","bdp_lott","Wed Mar 29 2023 13:47:14 GMT-0400 (Eastern Daylight Time)","361108","red","green","","677","","","","choice","","img/green_wl/choose11.jpg","1","187","green","0.5","0.5","0.5","w","",""
"animation","81","106425","0.0-5.0-2.38","6150e9017c1b2aa8bf683c32","bdp_lott","Wed Mar 29 2023 13:47:14 GMT-0400 (Eastern Daylight Time)","361108","red","green","","","","","","","","","","187","","","","","","[{""stimulus"":""img/green_wl/1.jpg"",""time"":53},{""stimulus"":""img/green_wl/2.jpg"",""time"":102},{""stimulus"":""img/green_wl/3.jpg"",""time"":152},{""stimulus"":""img/green_wl/4.jpg"",""time"":202},{""stimulus"":""img/green_wl/5.jpg"",""time"":252},{""stimulus"":""img/green_wl/6.jpg"",""time"":301},{""stimulus"":""img/green_wl/7.jpg"",""time"":352},{""stimulus"":""img/green_wl/8.jpg"",""time"":401},{""stimulus"":""img/green_wl/9.jpg"",""time"":451},{""stimulus"":""img/green_wl/10.jpg"",""time"":502},{""stimulus"":""img/green_wl/11.jpg"",""time"":551}]","[]"
"image-keyboard-response","82","107112","0.0-5.0-1.39","6150e9017c1b2aa8bf683c32","bdp_lott","Wed Mar 29 2023 13:47:14 GMT-0400 (Eastern Daylight Time)","361108","red","green","","684","","","","choice","","img/green_wl/choose11.jpg","1","186","green","0.5","0.5","0.5","l","",""
"animation","83","107714","0.0-5.0-2.39","6150e9017c1b2aa8bf683c32","bdp_lott","Wed Mar 29 2023 13:47:14 GMT-0400 (Eastern Daylight Time)","361108","red","green","","","","","","","","","","186","","","","","","[{""stimulus"":""img/green_ll/1.jpg"",""time"":52},{""stimulus"":""img/green_ll/2.jpg"",""time"":101},{""stimulus"":""img/green_ll/3.jpg"",""time"":152},{""stimulus"":""img/green_ll/4.jpg"",""time"":202},{""stimulus"":""img/green_ll/5.jpg"",""time"":252},{""stimulus"":""img/green_ll/6.jpg"",""time"":303},{""stimulus"":""img/green_ll/7.jpg"",""time"":352},{""stimulus"":""img/green_ll/8.jpg"",""time"":402},{""stimulus"":""img/green_ll/9.jpg"",""time"":451},{""stimulus"":""img/green_ll/10.jpg"",""time"":502},{""stimulus"":""img/green_ll/11.jpg"",""time"":552}]","[]"
"image-keyboard-response","84","108532","0.0-5.0-1.40","6150e9017c1b2aa8bf683c32","bdp_lott","Wed Mar 29 2023 13:47:14 GMT-0400 (Eastern Daylight Time)","361108","red","green","","815","","","","choice","","img/green_ll/choose11.jpg","1","185","green","0.5","0.5","0.5","w","",""
"animation","85","109133","0.0-5.0-2.40","6150e9017c1b2aa8bf683c32","bdp_lott","Wed Mar 29 2023 13:47:14 GMT-0400 (Eastern Daylight Time)","361108","red","green","","","","","","","","","","185","","","","","","[{""stimulus"":""img/green_wl/1.jpg"",""time"":53},{""stimulus"":""img/green_wl/2.jpg"",""time"":102},{""stimulus"":""img/green_wl/3.jpg"",""time"":152},{""stimulus"":""img/green_wl/4.jpg"",""time"":202},{""stimulus"":""img/green_wl/5.jpg"",""time"":253},{""stimulus"":""img/green_wl/6.jpg"",""time"":302},{""stimulus"":""img/green_wl/7.jpg"",""time"":352},{""stimulus"":""img/green_wl/8.jpg"",""time"":402},{""stimulus"":""img/green_wl/9.jpg"",""time"":452},{""stimulus"":""img/green_wl/10.jpg"",""time"":501},{""stimulus"":""img/green_wl/11.jpg"",""time"":552}]","[]"
"image-keyboard-response","86","109940","0.0-5.0-1.41","6150e9017c1b2aa8bf683c32","bdp_lott","Wed Mar 29 2023 13:47:14 GMT-0400 (Eastern Daylight Time)","361108","red","green","","805","","","","choice","","img/green_wl/choose11.jpg","1","184","green","0.5","0.5","0.5","l","",""
"animation","87","110541","0.0-5.0-2.41","6150e9017c1b2aa8bf683c32","bdp_lott","Wed Mar 29 2023 13:47:14 GMT-0400 (Eastern Daylight Time)","361108","red","green","","","","","","","","","","184","","","","","","[{""stimulus"":""img/green_ll/1.jpg"",""time"":51},{""stimulus"":""img/green_ll/2.jpg"",""time"":104},{""stimulus"":""img/green_ll/3.jpg"",""time"":151},{""stimulus"":""img/green_ll/4.jpg"",""time"":201},{""stimulus"":""img/green_ll/5.jpg"",""time"":251},{""stimulus"":""img/green_ll/6.jpg"",""time"":301},{""stimulus"":""img/green_ll/7.jpg"",""time"":352},{""stimulus"":""img/green_ll/8.jpg"",""time"":402},{""stimulus"":""img/green_ll/9.jpg"",""time"":452},{""stimulus"":""img/green_ll/10.jpg"",""time"":502},{""stimulus"":""img/green_ll/11.jpg"",""time"":552}]","[]"
"image-keyboard-response","88","111073","0.0-5.0-1.42","6150e9017c1b2aa8bf683c32","bdp_lott","Wed Mar 29 2023 13:47:14 GMT-0400 (Eastern Daylight Time)","361108","red","green","","527","","","","choice","","img/green_ll/choose11.jpg","1","183","green","0.5","0.5","0.5","w","",""
"animation","89","111674","0.0-5.0-2.42","6150e9017c1b2aa8bf683c32","bdp_lott","Wed Mar 29 2023 13:47:14 GMT-0400 (Eastern Daylight Time)","361108","red","green","","","","","","","","","","183","","","","","","[{""stimulus"":""img/green_wl/1.jpg"",""time"":53},{""stimulus"":""img/green_wl/2.jpg"",""time"":103},{""stimulus"":""img/green_wl/3.jpg"",""time"":152},{""stimulus"":""img/green_wl/4.jpg"",""time"":202},{""stimulus"":""img/green_wl/5.jpg"",""time"":252},{""stimulus"":""img/green_wl/6.jpg"",""time"":303},{""stimulus"":""img/green_wl/7.jpg"",""time"":352},{""stimulus"":""img/green_wl/8.jpg"",""time"":402},{""stimulus"":""img/green_wl/9.jpg"",""time"":452},{""stimulus"":""img/green_wl/10.jpg"",""time"":502},{""stimulus"":""img/green_wl/11.jpg"",""time"":552}]","[]"
"image-keyboard-response","90","112428","0.0-5.0-1.43","6150e9017c1b2aa8bf683c32","bdp_lott","Wed Mar 29 2023 13:47:14 GMT-0400 (Eastern Daylight Time)","361108","red","green","","751","","","","choice","","img/green_wl/choose11.jpg","1","182","green","0.5","0.5","0.5","w","",""
"animation","91","113029","0.0-5.0-2.43","6150e9017c1b2aa8bf683c32","bdp_lott","Wed Mar 29 2023 13:47:14 GMT-0400 (Eastern Daylight Time)","361108","red","green","","","","","","","","","","182","","","","","","[{""stimulus"":""img/green_wl/1.jpg"",""time"":53},{""stimulus"":""img/green_wl/2.jpg"",""time"":102},{""stimulus"":""img/green_wl/3.jpg"",""time"":152},{""stimulus"":""img/green_wl/4.jpg"",""time"":202},{""stimulus"":""img/green_wl/5.jpg"",""time"":253},{""stimulus"":""img/green_wl/6.jpg"",""time"":302},{""stimulus"":""img/green_wl/7.jpg"",""time"":353},{""stimulus"":""img/green_wl/8.jpg"",""time"":402},{""stimulus"":""img/green_wl/9.jpg"",""time"":452},{""stimulus"":""img/green_wl/10.jpg"",""time"":502},{""stimulus"":""img/green_wl/11.jpg"",""time"":552}]","[]"
"image-keyboard-response","92","113673","0.0-5.0-1.44","6150e9017c1b2aa8bf683c32","bdp_lott","Wed Mar 29 2023 13:47:14 GMT-0400 (Eastern Daylight Time)","361108","red","green","","641","","","","choice","","img/green_wl/choose11.jpg","1","181","green","0.5","0.5","0.5","l","",""
"animation","93","114275","0.0-5.0-2.44","6150e9017c1b2aa8bf683c32","bdp_lott","Wed Mar 29 2023 13:47:14 GMT-0400 (Eastern Daylight Time)","361108","red","green","","","","","","","","","","181","","","","","","[{""stimulus"":""img/green_ll/1.jpg"",""time"":52},{""stimulus"":""img/green_ll/2.jpg"",""time"":102},{""stimulus"":""img/green_ll/3.jpg"",""time"":152},{""stimulus"":""img/green_ll/4.jpg"",""time"":202},{""stimulus"":""img/green_ll/5.jpg"",""time"":252},{""stimulus"":""img/green_ll/6.jpg"",""time"":302},{""stimulus"":""img/green_ll/7.jpg"",""time"":352},{""stimulus"":""img/green_ll/8.jpg"",""time"":402},{""stimulus"":""img/green_ll/9.jpg"",""time"":453},{""stimulus"":""img/green_ll/10.jpg"",""time"":502},{""stimulus"":""img/green_ll/11.jpg"",""time"":551}]","[]"
"image-keyboard-response","94","115126","0.0-5.0-1.45","6150e9017c1b2aa8bf683c32","bdp_lott","Wed Mar 29 2023 13:47:14 GMT-0400 (Eastern Daylight Time)","361108","red","green","","849","","","","choice","","img/green_ll/choose11.jpg","1","180","green","0.5","0.5","0.5","w","",""
"animation","95","115727","0.0-5.0-2.45","6150e9017c1b2aa8bf683c32","bdp_lott","Wed Mar 29 2023 13:47:14 GMT-0400 (Eastern Daylight Time)","361108","red","green","","","","","","","","","","180","","","","","","[{""stimulus"":""img/green_wl/1.jpg"",""time"":52},{""stimulus"":""img/green_wl/2.jpg"",""time"":102},{""stimulus"":""img/green_wl/3.jpg"",""time"":151},{""stimulus"":""img/green_wl/4.jpg"",""time"":201},{""stimulus"":""img/green_wl/5.jpg"",""time"":251},{""stimulus"":""img/green_wl/6.jpg"",""time"":301},{""stimulus"":""img/green_wl/7.jpg"",""time"":351},{""stimulus"":""img/green_wl/8.jpg"",""time"":401},{""stimulus"":""img/green_wl/9.jpg"",""time"":451},{""stimulus"":""img/green_wl/10.jpg"",""time"":501},{""stimulus"":""img/green_wl/11.jpg"",""time"":551}]","[]"
"image-keyboard-response","96","116379","0.0-5.0-1.46","6150e9017c1b2aa8bf683c32","bdp_lott","Wed Mar 29 2023 13:47:14 GMT-0400 (Eastern Daylight Time)","361108","red","green","","649","","","","choice","","img/green_wl/choose11.jpg","1","179","green","0.5","0.5","0.5","l","",""
"animation","97","116981","0.0-5.0-2.46","6150e9017c1b2aa8bf683c32","bdp_lott","Wed Mar 29 2023 13:47:14 GMT-0400 (Eastern Daylight Time)","361108","red","green","","","","","","","","","","179","","","","","","[{""stimulus"":""img/green_ll/1.jpg"",""time"":55},{""stimulus"":""img/green_ll/2.jpg"",""time"":103},{""stimulus"":""img/green_ll/3.jpg"",""time"":151},{""stimulus"":""img/green_ll/4.jpg"",""time"":201},{""stimulus"":""img/green_ll/5.jpg"",""time"":252},{""stimulus"":""img/green_ll/6.jpg"",""time"":301},{""stimulus"":""img/green_ll/7.jpg"",""time"":351},{""stimulus"":""img/green_ll/8.jpg"",""time"":401},{""stimulus"":""img/green_ll/9.jpg"",""time"":451},{""stimulus"":""img/green_ll/10.jpg"",""time"":502},{""stimulus"":""img/green_ll/11.jpg"",""time"":552}]","[]"
"image-keyboard-response","98","117726","0.0-5.0-1.47","6150e9017c1b2aa8bf683c32","bdp_lott","Wed Mar 29 2023 13:47:14 GMT-0400 (Eastern Daylight Time)","361108","red","green","","742","","","","choice","","img/green_ll/choose11.jpg","2","178","red","0.5","0.5","0.5","l","",""
"animation","99","118328","0.0-5.0-2.47","6150e9017c1b2aa8bf683c32","bdp_lott","Wed Mar 29 2023 13:47:14 GMT-0400 (Eastern Daylight Time)","361108","red","green","","","","","","","","","","178","","","","","","[{""stimulus"":""img/red_ll/1.jpg"",""time"":60},{""stimulus"":""img/red_ll/2.jpg"",""time"":103},{""stimulus"":""img/red_ll/3.jpg"",""time"":152},{""stimulus"":""img/red_ll/4.jpg"",""time"":201},{""stimulus"":""img/red_ll/5.jpg"",""time"":252},{""stimulus"":""img/red_ll/6.jpg"",""time"":302},{""stimulus"":""img/red_ll/7.jpg"",""time"":352},{""stimulus"":""img/red_ll/8.jpg"",""time"":402},{""stimulus"":""img/red_ll/9.jpg"",""time"":452},{""stimulus"":""img/red_ll/10.jpg"",""time"":502},{""stimulus"":""img/red_ll/11.jpg"",""time"":552}]","[]"
"image-keyboard-response","100","118768","0.0-5.0-1.48","6150e9017c1b2aa8bf683c32","bdp_lott","Wed Mar 29 2023 13:47:14 GMT-0400 (Eastern Daylight Time)","361108","red","green","","438","","","","choice","","img/red_ll/choose11.jpg","2","177","red","0.5","0.5","0.5","w","",""
"animation","101","119370","0.0-5.0-2.48","6150e9017c1b2aa8bf683c32","bdp_lott","Wed Mar 29 2023 13:47:14 GMT-0400 (Eastern Daylight Time)","361108","red","green","","","","","","","","","","177","","","","","","[{""stimulus"":""img/red_lw/1.jpg"",""time"":52},{""stimulus"":""img/red_lw/2.jpg"",""time"":101},{""stimulus"":""img/red_lw/3.jpg"",""time"":153},{""stimulus"":""img/red_lw/4.jpg"",""time"":202},{""stimulus"":""img/red_lw/5.jpg"",""time"":252},{""stimulus"":""img/red_lw/6.jpg"",""time"":302},{""stimulus"":""img/red_lw/7.jpg"",""time"":351},{""stimulus"":""img/red_lw/8.jpg"",""time"":402},{""stimulus"":""img/red_lw/9.jpg"",""time"":453},{""stimulus"":""img/red_lw/10.jpg"",""time"":502},{""stimulus"":""img/red_lw/11.jpg"",""time"":551}]","[]"
"image-keyboard-response","102","120016","0.0-5.0-1.49","6150e9017c1b2aa8bf683c32","bdp_lott","Wed Mar 29 2023 13:47:14 GMT-0400 (Eastern Daylight Time)","361108","red","green","","643","","","","choice","","img/red_lw/choose11.jpg","2","176","red","0.5","0.5","0.5","w","",""
"animation","103","120618","0.0-5.0-2.49","6150e9017c1b2aa8bf683c32","bdp_lott","Wed Mar 29 2023 13:47:14 GMT-0400 (Eastern Daylight Time)","361108","red","green","","","","","","","","","","176","","","","","","[{""stimulus"":""img/red_lw/1.jpg"",""time"":53},{""stimulus"":""img/red_lw/2.jpg"",""time"":102},{""stimulus"":""img/red_lw/3.jpg"",""time"":152},{""stimulus"":""img/red_lw/4.jpg"",""time"":202},{""stimulus"":""img/red_lw/5.jpg"",""time"":252},{""stimulus"":""img/red_lw/6.jpg"",""time"":302},{""stimulus"":""img/red_lw/7.jpg"",""time"":352},{""stimulus"":""img/red_lw/8.jpg"",""time"":402},{""stimulus"":""img/red_lw/9.jpg"",""time"":452},{""stimulus"":""img/red_lw/10.jpg"",""time"":502},{""stimulus"":""img/red_lw/11.jpg"",""time"":553}]","[]"
"image-keyboard-response","104","121287","0.0-5.0-1.50","6150e9017c1b2aa8bf683c32","bdp_lott","Wed Mar 29 2023 13:47:14 GMT-0400 (Eastern Daylight Time)","361108","red","green","","667","","","","choice","","img/red_lw/choose11.jpg","2","175","red","0.5","0.5","0.5","l","",""
"animation","105","121889","0.0-5.0-2.50","6150e9017c1b2aa8bf683c32","bdp_lott","Wed Mar 29 2023 13:47:14 GMT-0400 (Eastern Daylight Time)","361108","red","green","","","","","","","","","","175","","","","","","[{""stimulus"":""img/red_ll/1.jpg"",""time"":63},{""stimulus"":""img/red_ll/2.jpg"",""time"":101},{""stimulus"":""img/red_ll/3.jpg"",""time"":151},{""stimulus"":""img/red_ll/4.jpg"",""time"":201},{""stimulus"":""img/red_ll/5.jpg"",""time"":251},{""stimulus"":""img/red_ll/6.jpg"",""time"":301},{""stimulus"":""img/red_ll/7.jpg"",""time"":351},{""stimulus"":""img/red_ll/8.jpg"",""time"":401},{""stimulus"":""img/red_ll/9.jpg"",""time"":451},{""stimulus"":""img/red_ll/10.jpg"",""time"":502},{""stimulus"":""img/red_ll/11.jpg"",""time"":551}]","[]"
"image-keyboard-response","106","122726","0.0-5.0-1.51","6150e9017c1b2aa8bf683c32","bdp_lott","Wed Mar 29 2023 13:47:14 GMT-0400 (Eastern Daylight Time)","361108","red","green","","835","","","","choice","","img/red_ll/choose11.jpg","2","174","red","0.5","0.5","0.5","w","",""
"animation","107","123328","0.0-5.0-2.51","6150e9017c1b2aa8bf683c32","bdp_lott","Wed Mar 29 2023 13:47:14 GMT-0400 (Eastern Daylight Time)","361108","red","green","","","","","","","","","","174","","","","","","[{""stimulus"":""img/red_lw/1.jpg"",""time"":52},{""stimulus"":""img/red_lw/2.jpg"",""time"":102},{""stimulus"":""img/red_lw/3.jpg"",""time"":152},{""stimulus"":""img/red_lw/4.jpg"",""time"":202},{""stimulus"":""img/red_lw/5.jpg"",""time"":252},{""stimulus"":""img/red_lw/6.jpg"",""time"":301},{""stimulus"":""img/red_lw/7.jpg"",""time"":353},{""stimulus"":""img/red_lw/8.jpg"",""time"":402},{""stimulus"":""img/red_lw/9.jpg"",""time"":452},{""stimulus"":""img/red_lw/10.jpg"",""time"":502},{""stimulus"":""img/red_lw/11.jpg"",""time"":552}]","[]"
"image-keyboard-response","108","124065","0.0-5.0-1.52","6150e9017c1b2aa8bf683c32","bdp_lott","Wed Mar 29 2023 13:47:14 GMT-0400 (Eastern Daylight Time)","361108","red","green","","735","","","","choice","","img/red_lw/choose11.jpg","2","173","red","0.5","0.5","0.5","l","",""
"animation","109","124667","0.0-5.0-2.52","6150e9017c1b2aa8bf683c32","bdp_lott","Wed Mar 29 2023 13:47:14 GMT-0400 (Eastern Daylight Time)","361108","red","green","","","","","","","","","","173","","","","","","[{""stimulus"":""img/red_ll/1.jpg"",""time"":52},{""stimulus"":""img/red_ll/2.jpg"",""time"":101},{""stimulus"":""img/red_ll/3.jpg"",""time"":151},{""stimulus"":""img/red_ll/4.jpg"",""time"":201},{""stimulus"":""img/red_ll/5.jpg"",""time"":252},{""stimulus"":""img/red_ll/6.jpg"",""time"":301},{""stimulus"":""img/red_ll/7.jpg"",""time"":352},{""stimulus"":""img/red_ll/8.jpg"",""time"":401},{""stimulus"":""img/red_ll/9.jpg"",""time"":451},{""stimulus"":""img/red_ll/10.jpg"",""time"":501},{""stimulus"":""img/red_ll/11.jpg"",""time"":552}]","[]"
"image-keyboard-response","110","125299","0.0-5.0-1.53","6150e9017c1b2aa8bf683c32","bdp_lott","Wed Mar 29 2023 13:47:14 GMT-0400 (Eastern Daylight Time)","361108","red","green","","629","","","","choice","","img/red_ll/choose11.jpg","2","172","red","0.5","0.5","0.5","w","",""
"animation","111","125901","0.0-5.0-2.53","6150e9017c1b2aa8bf683c32","bdp_lott","Wed Mar 29 2023 13:47:14 GMT-0400 (Eastern Daylight Time)","361108","red","green","","","","","","","","","","172","","","","","","[{""stimulus"":""img/red_lw/1.jpg"",""time"":52},{""stimulus"":""img/red_lw/2.jpg"",""time"":101},{""stimulus"":""img/red_lw/3.jpg"",""time"":152},{""stimulus"":""img/red_lw/4.jpg"",""time"":202},{""stimulus"":""img/red_lw/5.jpg"",""time"":252},{""stimulus"":""img/red_lw/6.jpg"",""time"":302},{""stimulus"":""img/red_lw/7.jpg"",""time"":352},{""stimulus"":""img/red_lw/8.jpg"",""time"":402},{""stimulus"":""img/red_lw/9.jpg"",""time"":452},{""stimulus"":""img/red_lw/10.jpg"",""time"":502},{""stimulus"":""img/red_lw/11.jpg"",""time"":552}]","[]"
"image-keyboard-response","112","126673","0.0-5.0-1.54","6150e9017c1b2aa8bf683c32","bdp_lott","Wed Mar 29 2023 13:47:14 GMT-0400 (Eastern Daylight Time)","361108","red","green","","769","","","","choice","","img/red_lw/choose11.jpg","2","171","red","0.5","0.5","0.5","w","",""
"animation","113","127275","0.0-5.0-2.54","6150e9017c1b2aa8bf683c32","bdp_lott","Wed Mar 29 2023 13:47:14 GMT-0400 (Eastern Daylight Time)","361108","red","green","","","","","","","","","","171","","","","","","[{""stimulus"":""img/red_lw/1.jpg"",""time"":52},{""stimulus"":""img/red_lw/2.jpg"",""time"":102},{""stimulus"":""img/red_lw/3.jpg"",""time"":152},{""stimulus"":""img/red_lw/4.jpg"",""time"":202},{""stimulus"":""img/red_lw/5.jpg"",""time"":252},{""stimulus"":""img/red_lw/6.jpg"",""time"":302},{""stimulus"":""img/red_lw/7.jpg"",""time"":353},{""stimulus"":""img/red_lw/8.jpg"",""time"":403},{""stimulus"":""img/red_lw/9.jpg"",""time"":452},{""stimulus"":""img/red_lw/10.jpg"",""time"":502},{""stimulus"":""img/red_lw/11.jpg"",""time"":553}]","[]"
"image-keyboard-response","114","127976","0.0-5.0-1.55","6150e9017c1b2aa8bf683c32","bdp_lott","Wed Mar 29 2023 13:47:14 GMT-0400 (Eastern Daylight Time)","361108","red","green","","698","","","","choice","","img/red_lw/choose11.jpg","2","170","red","0.5","0.5","0.5","l","",""
"animation","115","128577","0.0-5.0-2.55","6150e9017c1b2aa8bf683c32","bdp_lott","Wed Mar 29 2023 13:47:14 GMT-0400 (Eastern Daylight Time)","361108","red","green","","","","","","","","","","170","","","","","","[{""stimulus"":""img/red_ll/1.jpg"",""time"":63},{""stimulus"":""img/red_ll/2.jpg"",""time"":101},{""stimulus"":""img/red_ll/3.jpg"",""time"":152},{""stimulus"":""img/red_ll/4.jpg"",""time"":201},{""stimulus"":""img/red_ll/5.jpg"",""time"":252},{""stimulus"":""img/red_ll/6.jpg"",""time"":302},{""stimulus"":""img/red_ll/7.jpg"",""time"":352},{""stimulus"":""img/red_ll/8.jpg"",""time"":402},{""stimulus"":""img/red_ll/9.jpg"",""time"":452},{""stimulus"":""img/red_ll/10.jpg"",""time"":501},{""stimulus"":""img/red_ll/11.jpg"",""time"":552}]","[]"
"image-keyboard-response","116","129490","0.0-5.0-1.56","6150e9017c1b2aa8bf683c32","bdp_lott","Wed Mar 29 2023 13:47:14 GMT-0400 (Eastern Daylight Time)","361108","red","green","","911","","","","choice","","img/red_ll/choose11.jpg","1","169","green","0.5","0.5","0.5","w","",""
"animation","117","130092","0.0-5.0-2.56","6150e9017c1b2aa8bf683c32","bdp_lott","Wed Mar 29 2023 13:47:14 GMT-0400 (Eastern Daylight Time)","361108","red","green","","","","","","","","","","169","","","","","","[{""stimulus"":""img/green_wl/1.jpg"",""time"":51},{""stimulus"":""img/green_wl/2.jpg"",""time"":101},{""stimulus"":""img/green_wl/3.jpg"",""time"":151},{""stimulus"":""img/green_wl/4.jpg"",""time"":202},{""stimulus"":""img/green_wl/5.jpg"",""time"":251},{""stimulus"":""img/green_wl/6.jpg"",""time"":301},{""stimulus"":""img/green_wl/7.jpg"",""time"":351},{""stimulus"":""img/green_wl/8.jpg"",""time"":402},{""stimulus"":""img/green_wl/9.jpg"",""time"":457},{""stimulus"":""img/green_wl/10.jpg"",""time"":501},{""stimulus"":""img/green_wl/11.jpg"",""time"":551}]","[]"
"image-keyboard-response","118","130862","0.0-5.0-1.57","6150e9017c1b2aa8bf683c32","bdp_lott","Wed Mar 29 2023 13:47:14 GMT-0400 (Eastern Daylight Time)","361108","red","green","","767","","","","choice","","img/green_wl/choose11.jpg","1","168","green","0.5","0.5","0.5","l","",""
"animation","119","131464","0.0-5.0-2.57","6150e9017c1b2aa8bf683c32","bdp_lott","Wed Mar 29 2023 13:47:14 GMT-0400 (Eastern Daylight Time)","361108","red","green","","","","","","","","","","168","","","","","","[{""stimulus"":""img/green_ll/1.jpg"",""time"":53},{""stimulus"":""img/green_ll/2.jpg"",""time"":103},{""stimulus"":""img/green_ll/3.jpg"",""time"":153},{""stimulus"":""img/green_ll/4.jpg"",""time"":202},{""stimulus"":""img/green_ll/5.jpg"",""time"":251},{""stimulus"":""img/green_ll/6.jpg"",""time"":302},{""stimulus"":""img/green_ll/7.jpg"",""time"":352},{""stimulus"":""img/green_ll/8.jpg"",""time"":402},{""stimulus"":""img/green_ll/9.jpg"",""time"":453},{""stimulus"":""img/green_ll/10.jpg"",""time"":502},{""stimulus"":""img/green_ll/11.jpg"",""time"":552}]","[]"
"image-keyboard-response","120","132310","0.0-5.0-1.58","6150e9017c1b2aa8bf683c32","bdp_lott","Wed Mar 29 2023 13:47:14 GMT-0400 (Eastern Daylight Time)","361108","red","green","","844","","","","choice","","img/green_ll/choose11.jpg","2","167","red","0.5","0.5","0.5","w","",""
"animation","121","132912","0.0-5.0-2.58","6150e9017c1b2aa8bf683c32","bdp_lott","Wed Mar 29 2023 13:47:14 GMT-0400 (Eastern Daylight Time)","361108","red","green","","","","","","","","","","167","","","","","","[{""stimulus"":""img/red_lw/1.jpg"",""time"":52},{""stimulus"":""img/red_lw/2.jpg"",""time"":102},{""stimulus"":""img/red_lw/3.jpg"",""time"":152},{""stimulus"":""img/red_lw/4.jpg"",""time"":202},{""stimulus"":""img/red_lw/5.jpg"",""time"":252},{""stimulus"":""img/red_lw/6.jpg"",""time"":302},{""stimulus"":""img/red_lw/7.jpg"",""time"":353},{""stimulus"":""img/red_lw/8.jpg"",""time"":401},{""stimulus"":""img/red_lw/9.jpg"",""time"":452},{""stimulus"":""img/red_lw/10.jpg"",""time"":502},{""stimulus"":""img/red_lw/11.jpg"",""time"":552}]","[]"
"image-keyboard-response","122","133850","0.0-5.0-1.59","6150e9017c1b2aa8bf683c32","bdp_lott","Wed Mar 29 2023 13:47:14 GMT-0400 (Eastern Daylight Time)","361108","red","green","","935","","","","choice","","img/red_lw/choose11.jpg","1","166","green","0.5","0.5","0.5","l","",""
"animation","123","134452","0.0-5.0-2.59","6150e9017c1b2aa8bf683c32","bdp_lott","Wed Mar 29 2023 13:47:14 GMT-0400 (Eastern Daylight Time)","361108","red","green","","","","","","","","","","166","","","","","","[{""stimulus"":""img/green_lw/1.jpg"",""time"":52},{""stimulus"":""img/green_lw/2.jpg"",""time"":101},{""stimulus"":""img/green_lw/3.jpg"",""time"":152},{""stimulus"":""img/green_lw/4.jpg"",""time"":202},{""stimulus"":""img/green_lw/5.jpg"",""time"":252},{""stimulus"":""img/green_lw/6.jpg"",""time"":302},{""stimulus"":""img/green_lw/7.jpg"",""time"":352},{""stimulus"":""img/green_lw/8.jpg"",""time"":403},{""stimulus"":""img/green_lw/9.jpg"",""time"":452},{""stimulus"":""img/green_lw/10.jpg"",""time"":502},{""stimulus"":""img/green_lw/11.jpg"",""time"":552}]","[]"
"image-keyboard-response","124","135148","0.0-5.0-1.60","6150e9017c1b2aa8bf683c32","bdp_lott","Wed Mar 29 2023 13:47:14 GMT-0400 (Eastern Daylight Time)","361108","red","green","","694","","","","choice","","img/green_lw/choose11.jpg","2","165","red","0.5","0.5","0.5","l","",""
"animation","125","135750","0.0-5.0-2.60","6150e9017c1b2aa8bf683c32","bdp_lott","Wed Mar 29 2023 13:47:14 GMT-0400 (Eastern Daylight Time)","361108","red","green","","","","","","","","","","165","","","","","","[{""stimulus"":""img/red_ll/1.jpg"",""time"":54},{""stimulus"":""img/red_ll/2.jpg"",""time"":101},{""stimulus"":""img/red_ll/3.jpg"",""time"":152},{""stimulus"":""img/red_ll/4.jpg"",""time"":201},{""stimulus"":""img/red_ll/5.jpg"",""time"":252},{""stimulus"":""img/red_ll/6.jpg"",""time"":302},{""stimulus"":""img/red_ll/7.jpg"",""time"":352},{""stimulus"":""img/red_ll/8.jpg"",""time"":401},{""stimulus"":""img/red_ll/9.jpg"",""time"":452},{""stimulus"":""img/red_ll/10.jpg"",""time"":502},{""stimulus"":""img/red_ll/11.jpg"",""time"":551}]","[]"
"image-keyboard-response","126","136861","0.0-5.0-1.61","6150e9017c1b2aa8bf683c32","bdp_lott","Wed Mar 29 2023 13:47:14 GMT-0400 (Eastern Daylight Time)","361108","red","green","","1109","","","","choice","","img/red_ll/choose11.jpg","2","164","red","0.5","0.5","0.5","l","",""
"animation","127","137463","0.0-5.0-2.61","6150e9017c1b2aa8bf683c32","bdp_lott","Wed Mar 29 2023 13:47:14 GMT-0400 (Eastern Daylight Time)","361108","red","green","","","","","","","","","","164","","","","","","[{""stimulus"":""img/red_ll/1.jpg"",""time"":53},{""stimulus"":""img/red_ll/2.jpg"",""time"":103},{""stimulus"":""img/red_ll/3.jpg"",""time"":152},{""stimulus"":""img/red_ll/4.jpg"",""time"":201},{""stimulus"":""img/red_ll/5.jpg"",""time"":251},{""stimulus"":""img/red_ll/6.jpg"",""time"":302},{""stimulus"":""img/red_ll/7.jpg"",""time"":352},{""stimulus"":""img/red_ll/8.jpg"",""time"":402},{""stimulus"":""img/red_ll/9.jpg"",""time"":452},{""stimulus"":""img/red_ll/10.jpg"",""time"":502},{""stimulus"":""img/red_ll/11.jpg"",""time"":552}]","[]"
"image-keyboard-response","128","137909","0.0-5.0-1.62","6150e9017c1b2aa8bf683c32","bdp_lott","Wed Mar 29 2023 13:47:14 GMT-0400 (Eastern Daylight Time)","361108","red","green","","444","","","","choice","","img/red_ll/choose11.jpg","1","163","green","0.5","0.5","0.5","w","",""
"animation","129","138511","0.0-5.0-2.62","6150e9017c1b2aa8bf683c32","bdp_lott","Wed Mar 29 2023 13:47:14 GMT-0400 (Eastern Daylight Time)","361108","red","green","","","","","","","","","","163","","","","","","[{""stimulus"":""img/green_wl/1.jpg"",""time"":53},{""stimulus"":""img/green_wl/2.jpg"",""time"":102},{""stimulus"":""img/green_wl/3.jpg"",""time"":153},{""stimulus"":""img/green_wl/4.jpg"",""time"":202},{""stimulus"":""img/green_wl/5.jpg"",""time"":252},{""stimulus"":""img/green_wl/6.jpg"",""time"":302},{""stimulus"":""img/green_wl/7.jpg"",""time"":352},{""stimulus"":""img/green_wl/8.jpg"",""time"":406},{""stimulus"":""img/green_wl/9.jpg"",""time"":452},{""stimulus"":""img/green_wl/10.jpg"",""time"":502},{""stimulus"":""img/green_wl/11.jpg"",""time"":552}]","[]"
"image-keyboard-response","130","139135","0.0-5.0-1.63","6150e9017c1b2aa8bf683c32","bdp_lott","Wed Mar 29 2023 13:47:14 GMT-0400 (Eastern Daylight Time)","361108","red","green","","622","","","","choice","","img/green_wl/choose11.jpg","1","162","green","0.5","0.5","0.5","w","",""
"animation","131","139736","0.0-5.0-2.63","6150e9017c1b2aa8bf683c32","bdp_lott","Wed Mar 29 2023 13:47:14 GMT-0400 (Eastern Daylight Time)","361108","red","green","","","","","","","","","","162","","","","","","[{""stimulus"":""img/green_wl/1.jpg"",""time"":51},{""stimulus"":""img/green_wl/2.jpg"",""time"":101},{""stimulus"":""img/green_wl/3.jpg"",""time"":151},{""stimulus"":""img/green_wl/4.jpg"",""time"":201},{""stimulus"":""img/green_wl/5.jpg"",""time"":251},{""stimulus"":""img/green_wl/6.jpg"",""time"":302},{""stimulus"":""img/green_wl/7.jpg"",""time"":351},{""stimulus"":""img/green_wl/8.jpg"",""time"":401},{""stimulus"":""img/green_wl/9.jpg"",""time"":451},{""stimulus"":""img/green_wl/10.jpg"",""time"":501},{""stimulus"":""img/green_wl/11.jpg"",""time"":552}]","[]"
"image-keyboard-response","132","140424","0.0-5.0-1.64","6150e9017c1b2aa8bf683c32","bdp_lott","Wed Mar 29 2023 13:47:14 GMT-0400 (Eastern Daylight Time)","361108","red","green","","684","","","","choice","","img/green_wl/choose11.jpg","1","161","green","0.5","0.5","0.5","w","",""
"animation","133","141025","0.0-5.0-2.64","6150e9017c1b2aa8bf683c32","bdp_lott","Wed Mar 29 2023 13:47:14 GMT-0400 (Eastern Daylight Time)","361108","red","green","","","","","","","","","","161","","","","","","[{""stimulus"":""img/green_wl/1.jpg"",""time"":53},{""stimulus"":""img/green_wl/2.jpg"",""time"":103},{""stimulus"":""img/green_wl/3.jpg"",""time"":152},{""stimulus"":""img/green_wl/4.jpg"",""time"":202},{""stimulus"":""img/green_wl/5.jpg"",""time"":252},{""stimulus"":""img/green_wl/6.jpg"",""time"":301},{""stimulus"":""img/green_wl/7.jpg"",""time"":352},{""stimulus"":""img/green_wl/8.jpg"",""time"":402},{""stimulus"":""img/green_wl/9.jpg"",""time"":452},{""stimulus"":""img/green_wl/10.jpg"",""time"":505},{""stimulus"":""img/green_wl/11.jpg"",""time"":552}]","[]"
"image-keyboard-response","134","141474","0.0-5.0-1.65","6150e9017c1b2aa8bf683c32","bdp_lott","Wed Mar 29 2023 13:47:14 GMT-0400 (Eastern Daylight Time)","361108","red","green","","447","","","","choice","","img/green_wl/choose11.jpg","1","160","green","0.5","0.5","0.5","w","",""
"animation","135","142076","0.0-5.0-2.65","6150e9017c1b2aa8bf683c32","bdp_lott","Wed Mar 29 2023 13:47:14 GMT-0400 (Eastern Daylight Time)","361108","red","green","","","","","","","","","","160","","","","","","[{""stimulus"":""img/green_wl/1.jpg"",""time"":53},{""stimulus"":""img/green_wl/2.jpg"",""time"":101},{""stimulus"":""img/green_wl/3.jpg"",""time"":151},{""stimulus"":""img/green_wl/4.jpg"",""time"":201},{""stimulus"":""img/green_wl/5.jpg"",""time"":252},{""stimulus"":""img/green_wl/6.jpg"",""time"":302},{""stimulus"":""img/green_wl/7.jpg"",""time"":352},{""stimulus"":""img/green_wl/8.jpg"",""time"":401},{""stimulus"":""img/green_wl/9.jpg"",""time"":452},{""stimulus"":""img/green_wl/10.jpg"",""time"":501},{""stimulus"":""img/green_wl/11.jpg"",""time"":551}]","[]"
"image-keyboard-response","136","142606","0.0-5.0-1.66","6150e9017c1b2aa8bf683c32","bdp_lott","Wed Mar 29 2023 13:47:14 GMT-0400 (Eastern Daylight Time)","361108","red","green","","528","","","","choice","","img/green_wl/choose11.jpg","1","159","green","0.5","0.5","0.5","l","",""
"animation","137","143209","0.0-5.0-2.66","6150e9017c1b2aa8bf683c32","bdp_lott","Wed Mar 29 2023 13:47:14 GMT-0400 (Eastern Daylight Time)","361108","red","green","","","","","","","","","","159","","","","","","[{""stimulus"":""img/green_ll/1.jpg"",""time"":52},{""stimulus"":""img/green_ll/2.jpg"",""time"":102},{""stimulus"":""img/green_ll/3.jpg"",""time"":151},{""stimulus"":""img/green_ll/4.jpg"",""time"":202},{""stimulus"":""img/green_ll/5.jpg"",""time"":251},{""stimulus"":""img/green_ll/6.jpg"",""time"":302},{""stimulus"":""img/green_ll/7.jpg"",""time"":352},{""stimulus"":""img/green_ll/8.jpg"",""time"":402},{""stimulus"":""img/green_ll/9.jpg"",""time"":452},{""stimulus"":""img/green_ll/10.jpg"",""time"":501},{""stimulus"":""img/green_ll/11.jpg"",""time"":552}]","[]"
"image-keyboard-response","138","144039","0.0-5.0-1.67","6150e9017c1b2aa8bf683c32","bdp_lott","Wed Mar 29 2023 13:47:14 GMT-0400 (Eastern Daylight Time)","361108","red","green","","828","","","","choice","","img/green_ll/choose11.jpg","1","158","green","0.5","0.5","0.5","l","",""
"animation","139","144642","0.0-5.0-2.67","6150e9017c1b2aa8bf683c32","bdp_lott","Wed Mar 29 2023 13:47:14 GMT-0400 (Eastern Daylight Time)","361108","red","green","","","","","","","","","","158","","","","","","[{""stimulus"":""img/green_ll/1.jpg"",""time"":53},{""stimulus"":""img/green_ll/2.jpg"",""time"":101},{""stimulus"":""img/green_ll/3.jpg"",""time"":152},{""stimulus"":""img/green_ll/4.jpg"",""time"":202},{""stimulus"":""img/green_ll/5.jpg"",""time"":252},{""stimulus"":""img/green_ll/6.jpg"",""time"":302},{""stimulus"":""img/green_ll/7.jpg"",""time"":351},{""stimulus"":""img/green_ll/8.jpg"",""time"":402},{""stimulus"":""img/green_ll/9.jpg"",""time"":451},{""stimulus"":""img/green_ll/10.jpg"",""time"":502},{""stimulus"":""img/green_ll/11.jpg"",""time"":552}]","[]"
"image-keyboard-response","140","145235","0.0-5.0-1.68","6150e9017c1b2aa8bf683c32","bdp_lott","Wed Mar 29 2023 13:47:14 GMT-0400 (Eastern Daylight Time)","361108","red","green","","591","","","","choice","","img/green_ll/choose11.jpg","1","157","green","0.5","0.5","0.5","w","",""
"animation","141","145837","0.0-5.0-2.68","6150e9017c1b2aa8bf683c32","bdp_lott","Wed Mar 29 2023 13:47:14 GMT-0400 (Eastern Daylight Time)","361108","red","green","","","","","","","","","","157","","","","","","[{""stimulus"":""img/green_wl/1.jpg"",""time"":52},{""stimulus"":""img/green_wl/2.jpg"",""time"":101},{""stimulus"":""img/green_wl/3.jpg"",""time"":152},{""stimulus"":""img/green_wl/4.jpg"",""time"":201},{""stimulus"":""img/green_wl/5.jpg"",""time"":251},{""stimulus"":""img/green_wl/6.jpg"",""time"":301},{""stimulus"":""img/green_wl/7.jpg"",""time"":352},{""stimulus"":""img/green_wl/8.jpg"",""time"":402},{""stimulus"":""img/green_wl/9.jpg"",""time"":452},{""stimulus"":""img/green_wl/10.jpg"",""time"":502},{""stimulus"":""img/green_wl/11.jpg"",""time"":552}]","[]"
"image-keyboard-response","142","146205","0.0-5.0-1.69","6150e9017c1b2aa8bf683c32","bdp_lott","Wed Mar 29 2023 13:47:14 GMT-0400 (Eastern Daylight Time)","361108","red","green","","365","","","","choice","","img/green_wl/choose11.jpg","2","156","red","0.5","0.5","0.5","l","",""
"animation","143","146806","0.0-5.0-2.69","6150e9017c1b2aa8bf683c32","bdp_lott","Wed Mar 29 2023 13:47:14 GMT-0400 (Eastern Daylight Time)","361108","red","green","","","","","","","","","","156","","","","","","[{""stimulus"":""img/red_wl/1.jpg"",""time"":63},{""stimulus"":""img/red_wl/2.jpg"",""time"":102},{""stimulus"":""img/red_wl/3.jpg"",""time"":152},{""stimulus"":""img/red_wl/4.jpg"",""time"":202},{""stimulus"":""img/red_wl/5.jpg"",""time"":252},{""stimulus"":""img/red_wl/6.jpg"",""time"":302},{""stimulus"":""img/red_wl/7.jpg"",""time"":352},{""stimulus"":""img/red_wl/8.jpg"",""time"":402},{""stimulus"":""img/red_wl/9.jpg"",""time"":452},{""stimulus"":""img/red_wl/10.jpg"",""time"":502},{""stimulus"":""img/red_wl/11.jpg"",""time"":552}]","[]"
"image-keyboard-response","144","147356","0.0-5.0-1.70","6150e9017c1b2aa8bf683c32","bdp_lott","Wed Mar 29 2023 13:47:14 GMT-0400 (Eastern Daylight Time)","361108","red","green","","549","","","","choice","","img/red_wl/choose11.jpg","1","155","green","0.5","0.5","0.5","l","",""
"animation","145","147958","0.0-5.0-2.70","6150e9017c1b2aa8bf683c32","bdp_lott","Wed Mar 29 2023 13:47:14 GMT-0400 (Eastern Daylight Time)","361108","red","green","","","","","","","","","","155","","","","","","[{""stimulus"":""img/green_ll/1.jpg"",""time"":52},{""stimulus"":""img/green_ll/2.jpg"",""time"":103},{""stimulus"":""img/green_ll/3.jpg"",""time"":152},{""stimulus"":""img/green_ll/4.jpg"",""time"":202},{""stimulus"":""img/green_ll/5.jpg"",""time"":252},{""stimulus"":""img/green_ll/6.jpg"",""time"":301},{""stimulus"":""img/green_ll/7.jpg"",""time"":352},{""stimulus"":""img/green_ll/8.jpg"",""time"":402},{""stimulus"":""img/green_ll/9.jpg"",""time"":454},{""stimulus"":""img/green_ll/10.jpg"",""time"":502},{""stimulus"":""img/green_ll/11.jpg"",""time"":553}]","[]"
"image-keyboard-response","146","149220","0.0-5.0-1.71","6150e9017c1b2aa8bf683c32","bdp_lott","Wed Mar 29 2023 13:47:14 GMT-0400 (Eastern Daylight Time)","361108","red","green","","1260","","","","choice","","img/green_ll/choose11.jpg","1","154","green","0.5","0.5","0.5","w","",""
"animation","147","149822","0.0-5.0-2.71","6150e9017c1b2aa8bf683c32","bdp_lott","Wed Mar 29 2023 13:47:14 GMT-0400 (Eastern Daylight Time)","361108","red","green","","","","","","","","","","154","","","","","","[{""stimulus"":""img/green_wl/1.jpg"",""time"":52},{""stimulus"":""img/green_wl/2.jpg"",""time"":101},{""stimulus"":""img/green_wl/3.jpg"",""time"":151},{""stimulus"":""img/green_wl/4.jpg"",""time"":203},{""stimulus"":""img/green_wl/5.jpg"",""time"":252},{""stimulus"":""img/green_wl/6.jpg"",""time"":302},{""stimulus"":""img/green_wl/7.jpg"",""time"":352},{""stimulus"":""img/green_wl/8.jpg"",""time"":402},{""stimulus"":""img/green_wl/9.jpg"",""time"":452},{""stimulus"":""img/green_wl/10.jpg"",""time"":502},{""stimulus"":""img/green_wl/11.jpg"",""time"":552}]","[]"
"image-keyboard-response","148","150373","0.0-5.0-1.72","6150e9017c1b2aa8bf683c32","bdp_lott","Wed Mar 29 2023 13:47:14 GMT-0400 (Eastern Daylight Time)","361108","red","green","","549","","","","choice","","img/green_wl/choose11.jpg","1","153","green","0.5","0.5","0.5","w","",""
"animation","149","150975","0.0-5.0-2.72","6150e9017c1b2aa8bf683c32","bdp_lott","Wed Mar 29 2023 13:47:14 GMT-0400 (Eastern Daylight Time)","361108","red","green","","","","","","","","","","153","","","","","","[{""stimulus"":""img/green_wl/1.jpg"",""time"":52},{""stimulus"":""img/green_wl/2.jpg"",""time"":102},{""stimulus"":""img/green_wl/3.jpg"",""time"":152},{""stimulus"":""img/green_wl/4.jpg"",""time"":201},{""stimulus"":""img/green_wl/5.jpg"",""time"":252},{""stimulus"":""img/green_wl/6.jpg"",""time"":302},{""stimulus"":""img/green_wl/7.jpg"",""time"":352},{""stimulus"":""img/green_wl/8.jpg"",""time"":401},{""stimulus"":""img/green_wl/9.jpg"",""time"":452},{""stimulus"":""img/green_wl/10.jpg"",""time"":502},{""stimulus"":""img/green_wl/11.jpg"",""time"":552}]","[]"
"image-keyboard-response","150","151725","0.0-5.0-1.73","6150e9017c1b2aa8bf683c32","bdp_lott","Wed Mar 29 2023 13:47:14 GMT-0400 (Eastern Daylight Time)","361108","red","green","","748","","","","choice","","img/green_wl/choose11.jpg","1","152","green","0.5","0.5","0.5","w","",""
"animation","151","152327","0.0-5.0-2.73","6150e9017c1b2aa8bf683c32","bdp_lott","Wed Mar 29 2023 13:47:14 GMT-0400 (Eastern Daylight Time)","361108","red","green","","","","","","","","","","152","","","","","","[{""stimulus"":""img/green_wl/1.jpg"",""time"":54},{""stimulus"":""img/green_wl/2.jpg"",""time"":101},{""stimulus"":""img/green_wl/3.jpg"",""time"":151},{""stimulus"":""img/green_wl/4.jpg"",""time"":201},{""stimulus"":""img/green_wl/5.jpg"",""time"":252},{""stimulus"":""img/green_wl/6.jpg"",""time"":301},{""stimulus"":""img/green_wl/7.jpg"",""time"":352},{""stimulus"":""img/green_wl/8.jpg"",""time"":402},{""stimulus"":""img/green_wl/9.jpg"",""time"":451},{""stimulus"":""img/green_wl/10.jpg"",""time"":502},{""stimulus"":""img/green_wl/11.jpg"",""time"":552}]","[]"
"image-keyboard-response","152","152915","0.0-5.0-1.74","6150e9017c1b2aa8bf683c32","bdp_lott","Wed Mar 29 2023 13:47:14 GMT-0400 (Eastern Daylight Time)","361108","red","green","","585","","","","choice","","img/green_wl/choose11.jpg","1","151","green","0.5","0.5","0.5","l","",""
"animation","153","153516","0.0-5.0-2.74","6150e9017c1b2aa8bf683c32","bdp_lott","Wed Mar 29 2023 13:47:14 GMT-0400 (Eastern Daylight Time)","361108","red","green","","","","","","","","","","151","","","","","","[{""stimulus"":""img/green_ll/1.jpg"",""time"":52},{""stimulus"":""img/green_ll/2.jpg"",""time"":102},{""stimulus"":""img/green_ll/3.jpg"",""time"":152},{""stimulus"":""img/green_ll/4.jpg"",""time"":202},{""stimulus"":""img/green_ll/5.jpg"",""time"":252},{""stimulus"":""img/green_ll/6.jpg"",""time"":303},{""stimulus"":""img/green_ll/7.jpg"",""time"":352},{""stimulus"":""img/green_ll/8.jpg"",""time"":402},{""stimulus"":""img/green_ll/9.jpg"",""time"":452},{""stimulus"":""img/green_ll/10.jpg"",""time"":502},{""stimulus"":""img/green_ll/11.jpg"",""time"":552}]","[]"
"image-keyboard-response","154","154484","0.0-5.0-1.75","6150e9017c1b2aa8bf683c32","bdp_lott","Wed Mar 29 2023 13:47:14 GMT-0400 (Eastern Daylight Time)","361108","red","green","","966","","","","choice","","img/green_ll/choose11.jpg","1","150","green","0.5","0.5","0.5","w","",""
"animation","155","155086","0.0-5.0-2.75","6150e9017c1b2aa8bf683c32","bdp_lott","Wed Mar 29 2023 13:47:14 GMT-0400 (Eastern Daylight Time)","361108","red","green","","","","","","","","","","150","","","","","","[{""stimulus"":""img/green_wl/1.jpg"",""time"":52},{""stimulus"":""img/green_wl/2.jpg"",""time"":101},{""stimulus"":""img/green_wl/3.jpg"",""time"":151},{""stimulus"":""img/green_wl/4.jpg"",""time"":202},{""stimulus"":""img/green_wl/5.jpg"",""time"":251},{""stimulus"":""img/green_wl/6.jpg"",""time"":302},{""stimulus"":""img/green_wl/7.jpg"",""time"":351},{""stimulus"":""img/green_wl/8.jpg"",""time"":401},{""stimulus"":""img/green_wl/9.jpg"",""time"":451},{""stimulus"":""img/green_wl/10.jpg"",""time"":501},{""stimulus"":""img/green_wl/11.jpg"",""time"":553}]","[]"
"image-keyboard-response","156","156003","0.0-5.0-1.76","6150e9017c1b2aa8bf683c32","bdp_lott","Wed Mar 29 2023 13:47:14 GMT-0400 (Eastern Daylight Time)","361108","red","green","","916","","","","choice","","img/green_wl/choose11.jpg","1","149","green","0.5","0.1","0.1","l","",""
"animation","157","156605","0.0-5.0-2.76","6150e9017c1b2aa8bf683c32","bdp_lott","Wed Mar 29 2023 13:47:14 GMT-0400 (Eastern Daylight Time)","361108","red","green","","","","","","","","","","149","","","","","","[{""stimulus"":""img/green_ll/1.jpg"",""time"":52},{""stimulus"":""img/green_ll/2.jpg"",""time"":102},{""stimulus"":""img/green_ll/3.jpg"",""time"":152},{""stimulus"":""img/green_ll/4.jpg"",""time"":202},{""stimulus"":""img/green_ll/5.jpg"",""time"":253},{""stimulus"":""img/green_ll/6.jpg"",""time"":302},{""stimulus"":""img/green_ll/7.jpg"",""time"":352},{""stimulus"":""img/green_ll/8.jpg"",""time"":402},{""stimulus"":""img/green_ll/9.jpg"",""time"":452},{""stimulus"":""img/green_ll/10.jpg"",""time"":502},{""stimulus"":""img/green_ll/11.jpg"",""time"":552}]","[]"
"image-keyboard-response","158","157200","0.0-5.0-1.77","6150e9017c1b2aa8bf683c32","bdp_lott","Wed Mar 29 2023 13:47:14 GMT-0400 (Eastern Daylight Time)","361108","red","green","","592","","","","choice","","img/green_ll/choose11.jpg","1","148","green","0.5","0.1","0.1","w","",""
"animation","159","157801","0.0-5.0-2.77","6150e9017c1b2aa8bf683c32","bdp_lott","Wed Mar 29 2023 13:47:14 GMT-0400 (Eastern Daylight Time)","361108","red","green","","","","","","","","","","148","","","","","","[{""stimulus"":""img/green_wl/1.jpg"",""time"":53},{""stimulus"":""img/green_wl/2.jpg"",""time"":101},{""stimulus"":""img/green_wl/3.jpg"",""time"":151},{""stimulus"":""img/green_wl/4.jpg"",""time"":200},{""stimulus"":""img/green_wl/5.jpg"",""time"":251},{""stimulus"":""img/green_wl/6.jpg"",""time"":301},{""stimulus"":""img/green_wl/7.jpg"",""time"":351},{""stimulus"":""img/green_wl/8.jpg"",""time"":402},{""stimulus"":""img/green_wl/9.jpg"",""time"":451},{""stimulus"":""img/green_wl/10.jpg"",""time"":502},{""stimulus"":""img/green_wl/11.jpg"",""time"":551}]","[]"
"image-keyboard-response","160","158672","0.0-5.0-1.78","6150e9017c1b2aa8bf683c32","bdp_lott","Wed Mar 29 2023 13:47:14 GMT-0400 (Eastern Daylight Time)","361108","red","green","","868","","","","choice","","img/green_wl/choose11.jpg","1","147","green","0.5","0.1","0.1","l","",""
"animation","161","159273","0.0-5.0-2.78","6150e9017c1b2aa8bf683c32","bdp_lott","Wed Mar 29 2023 13:47:14 GMT-0400 (Eastern Daylight Time)","361108","red","green","","","","","","","","","","147","","","","","","[{""stimulus"":""img/green_ll/1.jpg"",""time"":52},{""stimulus"":""img/green_ll/2.jpg"",""time"":101},{""stimulus"":""img/green_ll/3.jpg"",""time"":151},{""stimulus"":""img/green_ll/4.jpg"",""time"":203},{""stimulus"":""img/green_ll/5.jpg"",""time"":251},{""stimulus"":""img/green_ll/6.jpg"",""time"":302},{""stimulus"":""img/green_ll/7.jpg"",""time"":352},{""stimulus"":""img/green_ll/8.jpg"",""time"":402},{""stimulus"":""img/green_ll/9.jpg"",""time"":451},{""stimulus"":""img/green_ll/10.jpg"",""time"":502},{""stimulus"":""img/green_ll/11.jpg"",""time"":552}]","[]"
"image-keyboard-response","162","160887","0.0-5.0-1.79","6150e9017c1b2aa8bf683c32","bdp_lott","Wed Mar 29 2023 13:47:14 GMT-0400 (Eastern Daylight Time)","361108","red","green","","1610","","","","choice","","img/green_ll/choose11.jpg","1","146","green","0.5","0.1","0.1","l","",""
"animation","163","161489","0.0-5.0-2.79","6150e9017c1b2aa8bf683c32","bdp_lott","Wed Mar 29 2023 13:47:14 GMT-0400 (Eastern Daylight Time)","361108","red","green","","","","","","","","","","146","","","","","","[{""stimulus"":""img/green_ll/1.jpg"",""time"":53},{""stimulus"":""img/green_ll/2.jpg"",""time"":102},{""stimulus"":""img/green_ll/3.jpg"",""time"":151},{""stimulus"":""img/green_ll/4.jpg"",""time"":202},{""stimulus"":""img/green_ll/5.jpg"",""time"":252},{""stimulus"":""img/green_ll/6.jpg"",""time"":302},{""stimulus"":""img/green_ll/7.jpg"",""time"":351},{""stimulus"":""img/green_ll/8.jpg"",""time"":401},{""stimulus"":""img/green_ll/9.jpg"",""time"":451},{""stimulus"":""img/green_ll/10.jpg"",""time"":501},{""stimulus"":""img/green_ll/11.jpg"",""time"":552}]","[]"
"image-keyboard-response","164","162658","0.0-5.0-1.80","6150e9017c1b2aa8bf683c32","bdp_lott","Wed Mar 29 2023 13:47:14 GMT-0400 (Eastern Daylight Time)","361108","red","green","","1166","","","","choice","","img/green_ll/choose11.jpg","1","145","green","0.5","0.1","0.1","l","",""
"animation","165","163260","0.0-5.0-2.80","6150e9017c1b2aa8bf683c32","bdp_lott","Wed Mar 29 2023 13:47:14 GMT-0400 (Eastern Daylight Time)","361108","red","green","","","","","","","","","","145","","","","","","[{""stimulus"":""img/green_ll/1.jpg"",""time"":51},{""stimulus"":""img/green_ll/2.jpg"",""time"":101},{""stimulus"":""img/green_ll/3.jpg"",""time"":152},{""stimulus"":""img/green_ll/4.jpg"",""time"":202},{""stimulus"":""img/green_ll/5.jpg"",""time"":252},{""stimulus"":""img/green_ll/6.jpg"",""time"":302},{""stimulus"":""img/green_ll/7.jpg"",""time"":352},{""stimulus"":""img/green_ll/8.jpg"",""time"":402},{""stimulus"":""img/green_ll/9.jpg"",""time"":452},{""stimulus"":""img/green_ll/10.jpg"",""time"":501},{""stimulus"":""img/green_ll/11.jpg"",""time"":552}]","[]"
"image-keyboard-response","166","163697","0.0-5.0-1.81","6150e9017c1b2aa8bf683c32","bdp_lott","Wed Mar 29 2023 13:47:14 GMT-0400 (Eastern Daylight Time)","361108","red","green","","435","","","","choice","","img/green_ll/choose11.jpg","2","144","red","0.5","0.1","0.5","l","",""
"animation","167","164299","0.0-5.0-2.81","6150e9017c1b2aa8bf683c32","bdp_lott","Wed Mar 29 2023 13:47:14 GMT-0400 (Eastern Daylight Time)","361108","red","green","","","","","","","","","","144","","","","","","[{""stimulus"":""img/red_ll/1.jpg"",""time"":52},{""stimulus"":""img/red_ll/2.jpg"",""time"":102},{""stimulus"":""img/red_ll/3.jpg"",""time"":151},{""stimulus"":""img/red_ll/4.jpg"",""time"":202},{""stimulus"":""img/red_ll/5.jpg"",""time"":252},{""stimulus"":""img/red_ll/6.jpg"",""time"":301},{""stimulus"":""img/red_ll/7.jpg"",""time"":352},{""stimulus"":""img/red_ll/8.jpg"",""time"":401},{""stimulus"":""img/red_ll/9.jpg"",""time"":451},{""stimulus"":""img/red_ll/10.jpg"",""time"":501},{""stimulus"":""img/red_ll/11.jpg"",""time"":552}]","[]"
"image-keyboard-response","168","164860","0.0-5.0-1.82","6150e9017c1b2aa8bf683c32","bdp_lott","Wed Mar 29 2023 13:47:14 GMT-0400 (Eastern Daylight Time)","361108","red","green","","557","","","","choice","","img/red_ll/choose11.jpg","2","143","red","0.5","0.1","0.5","l","",""
"animation","169","165461","0.0-5.0-2.82","6150e9017c1b2aa8bf683c32","bdp_lott","Wed Mar 29 2023 13:47:14 GMT-0400 (Eastern Daylight Time)","361108","red","green","","","","","","","","","","143","","","","","","[{""stimulus"":""img/red_ll/1.jpg"",""time"":52},{""stimulus"":""img/red_ll/2.jpg"",""time"":102},{""stimulus"":""img/red_ll/3.jpg"",""time"":152},{""stimulus"":""img/red_ll/4.jpg"",""time"":203},{""stimulus"":""img/red_ll/5.jpg"",""time"":252},{""stimulus"":""img/red_ll/6.jpg"",""time"":302},{""stimulus"":""img/red_ll/7.jpg"",""time"":352},{""stimulus"":""img/red_ll/8.jpg"",""time"":402},{""stimulus"":""img/red_ll/9.jpg"",""time"":452},{""stimulus"":""img/red_ll/10.jpg"",""time"":503},{""stimulus"":""img/red_ll/11.jpg"",""time"":552}]","[]"
"image-keyboard-response","170","166235","0.0-5.0-1.83","6150e9017c1b2aa8bf683c32","bdp_lott","Wed Mar 29 2023 13:47:14 GMT-0400 (Eastern Daylight Time)","361108","red","green","","770","","","","choice","","img/red_ll/choose11.jpg","1","142","green","0.5","0.1","0.1","l","",""
"animation","171","166836","0.0-5.0-2.83","6150e9017c1b2aa8bf683c32","bdp_lott","Wed Mar 29 2023 13:47:14 GMT-0400 (Eastern Daylight Time)","361108","red","green","","","","","","","","","","142","","","","","","[{""stimulus"":""img/green_ll/1.jpg"",""time"":57},{""stimulus"":""img/green_ll/2.jpg"",""time"":101},{""stimulus"":""img/green_ll/3.jpg"",""time"":152},{""stimulus"":""img/green_ll/4.jpg"",""time"":202},{""stimulus"":""img/green_ll/5.jpg"",""time"":252},{""stimulus"":""img/green_ll/6.jpg"",""time"":302},{""stimulus"":""img/green_ll/7.jpg"",""time"":352},{""stimulus"":""img/green_ll/8.jpg"",""time"":402},{""stimulus"":""img/green_ll/9.jpg"",""time"":452},{""stimulus"":""img/green_ll/10.jpg"",""time"":502},{""stimulus"":""img/green_ll/11.jpg"",""time"":551}]","[]"
"image-keyboard-response","172","167520","0.0-5.0-1.84","6150e9017c1b2aa8bf683c32","bdp_lott","Wed Mar 29 2023 13:47:14 GMT-0400 (Eastern Daylight Time)","361108","red","green","","682","","","","choice","","img/green_ll/choose11.jpg","2","141","red","0.5","0.1","0.5","l","",""
"animation","173","168122","0.0-5.0-2.84","6150e9017c1b2aa8bf683c32","bdp_lott","Wed Mar 29 2023 13:47:14 GMT-0400 (Eastern Daylight Time)","361108","red","green","","","","","","","","","","141","","","","","","[{""stimulus"":""img/red_ll/1.jpg"",""time"":52},{""stimulus"":""img/red_ll/2.jpg"",""time"":102},{""stimulus"":""img/red_ll/3.jpg"",""time"":152},{""stimulus"":""img/red_ll/4.jpg"",""time"":202},{""stimulus"":""img/red_ll/5.jpg"",""time"":252},{""stimulus"":""img/red_ll/6.jpg"",""time"":301},{""stimulus"":""img/red_ll/7.jpg"",""time"":352},{""stimulus"":""img/red_ll/8.jpg"",""time"":401},{""stimulus"":""img/red_ll/9.jpg"",""time"":452},{""stimulus"":""img/red_ll/10.jpg"",""time"":502},{""stimulus"":""img/red_ll/11.jpg"",""time"":552}]","[]"
"image-keyboard-response","174","169058","0.0-5.0-1.85","6150e9017c1b2aa8bf683c32","bdp_lott","Wed Mar 29 2023 13:47:14 GMT-0400 (Eastern Daylight Time)","361108","red","green","","934","","","","choice","","img/red_ll/choose11.jpg","2","140","red","0.5","0.1","0.5","w","",""
"animation","175","169659","0.0-5.0-2.85","6150e9017c1b2aa8bf683c32","bdp_lott","Wed Mar 29 2023 13:47:14 GMT-0400 (Eastern Daylight Time)","361108","red","green","","","","","","","","","","140","","","","","","[{""stimulus"":""img/red_lw/1.jpg"",""time"":51},{""stimulus"":""img/red_lw/2.jpg"",""time"":101},{""stimulus"":""img/red_lw/3.jpg"",""time"":151},{""stimulus"":""img/red_lw/4.jpg"",""time"":202},{""stimulus"":""img/red_lw/5.jpg"",""time"":251},{""stimulus"":""img/red_lw/6.jpg"",""time"":301},{""stimulus"":""img/red_lw/7.jpg"",""time"":352},{""stimulus"":""img/red_lw/8.jpg"",""time"":401},{""stimulus"":""img/red_lw/9.jpg"",""time"":452},{""stimulus"":""img/red_lw/10.jpg"",""time"":502},{""stimulus"":""img/red_lw/11.jpg"",""time"":551}]","[]"
"image-keyboard-response","176","170404","0.0-5.0-1.86","6150e9017c1b2aa8bf683c32","bdp_lott","Wed Mar 29 2023 13:47:14 GMT-0400 (Eastern Daylight Time)","361108","red","green","","741","","","","choice","","img/red_lw/choose11.jpg","2","139","red","0.5","0.1","0.5","l","",""
"animation","177","171006","0.0-5.0-2.86","6150e9017c1b2aa8bf683c32","bdp_lott","Wed Mar 29 2023 13:47:14 GMT-0400 (Eastern Daylight Time)","361108","red","green","","","","","","","","","","139","","","","","","[{""stimulus"":""img/red_ll/1.jpg"",""time"":53},{""stimulus"":""img/red_ll/2.jpg"",""time"":102},{""stimulus"":""img/red_ll/3.jpg"",""time"":152},{""stimulus"":""img/red_ll/4.jpg"",""time"":202},{""stimulus"":""img/red_ll/5.jpg"",""time"":252},{""stimulus"":""img/red_ll/6.jpg"",""time"":302},{""stimulus"":""img/red_ll/7.jpg"",""time"":352},{""stimulus"":""img/red_ll/8.jpg"",""time"":402},{""stimulus"":""img/red_ll/9.jpg"",""time"":452},{""stimulus"":""img/red_ll/10.jpg"",""time"":513},{""stimulus"":""img/red_ll/11.jpg"",""time"":552}]","[]"
"image-keyboard-response","178","171824","0.0-5.0-1.87","6150e9017c1b2aa8bf683c32","bdp_lott","Wed Mar 29 2023 13:47:14 GMT-0400 (Eastern Daylight Time)","361108","red","green","","816","","","","choice","","img/red_ll/choose11.jpg","2","138","red","0.5","0.1","0.5","w","",""
"animation","179","172426","0.0-5.0-2.87","6150e9017c1b2aa8bf683c32","bdp_lott","Wed Mar 29 2023 13:47:14 GMT-0400 (Eastern Daylight Time)","361108","red","green","","","","","","","","","","138","","","","","","[{""stimulus"":""img/red_lw/1.jpg"",""time"":52},{""stimulus"":""img/red_lw/2.jpg"",""time"":101},{""stimulus"":""img/red_lw/3.jpg"",""time"":152},{""stimulus"":""img/red_lw/4.jpg"",""time"":202},{""stimulus"":""img/red_lw/5.jpg"",""time"":253},{""stimulus"":""img/red_lw/6.jpg"",""time"":301},{""stimulus"":""img/red_lw/7.jpg"",""time"":352},{""stimulus"":""img/red_lw/8.jpg"",""time"":403},{""stimulus"":""img/red_lw/9.jpg"",""time"":451},{""stimulus"":""img/red_lw/10.jpg"",""time"":502},{""stimulus"":""img/red_lw/11.jpg"",""time"":551}]","[]"
"image-keyboard-response","180","173143","0.0-5.0-1.88","6150e9017c1b2aa8bf683c32","bdp_lott","Wed Mar 29 2023 13:47:14 GMT-0400 (Eastern Daylight Time)","361108","red","green","","715","","","","choice","","img/red_lw/choose11.jpg","2","137","red","0.5","0.1","0.5","w","",""
"animation","181","173745","0.0-5.0-2.88","6150e9017c1b2aa8bf683c32","bdp_lott","Wed Mar 29 2023 13:47:14 GMT-0400 (Eastern Daylight Time)","361108","red","green","","","","","","","","","","137","","","","","","[{""stimulus"":""img/red_lw/1.jpg"",""time"":63},{""stimulus"":""img/red_lw/2.jpg"",""time"":101},{""stimulus"":""img/red_lw/3.jpg"",""time"":151},{""stimulus"":""img/red_lw/4.jpg"",""time"":202},{""stimulus"":""img/red_lw/5.jpg"",""time"":252},{""stimulus"":""img/red_lw/6.jpg"",""time"":301},{""stimulus"":""img/red_lw/7.jpg"",""time"":351},{""stimulus"":""img/red_lw/8.jpg"",""time"":401},{""stimulus"":""img/red_lw/9.jpg"",""time"":452},{""stimulus"":""img/red_lw/10.jpg"",""time"":501},{""stimulus"":""img/red_lw/11.jpg"",""time"":552}]","[]"
"image-keyboard-response","182","174391","0.0-5.0-1.89","6150e9017c1b2aa8bf683c32","bdp_lott","Wed Mar 29 2023 13:47:14 GMT-0400 (Eastern Daylight Time)","361108","red","green","","643","","","","choice","","img/red_lw/choose11.jpg","2","136","red","0.5","0.1","0.5","w","",""
"animation","183","174992","0.0-5.0-2.89","6150e9017c1b2aa8bf683c32","bdp_lott","Wed Mar 29 2023 13:47:14 GMT-0400 (Eastern Daylight Time)","361108","red","green","","","","","","","","","","136","","","","","","[{""stimulus"":""img/red_lw/1.jpg"",""time"":52},{""stimulus"":""img/red_lw/2.jpg"",""time"":102},{""stimulus"":""img/red_lw/3.jpg"",""time"":152},{""stimulus"":""img/red_lw/4.jpg"",""time"":202},{""stimulus"":""img/red_lw/5.jpg"",""time"":252},{""stimulus"":""img/red_lw/6.jpg"",""time"":302},{""stimulus"":""img/red_lw/7.jpg"",""time"":352},{""stimulus"":""img/red_lw/8.jpg"",""time"":402},{""stimulus"":""img/red_lw/9.jpg"",""time"":455},{""stimulus"":""img/red_lw/10.jpg"",""time"":501},{""stimulus"":""img/red_lw/11.jpg"",""time"":552}]","[]"
"image-keyboard-response","184","175741","0.0-5.0-1.90","6150e9017c1b2aa8bf683c32","bdp_lott","Wed Mar 29 2023 13:47:14 GMT-0400 (Eastern Daylight Time)","361108","red","green","","748","","","","choice","","img/red_lw/choose11.jpg","2","135","red","0.5","0.1","0.5","l","",""
"animation","185","176342","0.0-5.0-2.90","6150e9017c1b2aa8bf683c32","bdp_lott","Wed Mar 29 2023 13:47:14 GMT-0400 (Eastern Daylight Time)","361108","red","green","","","","","","","","","","135","","","","","","[{""stimulus"":""img/red_ll/1.jpg"",""time"":52},{""stimulus"":""img/red_ll/2.jpg"",""time"":101},{""stimulus"":""img/red_ll/3.jpg"",""time"":151},{""stimulus"":""img/red_ll/4.jpg"",""time"":201},{""stimulus"":""img/red_ll/5.jpg"",""time"":252},{""stimulus"":""img/red_ll/6.jpg"",""time"":301},{""stimulus"":""img/red_ll/7.jpg"",""time"":351},{""stimulus"":""img/red_ll/8.jpg"",""time"":401},{""stimulus"":""img/red_ll/9.jpg"",""time"":451},{""stimulus"":""img/red_ll/10.jpg"",""time"":501},{""stimulus"":""img/red_ll/11.jpg"",""time"":552}]","[]"
"image-keyboard-response","186","176964","0.0-5.0-1.91","6150e9017c1b2aa8bf683c32","bdp_lott","Wed Mar 29 2023 13:47:14 GMT-0400 (Eastern Daylight Time)","361108","red","green","","619","","","","choice","","img/red_ll/choose11.jpg","1","134","green","0.5","0.1","0.1","l","",""
"animation","187","177566","0.0-5.0-2.91","6150e9017c1b2aa8bf683c32","bdp_lott","Wed Mar 29 2023 13:47:14 GMT-0400 (Eastern Daylight Time)","361108","red","green","","","","","","","","","","134","","","","","","[{""stimulus"":""img/green_ll/1.jpg"",""time"":51},{""stimulus"":""img/green_ll/2.jpg"",""time"":101},{""stimulus"":""img/green_ll/3.jpg"",""time"":152},{""stimulus"":""img/green_ll/4.jpg"",""time"":201},{""stimulus"":""img/green_ll/5.jpg"",""time"":252},{""stimulus"":""img/green_ll/6.jpg"",""time"":301},{""stimulus"":""img/green_ll/7.jpg"",""time"":352},{""stimulus"":""img/green_ll/8.jpg"",""time"":402},{""stimulus"":""img/green_ll/9.jpg"",""time"":452},{""stimulus"":""img/green_ll/10.jpg"",""time"":503},{""stimulus"":""img/green_ll/11.jpg"",""time"":551}]","[]"
"image-keyboard-response","188","178402","0.0-5.0-1.92","6150e9017c1b2aa8bf683c32","bdp_lott","Wed Mar 29 2023 13:47:14 GMT-0400 (Eastern Daylight Time)","361108","red","green","","835","","","","choice","","img/green_ll/choose11.jpg","2","133","red","0.5","0.1","0.5","w","",""
"animation","189","179005","0.0-5.0-2.92","6150e9017c1b2aa8bf683c32","bdp_lott","Wed Mar 29 2023 13:47:14 GMT-0400 (Eastern Daylight Time)","361108","red","green","","","","","","","","","","133","","","","","","[{""stimulus"":""img/red_lw/1.jpg"",""time"":53},{""stimulus"":""img/red_lw/2.jpg"",""time"":102},{""stimulus"":""img/red_lw/3.jpg"",""time"":151},{""stimulus"":""img/red_lw/4.jpg"",""time"":202},{""stimulus"":""img/red_lw/5.jpg"",""time"":252},{""stimulus"":""img/red_lw/6.jpg"",""time"":302},{""stimulus"":""img/red_lw/7.jpg"",""time"":352},{""stimulus"":""img/red_lw/8.jpg"",""time"":402},{""stimulus"":""img/red_lw/9.jpg"",""time"":451},{""stimulus"":""img/red_lw/10.jpg"",""time"":502},{""stimulus"":""img/red_lw/11.jpg"",""time"":551}]","[]"
"image-keyboard-response","190","179828","0.0-5.0-1.93","6150e9017c1b2aa8bf683c32","bdp_lott","Wed Mar 29 2023 13:47:14 GMT-0400 (Eastern Daylight Time)","361108","red","green","","821","","","","choice","","img/red_lw/choose11.jpg","2","132","red","0.5","0.1","0.5","w","",""
