"event","trial","time","trialtype","subject_id","task","startTime","totalTime","fairMachine","unfairMachine","trial_type","trial_index","time_elapsed","internal_node_id","view_history","rt","success","stimulus","key_press","roundsLeft","chosen","pFairMachWin","pUnfairMachWin","pTrialWin","outcome","animation_sequence","responses"
"focus","0","0","focusevent","63ea4301f63c1d26f0ff83e9","bdp_lott","Mon Mar 27 2023 07:37:16 GMT-0400 (Eastern Daylight Time)","340612","green","red","","","","","","","","","","","","","","","","",""
"","","","","63ea4301f63c1d26f0ff83e9","bdp_lott","Mon Mar 27 2023 07:37:16 GMT-0400 (Eastern Daylight Time)","340612","green","red","pavlovia","0","31","0.0-0.0","","","","","","","","","","","","",""
"","","","","63ea4301f63c1d26f0ff83e9","bdp_lott","Mon Mar 27 2023 07:37:16 GMT-0400 (Eastern Daylight Time)","340612","green","red","instructions","1","2395","0.0-1.0","[{""page_index"":0,""viewing_time"":2363}]","2363","","","","","","","","","","",""
"fullscreenexit","2","5054","fullscreenexit","63ea4301f63c1d26f0ff83e9","bdp_lott","Mon Mar 27 2023 07:37:16 GMT-0400 (Eastern Daylight Time)","340612","green","red","","","","","","","","","","","","","","","","",""
"","","","","63ea4301f63c1d26f0ff83e9","bdp_lott","Mon Mar 27 2023 07:37:16 GMT-0400 (Eastern Daylight Time)","340612","green","red","fullscreen","2","5809","0.0-2.0","","","true","","","","","","","","","",""
"","","","fullscreenfail","63ea4301f63c1d26f0ff83e9","bdp_lott","Mon Mar 27 2023 07:37:16 GMT-0400 (Eastern Daylight Time)","340612","green","red","image-keyboard-response","3","9603","0.0-3.0-0.0","","3787","","","32","","","","","","","",""
"","","","","63ea4301f63c1d26f0ff83e9","bdp_lott","Mon Mar 27 2023 07:37:16 GMT-0400 (Eastern Daylight Time)","340612","green","red","instructions","4","40640","0.0-4.0","[{""page_index"":0,""viewing_time"":30782}]","30783","","","","","","","","","","",""
"","","","choice","63ea4301f63c1d26f0ff83e9","bdp_lott","Mon Mar 27 2023 07:37:16 GMT-0400 (Eastern Daylight Time)","340612","green","red","image-keyboard-response","5","42438","0.0-5.0-1.0","","1793","","img/red_ll/initchoose11.jpg","1","225","green","0.5","0.5","0.5","w","",""
"","","","","63ea4301f63c1d26f0ff83e9","bdp_lott","Mon Mar 27 2023 07:37:16 GMT-0400 (Eastern Daylight Time)","340612","green","red","animation","6","43083","0.0-5.0-2.0","","","","","","225","","","","","","[{""stimulus"":""img/green_wl/1.jpg"",""time"":54},{""stimulus"":""img/green_wl/2.jpg"",""time"":103},{""stimulus"":""img/green_wl/3.jpg"",""time"":153},{""stimulus"":""img/green_wl/4.jpg"",""time"":202},{""stimulus"":""img/green_wl/5.jpg"",""time"":253},{""stimulus"":""img/green_wl/6.jpg"",""time"":313},{""stimulus"":""img/green_wl/7.jpg"",""time"":363},{""stimulus"":""img/green_wl/8.jpg"",""time"":422},{""stimulus"":""img/green_wl/9.jpg"",""time"":472},{""stimulus"":""img/green_wl/10.jpg"",""time"":532},{""stimulus"":""img/green_wl/11.jpg"",""time"":583}]","[]"
"","","","choice","63ea4301f63c1d26f0ff83e9","bdp_lott","Mon Mar 27 2023 07:37:16 GMT-0400 (Eastern Daylight Time)","340612","green","red","image-keyboard-response","7","44715","0.0-5.0-1.1","","1631","","img/green_wl/choose11.jpg","2","224","red","0.5","0.5","0.5","w","",""
"","","","","63ea4301f63c1d26f0ff83e9","bdp_lott","Mon Mar 27 2023 07:37:16 GMT-0400 (Eastern Daylight Time)","340612","green","red","animation","8","45324","0.0-5.0-2.1","","","","","","224","","","","","","[{""stimulus"":""img/red_ww/1.jpg"",""time"":58},{""stimulus"":""img/red_ww/2.jpg"",""time"":108},{""stimulus"":""img/red_ww/3.jpg"",""time"":157},{""stimulus"":""img/red_ww/4.jpg"",""time"":207},{""stimulus"":""img/red_ww/5.jpg"",""time"":258},{""stimulus"":""img/red_ww/6.jpg"",""time"":308},{""stimulus"":""img/red_ww/7.jpg"",""time"":357},{""stimulus"":""img/red_ww/8.jpg"",""time"":407},{""stimulus"":""img/red_ww/9.jpg"",""time"":458},{""stimulus"":""img/red_ww/10.jpg"",""time"":508},{""stimulus"":""img/red_ww/11.jpg"",""time"":557}]","[]"
"","","","choice","63ea4301f63c1d26f0ff83e9","bdp_lott","Mon Mar 27 2023 07:37:16 GMT-0400 (Eastern Daylight Time)","340612","green","red","image-keyboard-response","9","47406","0.0-5.0-1.2","","2079","","img/red_ww/choose11.jpg","2","223","red","0.5","0.5","0.5","w","",""
"","","","","63ea4301f63c1d26f0ff83e9","bdp_lott","Mon Mar 27 2023 07:37:16 GMT-0400 (Eastern Daylight Time)","340612","green","red","animation","10","48044","0.0-5.0-2.2","","","","","","223","","","","","","[{""stimulus"":""img/red_ww/1.jpg"",""time"":58},{""stimulus"":""img/red_ww/2.jpg"",""time"":118},{""stimulus"":""img/red_ww/3.jpg"",""time"":168},{""stimulus"":""img/red_ww/4.jpg"",""time"":227},{""stimulus"":""img/red_ww/5.jpg"",""time"":278},{""stimulus"":""img/red_ww/6.jpg"",""time"":328},{""stimulus"":""img/red_ww/7.jpg"",""time"":378},{""stimulus"":""img/red_ww/8.jpg"",""time"":429},{""stimulus"":""img/red_ww/9.jpg"",""time"":487},{""stimulus"":""img/red_ww/10.jpg"",""time"":537},{""stimulus"":""img/red_ww/11.jpg"",""time"":588}]","[]"
"","","","choice","63ea4301f63c1d26f0ff83e9","bdp_lott","Mon Mar 27 2023 07:37:16 GMT-0400 (Eastern Daylight Time)","340612","green","red","image-keyboard-response","11","49467","0.0-5.0-1.3","","1420","","img/red_ww/choose11.jpg","2","222","red","0.5","0.5","0.5","l","",""
"","","","","63ea4301f63c1d26f0ff83e9","bdp_lott","Mon Mar 27 2023 07:37:16 GMT-0400 (Eastern Daylight Time)","340612","green","red","animation","12","50084","0.0-5.0-2.3","","","","","","222","","","","","","[{""stimulus"":""img/red_wl/1.jpg"",""time"":57},{""stimulus"":""img/red_wl/2.jpg"",""time"":106},{""stimulus"":""img/red_wl/3.jpg"",""time"":156},{""stimulus"":""img/red_wl/4.jpg"",""time"":207},{""stimulus"":""img/red_wl/5.jpg"",""time"":256},{""stimulus"":""img/red_wl/6.jpg"",""time"":306},{""stimulus"":""img/red_wl/7.jpg"",""time"":356},{""stimulus"":""img/red_wl/8.jpg"",""time"":406},{""stimulus"":""img/red_wl/9.jpg"",""time"":457},{""stimulus"":""img/red_wl/10.jpg"",""time"":516},{""stimulus"":""img/red_wl/11.jpg"",""time"":567}]","[]"
"","","","choice","63ea4301f63c1d26f0ff83e9","bdp_lott","Mon Mar 27 2023 07:37:16 GMT-0400 (Eastern Daylight Time)","340612","green","red","image-keyboard-response","13","51431","0.0-5.0-1.4","","1345","","img/red_wl/choose11.jpg","1","221","green","0.5","0.5","0.5","w","",""
"","","","","63ea4301f63c1d26f0ff83e9","bdp_lott","Mon Mar 27 2023 07:37:16 GMT-0400 (Eastern Daylight Time)","340612","green","red","animation","14","52085","0.0-5.0-2.4","","","","","","221","","","","","","[{""stimulus"":""img/green_wl/1.jpg"",""time"":53},{""stimulus"":""img/green_wl/2.jpg"",""time"":105},{""stimulus"":""img/green_wl/3.jpg"",""time"":163},{""stimulus"":""img/green_wl/4.jpg"",""time"":214},{""stimulus"":""img/green_wl/5.jpg"",""time"":273},{""stimulus"":""img/green_wl/6.jpg"",""time"":324},{""stimulus"":""img/green_wl/7.jpg"",""time"":382},{""stimulus"":""img/green_wl/8.jpg"",""time"":433},{""stimulus"":""img/green_wl/9.jpg"",""time"":492},{""stimulus"":""img/green_wl/10.jpg"",""time"":543},{""stimulus"":""img/green_wl/11.jpg"",""time"":602}]","[]"
"","","","choice","63ea4301f63c1d26f0ff83e9","bdp_lott","Mon Mar 27 2023 07:37:16 GMT-0400 (Eastern Daylight Time)","340612","green","red","image-keyboard-response","15","53307","0.0-5.0-1.5","","1220","","img/green_wl/choose11.jpg","1","220","green","0.5","0.5","0.5","l","",""
"","","","","63ea4301f63c1d26f0ff83e9","bdp_lott","Mon Mar 27 2023 07:37:16 GMT-0400 (Eastern Daylight Time)","340612","green","red","animation","16","53924","0.0-5.0-2.5","","","","","","220","","","","","","[{""stimulus"":""img/green_ll/1.jpg"",""time"":58},{""stimulus"":""img/green_ll/2.jpg"",""time"":108},{""stimulus"":""img/green_ll/3.jpg"",""time"":158},{""stimulus"":""img/green_ll/4.jpg"",""time"":207},{""stimulus"":""img/green_ll/5.jpg"",""time"":258},{""stimulus"":""img/green_ll/6.jpg"",""time"":307},{""stimulus"":""img/green_ll/7.jpg"",""time"":358},{""stimulus"":""img/green_ll/8.jpg"",""time"":408},{""stimulus"":""img/green_ll/9.jpg"",""time"":458},{""stimulus"":""img/green_ll/10.jpg"",""time"":507},{""stimulus"":""img/green_ll/11.jpg"",""time"":568}]","[]"
"","","","choice","63ea4301f63c1d26f0ff83e9","bdp_lott","Mon Mar 27 2023 07:37:16 GMT-0400 (Eastern Daylight Time)","340612","green","red","image-keyboard-response","17","54630","0.0-5.0-1.6","","704","","img/green_ll/choose11.jpg","2","219","red","0.5","0.5","0.5","l","",""
"","","","","63ea4301f63c1d26f0ff83e9","bdp_lott","Mon Mar 27 2023 07:37:16 GMT-0400 (Eastern Daylight Time)","340612","green","red","animation","18","55235","0.0-5.0-2.6","","","","","","219","","","","","","[{""stimulus"":""img/red_ll/1.jpg"",""time"":56},{""stimulus"":""img/red_ll/2.jpg"",""time"":106},{""stimulus"":""img/red_ll/3.jpg"",""time"":155},{""stimulus"":""img/red_ll/4.jpg"",""time"":205},{""stimulus"":""img/red_ll/5.jpg"",""time"":256},{""stimulus"":""img/red_ll/6.jpg"",""time"":305},{""stimulus"":""img/red_ll/7.jpg"",""time"":356},{""stimulus"":""img/red_ll/8.jpg"",""time"":405},{""stimulus"":""img/red_ll/9.jpg"",""time"":455},{""stimulus"":""img/red_ll/10.jpg"",""time"":506},{""stimulus"":""img/red_ll/11.jpg"",""time"":556}]","[]"
"","","","choice","63ea4301f63c1d26f0ff83e9","bdp_lott","Mon Mar 27 2023 07:37:16 GMT-0400 (Eastern Daylight Time)","340612","green","red","image-keyboard-response","19","55813","0.0-5.0-1.7","","576","","img/red_ll/choose11.jpg","2","218","red","0.5","0.5","0.5","w","",""
"","","","","63ea4301f63c1d26f0ff83e9","bdp_lott","Mon Mar 27 2023 07:37:16 GMT-0400 (Eastern Daylight Time)","340612","green","red","animation","20","56445","0.0-5.0-2.7","","","","","","218","","","","","","[{""stimulus"":""img/red_lw/1.jpg"",""time"":59},{""stimulus"":""img/red_lw/2.jpg"",""time"":109},{""stimulus"":""img/red_lw/3.jpg"",""time"":159},{""stimulus"":""img/red_lw/4.jpg"",""time"":209},{""stimulus"":""img/red_lw/5.jpg"",""time"":259},{""stimulus"":""img/red_lw/6.jpg"",""time"":309},{""stimulus"":""img/red_lw/7.jpg"",""time"":369},{""stimulus"":""img/red_lw/8.jpg"",""time"":419},{""stimulus"":""img/red_lw/9.jpg"",""time"":478},{""stimulus"":""img/red_lw/10.jpg"",""time"":528},{""stimulus"":""img/red_lw/11.jpg"",""time"":579}]","[]"
"","","","choice","63ea4301f63c1d26f0ff83e9","bdp_lott","Mon Mar 27 2023 07:37:16 GMT-0400 (Eastern Daylight Time)","340612","green","red","image-keyboard-response","21","57641","0.0-5.0-1.8","","1194","","img/red_lw/choose11.jpg","2","217","red","0.5","0.5","0.5","w","",""
"","","","","63ea4301f63c1d26f0ff83e9","bdp_lott","Mon Mar 27 2023 07:37:16 GMT-0400 (Eastern Daylight Time)","340612","green","red","animation","22","58265","0.0-5.0-2.8","","","","","","217","","","","","","[{""stimulus"":""img/red_lw/1.jpg"",""time"":54},{""stimulus"":""img/red_lw/2.jpg"",""time"":114},{""stimulus"":""img/red_lw/3.jpg"",""time"":164},{""stimulus"":""img/red_lw/4.jpg"",""time"":213},{""stimulus"":""img/red_lw/5.jpg"",""time"":263},{""stimulus"":""img/red_lw/6.jpg"",""time"":323},{""stimulus"":""img/red_lw/7.jpg"",""time"":374},{""stimulus"":""img/red_lw/8.jpg"",""time"":424},{""stimulus"":""img/red_lw/9.jpg"",""time"":474},{""stimulus"":""img/red_lw/10.jpg"",""time"":524},{""stimulus"":""img/red_lw/11.jpg"",""time"":573}]","[]"
"","","","choice","63ea4301f63c1d26f0ff83e9","bdp_lott","Mon Mar 27 2023 07:37:16 GMT-0400 (Eastern Daylight Time)","340612","green","red","image-keyboard-response","23","58845","0.0-5.0-1.9","","577","","img/red_lw/choose11.jpg","1","216","green","0.5","0.5","0.5","l","",""
"","","","","63ea4301f63c1d26f0ff83e9","bdp_lott","Mon Mar 27 2023 07:37:16 GMT-0400 (Eastern Daylight Time)","340612","green","red","animation","24","59455","0.0-5.0-2.9","","","","","","216","","","","","","[{""stimulus"":""img/green_lw/1.jpg"",""time"":60},{""stimulus"":""img/green_lw/2.jpg"",""time"":110},{""stimulus"":""img/green_lw/3.jpg"",""time"":160},{""stimulus"":""img/green_lw/4.jpg"",""time"":209},{""stimulus"":""img/green_lw/5.jpg"",""time"":260},{""stimulus"":""img/green_lw/6.jpg"",""time"":310},{""stimulus"":""img/green_lw/7.jpg"",""time"":359},{""stimulus"":""img/green_lw/8.jpg"",""time"":410},{""stimulus"":""img/green_lw/9.jpg"",""time"":460},{""stimulus"":""img/green_lw/10.jpg"",""time"":509},{""stimulus"":""img/green_lw/11.jpg"",""time"":560}]","[]"
"","","","choice","63ea4301f63c1d26f0ff83e9","bdp_lott","Mon Mar 27 2023 07:37:16 GMT-0400 (Eastern Daylight Time)","340612","green","red","image-keyboard-response","25","60572","0.0-5.0-1.10","","1116","","img/green_lw/choose11.jpg","1","215","green","0.5","0.5","0.5","w","",""
"","","","","63ea4301f63c1d26f0ff83e9","bdp_lott","Mon Mar 27 2023 07:37:16 GMT-0400 (Eastern Daylight Time)","340612","green","red","animation","26","61205","0.0-5.0-2.10","","","","","","215","","","","","","[{""stimulus"":""img/green_ww/1.jpg"",""time"":52},{""stimulus"":""img/green_ww/2.jpg"",""time"":101},{""stimulus"":""img/green_ww/3.jpg"",""time"":152},{""stimulus"":""img/green_ww/4.jpg"",""time"":201},{""stimulus"":""img/green_ww/5.jpg"",""time"":251},{""stimulus"":""img/green_ww/6.jpg"",""time"":302},{""stimulus"":""img/green_ww/7.jpg"",""time"":352},{""stimulus"":""img/green_ww/8.jpg"",""time"":412},{""stimulus"":""img/green_ww/9.jpg"",""time"":461},{""stimulus"":""img/green_ww/10.jpg"",""time"":522},{""stimulus"":""img/green_ww/11.jpg"",""time"":581}]","[]"
"","","","choice","63ea4301f63c1d26f0ff83e9","bdp_lott","Mon Mar 27 2023 07:37:16 GMT-0400 (Eastern Daylight Time)","340612","green","red","image-keyboard-response","27","62792","0.0-5.0-1.11","","1585","","img/green_ww/choose11.jpg","1","214","green","0.5","0.5","0.5","w","",""
"","","","","63ea4301f63c1d26f0ff83e9","bdp_lott","Mon Mar 27 2023 07:37:16 GMT-0400 (Eastern Daylight Time)","340612","green","red","animation","28","63445","0.0-5.0-2.11","","","","","","214","","","","","","[{""stimulus"":""img/green_ww/1.jpg"",""time"":51},{""stimulus"":""img/green_ww/2.jpg"",""time"":102},{""stimulus"":""img/green_ww/3.jpg"",""time"":162},{""stimulus"":""img/green_ww/4.jpg"",""time"":212},{""stimulus"":""img/green_ww/5.jpg"",""time"":272},{""stimulus"":""img/green_ww/6.jpg"",""time"":322},{""stimulus"":""img/green_ww/7.jpg"",""time"":382},{""stimulus"":""img/green_ww/8.jpg"",""time"":432},{""stimulus"":""img/green_ww/9.jpg"",""time"":492},{""stimulus"":""img/green_ww/10.jpg"",""time"":551},{""stimulus"":""img/green_ww/11.jpg"",""time"":602}]","[]"
"","","","choice","63ea4301f63c1d26f0ff83e9","bdp_lott","Mon Mar 27 2023 07:37:16 GMT-0400 (Eastern Daylight Time)","340612","green","red","image-keyboard-response","29","64959","0.0-5.0-1.12","","1511","","img/green_ww/choose11.jpg","2","213","red","0.5","0.5","0.5","w","",""
"","","","","63ea4301f63c1d26f0ff83e9","bdp_lott","Mon Mar 27 2023 07:37:16 GMT-0400 (Eastern Daylight Time)","340612","green","red","animation","30","65595","0.0-5.0-2.12","","","","","","213","","","","","","[{""stimulus"":""img/red_ww/1.jpg"",""time"":57},{""stimulus"":""img/red_ww/2.jpg"",""time"":107},{""stimulus"":""img/red_ww/3.jpg"",""time"":158},{""stimulus"":""img/red_ww/4.jpg"",""time"":217},{""stimulus"":""img/red_ww/5.jpg"",""time"":266},{""stimulus"":""img/red_ww/6.jpg"",""time"":317},{""stimulus"":""img/red_ww/7.jpg"",""time"":376},{""stimulus"":""img/red_ww/8.jpg"",""time"":427},{""stimulus"":""img/red_ww/9.jpg"",""time"":476},{""stimulus"":""img/red_ww/10.jpg"",""time"":527},{""stimulus"":""img/red_ww/11.jpg"",""time"":578}]","[]"
"","","","choice","63ea4301f63c1d26f0ff83e9","bdp_lott","Mon Mar 27 2023 07:37:16 GMT-0400 (Eastern Daylight Time)","340612","green","red","image-keyboard-response","31","66817","0.0-5.0-1.13","","1219","","img/red_ww/choose11.jpg","1","212","green","0.5","0.5","0.5","w","",""
"","","","","63ea4301f63c1d26f0ff83e9","bdp_lott","Mon Mar 27 2023 07:37:16 GMT-0400 (Eastern Daylight Time)","340612","green","red","animation","32","67425","0.0-5.0-2.13","","","","","","212","","","","","","[{""stimulus"":""img/green_ww/1.jpg"",""time"":59},{""stimulus"":""img/green_ww/2.jpg"",""time"":108},{""stimulus"":""img/green_ww/3.jpg"",""time"":159},{""stimulus"":""img/green_ww/4.jpg"",""time"":209},{""stimulus"":""img/green_ww/5.jpg"",""time"":258},{""stimulus"":""img/green_ww/6.jpg"",""time"":308},{""stimulus"":""img/green_ww/7.jpg"",""time"":358},{""stimulus"":""img/green_ww/8.jpg"",""time"":409},{""stimulus"":""img/green_ww/9.jpg"",""time"":459},{""stimulus"":""img/green_ww/10.jpg"",""time"":509},{""stimulus"":""img/green_ww/11.jpg"",""time"":558}]","[]"
"","","","choice","63ea4301f63c1d26f0ff83e9","bdp_lott","Mon Mar 27 2023 07:37:16 GMT-0400 (Eastern Daylight Time)","340612","green","red","image-keyboard-response","33","68341","0.0-5.0-1.14","","913","","img/green_ww/choose11.jpg","2","211","red","0.5","0.5","0.5","w","",""
"","","","","63ea4301f63c1d26f0ff83e9","bdp_lott","Mon Mar 27 2023 07:37:16 GMT-0400 (Eastern Daylight Time)","340612","green","red","animation","34","68959","0.0-5.0-2.14","","","","","","211","","","","","","[{""stimulus"":""img/red_ww/1.jpg"",""time"":58},{""stimulus"":""img/red_ww/2.jpg"",""time"":109},{""stimulus"":""img/red_ww/3.jpg"",""time"":159},{""stimulus"":""img/red_ww/4.jpg"",""time"":209},{""stimulus"":""img/red_ww/5.jpg"",""time"":259},{""stimulus"":""img/red_ww/6.jpg"",""time"":309},{""stimulus"":""img/red_ww/7.jpg"",""time"":368},{""stimulus"":""img/red_ww/8.jpg"",""time"":418},{""stimulus"":""img/red_ww/9.jpg"",""time"":468},{""stimulus"":""img/red_ww/10.jpg"",""time"":519},{""stimulus"":""img/red_ww/11.jpg"",""time"":569}]","[]"
"","","","choice","63ea4301f63c1d26f0ff83e9","bdp_lott","Mon Mar 27 2023 07:37:16 GMT-0400 (Eastern Daylight Time)","340612","green","red","image-keyboard-response","35","69863","0.0-5.0-1.15","","902","","img/red_ww/choose11.jpg","2","210","red","0.5","0.5","0.5","l","",""
"","","","","63ea4301f63c1d26f0ff83e9","bdp_lott","Mon Mar 27 2023 07:37:16 GMT-0400 (Eastern Daylight Time)","340612","green","red","animation","36","70479","0.0-5.0-2.15","","","","","","210","","","","","","[{""stimulus"":""img/red_wl/1.jpg"",""time"":56},{""stimulus"":""img/red_wl/2.jpg"",""time"":105},{""stimulus"":""img/red_wl/3.jpg"",""time"":156},{""stimulus"":""img/red_wl/4.jpg"",""time"":206},{""stimulus"":""img/red_wl/5.jpg"",""time"":255},{""stimulus"":""img/red_wl/6.jpg"",""time"":305},{""stimulus"":""img/red_wl/7.jpg"",""time"":356},{""stimulus"":""img/red_wl/8.jpg"",""time"":406},{""stimulus"":""img/red_wl/9.jpg"",""time"":456},{""stimulus"":""img/red_wl/10.jpg"",""time"":515},{""stimulus"":""img/red_wl/11.jpg"",""time"":566}]","[]"
"","","","choice","63ea4301f63c1d26f0ff83e9","bdp_lott","Mon Mar 27 2023 07:37:16 GMT-0400 (Eastern Daylight Time)","340612","green","red","image-keyboard-response","37","71185","0.0-5.0-1.16","","705","","img/red_wl/choose11.jpg","1","209","green","0.5","0.5","0.5","l","",""
"","","","","63ea4301f63c1d26f0ff83e9","bdp_lott","Mon Mar 27 2023 07:37:16 GMT-0400 (Eastern Daylight Time)","340612","green","red","animation","38","71849","0.0-5.0-2.16","","","","","","209","","","","","","[{""stimulus"":""img/green_ll/1.jpg"",""time"":54},{""stimulus"":""img/green_ll/2.jpg"",""time"":114},{""stimulus"":""img/green_ll/3.jpg"",""time"":174},{""stimulus"":""img/green_ll/4.jpg"",""time"":224},{""stimulus"":""img/green_ll/5.jpg"",""time"":284},{""stimulus"":""img/green_ll/6.jpg"",""time"":333},{""stimulus"":""img/green_ll/7.jpg"",""time"":393},{""stimulus"":""img/green_ll/8.jpg"",""time"":444},{""stimulus"":""img/green_ll/9.jpg"",""time"":504},{""stimulus"":""img/green_ll/10.jpg"",""time"":554},{""stimulus"":""img/green_ll/11.jpg"",""time"":613}]","[]"
"","","","choice","63ea4301f63c1d26f0ff83e9","bdp_lott","Mon Mar 27 2023 07:37:16 GMT-0400 (Eastern Daylight Time)","340612","green","red","image-keyboard-response","39","72590","0.0-5.0-1.17","","739","","img/green_ll/choose11.jpg","1","208","green","0.5","0.5","0.5","l","",""
"","","","","63ea4301f63c1d26f0ff83e9","bdp_lott","Mon Mar 27 2023 07:37:16 GMT-0400 (Eastern Daylight Time)","340612","green","red","animation","40","73219","0.0-5.0-2.17","","","","","","208","","","","","","[{""stimulus"":""img/green_ll/1.jpg"",""time"":58},{""stimulus"":""img/green_ll/2.jpg"",""time"":107},{""stimulus"":""img/green_ll/3.jpg"",""time"":157},{""stimulus"":""img/green_ll/4.jpg"",""time"":207},{""stimulus"":""img/green_ll/5.jpg"",""time"":267},{""stimulus"":""img/green_ll/6.jpg"",""time"":317},{""stimulus"":""img/green_ll/7.jpg"",""time"":367},{""stimulus"":""img/green_ll/8.jpg"",""time"":418},{""stimulus"":""img/green_ll/9.jpg"",""time"":467},{""stimulus"":""img/green_ll/10.jpg"",""time"":517},{""stimulus"":""img/green_ll/11.jpg"",""time"":568}]","[]"
"","","","choice","63ea4301f63c1d26f0ff83e9","bdp_lott","Mon Mar 27 2023 07:37:16 GMT-0400 (Eastern Daylight Time)","340612","green","red","image-keyboard-response","41","74019","0.0-5.0-1.18","","798","","img/green_ll/choose11.jpg","1","207","green","0.5","0.5","0.5","l","",""
"","","","","63ea4301f63c1d26f0ff83e9","bdp_lott","Mon Mar 27 2023 07:37:16 GMT-0400 (Eastern Daylight Time)","340612","green","red","animation","42","74640","0.0-5.0-2.18","","","","","","207","","","","","","[{""stimulus"":""img/green_ll/1.jpg"",""time"":60},{""stimulus"":""img/green_ll/2.jpg"",""time"":111},{""stimulus"":""img/green_ll/3.jpg"",""time"":160},{""stimulus"":""img/green_ll/4.jpg"",""time"":211},{""stimulus"":""img/green_ll/5.jpg"",""time"":260},{""stimulus"":""img/green_ll/6.jpg"",""time"":310},{""stimulus"":""img/green_ll/7.jpg"",""time"":370},{""stimulus"":""img/green_ll/8.jpg"",""time"":421},{""stimulus"":""img/green_ll/9.jpg"",""time"":471},{""stimulus"":""img/green_ll/10.jpg"",""time"":520},{""stimulus"":""img/green_ll/11.jpg"",""time"":571}]","[]"
"","","","choice","63ea4301f63c1d26f0ff83e9","bdp_lott","Mon Mar 27 2023 07:37:16 GMT-0400 (Eastern Daylight Time)","340612","green","red","image-keyboard-response","43","75549","0.0-5.0-1.19","","908","","img/green_ll/choose11.jpg","1","206","green","0.5","0.5","0.5","l","",""
"","","","","63ea4301f63c1d26f0ff83e9","bdp_lott","Mon Mar 27 2023 07:37:16 GMT-0400 (Eastern Daylight Time)","340612","green","red","animation","44","76170","0.0-5.0-2.19","","","","","","206","","","","","","[{""stimulus"":""img/green_ll/1.jpg"",""time"":51},{""stimulus"":""img/green_ll/2.jpg"",""time"":101},{""stimulus"":""img/green_ll/3.jpg"",""time"":160},{""stimulus"":""img/green_ll/4.jpg"",""time"":211},{""stimulus"":""img/green_ll/5.jpg"",""time"":260},{""stimulus"":""img/green_ll/6.jpg"",""time"":310},{""stimulus"":""img/green_ll/7.jpg"",""time"":361},{""stimulus"":""img/green_ll/8.jpg"",""time"":410},{""stimulus"":""img/green_ll/9.jpg"",""time"":461},{""stimulus"":""img/green_ll/10.jpg"",""time"":511},{""stimulus"":""img/green_ll/11.jpg"",""time"":561}]","[]"
"","","","choice","63ea4301f63c1d26f0ff83e9","bdp_lott","Mon Mar 27 2023 07:37:16 GMT-0400 (Eastern Daylight Time)","340612","green","red","image-keyboard-response","45","76803","0.0-5.0-1.20","","632","","img/green_ll/choose11.jpg","2","205","red","0.5","0.5","0.5","l","",""
"","","","","63ea4301f63c1d26f0ff83e9","bdp_lott","Mon Mar 27 2023 07:37:16 GMT-0400 (Eastern Daylight Time)","340612","green","red","animation","46","77420","0.0-5.0-2.20","","","","","","205","","","","","","[{""stimulus"":""img/red_ll/1.jpg"",""time"":57},{""stimulus"":""img/red_ll/2.jpg"",""time"":107},{""stimulus"":""img/red_ll/3.jpg"",""time"":157},{""stimulus"":""img/red_ll/4.jpg"",""time"":216},{""stimulus"":""img/red_ll/5.jpg"",""time"":267},{""stimulus"":""img/red_ll/6.jpg"",""time"":317},{""stimulus"":""img/red_ll/7.jpg"",""time"":367},{""stimulus"":""img/red_ll/8.jpg"",""time"":416},{""stimulus"":""img/red_ll/9.jpg"",""time"":466},{""stimulus"":""img/red_ll/10.jpg"",""time"":516},{""stimulus"":""img/red_ll/11.jpg"",""time"":567}]","[]"
"","","","choice","63ea4301f63c1d26f0ff83e9","bdp_lott","Mon Mar 27 2023 07:37:16 GMT-0400 (Eastern Daylight Time)","340612","green","red","image-keyboard-response","47","78104","0.0-5.0-1.21","","682","","img/red_ll/choose11.jpg","2","204","red","0.5","0.5","0.5","l","",""
"","","","","63ea4301f63c1d26f0ff83e9","bdp_lott","Mon Mar 27 2023 07:37:16 GMT-0400 (Eastern Daylight Time)","340612","green","red","animation","48","78731","0.0-5.0-2.21","","","","","","204","","","","","","[{""stimulus"":""img/red_ll/1.jpg"",""time"":56},{""stimulus"":""img/red_ll/2.jpg"",""time"":105},{""stimulus"":""img/red_ll/3.jpg"",""time"":155},{""stimulus"":""img/red_ll/4.jpg"",""time"":215},{""stimulus"":""img/red_ll/5.jpg"",""time"":266},{""stimulus"":""img/red_ll/6.jpg"",""time"":316},{""stimulus"":""img/red_ll/7.jpg"",""time"":365},{""stimulus"":""img/red_ll/8.jpg"",""time"":415},{""stimulus"":""img/red_ll/9.jpg"",""time"":465},{""stimulus"":""img/red_ll/10.jpg"",""time"":516},{""stimulus"":""img/red_ll/11.jpg"",""time"":575}]","[]"
"","","","choice","63ea4301f63c1d26f0ff83e9","bdp_lott","Mon Mar 27 2023 07:37:16 GMT-0400 (Eastern Daylight Time)","340612","green","red","image-keyboard-response","49","79468","0.0-5.0-1.22","","736","","img/red_ll/choose11.jpg","1","203","green","0.5","0.5","0.5","w","",""
"","","","","63ea4301f63c1d26f0ff83e9","bdp_lott","Mon Mar 27 2023 07:37:16 GMT-0400 (Eastern Daylight Time)","340612","green","red","animation","50","80100","0.0-5.0-2.22","","","","","","203","","","","","","[{""stimulus"":""img/green_wl/1.jpg"",""time"":53},{""stimulus"":""img/green_wl/2.jpg"",""time"":102},{""stimulus"":""img/green_wl/3.jpg"",""time"":152},{""stimulus"":""img/green_wl/4.jpg"",""time"":202},{""stimulus"":""img/green_wl/5.jpg"",""time"":252},{""stimulus"":""img/green_wl/6.jpg"",""time"":303},{""stimulus"":""img/green_wl/7.jpg"",""time"":353},{""stimulus"":""img/green_wl/8.jpg"",""time"":413},{""stimulus"":""img/green_wl/9.jpg"",""time"":463},{""stimulus"":""img/green_wl/10.jpg"",""time"":522},{""stimulus"":""img/green_wl/11.jpg"",""time"":573}]","[]"
"","","","choice","63ea4301f63c1d26f0ff83e9","bdp_lott","Mon Mar 27 2023 07:37:16 GMT-0400 (Eastern Daylight Time)","340612","green","red","image-keyboard-response","51","82296","0.0-5.0-1.23","","2195","","img/green_wl/choose11.jpg","2","202","red","0.5","0.5","0.5","w","",""
"","","","","63ea4301f63c1d26f0ff83e9","bdp_lott","Mon Mar 27 2023 07:37:16 GMT-0400 (Eastern Daylight Time)","340612","green","red","animation","52","82930","0.0-5.0-2.23","","","","","","202","","","","","","[{""stimulus"":""img/red_ww/1.jpg"",""time"":54},{""stimulus"":""img/red_ww/2.jpg"",""time"":103},{""stimulus"":""img/red_ww/3.jpg"",""time"":153},{""stimulus"":""img/red_ww/4.jpg"",""time"":203},{""stimulus"":""img/red_ww/5.jpg"",""time"":253},{""stimulus"":""img/red_ww/6.jpg"",""time"":314},{""stimulus"":""img/red_ww/7.jpg"",""time"":363},{""stimulus"":""img/red_ww/8.jpg"",""time"":423},{""stimulus"":""img/red_ww/9.jpg"",""time"":474},{""stimulus"":""img/red_ww/10.jpg"",""time"":533},{""stimulus"":""img/red_ww/11.jpg"",""time"":584}]","[]"
"","","","choice","63ea4301f63c1d26f0ff83e9","bdp_lott","Mon Mar 27 2023 07:37:16 GMT-0400 (Eastern Daylight Time)","340612","green","red","image-keyboard-response","53","83917","0.0-5.0-1.24","","984","","img/red_ww/choose11.jpg","1","201","green","0.5","0.5","0.5","w","",""
"","","","","63ea4301f63c1d26f0ff83e9","bdp_lott","Mon Mar 27 2023 07:37:16 GMT-0400 (Eastern Daylight Time)","340612","green","red","animation","54","84570","0.0-5.0-2.24","","","","","","201","","","","","","[{""stimulus"":""img/green_ww/1.jpg"",""time"":54},{""stimulus"":""img/green_ww/2.jpg"",""time"":113},{""stimulus"":""img/green_ww/3.jpg"",""time"":164},{""stimulus"":""img/green_ww/4.jpg"",""time"":224},{""stimulus"":""img/green_ww/5.jpg"",""time"":274},{""stimulus"":""img/green_ww/6.jpg"",""time"":333},{""stimulus"":""img/green_ww/7.jpg"",""time"":384},{""stimulus"":""img/green_ww/8.jpg"",""time"":444},{""stimulus"":""img/green_ww/9.jpg"",""time"":494},{""stimulus"":""img/green_ww/10.jpg"",""time"":553},{""stimulus"":""img/green_ww/11.jpg"",""time"":603}]","[]"
"","","","choice","63ea4301f63c1d26f0ff83e9","bdp_lott","Mon Mar 27 2023 07:37:16 GMT-0400 (Eastern Daylight Time)","340612","green","red","image-keyboard-response","55","85621","0.0-5.0-1.25","","1049","","img/green_ww/choose11.jpg","2","200","red","0.5","0.5","0.5","w","",""
"","","","","63ea4301f63c1d26f0ff83e9","bdp_lott","Mon Mar 27 2023 07:37:16 GMT-0400 (Eastern Daylight Time)","340612","green","red","animation","56","86261","0.0-5.0-2.25","","","","","","200","","","","","","[{""stimulus"":""img/red_ww/1.jpg"",""time"":60},{""stimulus"":""img/red_ww/2.jpg"",""time"":110},{""stimulus"":""img/red_ww/3.jpg"",""time"":169},{""stimulus"":""img/red_ww/4.jpg"",""time"":229},{""stimulus"":""img/red_ww/5.jpg"",""time"":279},{""stimulus"":""img/red_ww/6.jpg"",""time"":329},{""stimulus"":""img/red_ww/7.jpg"",""time"":379},{""stimulus"":""img/red_ww/8.jpg"",""time"":430},{""stimulus"":""img/red_ww/9.jpg"",""time"":479},{""stimulus"":""img/red_ww/10.jpg"",""time"":530},{""stimulus"":""img/red_ww/11.jpg"",""time"":589}]","[]"
"","","","choice","63ea4301f63c1d26f0ff83e9","bdp_lott","Mon Mar 27 2023 07:37:16 GMT-0400 (Eastern Daylight Time)","340612","green","red","image-keyboard-response","57","87192","0.0-5.0-1.26","","928","","img/red_ww/choose11.jpg","1","199","green","0.5","0.5","0.5","l","",""
"","","","","63ea4301f63c1d26f0ff83e9","bdp_lott","Mon Mar 27 2023 07:37:16 GMT-0400 (Eastern Daylight Time)","340612","green","red","animation","58","87851","0.0-5.0-2.26","","","","","","199","","","","","","[{""stimulus"":""img/green_lw/1.jpg"",""time"":60},{""stimulus"":""img/green_lw/2.jpg"",""time"":109},{""stimulus"":""img/green_lw/3.jpg"",""time"":160},{""stimulus"":""img/green_lw/4.jpg"",""time"":219},{""stimulus"":""img/green_lw/5.jpg"",""time"":269},{""stimulus"":""img/green_lw/6.jpg"",""time"":330},{""stimulus"":""img/green_lw/7.jpg"",""time"":380},{""stimulus"":""img/green_lw/8.jpg"",""time"":439},{""stimulus"":""img/green_lw/9.jpg"",""time"":490},{""stimulus"":""img/green_lw/10.jpg"",""time"":549},{""stimulus"":""img/green_lw/11.jpg"",""time"":600}]","[]"
"","","","choice","63ea4301f63c1d26f0ff83e9","bdp_lott","Mon Mar 27 2023 07:37:16 GMT-0400 (Eastern Daylight Time)","340612","green","red","image-keyboard-response","59","88795","0.0-5.0-1.27","","943","","img/green_lw/choose11.jpg","2","198","red","0.5","0.5","0.5","w","",""
"","","","","63ea4301f63c1d26f0ff83e9","bdp_lott","Mon Mar 27 2023 07:37:16 GMT-0400 (Eastern Daylight Time)","340612","green","red","animation","60","89431","0.0-5.0-2.27","","","","","","198","","","","","","[{""stimulus"":""img/red_lw/1.jpg"",""time"":56},{""stimulus"":""img/red_lw/2.jpg"",""time"":105},{""stimulus"":""img/red_lw/3.jpg"",""time"":155},{""stimulus"":""img/red_lw/4.jpg"",""time"":206},{""stimulus"":""img/red_lw/5.jpg"",""time"":255},{""stimulus"":""img/red_lw/6.jpg"",""time"":307},{""stimulus"":""img/red_lw/7.jpg"",""time"":365},{""stimulus"":""img/red_lw/8.jpg"",""time"":416},{""stimulus"":""img/red_lw/9.jpg"",""time"":476},{""stimulus"":""img/red_lw/10.jpg"",""time"":526},{""stimulus"":""img/red_lw/11.jpg"",""time"":585}]","[]"
"","","","choice","63ea4301f63c1d26f0ff83e9","bdp_lott","Mon Mar 27 2023 07:37:16 GMT-0400 (Eastern Daylight Time)","340612","green","red","image-keyboard-response","61","90450","0.0-5.0-1.28","","1017","","img/red_lw/choose11.jpg","2","197","red","0.5","0.5","0.5","w","",""
"","","","","63ea4301f63c1d26f0ff83e9","bdp_lott","Mon Mar 27 2023 07:37:16 GMT-0400 (Eastern Daylight Time)","340612","green","red","animation","62","91071","0.0-5.0-2.28","","","","","","197","","","","","","[{""stimulus"":""img/red_lw/1.jpg"",""time"":51},{""stimulus"":""img/red_lw/2.jpg"",""time"":101},{""stimulus"":""img/red_lw/3.jpg"",""time"":162},{""stimulus"":""img/red_lw/4.jpg"",""time"":211},{""stimulus"":""img/red_lw/5.jpg"",""time"":261},{""stimulus"":""img/red_lw/6.jpg"",""time"":311},{""stimulus"":""img/red_lw/7.jpg"",""time"":362},{""stimulus"":""img/red_lw/8.jpg"",""time"":411},{""stimulus"":""img/red_lw/9.jpg"",""time"":461},{""stimulus"":""img/red_lw/10.jpg"",""time"":513},{""stimulus"":""img/red_lw/11.jpg"",""time"":572}]","[]"
"","","","choice","63ea4301f63c1d26f0ff83e9","bdp_lott","Mon Mar 27 2023 07:37:16 GMT-0400 (Eastern Daylight Time)","340612","green","red","image-keyboard-response","63","92694","0.0-5.0-1.29","","1622","","img/red_lw/choose11.jpg","2","196","red","0.5","0.5","0.5","l","",""
"","","","","63ea4301f63c1d26f0ff83e9","bdp_lott","Mon Mar 27 2023 07:37:16 GMT-0400 (Eastern Daylight Time)","340612","green","red","animation","64","93312","0.0-5.0-2.29","","","","","","196","","","","","","[{""stimulus"":""img/red_ll/1.jpg"",""time"":58},{""stimulus"":""img/red_ll/2.jpg"",""time"":108},{""stimulus"":""img/red_ll/3.jpg"",""time"":157},{""stimulus"":""img/red_ll/4.jpg"",""time"":207},{""stimulus"":""img/red_ll/5.jpg"",""time"":257},{""stimulus"":""img/red_ll/6.jpg"",""time"":307},{""stimulus"":""img/red_ll/7.jpg"",""time"":357},{""stimulus"":""img/red_ll/8.jpg"",""time"":408},{""stimulus"":""img/red_ll/9.jpg"",""time"":457},{""stimulus"":""img/red_ll/10.jpg"",""time"":507},{""stimulus"":""img/red_ll/11.jpg"",""time"":557}]","[]"
"","","","choice","63ea4301f63c1d26f0ff83e9","bdp_lott","Mon Mar 27 2023 07:37:16 GMT-0400 (Eastern Daylight Time)","340612","green","red","image-keyboard-response","65","94151","0.0-5.0-1.30","","838","","img/red_ll/choose11.jpg","1","195","green","0.5","0.5","0.5","w","",""
"","","","","63ea4301f63c1d26f0ff83e9","bdp_lott","Mon Mar 27 2023 07:37:16 GMT-0400 (Eastern Daylight Time)","340612","green","red","animation","66","94782","0.0-5.0-2.30","","","","","","195","","","","","","[{""stimulus"":""img/green_wl/1.jpg"",""time"":51},{""stimulus"":""img/green_wl/2.jpg"",""time"":112},{""stimulus"":""img/green_wl/3.jpg"",""time"":162},{""stimulus"":""img/green_wl/4.jpg"",""time"":212},{""stimulus"":""img/green_wl/5.jpg"",""time"":262},{""stimulus"":""img/green_wl/6.jpg"",""time"":311},{""stimulus"":""img/green_wl/7.jpg"",""time"":361},{""stimulus"":""img/green_wl/8.jpg"",""time"":411},{""stimulus"":""img/green_wl/9.jpg"",""time"":472},{""stimulus"":""img/green_wl/10.jpg"",""time"":522},{""stimulus"":""img/green_wl/11.jpg"",""time"":582}]","[]"
"","","","choice","63ea4301f63c1d26f0ff83e9","bdp_lott","Mon Mar 27 2023 07:37:16 GMT-0400 (Eastern Daylight Time)","340612","green","red","image-keyboard-response","67","95799","0.0-5.0-1.31","","1014","","img/green_wl/choose11.jpg","1","194","green","0.5","0.5","0.5","w","",""
"","","","","63ea4301f63c1d26f0ff83e9","bdp_lott","Mon Mar 27 2023 07:37:16 GMT-0400 (Eastern Daylight Time)","340612","green","red","animation","68","96422","0.0-5.0-2.31","","","","","","194","","","","","","[{""stimulus"":""img/green_wl/1.jpg"",""time"":54},{""stimulus"":""img/green_wl/2.jpg"",""time"":103},{""stimulus"":""img/green_wl/3.jpg"",""time"":153},{""stimulus"":""img/green_wl/4.jpg"",""time"":204},{""stimulus"":""img/green_wl/5.jpg"",""time"":253},{""stimulus"":""img/green_wl/6.jpg"",""time"":303},{""stimulus"":""img/green_wl/7.jpg"",""time"":353},{""stimulus"":""img/green_wl/8.jpg"",""time"":404},{""stimulus"":""img/green_wl/9.jpg"",""time"":463},{""stimulus"":""img/green_wl/10.jpg"",""time"":514},{""stimulus"":""img/green_wl/11.jpg"",""time"":573}]","[]"
"","","","choice","63ea4301f63c1d26f0ff83e9","bdp_lott","Mon Mar 27 2023 07:37:16 GMT-0400 (Eastern Daylight Time)","340612","green","red","image-keyboard-response","69","97264","0.0-5.0-1.32","","839","","img/green_wl/choose11.jpg","1","193","green","0.5","0.5","0.5","l","",""
"","","","","63ea4301f63c1d26f0ff83e9","bdp_lott","Mon Mar 27 2023 07:37:16 GMT-0400 (Eastern Daylight Time)","340612","green","red","animation","70","97892","0.0-5.0-2.32","","","","","","193","","","","","","[{""stimulus"":""img/green_ll/1.jpg"",""time"":58},{""stimulus"":""img/green_ll/2.jpg"",""time"":108},{""stimulus"":""img/green_ll/3.jpg"",""time"":159},{""stimulus"":""img/green_ll/4.jpg"",""time"":208},{""stimulus"":""img/green_ll/5.jpg"",""time"":258},{""stimulus"":""img/green_ll/6.jpg"",""time"":308},{""stimulus"":""img/green_ll/7.jpg"",""time"":359},{""stimulus"":""img/green_ll/8.jpg"",""time"":418},{""stimulus"":""img/green_ll/9.jpg"",""time"":469},{""stimulus"":""img/green_ll/10.jpg"",""time"":528},{""stimulus"":""img/green_ll/11.jpg"",""time"":578}]","[]"
"","","","choice","63ea4301f63c1d26f0ff83e9","bdp_lott","Mon Mar 27 2023 07:37:16 GMT-0400 (Eastern Daylight Time)","340612","green","red","image-keyboard-response","71","98623","0.0-5.0-1.33","","730","","img/green_ll/choose11.jpg","1","192","green","0.5","0.5","0.5","w","",""
"","","","","63ea4301f63c1d26f0ff83e9","bdp_lott","Mon Mar 27 2023 07:37:16 GMT-0400 (Eastern Daylight Time)","340612","green","red","animation","72","99261","0.0-5.0-2.33","","","","","","192","","","","","","[{""stimulus"":""img/green_wl/1.jpg"",""time"":58},{""stimulus"":""img/green_wl/2.jpg"",""time"":108},{""stimulus"":""img/green_wl/3.jpg"",""time"":168},{""stimulus"":""img/green_wl/4.jpg"",""time"":229},{""stimulus"":""img/green_wl/5.jpg"",""time"":279},{""stimulus"":""img/green_wl/6.jpg"",""time"":328},{""stimulus"":""img/green_wl/7.jpg"",""time"":379},{""stimulus"":""img/green_wl/8.jpg"",""time"":429},{""stimulus"":""img/green_wl/9.jpg"",""time"":488},{""stimulus"":""img/green_wl/10.jpg"",""time"":538},{""stimulus"":""img/green_wl/11.jpg"",""time"":589}]","[]"
"","","","choice","63ea4301f63c1d26f0ff83e9","bdp_lott","Mon Mar 27 2023 07:37:16 GMT-0400 (Eastern Daylight Time)","340612","green","red","image-keyboard-response","73","100246","0.0-5.0-1.34","","984","","img/green_wl/choose11.jpg","1","191","green","0.5","0.5","0.5","w","",""
"","","","","63ea4301f63c1d26f0ff83e9","bdp_lott","Mon Mar 27 2023 07:37:16 GMT-0400 (Eastern Daylight Time)","340612","green","red","animation","74","100893","0.0-5.0-2.34","","","","","","191","","","","","","[{""stimulus"":""img/green_wl/1.jpg"",""time"":57},{""stimulus"":""img/green_wl/2.jpg"",""time"":106},{""stimulus"":""img/green_wl/3.jpg"",""time"":156},{""stimulus"":""img/green_wl/4.jpg"",""time"":207},{""stimulus"":""img/green_wl/5.jpg"",""time"":266},{""stimulus"":""img/green_wl/6.jpg"",""time"":317},{""stimulus"":""img/green_wl/7.jpg"",""time"":367},{""stimulus"":""img/green_wl/8.jpg"",""time"":427},{""stimulus"":""img/green_wl/9.jpg"",""time"":487},{""stimulus"":""img/green_wl/10.jpg"",""time"":537},{""stimulus"":""img/green_wl/11.jpg"",""time"":596}]","[]"
"","","","choice","63ea4301f63c1d26f0ff83e9","bdp_lott","Mon Mar 27 2023 07:37:16 GMT-0400 (Eastern Daylight Time)","340612","green","red","image-keyboard-response","75","103540","0.0-5.0-1.35","","2646","","img/green_wl/choose11.jpg","1","190","green","0.5","0.5","0.5","w","",""
"","","","","63ea4301f63c1d26f0ff83e9","bdp_lott","Mon Mar 27 2023 07:37:16 GMT-0400 (Eastern Daylight Time)","340612","green","red","animation","76","104173","0.0-5.0-2.35","","","","","","190","","","","","","[{""stimulus"":""img/green_wl/1.jpg"",""time"":53},{""stimulus"":""img/green_wl/2.jpg"",""time"":102},{""stimulus"":""img/green_wl/3.jpg"",""time"":153},{""stimulus"":""img/green_wl/4.jpg"",""time"":203},{""stimulus"":""img/green_wl/5.jpg"",""time"":252},{""stimulus"":""img/green_wl/6.jpg"",""time"":302},{""stimulus"":""img/green_wl/7.jpg"",""time"":363},{""stimulus"":""img/green_wl/8.jpg"",""time"":413},{""stimulus"":""img/green_wl/9.jpg"",""time"":472},{""stimulus"":""img/green_wl/10.jpg"",""time"":523},{""stimulus"":""img/green_wl/11.jpg"",""time"":582}]","[]"
"","","","choice","63ea4301f63c1d26f0ff83e9","bdp_lott","Mon Mar 27 2023 07:37:16 GMT-0400 (Eastern Daylight Time)","340612","green","red","image-keyboard-response","77","106791","0.0-5.0-1.36","","2616","","img/green_wl/choose11.jpg","2","189","red","0.5","0.5","0.5","w","",""
"","","","","63ea4301f63c1d26f0ff83e9","bdp_lott","Mon Mar 27 2023 07:37:16 GMT-0400 (Eastern Daylight Time)","340612","green","red","animation","78","107394","0.0-5.0-2.36","","","","","","189","","","","","","[{""stimulus"":""img/red_ww/1.jpg"",""time"":54},{""stimulus"":""img/red_ww/2.jpg"",""time"":103},{""stimulus"":""img/red_ww/3.jpg"",""time"":153},{""stimulus"":""img/red_ww/4.jpg"",""time"":203},{""stimulus"":""img/red_ww/5.jpg"",""time"":253},{""stimulus"":""img/red_ww/6.jpg"",""time"":303},{""stimulus"":""img/red_ww/7.jpg"",""time"":353},{""stimulus"":""img/red_ww/8.jpg"",""time"":404},{""stimulus"":""img/red_ww/9.jpg"",""time"":453},{""stimulus"":""img/red_ww/10.jpg"",""time"":503},{""stimulus"":""img/red_ww/11.jpg"",""time"":554}]","[]"
"","","","choice","63ea4301f63c1d26f0ff83e9","bdp_lott","Mon Mar 27 2023 07:37:16 GMT-0400 (Eastern Daylight Time)","340612","green","red","image-keyboard-response","79","108485","0.0-5.0-1.37","","1090","","img/red_ww/choose11.jpg","2","188","red","0.5","0.5","0.5","w","",""
"","","","","63ea4301f63c1d26f0ff83e9","bdp_lott","Mon Mar 27 2023 07:37:16 GMT-0400 (Eastern Daylight Time)","340612","green","red","animation","80","109094","0.0-5.0-2.37","","","","","","188","","","","","","[{""stimulus"":""img/red_ww/1.jpg"",""time"":58},{""stimulus"":""img/red_ww/2.jpg"",""time"":109},{""stimulus"":""img/red_ww/3.jpg"",""time"":158},{""stimulus"":""img/red_ww/4.jpg"",""time"":208},{""stimulus"":""img/red_ww/5.jpg"",""time"":258},{""stimulus"":""img/red_ww/6.jpg"",""time"":309},{""stimulus"":""img/red_ww/7.jpg"",""time"":358},{""stimulus"":""img/red_ww/8.jpg"",""time"":409},{""stimulus"":""img/red_ww/9.jpg"",""time"":458},{""stimulus"":""img/red_ww/10.jpg"",""time"":508},{""stimulus"":""img/red_ww/11.jpg"",""time"":559}]","[]"
"","","","choice","63ea4301f63c1d26f0ff83e9","bdp_lott","Mon Mar 27 2023 07:37:16 GMT-0400 (Eastern Daylight Time)","340612","green","red","image-keyboard-response","81","109979","0.0-5.0-1.38","","885","","img/red_ww/choose11.jpg","1","187","green","0.5","0.5","0.5","w","",""
"","","","","63ea4301f63c1d26f0ff83e9","bdp_lott","Mon Mar 27 2023 07:37:16 GMT-0400 (Eastern Daylight Time)","340612","green","red","animation","82","110615","0.0-5.0-2.38","","","","","","187","","","","","","[{""stimulus"":""img/green_ww/1.jpg"",""time"":54},{""stimulus"":""img/green_ww/2.jpg"",""time"":105},{""stimulus"":""img/green_ww/3.jpg"",""time"":155},{""stimulus"":""img/green_ww/4.jpg"",""time"":204},{""stimulus"":""img/green_ww/5.jpg"",""time"":254},{""stimulus"":""img/green_ww/6.jpg"",""time"":305},{""stimulus"":""img/green_ww/7.jpg"",""time"":364},{""stimulus"":""img/green_ww/8.jpg"",""time"":415},{""stimulus"":""img/green_ww/9.jpg"",""time"":474},{""stimulus"":""img/green_ww/10.jpg"",""time"":525},{""stimulus"":""img/green_ww/11.jpg"",""time"":584}]","[]"
"","","","choice","63ea4301f63c1d26f0ff83e9","bdp_lott","Mon Mar 27 2023 07:37:16 GMT-0400 (Eastern Daylight Time)","340612","green","red","image-keyboard-response","83","111558","0.0-5.0-1.39","","942","","img/green_ww/choose11.jpg","2","186","red","0.5","0.5","0.5","l","",""
"","","","","63ea4301f63c1d26f0ff83e9","bdp_lott","Mon Mar 27 2023 07:37:16 GMT-0400 (Eastern Daylight Time)","340612","green","red","animation","84","112204","0.0-5.0-2.39","","","","","","186","","","","","","[{""stimulus"":""img/red_wl/1.jpg"",""time"":56},{""stimulus"":""img/red_wl/2.jpg"",""time"":105},{""stimulus"":""img/red_wl/3.jpg"",""time"":155},{""stimulus"":""img/red_wl/4.jpg"",""time"":205},{""stimulus"":""img/red_wl/5.jpg"",""time"":256},{""stimulus"":""img/red_wl/6.jpg"",""time"":315},{""stimulus"":""img/red_wl/7.jpg"",""time"":366},{""stimulus"":""img/red_wl/8.jpg"",""time"":426},{""stimulus"":""img/red_wl/9.jpg"",""time"":476},{""stimulus"":""img/red_wl/10.jpg"",""time"":535},{""stimulus"":""img/red_wl/11.jpg"",""time"":586}]","[]"
"","","","choice","63ea4301f63c1d26f0ff83e9","bdp_lott","Mon Mar 27 2023 07:37:16 GMT-0400 (Eastern Daylight Time)","340612","green","red","image-keyboard-response","85","112834","0.0-5.0-1.40","","629","","img/red_wl/choose11.jpg","2","185","red","0.5","0.5","0.5","w","",""
"","","","","63ea4301f63c1d26f0ff83e9","bdp_lott","Mon Mar 27 2023 07:37:16 GMT-0400 (Eastern Daylight Time)","340612","green","red","animation","86","113454","0.0-5.0-2.40","","","","","","185","","","","","","[{""stimulus"":""img/red_ww/1.jpg"",""time"":61},{""stimulus"":""img/red_ww/2.jpg"",""time"":110},{""stimulus"":""img/red_ww/3.jpg"",""time"":160},{""stimulus"":""img/red_ww/4.jpg"",""time"":210},{""stimulus"":""img/red_ww/5.jpg"",""time"":260},{""stimulus"":""img/red_ww/6.jpg"",""time"":310},{""stimulus"":""img/red_ww/7.jpg"",""time"":360},{""stimulus"":""img/red_ww/8.jpg"",""time"":410},{""stimulus"":""img/red_ww/9.jpg"",""time"":460},{""stimulus"":""img/red_ww/10.jpg"",""time"":511},{""stimulus"":""img/red_ww/11.jpg"",""time"":570}]","[]"
"","","","choice","63ea4301f63c1d26f0ff83e9","bdp_lott","Mon Mar 27 2023 07:37:16 GMT-0400 (Eastern Daylight Time)","340612","green","red","image-keyboard-response","87","114726","0.0-5.0-1.41","","1271","","img/red_ww/choose11.jpg","2","184","red","0.5","0.5","0.5","w","",""
"","","","","63ea4301f63c1d26f0ff83e9","bdp_lott","Mon Mar 27 2023 07:37:16 GMT-0400 (Eastern Daylight Time)","340612","green","red","animation","88","115364","0.0-5.0-2.41","","","","","","184","","","","","","[{""stimulus"":""img/red_ww/1.jpg"",""time"":58},{""stimulus"":""img/red_ww/2.jpg"",""time"":108},{""stimulus"":""img/red_ww/3.jpg"",""time"":159},{""stimulus"":""img/red_ww/4.jpg"",""time"":208},{""stimulus"":""img/red_ww/5.jpg"",""time"":259},{""stimulus"":""img/red_ww/6.jpg"",""time"":318},{""stimulus"":""img/red_ww/7.jpg"",""time"":368},{""stimulus"":""img/red_ww/8.jpg"",""time"":418},{""stimulus"":""img/red_ww/9.jpg"",""time"":469},{""stimulus"":""img/red_ww/10.jpg"",""time"":528},{""stimulus"":""img/red_ww/11.jpg"",""time"":578}]","[]"
"","","","choice","63ea4301f63c1d26f0ff83e9","bdp_lott","Mon Mar 27 2023 07:37:16 GMT-0400 (Eastern Daylight Time)","340612","green","red","image-keyboard-response","89","116177","0.0-5.0-1.42","","812","","img/red_ww/choose11.jpg","1","183","green","0.5","0.5","0.5","l","",""
"","","","","63ea4301f63c1d26f0ff83e9","bdp_lott","Mon Mar 27 2023 07:37:16 GMT-0400 (Eastern Daylight Time)","340612","green","red","animation","90","116795","0.0-5.0-2.42","","","","","","183","","","","","","[{""stimulus"":""img/green_lw/1.jpg"",""time"":57},{""stimulus"":""img/green_lw/2.jpg"",""time"":108},{""stimulus"":""img/green_lw/3.jpg"",""time"":157},{""stimulus"":""img/green_lw/4.jpg"",""time"":207},{""stimulus"":""img/green_lw/5.jpg"",""time"":257},{""stimulus"":""img/green_lw/6.jpg"",""time"":307},{""stimulus"":""img/green_lw/7.jpg"",""time"":357},{""stimulus"":""img/green_lw/8.jpg"",""time"":417},{""stimulus"":""img/green_lw/9.jpg"",""time"":467},{""stimulus"":""img/green_lw/10.jpg"",""time"":517},{""stimulus"":""img/green_lw/11.jpg"",""time"":567}]","[]"
"","","","choice","63ea4301f63c1d26f0ff83e9","bdp_lott","Mon Mar 27 2023 07:37:16 GMT-0400 (Eastern Daylight Time)","340612","green","red","image-keyboard-response","91","117338","0.0-5.0-1.43","","542","","img/green_lw/choose11.jpg","1","182","green","0.5","0.5","0.5","w","",""
"","","","","63ea4301f63c1d26f0ff83e9","bdp_lott","Mon Mar 27 2023 07:37:16 GMT-0400 (Eastern Daylight Time)","340612","green","red","animation","92","117985","0.0-5.0-2.43","","","","","","182","","","","","","[{""stimulus"":""img/green_ww/1.jpg"",""time"":57},{""stimulus"":""img/green_ww/2.jpg"",""time"":107},{""stimulus"":""img/green_ww/3.jpg"",""time"":158},{""stimulus"":""img/green_ww/4.jpg"",""time"":217},{""stimulus"":""img/green_ww/5.jpg"",""time"":268},{""stimulus"":""img/green_ww/6.jpg"",""time"":327},{""stimulus"":""img/green_ww/7.jpg"",""time"":378},{""stimulus"":""img/green_ww/8.jpg"",""time"":437},{""stimulus"":""img/green_ww/9.jpg"",""time"":488},{""stimulus"":""img/green_ww/10.jpg"",""time"":547},{""stimulus"":""img/green_ww/11.jpg"",""time"":597}]","[]"
"","","","choice","63ea4301f63c1d26f0ff83e9","bdp_lott","Mon Mar 27 2023 07:37:16 GMT-0400 (Eastern Daylight Time)","340612","green","red","image-keyboard-response","93","118790","0.0-5.0-1.44","","804","","img/green_ww/choose11.jpg","1","181","green","0.5","0.5","0.5","l","",""
"","","","","63ea4301f63c1d26f0ff83e9","bdp_lott","Mon Mar 27 2023 07:37:16 GMT-0400 (Eastern Daylight Time)","340612","green","red","animation","94","119405","0.0-5.0-2.44","","","","","","181","","","","","","[{""stimulus"":""img/green_lw/1.jpg"",""time"":55},{""stimulus"":""img/green_lw/2.jpg"",""time"":104},{""stimulus"":""img/green_lw/3.jpg"",""time"":154},{""stimulus"":""img/green_lw/4.jpg"",""time"":214},{""stimulus"":""img/green_lw/5.jpg"",""time"":264},{""stimulus"":""img/green_lw/6.jpg"",""time"":315},{""stimulus"":""img/green_lw/7.jpg"",""time"":364},{""stimulus"":""img/green_lw/8.jpg"",""time"":414},{""stimulus"":""img/green_lw/9.jpg"",""time"":464},{""stimulus"":""img/green_lw/10.jpg"",""time"":515},{""stimulus"":""img/green_lw/11.jpg"",""time"":564}]","[]"
"","","","choice","63ea4301f63c1d26f0ff83e9","bdp_lott","Mon Mar 27 2023 07:37:16 GMT-0400 (Eastern Daylight Time)","340612","green","red","image-keyboard-response","95","119991","0.0-5.0-1.45","","585","","img/green_lw/choose11.jpg","1","180","green","0.5","0.5","0.5","w","",""
"","","","","63ea4301f63c1d26f0ff83e9","bdp_lott","Mon Mar 27 2023 07:37:16 GMT-0400 (Eastern Daylight Time)","340612","green","red","animation","96","120604","0.0-5.0-2.45","","","","","","180","","","","","","[{""stimulus"":""img/green_ww/1.jpg"",""time"":53},{""stimulus"":""img/green_ww/2.jpg"",""time"":104},{""stimulus"":""img/green_ww/3.jpg"",""time"":163},{""stimulus"":""img/green_ww/4.jpg"",""time"":213},{""stimulus"":""img/green_ww/5.jpg"",""time"":263},{""stimulus"":""img/green_ww/6.jpg"",""time"":313},{""stimulus"":""img/green_ww/7.jpg"",""time"":363},{""stimulus"":""img/green_ww/8.jpg"",""time"":413},{""stimulus"":""img/green_ww/9.jpg"",""time"":463},{""stimulus"":""img/green_ww/10.jpg"",""time"":514},{""stimulus"":""img/green_ww/11.jpg"",""time"":564}]","[]"
"","","","choice","63ea4301f63c1d26f0ff83e9","bdp_lott","Mon Mar 27 2023 07:37:16 GMT-0400 (Eastern Daylight Time)","340612","green","red","image-keyboard-response","97","121225","0.0-5.0-1.46","","619","","img/green_ww/choose11.jpg","1","179","green","0.5","0.5","0.5","l","",""
"","","","","63ea4301f63c1d26f0ff83e9","bdp_lott","Mon Mar 27 2023 07:37:16 GMT-0400 (Eastern Daylight Time)","340612","green","red","animation","98","121845","0.0-5.0-2.46","","","","","","179","","","","","","[{""stimulus"":""img/green_lw/1.jpg"",""time"":59},{""stimulus"":""img/green_lw/2.jpg"",""time"":108},{""stimulus"":""img/green_lw/3.jpg"",""time"":158},{""stimulus"":""img/green_lw/4.jpg"",""time"":209},{""stimulus"":""img/green_lw/5.jpg"",""time"":259},{""stimulus"":""img/green_lw/6.jpg"",""time"":310},{""stimulus"":""img/green_lw/7.jpg"",""time"":369},{""stimulus"":""img/green_lw/8.jpg"",""time"":419},{""stimulus"":""img/green_lw/9.jpg"",""time"":470},{""stimulus"":""img/green_lw/10.jpg"",""time"":520},{""stimulus"":""img/green_lw/11.jpg"",""time"":570}]","[]"
"","","","choice","63ea4301f63c1d26f0ff83e9","bdp_lott","Mon Mar 27 2023 07:37:16 GMT-0400 (Eastern Daylight Time)","340612","green","red","image-keyboard-response","99","122391","0.0-5.0-1.47","","545","","img/green_lw/choose11.jpg","2","178","red","0.5","0.5","0.5","l","",""
"","","","","63ea4301f63c1d26f0ff83e9","bdp_lott","Mon Mar 27 2023 07:37:16 GMT-0400 (Eastern Daylight Time)","340612","green","red","animation","100","123025","0.0-5.0-2.47","","","","","","178","","","","","","[{""stimulus"":""img/red_ll/1.jpg"",""time"":55},{""stimulus"":""img/red_ll/2.jpg"",""time"":114},{""stimulus"":""img/red_ll/3.jpg"",""time"":164},{""stimulus"":""img/red_ll/4.jpg"",""time"":215},{""stimulus"":""img/red_ll/5.jpg"",""time"":264},{""stimulus"":""img/red_ll/6.jpg"",""time"":314},{""stimulus"":""img/red_ll/7.jpg"",""time"":374},{""stimulus"":""img/red_ll/8.jpg"",""time"":424},{""stimulus"":""img/red_ll/9.jpg"",""time"":474},{""stimulus"":""img/red_ll/10.jpg"",""time"":524},{""stimulus"":""img/red_ll/11.jpg"",""time"":574}]","[]"
"","","","choice","63ea4301f63c1d26f0ff83e9","bdp_lott","Mon Mar 27 2023 07:37:16 GMT-0400 (Eastern Daylight Time)","340612","green","red","image-keyboard-response","101","123517","0.0-5.0-1.48","","491","","img/red_ll/choose11.jpg","2","177","red","0.5","0.5","0.5","l","",""
"","","","","63ea4301f63c1d26f0ff83e9","bdp_lott","Mon Mar 27 2023 07:37:16 GMT-0400 (Eastern Daylight Time)","340612","green","red","animation","102","124156","0.0-5.0-2.48","","","","","","177","","","","","","[{""stimulus"":""img/red_ll/1.jpg"",""time"":59},{""stimulus"":""img/red_ll/2.jpg"",""time"":109},{""stimulus"":""img/red_ll/3.jpg"",""time"":159},{""stimulus"":""img/red_ll/4.jpg"",""time"":209},{""stimulus"":""img/red_ll/5.jpg"",""time"":259},{""stimulus"":""img/red_ll/6.jpg"",""time"":309},{""stimulus"":""img/red_ll/7.jpg"",""time"":369},{""stimulus"":""img/red_ll/8.jpg"",""time"":419},{""stimulus"":""img/red_ll/9.jpg"",""time"":479},{""stimulus"":""img/red_ll/10.jpg"",""time"":530},{""stimulus"":""img/red_ll/11.jpg"",""time"":589}]","[]"
"","","","choice","63ea4301f63c1d26f0ff83e9","bdp_lott","Mon Mar 27 2023 07:37:16 GMT-0400 (Eastern Daylight Time)","340612","green","red","image-keyboard-response","103","124476","0.0-5.0-1.49","","319","","img/red_ll/choose11.jpg","1","176","green","0.5","0.5","0.5","l","",""
"","","","","63ea4301f63c1d26f0ff83e9","bdp_lott","Mon Mar 27 2023 07:37:16 GMT-0400 (Eastern Daylight Time)","340612","green","red","animation","104","125136","0.0-5.0-2.49","","","","","","176","","","","","","[{""stimulus"":""img/green_ll/1.jpg"",""time"":59},{""stimulus"":""img/green_ll/2.jpg"",""time"":109},{""stimulus"":""img/green_ll/3.jpg"",""time"":170},{""stimulus"":""img/green_ll/4.jpg"",""time"":220},{""stimulus"":""img/green_ll/5.jpg"",""time"":280},{""stimulus"":""img/green_ll/6.jpg"",""time"":330},{""stimulus"":""img/green_ll/7.jpg"",""time"":389},{""stimulus"":""img/green_ll/8.jpg"",""time"":440},{""stimulus"":""img/green_ll/9.jpg"",""time"":499},{""stimulus"":""img/green_ll/10.jpg"",""time"":550},{""stimulus"":""img/green_ll/11.jpg"",""time"":609}]","[]"
"","","","choice","63ea4301f63c1d26f0ff83e9","bdp_lott","Mon Mar 27 2023 07:37:16 GMT-0400 (Eastern Daylight Time)","340612","green","red","image-keyboard-response","105","125773","0.0-5.0-1.50","","635","","img/green_ll/choose11.jpg","2","175","red","0.5","0.5","0.5","l","",""
"","","","","63ea4301f63c1d26f0ff83e9","bdp_lott","Mon Mar 27 2023 07:37:16 GMT-0400 (Eastern Daylight Time)","340612","green","red","animation","106","126395","0.0-5.0-2.50","","","","","","175","","","","","","[{""stimulus"":""img/red_ll/1.jpg"",""time"":53},{""stimulus"":""img/red_ll/2.jpg"",""time"":102},{""stimulus"":""img/red_ll/3.jpg"",""time"":152},{""stimulus"":""img/red_ll/4.jpg"",""time"":202},{""stimulus"":""img/red_ll/5.jpg"",""time"":252},{""stimulus"":""img/red_ll/6.jpg"",""time"":302},{""stimulus"":""img/red_ll/7.jpg"",""time"":352},{""stimulus"":""img/red_ll/8.jpg"",""time"":402},{""stimulus"":""img/red_ll/9.jpg"",""time"":453},{""stimulus"":""img/red_ll/10.jpg"",""time"":512},{""stimulus"":""img/red_ll/11.jpg"",""time"":563}]","[]"
"","","","choice","63ea4301f63c1d26f0ff83e9","bdp_lott","Mon Mar 27 2023 07:37:16 GMT-0400 (Eastern Daylight Time)","340612","green","red","image-keyboard-response","107","126903","0.0-5.0-1.51","","505","","img/red_ll/choose11.jpg","2","174","red","0.5","0.5","0.5","l","",""
"","","","","63ea4301f63c1d26f0ff83e9","bdp_lott","Mon Mar 27 2023 07:37:16 GMT-0400 (Eastern Daylight Time)","340612","green","red","animation","108","127537","0.0-5.0-2.51","","","","","","174","","","","","","[{""stimulus"":""img/red_ll/1.jpg"",""time"":54},{""stimulus"":""img/red_ll/2.jpg"",""time"":104},{""stimulus"":""img/red_ll/3.jpg"",""time"":154},{""stimulus"":""img/red_ll/4.jpg"",""time"":205},{""stimulus"":""img/red_ll/5.jpg"",""time"":264},{""stimulus"":""img/red_ll/6.jpg"",""time"":314},{""stimulus"":""img/red_ll/7.jpg"",""time"":364},{""stimulus"":""img/red_ll/8.jpg"",""time"":414},{""stimulus"":""img/red_ll/9.jpg"",""time"":474},{""stimulus"":""img/red_ll/10.jpg"",""time"":525},{""stimulus"":""img/red_ll/11.jpg"",""time"":584}]","[]"
"","","","choice","63ea4301f63c1d26f0ff83e9","bdp_lott","Mon Mar 27 2023 07:37:16 GMT-0400 (Eastern Daylight Time)","340612","green","red","image-keyboard-response","109","128265","0.0-5.0-1.52","","727","","img/red_ll/choose11.jpg","2","173","red","0.5","0.5","0.5","w","",""
"","","","","63ea4301f63c1d26f0ff83e9","bdp_lott","Mon Mar 27 2023 07:37:16 GMT-0400 (Eastern Daylight Time)","340612","green","red","animation","110","128907","0.0-5.0-2.52","","","","","","173","","","","","","[{""stimulus"":""img/red_lw/1.jpg"",""time"":51},{""stimulus"":""img/red_lw/2.jpg"",""time"":101},{""stimulus"":""img/red_lw/3.jpg"",""time"":151},{""stimulus"":""img/red_lw/4.jpg"",""time"":211},{""stimulus"":""img/red_lw/5.jpg"",""time"":272},{""stimulus"":""img/red_lw/6.jpg"",""time"":321},{""stimulus"":""img/red_lw/7.jpg"",""time"":371},{""stimulus"":""img/red_lw/8.jpg"",""time"":421},{""stimulus"":""img/red_lw/9.jpg"",""time"":471},{""stimulus"":""img/red_lw/10.jpg"",""time"":531},{""stimulus"":""img/red_lw/11.jpg"",""time"":582}]","[]"
"","","","choice","63ea4301f63c1d26f0ff83e9","bdp_lott","Mon Mar 27 2023 07:37:16 GMT-0400 (Eastern Daylight Time)","340612","green","red","image-keyboard-response","111","129939","0.0-5.0-1.53","","1031","","img/red_lw/choose11.jpg","1","172","green","0.5","0.5","0.5","l","",""
"","","","","63ea4301f63c1d26f0ff83e9","bdp_lott","Mon Mar 27 2023 07:37:16 GMT-0400 (Eastern Daylight Time)","340612","green","red","animation","112","130597","0.0-5.0-2.53","","","","","","172","","","","","","[{""stimulus"":""img/green_lw/1.jpg"",""time"":57},{""stimulus"":""img/green_lw/2.jpg"",""time"":108},{""stimulus"":""img/green_lw/3.jpg"",""time"":157},{""stimulus"":""img/green_lw/4.jpg"",""time"":217},{""stimulus"":""img/green_lw/5.jpg"",""time"":277},{""stimulus"":""img/green_lw/6.jpg"",""time"":327},{""stimulus"":""img/green_lw/7.jpg"",""time"":387},{""stimulus"":""img/green_lw/8.jpg"",""time"":438},{""stimulus"":""img/green_lw/9.jpg"",""time"":497},{""stimulus"":""img/green_lw/10.jpg"",""time"":547},{""stimulus"":""img/green_lw/11.jpg"",""time"":606}]","[]"
"","","","choice","63ea4301f63c1d26f0ff83e9","bdp_lott","Mon Mar 27 2023 07:37:16 GMT-0400 (Eastern Daylight Time)","340612","green","red","image-keyboard-response","113","131174","0.0-5.0-1.54","","575","","img/green_lw/choose11.jpg","1","171","green","0.5","0.5","0.5","l","",""
"","","","","63ea4301f63c1d26f0ff83e9","bdp_lott","Mon Mar 27 2023 07:37:16 GMT-0400 (Eastern Daylight Time)","340612","green","red","animation","114","131797","0.0-5.0-2.54","","","","","","171","","","","","","[{""stimulus"":""img/green_lw/1.jpg"",""time"":52},{""stimulus"":""img/green_lw/2.jpg"",""time"":102},{""stimulus"":""img/green_lw/3.jpg"",""time"":152},{""stimulus"":""img/green_lw/4.jpg"",""time"":202},{""stimulus"":""img/green_lw/5.jpg"",""time"":252},{""stimulus"":""img/green_lw/6.jpg"",""time"":302},{""stimulus"":""img/green_lw/7.jpg"",""time"":352},{""stimulus"":""img/green_lw/8.jpg"",""time"":402},{""stimulus"":""img/green_lw/9.jpg"",""time"":462},{""stimulus"":""img/green_lw/10.jpg"",""time"":513},{""stimulus"":""img/green_lw/11.jpg"",""time"":572}]","[]"
"","","","choice","63ea4301f63c1d26f0ff83e9","bdp_lott","Mon Mar 27 2023 07:37:16 GMT-0400 (Eastern Daylight Time)","340612","green","red","image-keyboard-response","115","133104","0.0-5.0-1.55","","1306","","img/green_lw/choose11.jpg","1","170","green","0.5","0.5","0.5","w","",""
"","","","","63ea4301f63c1d26f0ff83e9","bdp_lott","Mon Mar 27 2023 07:37:16 GMT-0400 (Eastern Daylight Time)","340612","green","red","animation","116","133717","0.0-5.0-2.55","","","","","","170","","","","","","[{""stimulus"":""img/green_ww/1.jpg"",""time"":52},{""stimulus"":""img/green_ww/2.jpg"",""time"":102},{""stimulus"":""img/green_ww/3.jpg"",""time"":152},{""stimulus"":""img/green_ww/4.jpg"",""time"":202},{""stimulus"":""img/green_ww/5.jpg"",""time"":252},{""stimulus"":""img/green_ww/6.jpg"",""time"":312},{""stimulus"":""img/green_ww/7.jpg"",""time"":362},{""stimulus"":""img/green_ww/8.jpg"",""time"":412},{""stimulus"":""img/green_ww/9.jpg"",""time"":462},{""stimulus"":""img/green_ww/10.jpg"",""time"":512},{""stimulus"":""img/green_ww/11.jpg"",""time"":562}]","[]"
"","","","choice","63ea4301f63c1d26f0ff83e9","bdp_lott","Mon Mar 27 2023 07:37:16 GMT-0400 (Eastern Daylight Time)","340612","green","red","image-keyboard-response","117","134761","0.0-5.0-1.56","","1043","","img/green_ww/choose11.jpg","1","169","green","0.5","0.5","0.5","w","",""
"","","","","63ea4301f63c1d26f0ff83e9","bdp_lott","Mon Mar 27 2023 07:37:16 GMT-0400 (Eastern Daylight Time)","340612","green","red","animation","118","135398","0.0-5.0-2.56","","","","","","169","","","","","","[{""stimulus"":""img/green_ww/1.jpg"",""time"":56},{""stimulus"":""img/green_ww/2.jpg"",""time"":106},{""stimulus"":""img/green_ww/3.jpg"",""time"":156},{""stimulus"":""img/green_ww/4.jpg"",""time"":206},{""stimulus"":""img/green_ww/5.jpg"",""time"":266},{""stimulus"":""img/green_ww/6.jpg"",""time"":316},{""stimulus"":""img/green_ww/7.jpg"",""time"":376},{""stimulus"":""img/green_ww/8.jpg"",""time"":426},{""stimulus"":""img/green_ww/9.jpg"",""time"":476},{""stimulus"":""img/green_ww/10.jpg"",""time"":526},{""stimulus"":""img/green_ww/11.jpg"",""time"":585}]","[]"
"","","","choice","63ea4301f63c1d26f0ff83e9","bdp_lott","Mon Mar 27 2023 07:37:16 GMT-0400 (Eastern Daylight Time)","340612","green","red","image-keyboard-response","119","136433","0.0-5.0-1.57","","1033","","img/green_ww/choose11.jpg","1","168","green","0.5","0.5","0.5","w","",""
"","","","","63ea4301f63c1d26f0ff83e9","bdp_lott","Mon Mar 27 2023 07:37:16 GMT-0400 (Eastern Daylight Time)","340612","green","red","animation","120","137047","0.0-5.0-2.57","","","","","","168","","","","","","[{""stimulus"":""img/green_ww/1.jpg"",""time"":54},{""stimulus"":""img/green_ww/2.jpg"",""time"":104},{""stimulus"":""img/green_ww/3.jpg"",""time"":154},{""stimulus"":""img/green_ww/4.jpg"",""time"":204},{""stimulus"":""img/green_ww/5.jpg"",""time"":254},{""stimulus"":""img/green_ww/6.jpg"",""time"":304},{""stimulus"":""img/green_ww/7.jpg"",""time"":354},{""stimulus"":""img/green_ww/8.jpg"",""time"":414},{""stimulus"":""img/green_ww/9.jpg"",""time"":464},{""stimulus"":""img/green_ww/10.jpg"",""time"":514},{""stimulus"":""img/green_ww/11.jpg"",""time"":564}]","[]"
"","","","choice","63ea4301f63c1d26f0ff83e9","bdp_lott","Mon Mar 27 2023 07:37:16 GMT-0400 (Eastern Daylight Time)","340612","green","red","image-keyboard-response","121","138643","0.0-5.0-1.58","","1593","","img/green_ww/choose11.jpg","2","167","red","0.5","0.5","0.5","l","",""
"","","","","63ea4301f63c1d26f0ff83e9","bdp_lott","Mon Mar 27 2023 07:37:16 GMT-0400 (Eastern Daylight Time)","340612","green","red","animation","122","139287","0.0-5.0-2.58","","","","","","167","","","","","","[{""stimulus"":""img/red_wl/1.jpg"",""time"":56},{""stimulus"":""img/red_wl/2.jpg"",""time"":105},{""stimulus"":""img/red_wl/3.jpg"",""time"":155},{""stimulus"":""img/red_wl/4.jpg"",""time"":215},{""stimulus"":""img/red_wl/5.jpg"",""time"":265},{""stimulus"":""img/red_wl/6.jpg"",""time"":315},{""stimulus"":""img/red_wl/7.jpg"",""time"":365},{""stimulus"":""img/red_wl/8.jpg"",""time"":425},{""stimulus"":""img/red_wl/9.jpg"",""time"":476},{""stimulus"":""img/red_wl/10.jpg"",""time"":535},{""stimulus"":""img/red_wl/11.jpg"",""time"":585}]","[]"
"","","","choice","63ea4301f63c1d26f0ff83e9","bdp_lott","Mon Mar 27 2023 07:37:16 GMT-0400 (Eastern Daylight Time)","340612","green","red","image-keyboard-response","123","139881","0.0-5.0-1.59","","593","","img/red_wl/choose11.jpg","2","166","red","0.5","0.5","0.5","w","",""
"","","","","63ea4301f63c1d26f0ff83e9","bdp_lott","Mon Mar 27 2023 07:37:16 GMT-0400 (Eastern Daylight Time)","340612","green","red","animation","124","140538","0.0-5.0-2.59","","","","","","166","","","","","","[{""stimulus"":""img/red_ww/1.jpg"",""time"":57},{""stimulus"":""img/red_ww/2.jpg"",""time"":107},{""stimulus"":""img/red_ww/3.jpg"",""time"":167},{""stimulus"":""img/red_ww/4.jpg"",""time"":217},{""stimulus"":""img/red_ww/5.jpg"",""time"":277},{""stimulus"":""img/red_ww/6.jpg"",""time"":327},{""stimulus"":""img/red_ww/7.jpg"",""time"":387},{""stimulus"":""img/red_ww/8.jpg"",""time"":437},{""stimulus"":""img/red_ww/9.jpg"",""time"":498},{""stimulus"":""img/red_ww/10.jpg"",""time"":547},{""stimulus"":""img/red_ww/11.jpg"",""time"":597}]","[]"
"","","","choice","63ea4301f63c1d26f0ff83e9","bdp_lott","Mon Mar 27 2023 07:37:16 GMT-0400 (Eastern Daylight Time)","340612","green","red","image-keyboard-response","125","141606","0.0-5.0-1.60","","1066","","img/red_ww/choose11.jpg","2","165","red","0.5","0.5","0.5","w","",""
"","","","","63ea4301f63c1d26f0ff83e9","bdp_lott","Mon Mar 27 2023 07:37:16 GMT-0400 (Eastern Daylight Time)","340612","green","red","animation","126","142229","0.0-5.0-2.60","","","","","","165","","","","","","[{""stimulus"":""img/red_ww/1.jpg"",""time"":53},{""stimulus"":""img/red_ww/2.jpg"",""time"":113},{""stimulus"":""img/red_ww/3.jpg"",""time"":163},{""stimulus"":""img/red_ww/4.jpg"",""time"":223},{""stimulus"":""img/red_ww/5.jpg"",""time"":273},{""stimulus"":""img/red_ww/6.jpg"",""time"":323},{""stimulus"":""img/red_ww/7.jpg"",""time"":373},{""stimulus"":""img/red_ww/8.jpg"",""time"":423},{""stimulus"":""img/red_ww/9.jpg"",""time"":473},{""stimulus"":""img/red_ww/10.jpg"",""time"":523},{""stimulus"":""img/red_ww/11.jpg"",""time"":573}]","[]"
"","","","choice","63ea4301f63c1d26f0ff83e9","bdp_lott","Mon Mar 27 2023 07:37:16 GMT-0400 (Eastern Daylight Time)","340612","green","red","image-keyboard-response","127","142986","0.0-5.0-1.61","","756","","img/red_ww/choose11.jpg","2","164","red","0.5","0.5","0.5","l","",""
"","","","","63ea4301f63c1d26f0ff83e9","bdp_lott","Mon Mar 27 2023 07:37:16 GMT-0400 (Eastern Daylight Time)","340612","green","red","animation","128","143589","0.0-5.0-2.61","","","","","","164","","","","","","[{""stimulus"":""img/red_wl/1.jpg"",""time"":53},{""stimulus"":""img/red_wl/2.jpg"",""time"":103},{""stimulus"":""img/red_wl/3.jpg"",""time"":153},{""stimulus"":""img/red_wl/4.jpg"",""time"":203},{""stimulus"":""img/red_wl/5.jpg"",""time"":253},{""stimulus"":""img/red_wl/6.jpg"",""time"":302},{""stimulus"":""img/red_wl/7.jpg"",""time"":352},{""stimulus"":""img/red_wl/8.jpg"",""time"":403},{""stimulus"":""img/red_wl/9.jpg"",""time"":453},{""stimulus"":""img/red_wl/10.jpg"",""time"":502},{""stimulus"":""img/red_wl/11.jpg"",""time"":553}]","[]"
"","","","choice","63ea4301f63c1d26f0ff83e9","bdp_lott","Mon Mar 27 2023 07:37:16 GMT-0400 (Eastern Daylight Time)","340612","green","red","image-keyboard-response","129","144433","0.0-5.0-1.62","","842","","img/red_wl/choose11.jpg","1","163","green","0.5","0.5","0.5","l","",""
"","","","","63ea4301f63c1d26f0ff83e9","bdp_lott","Mon Mar 27 2023 07:37:16 GMT-0400 (Eastern Daylight Time)","340612","green","red","animation","130","145069","0.0-5.0-2.62","","","","","","163","","","","","","[{""stimulus"":""img/green_ll/1.jpg"",""time"":56},{""stimulus"":""img/green_ll/2.jpg"",""time"":106},{""stimulus"":""img/green_ll/3.jpg"",""time"":156},{""stimulus"":""img/green_ll/4.jpg"",""time"":206},{""stimulus"":""img/green_ll/5.jpg"",""time"":256},{""stimulus"":""img/green_ll/6.jpg"",""time"":307},{""stimulus"":""img/green_ll/7.jpg"",""time"":356},{""stimulus"":""img/green_ll/8.jpg"",""time"":416},{""stimulus"":""img/green_ll/9.jpg"",""time"":467},{""stimulus"":""img/green_ll/10.jpg"",""time"":525},{""stimulus"":""img/green_ll/11.jpg"",""time"":577}]","[]"
"","","","choice","63ea4301f63c1d26f0ff83e9","bdp_lott","Mon Mar 27 2023 07:37:16 GMT-0400 (Eastern Daylight Time)","340612","green","red","image-keyboard-response","131","145674","0.0-5.0-1.63","","602","","img/green_ll/choose11.jpg","2","162","red","0.5","0.5","0.5","w","",""
"","","","","63ea4301f63c1d26f0ff83e9","bdp_lott","Mon Mar 27 2023 07:37:16 GMT-0400 (Eastern Daylight Time)","340612","green","red","animation","132","146328","0.0-5.0-2.63","","","","","","162","","","","","","[{""stimulus"":""img/red_lw/1.jpg"",""time"":55},{""stimulus"":""img/red_lw/2.jpg"",""time"":106},{""stimulus"":""img/red_lw/3.jpg"",""time"":165},{""stimulus"":""img/red_lw/4.jpg"",""time"":215},{""stimulus"":""img/red_lw/5.jpg"",""time"":275},{""stimulus"":""img/red_lw/6.jpg"",""time"":326},{""stimulus"":""img/red_lw/7.jpg"",""time"":385},{""stimulus"":""img/red_lw/8.jpg"",""time"":445},{""stimulus"":""img/red_lw/9.jpg"",""time"":495},{""stimulus"":""img/red_lw/10.jpg"",""time"":545},{""stimulus"":""img/red_lw/11.jpg"",""time"":605}]","[]"
"","","","choice","63ea4301f63c1d26f0ff83e9","bdp_lott","Mon Mar 27 2023 07:37:16 GMT-0400 (Eastern Daylight Time)","340612","green","red","image-keyboard-response","133","147078","0.0-5.0-1.64","","748","","img/red_lw/choose11.jpg","2","161","red","0.5","0.5","0.5","w","",""
"","","","","63ea4301f63c1d26f0ff83e9","bdp_lott","Mon Mar 27 2023 07:37:16 GMT-0400 (Eastern Daylight Time)","340612","green","red","animation","134","147680","0.0-5.0-2.64","","","","","","161","","","","","","[{""stimulus"":""img/red_lw/1.jpg"",""time"":52},{""stimulus"":""img/red_lw/2.jpg"",""time"":102},{""stimulus"":""img/red_lw/3.jpg"",""time"":152},{""stimulus"":""img/red_lw/4.jpg"",""time"":202},{""stimulus"":""img/red_lw/5.jpg"",""time"":252},{""stimulus"":""img/red_lw/6.jpg"",""time"":302},{""stimulus"":""img/red_lw/7.jpg"",""time"":352},{""stimulus"":""img/red_lw/8.jpg"",""time"":402},{""stimulus"":""img/red_lw/9.jpg"",""time"":452},{""stimulus"":""img/red_lw/10.jpg"",""time"":502},{""stimulus"":""img/red_lw/11.jpg"",""time"":552}]","[]"
"","","","choice","63ea4301f63c1d26f0ff83e9","bdp_lott","Mon Mar 27 2023 07:37:16 GMT-0400 (Eastern Daylight Time)","340612","green","red","image-keyboard-response","135","148443","0.0-5.0-1.65","","762","","img/red_lw/choose11.jpg","1","160","green","0.5","0.5","0.5","l","",""
"","","","","63ea4301f63c1d26f0ff83e9","bdp_lott","Mon Mar 27 2023 07:37:16 GMT-0400 (Eastern Daylight Time)","340612","green","red","animation","136","149049","0.0-5.0-2.65","","","","","","160","","","","","","[{""stimulus"":""img/green_lw/1.jpg"",""time"":56},{""stimulus"":""img/green_lw/2.jpg"",""time"":106},{""stimulus"":""img/green_lw/3.jpg"",""time"":156},{""stimulus"":""img/green_lw/4.jpg"",""time"":206},{""stimulus"":""img/green_lw/5.jpg"",""time"":255},{""stimulus"":""img/green_lw/6.jpg"",""time"":306},{""stimulus"":""img/green_lw/7.jpg"",""time"":356},{""stimulus"":""img/green_lw/8.jpg"",""time"":406},{""stimulus"":""img/green_lw/9.jpg"",""time"":456},{""stimulus"":""img/green_lw/10.jpg"",""time"":506},{""stimulus"":""img/green_lw/11.jpg"",""time"":556}]","[]"
"","","","choice","63ea4301f63c1d26f0ff83e9","bdp_lott","Mon Mar 27 2023 07:37:16 GMT-0400 (Eastern Daylight Time)","340612","green","red","image-keyboard-response","137","149554","0.0-5.0-1.66","","503","","img/green_lw/choose11.jpg","1","159","green","0.5","0.5","0.5","w","",""
"","","","","63ea4301f63c1d26f0ff83e9","bdp_lott","Mon Mar 27 2023 07:37:16 GMT-0400 (Eastern Daylight Time)","340612","green","red","animation","138","150199","0.0-5.0-2.66","","","","","","159","","","","","","[{""stimulus"":""img/green_ww/1.jpg"",""time"":55},{""stimulus"":""img/green_ww/2.jpg"",""time"":105},{""stimulus"":""img/green_ww/3.jpg"",""time"":155},{""stimulus"":""img/green_ww/4.jpg"",""time"":215},{""stimulus"":""img/green_ww/5.jpg"",""time"":265},{""stimulus"":""img/green_ww/6.jpg"",""time"":325},{""stimulus"":""img/green_ww/7.jpg"",""time"":374},{""stimulus"":""img/green_ww/8.jpg"",""time"":425},{""stimulus"":""img/green_ww/9.jpg"",""time"":476},{""stimulus"":""img/green_ww/10.jpg"",""time"":535},{""stimulus"":""img/green_ww/11.jpg"",""time"":585}]","[]"
"","","","choice","63ea4301f63c1d26f0ff83e9","bdp_lott","Mon Mar 27 2023 07:37:16 GMT-0400 (Eastern Daylight Time)","340612","green","red","image-keyboard-response","139","151031","0.0-5.0-1.67","","831","","img/green_ww/choose11.jpg","1","158","green","0.5","0.5","0.5","l","",""
"","","","","63ea4301f63c1d26f0ff83e9","bdp_lott","Mon Mar 27 2023 07:37:16 GMT-0400 (Eastern Daylight Time)","340612","green","red","animation","140","151670","0.0-5.0-2.67","","","","","","158","","","","","","[{""stimulus"":""img/green_lw/1.jpg"",""time"":58},{""stimulus"":""img/green_lw/2.jpg"",""time"":108},{""stimulus"":""img/green_lw/3.jpg"",""time"":158},{""stimulus"":""img/green_lw/4.jpg"",""time"":208},{""stimulus"":""img/green_lw/5.jpg"",""time"":269},{""stimulus"":""img/green_lw/6.jpg"",""time"":318},{""stimulus"":""img/green_lw/7.jpg"",""time"":378},{""stimulus"":""img/green_lw/8.jpg"",""time"":437},{""stimulus"":""img/green_lw/9.jpg"",""time"":488},{""stimulus"":""img/green_lw/10.jpg"",""time"":538},{""stimulus"":""img/green_lw/11.jpg"",""time"":588}]","[]"
"","","","choice","63ea4301f63c1d26f0ff83e9","bdp_lott","Mon Mar 27 2023 07:37:16 GMT-0400 (Eastern Daylight Time)","340612","green","red","image-keyboard-response","141","152461","0.0-5.0-1.68","","789","","img/green_lw/choose11.jpg","2","157","red","0.5","0.5","0.5","w","",""
"","","","","63ea4301f63c1d26f0ff83e9","bdp_lott","Mon Mar 27 2023 07:37:16 GMT-0400 (Eastern Daylight Time)","340612","green","red","animation","142","153090","0.0-5.0-2.68","","","","","","157","","","","","","[{""stimulus"":""img/red_lw/1.jpg"",""time"":58},{""stimulus"":""img/red_lw/2.jpg"",""time"":109},{""stimulus"":""img/red_lw/3.jpg"",""time"":159},{""stimulus"":""img/red_lw/4.jpg"",""time"":209},{""stimulus"":""img/red_lw/5.jpg"",""time"":259},{""stimulus"":""img/red_lw/6.jpg"",""time"":308},{""stimulus"":""img/red_lw/7.jpg"",""time"":359},{""stimulus"":""img/red_lw/8.jpg"",""time"":409},{""stimulus"":""img/red_lw/9.jpg"",""time"":469},{""stimulus"":""img/red_lw/10.jpg"",""time"":520},{""stimulus"":""img/red_lw/11.jpg"",""time"":579}]","[]"
"","","","choice","63ea4301f63c1d26f0ff83e9","bdp_lott","Mon Mar 27 2023 07:37:16 GMT-0400 (Eastern Daylight Time)","340612","green","red","image-keyboard-response","143","153799","0.0-5.0-1.69","","708","","img/red_lw/choose11.jpg","2","156","red","0.5","0.5","0.5","w","",""
"","","","","63ea4301f63c1d26f0ff83e9","bdp_lott","Mon Mar 27 2023 07:37:16 GMT-0400 (Eastern Daylight Time)","340612","green","red","animation","144","154411","0.0-5.0-2.69","","","","","","156","","","","","","[{""stimulus"":""img/red_lw/1.jpg"",""time"":52},{""stimulus"":""img/red_lw/2.jpg"",""time"":103},{""stimulus"":""img/red_lw/3.jpg"",""time"":162},{""stimulus"":""img/red_lw/4.jpg"",""time"":212},{""stimulus"":""img/red_lw/5.jpg"",""time"":261},{""stimulus"":""img/red_lw/6.jpg"",""time"":311},{""stimulus"":""img/red_lw/7.jpg"",""time"":362},{""stimulus"":""img/red_lw/8.jpg"",""time"":412},{""stimulus"":""img/red_lw/9.jpg"",""time"":462},{""stimulus"":""img/red_lw/10.jpg"",""time"":512},{""stimulus"":""img/red_lw/11.jpg"",""time"":562}]","[]"
"","","","choice","63ea4301f63c1d26f0ff83e9","bdp_lott","Mon Mar 27 2023 07:37:16 GMT-0400 (Eastern Daylight Time)","340612","green","red","image-keyboard-response","145","155130","0.0-5.0-1.70","","717","","img/red_lw/choose11.jpg","2","155","red","0.5","0.5","0.5","w","",""
"","","","","63ea4301f63c1d26f0ff83e9","bdp_lott","Mon Mar 27 2023 07:37:16 GMT-0400 (Eastern Daylight Time)","340612","green","red","animation","146","155770","0.0-5.0-2.70","","","","","","155","","","","","","[{""stimulus"":""img/red_lw/1.jpg"",""time"":60},{""stimulus"":""img/red_lw/2.jpg"",""time"":110},{""stimulus"":""img/red_lw/3.jpg"",""time"":160},{""stimulus"":""img/red_lw/4.jpg"",""time"":209},{""stimulus"":""img/red_lw/5.jpg"",""time"":260},{""stimulus"":""img/red_lw/6.jpg"",""time"":310},{""stimulus"":""img/red_lw/7.jpg"",""time"":360},{""stimulus"":""img/red_lw/8.jpg"",""time"":420},{""stimulus"":""img/red_lw/9.jpg"",""time"":471},{""stimulus"":""img/red_lw/10.jpg"",""time"":530},{""stimulus"":""img/red_lw/11.jpg"",""time"":580}]","[]"
"","","","choice","63ea4301f63c1d26f0ff83e9","bdp_lott","Mon Mar 27 2023 07:37:16 GMT-0400 (Eastern Daylight Time)","340612","green","red","image-keyboard-response","147","156288","0.0-5.0-1.71","","517","","img/red_lw/choose11.jpg","1","154","green","0.5","0.5","0.5","w","",""
"","","","","63ea4301f63c1d26f0ff83e9","bdp_lott","Mon Mar 27 2023 07:37:16 GMT-0400 (Eastern Daylight Time)","340612","green","red","animation","148","156901","0.0-5.0-2.71","","","","","","154","","","","","","[{""stimulus"":""img/green_ww/1.jpg"",""time"":52},{""stimulus"":""img/green_ww/2.jpg"",""time"":102},{""stimulus"":""img/green_ww/3.jpg"",""time"":152},{""stimulus"":""img/green_ww/4.jpg"",""time"":202},{""stimulus"":""img/green_ww/5.jpg"",""time"":251},{""stimulus"":""img/green_ww/6.jpg"",""time"":302},{""stimulus"":""img/green_ww/7.jpg"",""time"":361},{""stimulus"":""img/green_ww/8.jpg"",""time"":412},{""stimulus"":""img/green_ww/9.jpg"",""time"":462},{""stimulus"":""img/green_ww/10.jpg"",""time"":511},{""stimulus"":""img/green_ww/11.jpg"",""time"":562}]","[]"
"","","","choice","63ea4301f63c1d26f0ff83e9","bdp_lott","Mon Mar 27 2023 07:37:16 GMT-0400 (Eastern Daylight Time)","340612","green","red","image-keyboard-response","149","157607","0.0-5.0-1.72","","705","","img/green_ww/choose11.jpg","1","153","green","0.5","0.5","0.5","l","",""
"","","","","63ea4301f63c1d26f0ff83e9","bdp_lott","Mon Mar 27 2023 07:37:16 GMT-0400 (Eastern Daylight Time)","340612","green","red","animation","150","158220","0.0-5.0-2.72","","","","","","153","","","","","","[{""stimulus"":""img/green_lw/1.jpg"",""time"":53},{""stimulus"":""img/green_lw/2.jpg"",""time"":103},{""stimulus"":""img/green_lw/3.jpg"",""time"":153},{""stimulus"":""img/green_lw/4.jpg"",""time"":203},{""stimulus"":""img/green_lw/5.jpg"",""time"":253},{""stimulus"":""img/green_lw/6.jpg"",""time"":303},{""stimulus"":""img/green_lw/7.jpg"",""time"":353},{""stimulus"":""img/green_lw/8.jpg"",""time"":403},{""stimulus"":""img/green_lw/9.jpg"",""time"":453},{""stimulus"":""img/green_lw/10.jpg"",""time"":504},{""stimulus"":""img/green_lw/11.jpg"",""time"":563}]","[]"
"","","","choice","63ea4301f63c1d26f0ff83e9","bdp_lott","Mon Mar 27 2023 07:37:16 GMT-0400 (Eastern Daylight Time)","340612","green","red","image-keyboard-response","151","158956","0.0-5.0-1.73","","733","","img/green_lw/choose11.jpg","2","152","red","0.5","0.5","0.5","l","",""
"","","","","63ea4301f63c1d26f0ff83e9","bdp_lott","Mon Mar 27 2023 07:37:16 GMT-0400 (Eastern Daylight Time)","340612","green","red","animation","152","159590","0.0-5.0-2.73","","","","","","152","","","","","","[{""stimulus"":""img/red_ll/1.jpg"",""time"":55},{""stimulus"":""img/red_ll/2.jpg"",""time"":105},{""stimulus"":""img/red_ll/3.jpg"",""time"":155},{""stimulus"":""img/red_ll/4.jpg"",""time"":205},{""stimulus"":""img/red_ll/5.jpg"",""time"":255},{""stimulus"":""img/red_ll/6.jpg"",""time"":315},{""stimulus"":""img/red_ll/7.jpg"",""time"":365},{""stimulus"":""img/red_ll/8.jpg"",""time"":425},{""stimulus"":""img/red_ll/9.jpg"",""time"":475},{""stimulus"":""img/red_ll/10.jpg"",""time"":525},{""stimulus"":""img/red_ll/11.jpg"",""time"":576}]","[]"
"","","","choice","63ea4301f63c1d26f0ff83e9","bdp_lott","Mon Mar 27 2023 07:37:16 GMT-0400 (Eastern Daylight Time)","340612","green","red","image-keyboard-response","153","160181","0.0-5.0-1.74","","589","","img/red_ll/choose11.jpg","2","151","red","0.5","0.5","0.5","l","",""
"","","","","63ea4301f63c1d26f0ff83e9","bdp_lott","Mon Mar 27 2023 07:37:16 GMT-0400 (Eastern Daylight Time)","340612","green","red","animation","154","160790","0.0-5.0-2.74","","","","","","151","","","","","","[{""stimulus"":""img/red_ll/1.jpg"",""time"":60},{""stimulus"":""img/red_ll/2.jpg"",""time"":110},{""stimulus"":""img/red_ll/3.jpg"",""time"":160},{""stimulus"":""img/red_ll/4.jpg"",""time"":210},{""stimulus"":""img/red_ll/5.jpg"",""time"":260},{""stimulus"":""img/red_ll/6.jpg"",""time"":310},{""stimulus"":""img/red_ll/7.jpg"",""time"":360},{""stimulus"":""img/red_ll/8.jpg"",""time"":410},{""stimulus"":""img/red_ll/9.jpg"",""time"":460},{""stimulus"":""img/red_ll/10.jpg"",""time"":510},{""stimulus"":""img/red_ll/11.jpg"",""time"":560}]","[]"
"","","","choice","63ea4301f63c1d26f0ff83e9","bdp_lott","Mon Mar 27 2023 07:37:16 GMT-0400 (Eastern Daylight Time)","340612","green","red","image-keyboard-response","155","161417","0.0-5.0-1.75","","626","","img/red_ll/choose11.jpg","2","150","red","0.5","0.5","0.5","l","",""
"","","","","63ea4301f63c1d26f0ff83e9","bdp_lott","Mon Mar 27 2023 07:37:16 GMT-0400 (Eastern Daylight Time)","340612","green","red","animation","156","162051","0.0-5.0-2.75","","","","","","150","","","","","","[{""stimulus"":""img/red_ll/1.jpg"",""time"":53},{""stimulus"":""img/red_ll/2.jpg"",""time"":103},{""stimulus"":""img/red_ll/3.jpg"",""time"":153},{""stimulus"":""img/red_ll/4.jpg"",""time"":203},{""stimulus"":""img/red_ll/5.jpg"",""time"":253},{""stimulus"":""img/red_ll/6.jpg"",""time"":303},{""stimulus"":""img/red_ll/7.jpg"",""time"":362},{""stimulus"":""img/red_ll/8.jpg"",""time"":414},{""stimulus"":""img/red_ll/9.jpg"",""time"":473},{""stimulus"":""img/red_ll/10.jpg"",""time"":524},{""stimulus"":""img/red_ll/11.jpg"",""time"":583}]","[]"
"","","","choice","63ea4301f63c1d26f0ff83e9","bdp_lott","Mon Mar 27 2023 07:37:16 GMT-0400 (Eastern Daylight Time)","340612","green","red","image-keyboard-response","157","162870","0.0-5.0-1.76","","819","","img/red_ll/choose11.jpg","1","149","green","0.5","0.1","0.5","l","",""
"","","","","63ea4301f63c1d26f0ff83e9","bdp_lott","Mon Mar 27 2023 07:37:16 GMT-0400 (Eastern Daylight Time)","340612","green","red","animation","158","163521","0.0-5.0-2.76","","","","","","149","","","","","","[{""stimulus"":""img/green_ll/1.jpg"",""time"":52},{""stimulus"":""img/green_ll/2.jpg"",""time"":111},{""stimulus"":""img/green_ll/3.jpg"",""time"":161},{""stimulus"":""img/green_ll/4.jpg"",""time"":220},{""stimulus"":""img/green_ll/5.jpg"",""time"":271},{""stimulus"":""img/green_ll/6.jpg"",""time"":331},{""stimulus"":""img/green_ll/7.jpg"",""time"":381},{""stimulus"":""img/green_ll/8.jpg"",""time"":441},{""stimulus"":""img/green_ll/9.jpg"",""time"":491},{""stimulus"":""img/green_ll/10.jpg"",""time"":541},{""stimulus"":""img/green_ll/11.jpg"",""time"":591}]","[]"
"","","","choice","63ea4301f63c1d26f0ff83e9","bdp_lott","Mon Mar 27 2023 07:37:16 GMT-0400 (Eastern Daylight Time)","340612","green","red","image-keyboard-response","159","163979","0.0-5.0-1.77","","457","","img/green_ll/choose11.jpg","2","148","red","0.5","0.1","0.1","l","",""
"","","","","63ea4301f63c1d26f0ff83e9","bdp_lott","Mon Mar 27 2023 07:37:16 GMT-0400 (Eastern Daylight Time)","340612","green","red","animation","160","164621","0.0-5.0-2.77","","","","","","148","","","","","","[{""stimulus"":""img/red_ll/1.jpg"",""time"":52},{""stimulus"":""img/red_ll/2.jpg"",""time"":102},{""stimulus"":""img/red_ll/3.jpg"",""time"":152},{""stimulus"":""img/red_ll/4.jpg"",""time"":202},{""stimulus"":""img/red_ll/5.jpg"",""time"":252},{""stimulus"":""img/red_ll/6.jpg"",""time"":311},{""stimulus"":""img/red_ll/7.jpg"",""time"":363},{""stimulus"":""img/red_ll/8.jpg"",""time"":422},{""stimulus"":""img/red_ll/9.jpg"",""time"":472},{""stimulus"":""img/red_ll/10.jpg"",""time"":532},{""stimulus"":""img/red_ll/11.jpg"",""time"":582}]","[]"
"","","","choice","63ea4301f63c1d26f0ff83e9","bdp_lott","Mon Mar 27 2023 07:37:16 GMT-0400 (Eastern Daylight Time)","340612","green","red","image-keyboard-response","161","164928","0.0-5.0-1.78","","306","","img/red_ll/choose11.jpg","1","147","green","0.5","0.1","0.5","l","",""
"","","","","63ea4301f63c1d26f0ff83e9","bdp_lott","Mon Mar 27 2023 07:37:16 GMT-0400 (Eastern Daylight Time)","340612","green","red","animation","162","165552","0.0-5.0-2.78","","","","","","147","","","","","","[{""stimulus"":""img/green_ll/1.jpg"",""time"":53},{""stimulus"":""img/green_ll/2.jpg"",""time"":103},{""stimulus"":""img/green_ll/3.jpg"",""time"":153},{""stimulus"":""img/green_ll/4.jpg"",""time"":203},{""stimulus"":""img/green_ll/5.jpg"",""time"":254},{""stimulus"":""img/green_ll/6.jpg"",""time"":312},{""stimulus"":""img/green_ll/7.jpg"",""time"":362},{""stimulus"":""img/green_ll/8.jpg"",""time"":414},{""stimulus"":""img/green_ll/9.jpg"",""time"":473},{""stimulus"":""img/green_ll/10.jpg"",""time"":523},{""stimulus"":""img/green_ll/11.jpg"",""time"":573}]","[]"
"","","","choice","63ea4301f63c1d26f0ff83e9","bdp_lott","Mon Mar 27 2023 07:37:16 GMT-0400 (Eastern Daylight Time)","340612","green","red","image-keyboard-response","163","165888","0.0-5.0-1.79","","336","","img/green_ll/choose11.jpg","1","146","green","0.5","0.1","0.5","w","",""
"","","","","63ea4301f63c1d26f0ff83e9","bdp_lott","Mon Mar 27 2023 07:37:16 GMT-0400 (Eastern Daylight Time)","340612","green","red","animation","164","166521","0.0-5.0-2.79","","","","","","146","","","","","","[{""stimulus"":""img/green_wl/1.jpg"",""time"":53},{""stimulus"":""img/green_wl/2.jpg"",""time"":103},{""stimulus"":""img/green_wl/3.jpg"",""time"":153},{""stimulus"":""img/green_wl/4.jpg"",""time"":203},{""stimulus"":""img/green_wl/5.jpg"",""time"":263},{""stimulus"":""img/green_wl/6.jpg"",""time"":313},{""stimulus"":""img/green_wl/7.jpg"",""time"":362},{""stimulus"":""img/green_wl/8.jpg"",""time"":413},{""stimulus"":""img/green_wl/9.jpg"",""time"":472},{""stimulus"":""img/green_wl/10.jpg"",""time"":523},{""stimulus"":""img/green_wl/11.jpg"",""time"":583}]","[]"
"","","","choice","63ea4301f63c1d26f0ff83e9","bdp_lott","Mon Mar 27 2023 07:37:16 GMT-0400 (Eastern Daylight Time)","340612","green","red","image-keyboard-response","165","166896","0.0-5.0-1.80","","374","","img/green_wl/choose11.jpg","2","145","red","0.5","0.1","0.1","l","",""
"","","","","63ea4301f63c1d26f0ff83e9","bdp_lott","Mon Mar 27 2023 07:37:16 GMT-0400 (Eastern Daylight Time)","340612","green","red","animation","166","167521","0.0-5.0-2.80","","","","","","145","","","","","","[{""stimulus"":""img/red_wl/1.jpg"",""time"":55},{""stimulus"":""img/red_wl/2.jpg"",""time"":105},{""stimulus"":""img/red_wl/3.jpg"",""time"":165},{""stimulus"":""img/red_wl/4.jpg"",""time"":214},{""stimulus"":""img/red_wl/5.jpg"",""time"":265},{""stimulus"":""img/red_wl/6.jpg"",""time"":315},{""stimulus"":""img/red_wl/7.jpg"",""time"":375},{""stimulus"":""img/red_wl/8.jpg"",""time"":424},{""stimulus"":""img/red_wl/9.jpg"",""time"":475},{""stimulus"":""img/red_wl/10.jpg"",""time"":525},{""stimulus"":""img/red_wl/11.jpg"",""time"":574}]","[]"
"","","","choice","63ea4301f63c1d26f0ff83e9","bdp_lott","Mon Mar 27 2023 07:37:16 GMT-0400 (Eastern Daylight Time)","340612","green","red","image-keyboard-response","167","167947","0.0-5.0-1.81","","425","","img/red_wl/choose11.jpg","2","144","red","0.5","0.1","0.1","l","",""
"","","","","63ea4301f63c1d26f0ff83e9","bdp_lott","Mon Mar 27 2023 07:37:16 GMT-0400 (Eastern Daylight Time)","340612","green","red","animation","168","168601","0.0-5.0-2.81","","","","","","144","","","","","","[{""stimulus"":""img/red_wl/1.jpg"",""time"":56},{""stimulus"":""img/red_wl/2.jpg"",""time"":105},{""stimulus"":""img/red_wl/3.jpg"",""time"":165},{""stimulus"":""img/red_wl/4.jpg"",""time"":216},{""stimulus"":""img/red_wl/5.jpg"",""time"":277},{""stimulus"":""img/red_wl/6.jpg"",""time"":334},{""stimulus"":""img/red_wl/7.jpg"",""time"":384},{""stimulus"":""img/red_wl/8.jpg"",""time"":436},{""stimulus"":""img/red_wl/9.jpg"",""time"":495},{""stimulus"":""img/red_wl/10.jpg"",""time"":546},{""stimulus"":""img/red_wl/11.jpg"",""time"":605}]","[]"
"","","","choice","63ea4301f63c1d26f0ff83e9","bdp_lott","Mon Mar 27 2023 07:37:16 GMT-0400 (Eastern Daylight Time)","340612","green","red","image-keyboard-response","169","168836","0.0-5.0-1.82","","233","","img/red_wl/choose11.jpg","2","143","red","0.5","0.1","0.1","l","",""
"","","","","63ea4301f63c1d26f0ff83e9","bdp_lott","Mon Mar 27 2023 07:37:16 GMT-0400 (Eastern Daylight Time)","340612","green","red","animation","170","169471","0.0-5.0-2.82","","","","","","143","","","","","","[{""stimulus"":""img/red_wl/1.jpg"",""time"":56},{""stimulus"":""img/red_wl/2.jpg"",""time"":105},{""stimulus"":""img/red_wl/3.jpg"",""time"":155},{""stimulus"":""img/red_wl/4.jpg"",""time"":206},{""stimulus"":""img/red_wl/5.jpg"",""time"":256},{""stimulus"":""img/red_wl/6.jpg"",""time"":306},{""stimulus"":""img/red_wl/7.jpg"",""time"":366},{""stimulus"":""img/red_wl/8.jpg"",""time"":416},{""stimulus"":""img/red_wl/9.jpg"",""time"":475},{""stimulus"":""img/red_wl/10.jpg"",""time"":527},{""stimulus"":""img/red_wl/11.jpg"",""time"":585}]","[]"
"","","","choice","63ea4301f63c1d26f0ff83e9","bdp_lott","Mon Mar 27 2023 07:37:16 GMT-0400 (Eastern Daylight Time)","340612","green","red","image-keyboard-response","171","169855","0.0-5.0-1.83","","383","","img/red_wl/choose11.jpg","2","142","red","0.5","0.1","0.1","l","",""
"","","","","63ea4301f63c1d26f0ff83e9","bdp_lott","Mon Mar 27 2023 07:37:16 GMT-0400 (Eastern Daylight Time)","340612","green","red","animation","172","170511","0.0-5.0-2.83","","","","","","142","","","","","","[{""stimulus"":""img/red_wl/1.jpg"",""time"":57},{""stimulus"":""img/red_wl/2.jpg"",""time"":116},{""stimulus"":""img/red_wl/3.jpg"",""time"":167},{""stimulus"":""img/red_wl/4.jpg"",""time"":225},{""stimulus"":""img/red_wl/5.jpg"",""time"":276},{""stimulus"":""img/red_wl/6.jpg"",""time"":336},{""stimulus"":""img/red_wl/7.jpg"",""time"":386},{""stimulus"":""img/red_wl/8.jpg"",""time"":435},{""stimulus"":""img/red_wl/9.jpg"",""time"":486},{""stimulus"":""img/red_wl/10.jpg"",""time"":546},{""stimulus"":""img/red_wl/11.jpg"",""time"":596}]","[]"
"","","","choice","63ea4301f63c1d26f0ff83e9","bdp_lott","Mon Mar 27 2023 07:37:16 GMT-0400 (Eastern Daylight Time)","340612","green","red","image-keyboard-response","173","171496","0.0-5.0-1.84","","982","","img/red_wl/choose11.jpg","1","141","green","0.5","0.1","0.5","w","",""
"","","","","63ea4301f63c1d26f0ff83e9","bdp_lott","Mon Mar 27 2023 07:37:16 GMT-0400 (Eastern Daylight Time)","340612","green","red","animation","174","172151","0.0-5.0-2.84","","","","","","141","","","","","","[{""stimulus"":""img/green_wl/1.jpg"",""time"":56},{""stimulus"":""img/green_wl/2.jpg"",""time"":116},{""stimulus"":""img/green_wl/3.jpg"",""time"":165},{""stimulus"":""img/green_wl/4.jpg"",""time"":216},{""stimulus"":""img/green_wl/5.jpg"",""time"":266},{""stimulus"":""img/green_wl/6.jpg"",""time"":326},{""stimulus"":""img/green_wl/7.jpg"",""time"":376},{""stimulus"":""img/green_wl/8.jpg"",""time"":436},{""stimulus"":""img/green_wl/9.jpg"",""time"":486},{""stimulus"":""img/green_wl/10.jpg"",""time"":545},{""stimulus"":""img/green_wl/11.jpg"",""time"":596}]","[]"
"","","","choice","63ea4301f63c1d26f0ff83e9","bdp_lott","Mon Mar 27 2023 07:37:16 GMT-0400 (Eastern Daylight Time)","340612","green","red","image-keyboard-response","175","172731","0.0-5.0-1.85","","577","","img/green_wl/choose11.jpg","1","140","green","0.5","0.1","0.5","w","",""
"","","","","63ea4301f63c1d26f0ff83e9","bdp_lott","Mon Mar 27 2023 07:37:16 GMT-0400 (Eastern Daylight Time)","340612","green","red","animation","176","173352","0.0-5.0-2.85","","","","","","140","","","","","","[{""stimulus"":""img/green_wl/1.jpg"",""time"":61},{""stimulus"":""img/green_wl/2.jpg"",""time"":111},{""stimulus"":""img/green_wl/3.jpg"",""time"":161},{""stimulus"":""img/green_wl/4.jpg"",""time"":210},{""stimulus"":""img/green_wl/5.jpg"",""time"":261},{""stimulus"":""img/green_wl/6.jpg"",""time"":311},{""stimulus"":""img/green_wl/7.jpg"",""time"":360},{""stimulus"":""img/green_wl/8.jpg"",""time"":411},{""stimulus"":""img/green_wl/9.jpg"",""time"":460},{""stimulus"":""img/green_wl/10.jpg"",""time"":511},{""stimulus"":""img/green_wl/11.jpg"",""time"":562}]","[]"
"","","","choice","63ea4301f63c1d26f0ff83e9","bdp_lott","Mon Mar 27 2023 07:37:16 GMT-0400 (Eastern Daylight Time)","340612","green","red","image-keyboard-response","177","173887","0.0-5.0-1.86","","533","","img/green_wl/choose11.jpg","1","139","green","0.5","0.1","0.5","l","",""
"","","","","63ea4301f63c1d26f0ff83e9","bdp_lott","Mon Mar 27 2023 07:37:16 GMT-0400 (Eastern Daylight Time)","340612","green","red","animation","178","174512","0.0-5.0-2.86","","","","","","139","","","","","","[{""stimulus"":""img/green_ll/1.jpg"",""time"":56},{""stimulus"":""img/green_ll/2.jpg"",""time"":106},{""stimulus"":""img/green_ll/3.jpg"",""time"":156},{""stimulus"":""img/green_ll/4.jpg"",""time"":216},{""stimulus"":""img/green_ll/5.jpg"",""time"":265},{""stimulus"":""img/green_ll/6.jpg"",""time"":316},{""stimulus"":""img/green_ll/7.jpg"",""time"":366},{""stimulus"":""img/green_ll/8.jpg"",""time"":416},{""stimulus"":""img/green_ll/9.jpg"",""time"":465},{""stimulus"":""img/green_ll/10.jpg"",""time"":526},{""stimulus"":""img/green_ll/11.jpg"",""time"":576}]","[]"
"","","","choice","63ea4301f63c1d26f0ff83e9","bdp_lott","Mon Mar 27 2023 07:37:16 GMT-0400 (Eastern Daylight Time)","340612","green","red","image-keyboard-response","179","175048","0.0-5.0-1.87","","535","","img/green_ll/choose11.jpg","2","138","red","0.5","0.1","0.1","l","",""
"","","","","63ea4301f63c1d26f0ff83e9","bdp_lott","Mon Mar 27 2023 07:37:16 GMT-0400 (Eastern Daylight Time)","340612","green","red","animation","180","175692","0.0-5.0-2.87","","","","","","138","","","","","","[{""stimulus"":""img/red_ll/1.jpg"",""time"":54},{""stimulus"":""img/red_ll/2.jpg"",""time"":104},{""stimulus"":""img/red_ll/3.jpg"",""time"":164},{""stimulus"":""img/red_ll/4.jpg"",""time"":214},{""stimulus"":""img/red_ll/5.jpg"",""time"":275},{""stimulus"":""img/red_ll/6.jpg"",""time"":333},{""stimulus"":""img/red_ll/7.jpg"",""time"":384},{""stimulus"":""img/red_ll/8.jpg"",""time"":434},{""stimulus"":""img/red_ll/9.jpg"",""time"":484},{""stimulus"":""img/red_ll/10.jpg"",""time"":535},{""stimulus"":""img/red_ll/11.jpg"",""time"":594}]","[]"
"","","","choice","63ea4301f63c1d26f0ff83e9","bdp_lott","Mon Mar 27 2023 07:37:16 GMT-0400 (Eastern Daylight Time)","340612","green","red","image-keyboard-response","181","176198","0.0-5.0-1.88","","505","","img/red_ll/choose11.jpg","2","137","red","0.5","0.1","0.1","l","",""
"","","","","63ea4301f63c1d26f0ff83e9","bdp_lott","Mon Mar 27 2023 07:37:16 GMT-0400 (Eastern Daylight Time)","340612","green","red","animation","182","176852","0.0-5.0-2.88","","","","","","137","","","","","","[{""stimulus"":""img/red_ll/1.jpg"",""time"":54},{""stimulus"":""img/red_ll/2.jpg"",""time"":114},{""stimulus"":""img/red_ll/3.jpg"",""time"":164},{""stimulus"":""img/red_ll/4.jpg"",""time"":213},{""stimulus"":""img/red_ll/5.jpg"",""time"":264},{""stimulus"":""img/red_ll/6.jpg"",""time"":323},{""stimulus"":""img/red_ll/7.jpg"",""time"":375},{""stimulus"":""img/red_ll/8.jpg"",""time"":434},{""stimulus"":""img/red_ll/9.jpg"",""time"":484},{""stimulus"":""img/red_ll/10.jpg"",""time"":540},{""stimulus"":""img/red_ll/11.jpg"",""time"":593}]","[]"
"","","","choice","63ea4301f63c1d26f0ff83e9","bdp_lott","Mon Mar 27 2023 07:37:16 GMT-0400 (Eastern Daylight Time)","340612","green","red","image-keyboard-response","183","177390","0.0-5.0-1.89","","536","","img/red_ll/choose11.jpg","1","136","green","0.5","0.1","0.5","w","",""
"","","","","63ea4301f63c1d26f0ff83e9","bdp_lott","Mon Mar 27 2023 07:37:16 GMT-0400 (Eastern Daylight Time)","340612","green","red","animation","184","178053","0.0-5.0-2.89","","","","","","136","","","","","","[{""stimulus"":""img/green_wl/1.jpg"",""time"":52},{""stimulus"":""img/green_wl/2.jpg"",""time"":112},{""stimulus"":""img/green_wl/3.jpg"",""time"":162},{""stimulus"":""img/green_wl/4.jpg"",""time"":221},{""stimulus"":""img/green_wl/5.jpg"",""time"":272},{""stimulus"":""img/green_wl/6.jpg"",""time"":332},{""stimulus"":""img/green_wl/7.jpg"",""time"":382},{""stimulus"":""img/green_wl/8.jpg"",""time"":442},{""stimulus"":""img/green_wl/9.jpg"",""time"":492},{""stimulus"":""img/green_wl/10.jpg"",""time"":552},{""stimulus"":""img/green_wl/11.jpg"",""time"":603}]","[]"
"","","","choice","63ea4301f63c1d26f0ff83e9","bdp_lott","Mon Mar 27 2023 07:37:16 GMT-0400 (Eastern Daylight Time)","340612","green","red","image-keyboard-response","185","178834","0.0-5.0-1.90","","781","","img/green_wl/choose11.jpg","1","135","green","0.5","0.1","0.5","w","",""
"","","","","63ea4301f63c1d26f0ff83e9","bdp_lott","Mon Mar 27 2023 07:37:16 GMT-0400 (Eastern Daylight Time)","340612","green","red","animation","186","179463","0.0-5.0-2.90","","","","","","135","","","","","","[{""stimulus"":""img/green_wl/1.jpg"",""time"":59},{""stimulus"":""img/green_wl/2.jpg"",""time"":108},{""stimulus"":""img/green_wl/3.jpg"",""time"":158},{""stimulus"":""img/green_wl/4.jpg"",""time"":208},{""stimulus"":""img/green_wl/5.jpg"",""time"":259},{""stimulus"":""img/green_wl/6.jpg"",""time"":309},{""stimulus"":""img/green_wl/7.jpg"",""time"":359},{""stimulus"":""img/green_wl/8.jpg"",""time"":418},{""stimulus"":""img/green_wl/9.jpg"",""time"":469},{""stimulus"":""img/green_wl/10.jpg"",""time"":529},{""stimulus"":""img/green_wl/11.jpg"",""time"":579}]","[]"
"","","","choice","63ea4301f63c1d26f0ff83e9","bdp_lott","Mon Mar 27 2023 07:37:16 GMT-0400 (Eastern Daylight Time)","340612","green","red","image-keyboard-response","187","180151","0.0-5.0-1.91","","686","","img/green_wl/choose11.jpg","1","134","green","0.5","0.1","0.5","l","",""
"","","","","63ea4301f63c1d26f0ff83e9","bdp_lott","Mon Mar 27 2023 07:37:16 GMT-0400 (Eastern Daylight Time)","340612","green","red","animation","188","180783","0.0-5.0-2.91","","","","","","134","","","","","","[{""stimulus"":""img/green_ll/1.jpg"",""time"":52},{""stimulus"":""img/green_ll/2.jpg"",""time"":103},{""stimulus"":""img/green_ll/3.jpg"",""time"":153},{""stimulus"":""img/green_ll/4.jpg"",""time"":203},{""stimulus"":""img/green_ll/5.jpg"",""time"":252},{""stimulus"":""img/green_ll/6.jpg"",""time"":302},{""stimulus"":""img/green_ll/7.jpg"",""time"":353},{""stimulus"":""img/green_ll/8.jpg"",""time"":412},{""stimulus"":""img/green_ll/9.jpg"",""time"":463},{""stimulus"":""img/green_ll/10.jpg"",""time"":523},{""stimulus"":""img/green_ll/11.jpg"",""time"":573}]","[]"
"","","","choice","63ea4301f63c1d26f0ff83e9","bdp_lott","Mon Mar 27 2023 07:37:16 GMT-0400 (Eastern Daylight Time)","340612","green","red","image-keyboard-response","189","181505","0.0-5.0-1.92","","721","","img/green_ll/choose11.jpg","1","133","green","0.5","0.1","0.5","l","",""
"","","","","63ea4301f63c1d26f0ff83e9","bdp_lott","Mon Mar 27 2023 07:37:16 GMT-0400 (Eastern Daylight Time)","340612","green","red","animation","190","182143","0.0-5.0-2.92","","","","","","133","","","","","","[{""stimulus"":""img/green_ll/1.jpg"",""time"":58},{""stimulus"":""img/green_ll/2.jpg"",""time"":109},{""stimulus"":""img/green_ll/3.jpg"",""time"":159},{""stimulus"":""img/green_ll/4.jpg"",""time"":209},{""stimulus"":""img/green_ll/5.jpg"",""time"":269},{""stimulus"":""img/green_ll/6.jpg"",""time"":318},{""stimulus"":""img/green_ll/7.jpg"",""time"":369},{""stimulus"":""img/green_ll/8.jpg"",""time"":419},{""stimulus"":""img/green_ll/9.jpg"",""time"":469},{""stimulus"":""img/green_ll/10.jpg"",""time"":529},{""stimulus"":""img/green_ll/11.jpg"",""time"":588}]","[]"
"","","","choice","63ea4301f63c1d26f0ff83e9","bdp_lott","Mon Mar 27 2023 07:37:16 GMT-0400 (Eastern Daylight Time)","340612","green","red","image-keyboard-response","191","182535","0.0-5.0-1.93","","390","","img/green_ll/choose11.jpg","2","132","red","0.5","0.1","0.1","l","",""
