"trial_type","trial_index","time_elapsed","internal_node_id","subject_id","task","startTime","totalTime","fairMachine","unfairMachine","view_history","rt","event","trial","time","trialtype","success","stimulus","key_press","roundsLeft","chosen","pFairMachWin","pUnfairMachWin","pTrialWin","outcome","animation_sequence","responses"
"pavlovia","0","3","0.0-0.0","63d881ab484805569b553bd8","bdp_lott","Fri Mar 24 2023 16:50:23 GMT-0700 (Mountain Standard Time)","263121","green","red","","","","","","","","","","","","","","","","",""
"instructions","1","4113","0.0-1.0","63d881ab484805569b553bd8","bdp_lott","Fri Mar 24 2023 16:50:23 GMT-0700 (Mountain Standard Time)","263121","green","red","[{""page_index"":0,""viewing_time"":4110}]","4110","","","","","","","","","","","","","","",""
"","","","","63d881ab484805569b553bd8","bdp_lott","Fri Mar 24 2023 16:50:23 GMT-0700 (Mountain Standard Time)","263121","green","red","","","fullscreenenter","2","7461","fullscreenenter","","","","","","","","","","",""
"fullscreen","2","8445","0.0-2.0","63d881ab484805569b553bd8","bdp_lott","Fri Mar 24 2023 16:50:23 GMT-0700 (Mountain Standard Time)","263121","green","red","","","","","","","true","","","","","","","","","",""
"instructions","3","37450","0.0-4.0","63d881ab484805569b553bd8","bdp_lott","Fri Mar 24 2023 16:50:23 GMT-0700 (Mountain Standard Time)","263121","green","red","[{""page_index"":0,""viewing_time"":29004}]","29004","","","","","","","","","","","","","","",""
"image-keyboard-response","4","41554","0.0-5.0-1.0","63d881ab484805569b553bd8","bdp_lott","Fri Mar 24 2023 16:50:23 GMT-0700 (Mountain Standard Time)","263121","green","red","","4102","","","","choice","","img/red_ll/initchoose11.jpg","2","225","red","0.5","0.5","0.5","l","",""
"animation","5","42166","0.0-5.0-2.0","63d881ab484805569b553bd8","bdp_lott","Fri Mar 24 2023 16:50:23 GMT-0700 (Mountain Standard Time)","263121","green","red","","","","","","","","","","225","","","","","","[{""stimulus"":""img/red_ll/1.jpg"",""time"":52},{""stimulus"":""img/red_ll/2.jpg"",""time"":101},{""stimulus"":""img/red_ll/3.jpg"",""time"":165},{""stimulus"":""img/red_ll/4.jpg"",""time"":213},{""stimulus"":""img/red_ll/5.jpg"",""time"":261},{""stimulus"":""img/red_ll/6.jpg"",""time"":309},{""stimulus"":""img/red_ll/7.jpg"",""time"":357},{""stimulus"":""img/red_ll/8.jpg"",""time"":405},{""stimulus"":""img/red_ll/9.jpg"",""time"":453},{""stimulus"":""img/red_ll/10.jpg"",""time"":501},{""stimulus"":""img/red_ll/11.jpg"",""time"":564}]","[]"
"image-keyboard-response","6","45023","0.0-5.0-1.1","63d881ab484805569b553bd8","bdp_lott","Fri Mar 24 2023 16:50:23 GMT-0700 (Mountain Standard Time)","263121","green","red","","2856","","","","choice","","img/red_ll/choose11.jpg","2","224","red","0.5","0.5","0.5","w","",""
"animation","7","45631","0.0-5.0-2.1","63d881ab484805569b553bd8","bdp_lott","Fri Mar 24 2023 16:50:23 GMT-0700 (Mountain Standard Time)","263121","green","red","","","","","","","","","","224","","","","","","[{""stimulus"":""img/red_lw/1.jpg"",""time"":65},{""stimulus"":""img/red_lw/2.jpg"",""time"":101},{""stimulus"":""img/red_lw/3.jpg"",""time"":160},{""stimulus"":""img/red_lw/4.jpg"",""time"":201},{""stimulus"":""img/red_lw/5.jpg"",""time"":251},{""stimulus"":""img/red_lw/6.jpg"",""time"":304},{""stimulus"":""img/red_lw/7.jpg"",""time"":352},{""stimulus"":""img/red_lw/8.jpg"",""time"":416},{""stimulus"":""img/red_lw/9.jpg"",""time"":464},{""stimulus"":""img/red_lw/10.jpg"",""time"":512},{""stimulus"":""img/red_lw/11.jpg"",""time"":560}]","[]"
"image-keyboard-response","8","49605","0.0-5.0-1.2","63d881ab484805569b553bd8","bdp_lott","Fri Mar 24 2023 16:50:23 GMT-0700 (Mountain Standard Time)","263121","green","red","","3974","","","","choice","","img/red_lw/choose11.jpg","2","223","red","0.5","0.5","0.5","w","",""
"animation","9","50210","0.0-5.0-2.2","63d881ab484805569b553bd8","bdp_lott","Fri Mar 24 2023 16:50:23 GMT-0700 (Mountain Standard Time)","263121","green","red","","","","","","","","","","223","","","","","","[{""stimulus"":""img/red_lw/1.jpg"",""time"":51},{""stimulus"":""img/red_lw/2.jpg"",""time"":101},{""stimulus"":""img/red_lw/3.jpg"",""time"":159},{""stimulus"":""img/red_lw/4.jpg"",""time"":206},{""stimulus"":""img/red_lw/5.jpg"",""time"":254},{""stimulus"":""img/red_lw/6.jpg"",""time"":301},{""stimulus"":""img/red_lw/7.jpg"",""time"":365},{""stimulus"":""img/red_lw/8.jpg"",""time"":413},{""stimulus"":""img/red_lw/9.jpg"",""time"":461},{""stimulus"":""img/red_lw/10.jpg"",""time"":509},{""stimulus"":""img/red_lw/11.jpg"",""time"":557}]","[]"
"image-keyboard-response","10","51176","0.0-5.0-1.3","63d881ab484805569b553bd8","bdp_lott","Fri Mar 24 2023 16:50:23 GMT-0700 (Mountain Standard Time)","263121","green","red","","965","","","","choice","","img/red_lw/choose11.jpg","2","222","red","0.5","0.5","0.5","l","",""
"animation","11","51786","0.0-5.0-2.3","63d881ab484805569b553bd8","bdp_lott","Fri Mar 24 2023 16:50:23 GMT-0700 (Mountain Standard Time)","263121","green","red","","","","","","","","","","222","","","","","","[{""stimulus"":""img/red_ll/1.jpg"",""time"":50},{""stimulus"":""img/red_ll/2.jpg"",""time"":100},{""stimulus"":""img/red_ll/3.jpg"",""time"":164},{""stimulus"":""img/red_ll/4.jpg"",""time"":211},{""stimulus"":""img/red_ll/5.jpg"",""time"":259},{""stimulus"":""img/red_ll/6.jpg"",""time"":307},{""stimulus"":""img/red_ll/7.jpg"",""time"":355},{""stimulus"":""img/red_ll/8.jpg"",""time"":403},{""stimulus"":""img/red_ll/9.jpg"",""time"":451},{""stimulus"":""img/red_ll/10.jpg"",""time"":514},{""stimulus"":""img/red_ll/11.jpg"",""time"":551}]","[]"
"image-keyboard-response","12","53036","0.0-5.0-1.4","63d881ab484805569b553bd8","bdp_lott","Fri Mar 24 2023 16:50:23 GMT-0700 (Mountain Standard Time)","263121","green","red","","1250","","","","choice","","img/red_ll/choose11.jpg","1","221","green","0.5","0.5","0.5","l","",""
"animation","13","53636","0.0-5.0-2.4","63d881ab484805569b553bd8","bdp_lott","Fri Mar 24 2023 16:50:23 GMT-0700 (Mountain Standard Time)","263121","green","red","","","","","","","","","","221","","","","","","[{""stimulus"":""img/green_ll/1.jpg"",""time"":50},{""stimulus"":""img/green_ll/2.jpg"",""time"":100},{""stimulus"":""img/green_ll/3.jpg"",""time"":153},{""stimulus"":""img/green_ll/4.jpg"",""time"":202},{""stimulus"":""img/green_ll/5.jpg"",""time"":266},{""stimulus"":""img/green_ll/6.jpg"",""time"":314},{""stimulus"":""img/green_ll/7.jpg"",""time"":361},{""stimulus"":""img/green_ll/8.jpg"",""time"":402},{""stimulus"":""img/green_ll/9.jpg"",""time"":458},{""stimulus"":""img/green_ll/10.jpg"",""time"":506},{""stimulus"":""img/green_ll/11.jpg"",""time"":551}]","[]"
"image-keyboard-response","14","54120","0.0-5.0-1.5","63d881ab484805569b553bd8","bdp_lott","Fri Mar 24 2023 16:50:23 GMT-0700 (Mountain Standard Time)","263121","green","red","","483","","","","choice","","img/green_ll/choose11.jpg","2","220","red","0.5","0.5","0.5","l","",""
"animation","15","54737","0.0-5.0-2.5","63d881ab484805569b553bd8","bdp_lott","Fri Mar 24 2023 16:50:23 GMT-0700 (Mountain Standard Time)","263121","green","red","","","","","","","","","","220","","","","","","[{""stimulus"":""img/red_ll/1.jpg"",""time"":59},{""stimulus"":""img/red_ll/2.jpg"",""time"":101},{""stimulus"":""img/red_ll/3.jpg"",""time"":155},{""stimulus"":""img/red_ll/4.jpg"",""time"":202},{""stimulus"":""img/red_ll/5.jpg"",""time"":266},{""stimulus"":""img/red_ll/6.jpg"",""time"":314},{""stimulus"":""img/red_ll/7.jpg"",""time"":362},{""stimulus"":""img/red_ll/8.jpg"",""time"":410},{""stimulus"":""img/red_ll/9.jpg"",""time"":457},{""stimulus"":""img/red_ll/10.jpg"",""time"":505},{""stimulus"":""img/red_ll/11.jpg"",""time"":551}]","[]"
"image-keyboard-response","16","55065","0.0-5.0-1.6","63d881ab484805569b553bd8","bdp_lott","Fri Mar 24 2023 16:50:23 GMT-0700 (Mountain Standard Time)","263121","green","red","","328","","","","choice","","img/red_ll/choose11.jpg","2","219","red","0.5","0.5","0.5","l","",""
"animation","17","55677","0.0-5.0-2.6","63d881ab484805569b553bd8","bdp_lott","Fri Mar 24 2023 16:50:23 GMT-0700 (Mountain Standard Time)","263121","green","red","","","","","","","","","","219","","","","","","[{""stimulus"":""img/red_ll/1.jpg"",""time"":51},{""stimulus"":""img/red_ll/2.jpg"",""time"":101},{""stimulus"":""img/red_ll/3.jpg"",""time"":164},{""stimulus"":""img/red_ll/4.jpg"",""time"":212},{""stimulus"":""img/red_ll/5.jpg"",""time"":260},{""stimulus"":""img/red_ll/6.jpg"",""time"":308},{""stimulus"":""img/red_ll/7.jpg"",""time"":356},{""stimulus"":""img/red_ll/8.jpg"",""time"":404},{""stimulus"":""img/red_ll/9.jpg"",""time"":452},{""stimulus"":""img/red_ll/10.jpg"",""time"":516},{""stimulus"":""img/red_ll/11.jpg"",""time"":564}]","[]"
"image-keyboard-response","18","55973","0.0-5.0-1.7","63d881ab484805569b553bd8","bdp_lott","Fri Mar 24 2023 16:50:23 GMT-0700 (Mountain Standard Time)","263121","green","red","","295","","","","choice","","img/red_ll/choose11.jpg","2","218","red","0.5","0.5","0.5","l","",""
"animation","19","56584","0.0-5.0-2.7","63d881ab484805569b553bd8","bdp_lott","Fri Mar 24 2023 16:50:23 GMT-0700 (Mountain Standard Time)","263121","green","red","","","","","","","","","","218","","","","","","[{""stimulus"":""img/red_ll/1.jpg"",""time"":54},{""stimulus"":""img/red_ll/2.jpg"",""time"":101},{""stimulus"":""img/red_ll/3.jpg"",""time"":165},{""stimulus"":""img/red_ll/4.jpg"",""time"":212},{""stimulus"":""img/red_ll/5.jpg"",""time"":260},{""stimulus"":""img/red_ll/6.jpg"",""time"":307},{""stimulus"":""img/red_ll/7.jpg"",""time"":354},{""stimulus"":""img/red_ll/8.jpg"",""time"":402},{""stimulus"":""img/red_ll/9.jpg"",""time"":466},{""stimulus"":""img/red_ll/10.jpg"",""time"":514},{""stimulus"":""img/red_ll/11.jpg"",""time"":562}]","[]"
"image-keyboard-response","20","56786","0.0-5.0-1.8","63d881ab484805569b553bd8","bdp_lott","Fri Mar 24 2023 16:50:23 GMT-0700 (Mountain Standard Time)","263121","green","red","","202","","","","choice","","img/red_ll/choose11.jpg","2","217","red","0.5","0.5","0.5","l","",""
"animation","21","57396","0.0-5.0-2.8","63d881ab484805569b553bd8","bdp_lott","Fri Mar 24 2023 16:50:23 GMT-0700 (Mountain Standard Time)","263121","green","red","","","","","","","","","","217","","","","","","[{""stimulus"":""img/red_ll/1.jpg"",""time"":53},{""stimulus"":""img/red_ll/2.jpg"",""time"":101},{""stimulus"":""img/red_ll/3.jpg"",""time"":165},{""stimulus"":""img/red_ll/4.jpg"",""time"":212},{""stimulus"":""img/red_ll/5.jpg"",""time"":259},{""stimulus"":""img/red_ll/6.jpg"",""time"":307},{""stimulus"":""img/red_ll/7.jpg"",""time"":355},{""stimulus"":""img/red_ll/8.jpg"",""time"":401},{""stimulus"":""img/red_ll/9.jpg"",""time"":465},{""stimulus"":""img/red_ll/10.jpg"",""time"":513},{""stimulus"":""img/red_ll/11.jpg"",""time"":551}]","[]"
"image-keyboard-response","22","57692","0.0-5.0-1.9","63d881ab484805569b553bd8","bdp_lott","Fri Mar 24 2023 16:50:23 GMT-0700 (Mountain Standard Time)","263121","green","red","","296","","","","choice","","img/red_ll/choose11.jpg","2","216","red","0.5","0.5","0.5","w","",""
"animation","23","58305","0.0-5.0-2.9","63d881ab484805569b553bd8","bdp_lott","Fri Mar 24 2023 16:50:23 GMT-0700 (Mountain Standard Time)","263121","green","red","","","","","","","","","","216","","","","","","[{""stimulus"":""img/red_lw/1.jpg"",""time"":53},{""stimulus"":""img/red_lw/2.jpg"",""time"":101},{""stimulus"":""img/red_lw/3.jpg"",""time"":165},{""stimulus"":""img/red_lw/4.jpg"",""time"":213},{""stimulus"":""img/red_lw/5.jpg"",""time"":250},{""stimulus"":""img/red_lw/6.jpg"",""time"":310},{""stimulus"":""img/red_lw/7.jpg"",""time"":350},{""stimulus"":""img/red_lw/8.jpg"",""time"":404},{""stimulus"":""img/red_lw/9.jpg"",""time"":450},{""stimulus"":""img/red_lw/10.jpg"",""time"":500},{""stimulus"":""img/red_lw/11.jpg"",""time"":564}]","[]"
"image-keyboard-response","24","59458","0.0-5.0-1.10","63d881ab484805569b553bd8","bdp_lott","Fri Mar 24 2023 16:50:23 GMT-0700 (Mountain Standard Time)","263121","green","red","","1153","","","","choice","","img/red_lw/choose11.jpg","1","215","green","0.5","0.5","0.5","l","",""
"animation","25","60072","0.0-5.0-2.10","63d881ab484805569b553bd8","bdp_lott","Fri Mar 24 2023 16:50:23 GMT-0700 (Mountain Standard Time)","263121","green","red","","","","","","","","","","215","","","","","","[{""stimulus"":""img/green_lw/1.jpg"",""time"":56},{""stimulus"":""img/green_lw/2.jpg"",""time"":104},{""stimulus"":""img/green_lw/3.jpg"",""time"":152},{""stimulus"":""img/green_lw/4.jpg"",""time"":215},{""stimulus"":""img/green_lw/5.jpg"",""time"":250},{""stimulus"":""img/green_lw/6.jpg"",""time"":311},{""stimulus"":""img/green_lw/7.jpg"",""time"":359},{""stimulus"":""img/green_lw/8.jpg"",""time"":407},{""stimulus"":""img/green_lw/9.jpg"",""time"":455},{""stimulus"":""img/green_lw/10.jpg"",""time"":503},{""stimulus"":""img/green_lw/11.jpg"",""time"":551}]","[]"
"image-keyboard-response","26","60176","0.0-5.0-1.11","63d881ab484805569b553bd8","bdp_lott","Fri Mar 24 2023 16:50:23 GMT-0700 (Mountain Standard Time)","263121","green","red","","103","","","","choice","","img/green_lw/choose11.jpg","1","214","green","0.5","0.5","0.5","l","",""
"animation","27","60789","0.0-5.0-2.11","63d881ab484805569b553bd8","bdp_lott","Fri Mar 24 2023 16:50:23 GMT-0700 (Mountain Standard Time)","263121","green","red","","","","","","","","","","214","","","","","","[{""stimulus"":""img/green_lw/1.jpg"",""time"":56},{""stimulus"":""img/green_lw/2.jpg"",""time"":101},{""stimulus"":""img/green_lw/3.jpg"",""time"":152},{""stimulus"":""img/green_lw/4.jpg"",""time"":215},{""stimulus"":""img/green_lw/5.jpg"",""time"":263},{""stimulus"":""img/green_lw/6.jpg"",""time"":301},{""stimulus"":""img/green_lw/7.jpg"",""time"":359},{""stimulus"":""img/green_lw/8.jpg"",""time"":407},{""stimulus"":""img/green_lw/9.jpg"",""time"":452},{""stimulus"":""img/green_lw/10.jpg"",""time"":503},{""stimulus"":""img/green_lw/11.jpg"",""time"":566}]","[]"
"image-keyboard-response","28","61001","0.0-5.0-1.12","63d881ab484805569b553bd8","bdp_lott","Fri Mar 24 2023 16:50:23 GMT-0700 (Mountain Standard Time)","263121","green","red","","211","","","","choice","","img/green_lw/choose11.jpg","1","213","green","0.5","0.5","0.5","l","",""
"animation","29","61617","0.0-5.0-2.12","63d881ab484805569b553bd8","bdp_lott","Fri Mar 24 2023 16:50:23 GMT-0700 (Mountain Standard Time)","263121","green","red","","","","","","","","","","213","","","","","","[{""stimulus"":""img/green_lw/1.jpg"",""time"":51},{""stimulus"":""img/green_lw/2.jpg"",""time"":107},{""stimulus"":""img/green_lw/3.jpg"",""time"":155},{""stimulus"":""img/green_lw/4.jpg"",""time"":202},{""stimulus"":""img/green_lw/5.jpg"",""time"":265},{""stimulus"":""img/green_lw/6.jpg"",""time"":312},{""stimulus"":""img/green_lw/7.jpg"",""time"":360},{""stimulus"":""img/green_lw/8.jpg"",""time"":407},{""stimulus"":""img/green_lw/9.jpg"",""time"":455},{""stimulus"":""img/green_lw/10.jpg"",""time"":503},{""stimulus"":""img/green_lw/11.jpg"",""time"":551}]","[]"
"image-keyboard-response","30","62153","0.0-5.0-1.13","63d881ab484805569b553bd8","bdp_lott","Fri Mar 24 2023 16:50:23 GMT-0700 (Mountain Standard Time)","263121","green","red","","536","","","","choice","","img/green_lw/choose11.jpg","2","212","red","0.5","0.5","0.5","w","",""
"animation","31","62763","0.0-5.0-2.13","63d881ab484805569b553bd8","bdp_lott","Fri Mar 24 2023 16:50:23 GMT-0700 (Mountain Standard Time)","263121","green","red","","","","","","","","","","212","","","","","","[{""stimulus"":""img/red_lw/1.jpg"",""time"":51},{""stimulus"":""img/red_lw/2.jpg"",""time"":100},{""stimulus"":""img/red_lw/3.jpg"",""time"":151},{""stimulus"":""img/red_lw/4.jpg"",""time"":211},{""stimulus"":""img/red_lw/5.jpg"",""time"":259},{""stimulus"":""img/red_lw/6.jpg"",""time"":307},{""stimulus"":""img/red_lw/7.jpg"",""time"":355},{""stimulus"":""img/red_lw/8.jpg"",""time"":403},{""stimulus"":""img/red_lw/9.jpg"",""time"":451},{""stimulus"":""img/red_lw/10.jpg"",""time"":514},{""stimulus"":""img/red_lw/11.jpg"",""time"":561}]","[]"
"image-keyboard-response","32","62937","0.0-5.0-1.14","63d881ab484805569b553bd8","bdp_lott","Fri Mar 24 2023 16:50:23 GMT-0700 (Mountain Standard Time)","263121","green","red","","174","","","","choice","","img/red_lw/choose11.jpg","2","211","red","0.5","0.5","0.5","w","",""
"animation","33","63539","0.0-5.0-2.14","63d881ab484805569b553bd8","bdp_lott","Fri Mar 24 2023 16:50:23 GMT-0700 (Mountain Standard Time)","263121","green","red","","","","","","","","","","211","","","","","","[{""stimulus"":""img/red_lw/1.jpg"",""time"":50},{""stimulus"":""img/red_lw/2.jpg"",""time"":101},{""stimulus"":""img/red_lw/3.jpg"",""time"":159},{""stimulus"":""img/red_lw/4.jpg"",""time"":200},{""stimulus"":""img/red_lw/5.jpg"",""time"":255},{""stimulus"":""img/red_lw/6.jpg"",""time"":302},{""stimulus"":""img/red_lw/7.jpg"",""time"":350},{""stimulus"":""img/red_lw/8.jpg"",""time"":414},{""stimulus"":""img/red_lw/9.jpg"",""time"":461},{""stimulus"":""img/red_lw/10.jpg"",""time"":509},{""stimulus"":""img/red_lw/11.jpg"",""time"":557}]","[]"
"image-keyboard-response","34","63836","0.0-5.0-1.15","63d881ab484805569b553bd8","bdp_lott","Fri Mar 24 2023 16:50:23 GMT-0700 (Mountain Standard Time)","263121","green","red","","297","","","","choice","","img/red_lw/choose11.jpg","2","210","red","0.5","0.5","0.5","w","",""
"animation","35","64437","0.0-5.0-2.15","63d881ab484805569b553bd8","bdp_lott","Fri Mar 24 2023 16:50:23 GMT-0700 (Mountain Standard Time)","263121","green","red","","","","","","","","","","210","","","","","","[{""stimulus"":""img/red_lw/1.jpg"",""time"":58},{""stimulus"":""img/red_lw/2.jpg"",""time"":106},{""stimulus"":""img/red_lw/3.jpg"",""time"":154},{""stimulus"":""img/red_lw/4.jpg"",""time"":202},{""stimulus"":""img/red_lw/5.jpg"",""time"":250},{""stimulus"":""img/red_lw/6.jpg"",""time"":314},{""stimulus"":""img/red_lw/7.jpg"",""time"":361},{""stimulus"":""img/red_lw/8.jpg"",""time"":410},{""stimulus"":""img/red_lw/9.jpg"",""time"":458},{""stimulus"":""img/red_lw/10.jpg"",""time"":505},{""stimulus"":""img/red_lw/11.jpg"",""time"":553}]","[]"
"image-keyboard-response","36","64892","0.0-5.0-1.16","63d881ab484805569b553bd8","bdp_lott","Fri Mar 24 2023 16:50:23 GMT-0700 (Mountain Standard Time)","263121","green","red","","454","","","","choice","","img/red_lw/choose11.jpg","2","209","red","0.5","0.5","0.5","w","",""
"animation","37","65505","0.0-5.0-2.16","63d881ab484805569b553bd8","bdp_lott","Fri Mar 24 2023 16:50:23 GMT-0700 (Mountain Standard Time)","263121","green","red","","","","","","","","","","209","","","","","","[{""stimulus"":""img/red_lw/1.jpg"",""time"":51},{""stimulus"":""img/red_lw/2.jpg"",""time"":101},{""stimulus"":""img/red_lw/3.jpg"",""time"":166},{""stimulus"":""img/red_lw/4.jpg"",""time"":214},{""stimulus"":""img/red_lw/5.jpg"",""time"":261},{""stimulus"":""img/red_lw/6.jpg"",""time"":309},{""stimulus"":""img/red_lw/7.jpg"",""time"":357},{""stimulus"":""img/red_lw/8.jpg"",""time"":405},{""stimulus"":""img/red_lw/9.jpg"",""time"":452},{""stimulus"":""img/red_lw/10.jpg"",""time"":501},{""stimulus"":""img/red_lw/11.jpg"",""time"":564}]","[]"
"image-keyboard-response","38","65792","0.0-5.0-1.17","63d881ab484805569b553bd8","bdp_lott","Fri Mar 24 2023 16:50:23 GMT-0700 (Mountain Standard Time)","263121","green","red","","286","","","","choice","","img/red_lw/choose11.jpg","2","208","red","0.5","0.5","0.5","w","",""
"animation","39","66396","0.0-5.0-2.17","63d881ab484805569b553bd8","bdp_lott","Fri Mar 24 2023 16:50:23 GMT-0700 (Mountain Standard Time)","263121","green","red","","","","","","","","","","208","","","","","","[{""stimulus"":""img/red_lw/1.jpg"",""time"":63},{""stimulus"":""img/red_lw/2.jpg"",""time"":101},{""stimulus"":""img/red_lw/3.jpg"",""time"":158},{""stimulus"":""img/red_lw/4.jpg"",""time"":206},{""stimulus"":""img/red_lw/5.jpg"",""time"":254},{""stimulus"":""img/red_lw/6.jpg"",""time"":302},{""stimulus"":""img/red_lw/7.jpg"",""time"":365},{""stimulus"":""img/red_lw/8.jpg"",""time"":412},{""stimulus"":""img/red_lw/9.jpg"",""time"":460},{""stimulus"":""img/red_lw/10.jpg"",""time"":508},{""stimulus"":""img/red_lw/11.jpg"",""time"":556}]","[]"
"image-keyboard-response","40","66662","0.0-5.0-1.18","63d881ab484805569b553bd8","bdp_lott","Fri Mar 24 2023 16:50:23 GMT-0700 (Mountain Standard Time)","263121","green","red","","266","","","","choice","","img/red_lw/choose11.jpg","2","207","red","0.5","0.5","0.5","l","",""
"animation","41","67274","0.0-5.0-2.18","63d881ab484805569b553bd8","bdp_lott","Fri Mar 24 2023 16:50:23 GMT-0700 (Mountain Standard Time)","263121","green","red","","","","","","","","","","207","","","","","","[{""stimulus"":""img/red_ll/1.jpg"",""time"":51},{""stimulus"":""img/red_ll/2.jpg"",""time"":101},{""stimulus"":""img/red_ll/3.jpg"",""time"":163},{""stimulus"":""img/red_ll/4.jpg"",""time"":211},{""stimulus"":""img/red_ll/5.jpg"",""time"":252},{""stimulus"":""img/red_ll/6.jpg"",""time"":307},{""stimulus"":""img/red_ll/7.jpg"",""time"":355},{""stimulus"":""img/red_ll/8.jpg"",""time"":403},{""stimulus"":""img/red_ll/9.jpg"",""time"":451},{""stimulus"":""img/red_ll/10.jpg"",""time"":515},{""stimulus"":""img/red_ll/11.jpg"",""time"":563}]","[]"
"image-keyboard-response","42","68105","0.0-5.0-1.19","63d881ab484805569b553bd8","bdp_lott","Fri Mar 24 2023 16:50:23 GMT-0700 (Mountain Standard Time)","263121","green","red","","831","","","","choice","","img/red_ll/choose11.jpg","2","206","red","0.5","0.5","0.5","w","",""
"animation","43","68711","0.0-5.0-2.19","63d881ab484805569b553bd8","bdp_lott","Fri Mar 24 2023 16:50:23 GMT-0700 (Mountain Standard Time)","263121","green","red","","","","","","","","","","206","","","","","","[{""stimulus"":""img/red_lw/1.jpg"",""time"":50},{""stimulus"":""img/red_lw/2.jpg"",""time"":100},{""stimulus"":""img/red_lw/3.jpg"",""time"":158},{""stimulus"":""img/red_lw/4.jpg"",""time"":207},{""stimulus"":""img/red_lw/5.jpg"",""time"":254},{""stimulus"":""img/red_lw/6.jpg"",""time"":303},{""stimulus"":""img/red_lw/7.jpg"",""time"":351},{""stimulus"":""img/red_lw/8.jpg"",""time"":414},{""stimulus"":""img/red_lw/9.jpg"",""time"":462},{""stimulus"":""img/red_lw/10.jpg"",""time"":510},{""stimulus"":""img/red_lw/11.jpg"",""time"":558}]","[]"
"image-keyboard-response","44","69004","0.0-5.0-1.20","63d881ab484805569b553bd8","bdp_lott","Fri Mar 24 2023 16:50:23 GMT-0700 (Mountain Standard Time)","263121","green","red","","292","","","","choice","","img/red_lw/choose11.jpg","2","205","red","0.5","0.5","0.5","l","",""
"animation","45","69617","0.0-5.0-2.20","63d881ab484805569b553bd8","bdp_lott","Fri Mar 24 2023 16:50:23 GMT-0700 (Mountain Standard Time)","263121","green","red","","","","","","","","","","205","","","","","","[{""stimulus"":""img/red_ll/1.jpg"",""time"":52},{""stimulus"":""img/red_ll/2.jpg"",""time"":105},{""stimulus"":""img/red_ll/3.jpg"",""time"":153},{""stimulus"":""img/red_ll/4.jpg"",""time"":216},{""stimulus"":""img/red_ll/5.jpg"",""time"":264},{""stimulus"":""img/red_ll/6.jpg"",""time"":311},{""stimulus"":""img/red_ll/7.jpg"",""time"":359},{""stimulus"":""img/red_ll/8.jpg"",""time"":407},{""stimulus"":""img/red_ll/9.jpg"",""time"":454},{""stimulus"":""img/red_ll/10.jpg"",""time"":501},{""stimulus"":""img/red_ll/11.jpg"",""time"":565}]","[]"
"image-keyboard-response","46","69843","0.0-5.0-1.21","63d881ab484805569b553bd8","bdp_lott","Fri Mar 24 2023 16:50:23 GMT-0700 (Mountain Standard Time)","263121","green","red","","225","","","","choice","","img/red_ll/choose11.jpg","2","204","red","0.5","0.5","0.5","l","",""
"animation","47","70457","0.0-5.0-2.21","63d881ab484805569b553bd8","bdp_lott","Fri Mar 24 2023 16:50:23 GMT-0700 (Mountain Standard Time)","263121","green","red","","","","","","","","","","204","","","","","","[{""stimulus"":""img/red_ll/1.jpg"",""time"":60},{""stimulus"":""img/red_ll/2.jpg"",""time"":101},{""stimulus"":""img/red_ll/3.jpg"",""time"":156},{""stimulus"":""img/red_ll/4.jpg"",""time"":200},{""stimulus"":""img/red_ll/5.jpg"",""time"":266},{""stimulus"":""img/red_ll/6.jpg"",""time"":314},{""stimulus"":""img/red_ll/7.jpg"",""time"":362},{""stimulus"":""img/red_ll/8.jpg"",""time"":409},{""stimulus"":""img/red_ll/9.jpg"",""time"":456},{""stimulus"":""img/red_ll/10.jpg"",""time"":503},{""stimulus"":""img/red_ll/11.jpg"",""time"":566}]","[]"
"image-keyboard-response","48","70717","0.0-5.0-1.22","63d881ab484805569b553bd8","bdp_lott","Fri Mar 24 2023 16:50:23 GMT-0700 (Mountain Standard Time)","263121","green","red","","259","","","","choice","","img/red_ll/choose11.jpg","2","203","red","0.5","0.5","0.5","w","",""
"animation","49","71320","0.0-5.0-2.22","63d881ab484805569b553bd8","bdp_lott","Fri Mar 24 2023 16:50:23 GMT-0700 (Mountain Standard Time)","263121","green","red","","","","","","","","","","203","","","","","","[{""stimulus"":""img/red_lw/1.jpg"",""time"":50},{""stimulus"":""img/red_lw/2.jpg"",""time"":101},{""stimulus"":""img/red_lw/3.jpg"",""time"":156},{""stimulus"":""img/red_lw/4.jpg"",""time"":204},{""stimulus"":""img/red_lw/5.jpg"",""time"":252},{""stimulus"":""img/red_lw/6.jpg"",""time"":316},{""stimulus"":""img/red_lw/7.jpg"",""time"":364},{""stimulus"":""img/red_lw/8.jpg"",""time"":412},{""stimulus"":""img/red_lw/9.jpg"",""time"":460},{""stimulus"":""img/red_lw/10.jpg"",""time"":508},{""stimulus"":""img/red_lw/11.jpg"",""time"":556}]","[]"
"image-keyboard-response","50","71660","0.0-5.0-1.23","63d881ab484805569b553bd8","bdp_lott","Fri Mar 24 2023 16:50:23 GMT-0700 (Mountain Standard Time)","263121","green","red","","339","","","","choice","","img/red_lw/choose11.jpg","1","202","green","0.5","0.5","0.5","l","",""
"animation","51","72277","0.0-5.0-2.23","63d881ab484805569b553bd8","bdp_lott","Fri Mar 24 2023 16:50:23 GMT-0700 (Mountain Standard Time)","263121","green","red","","","","","","","","","","202","","","","","","[{""stimulus"":""img/green_lw/1.jpg"",""time"":58},{""stimulus"":""img/green_lw/2.jpg"",""time"":101},{""stimulus"":""img/green_lw/3.jpg"",""time"":153},{""stimulus"":""img/green_lw/4.jpg"",""time"":201},{""stimulus"":""img/green_lw/5.jpg"",""time"":265},{""stimulus"":""img/green_lw/6.jpg"",""time"":313},{""stimulus"":""img/green_lw/7.jpg"",""time"":361},{""stimulus"":""img/green_lw/8.jpg"",""time"":409},{""stimulus"":""img/green_lw/9.jpg"",""time"":457},{""stimulus"":""img/green_lw/10.jpg"",""time"":504},{""stimulus"":""img/green_lw/11.jpg"",""time"":552}]","[]"
"image-keyboard-response","52","72525","0.0-5.0-1.24","63d881ab484805569b553bd8","bdp_lott","Fri Mar 24 2023 16:50:23 GMT-0700 (Mountain Standard Time)","263121","green","red","","247","","","","choice","","img/green_lw/choose11.jpg","2","201","red","0.5","0.5","0.5","w","",""
"animation","53","73138","0.0-5.0-2.24","63d881ab484805569b553bd8","bdp_lott","Fri Mar 24 2023 16:50:23 GMT-0700 (Mountain Standard Time)","263121","green","red","","","","","","","","","","201","","","","","","[{""stimulus"":""img/red_lw/1.jpg"",""time"":51},{""stimulus"":""img/red_lw/2.jpg"",""time"":103},{""stimulus"":""img/red_lw/3.jpg"",""time"":151},{""stimulus"":""img/red_lw/4.jpg"",""time"":215},{""stimulus"":""img/red_lw/5.jpg"",""time"":259},{""stimulus"":""img/red_lw/6.jpg"",""time"":311},{""stimulus"":""img/red_lw/7.jpg"",""time"":358},{""stimulus"":""img/red_lw/8.jpg"",""time"":406},{""stimulus"":""img/red_lw/9.jpg"",""time"":454},{""stimulus"":""img/red_lw/10.jpg"",""time"":502},{""stimulus"":""img/red_lw/11.jpg"",""time"":565}]","[]"
"image-keyboard-response","54","73302","0.0-5.0-1.25","63d881ab484805569b553bd8","bdp_lott","Fri Mar 24 2023 16:50:23 GMT-0700 (Mountain Standard Time)","263121","green","red","","164","","","","choice","","img/red_lw/choose11.jpg","2","200","red","0.5","0.5","0.5","l","",""
"animation","55","73903","0.0-5.0-2.25","63d881ab484805569b553bd8","bdp_lott","Fri Mar 24 2023 16:50:23 GMT-0700 (Mountain Standard Time)","263121","green","red","","","","","","","","","","200","","","","","","[{""stimulus"":""img/red_ll/1.jpg"",""time"":50},{""stimulus"":""img/red_ll/2.jpg"",""time"":101},{""stimulus"":""img/red_ll/3.jpg"",""time"":153},{""stimulus"":""img/red_ll/4.jpg"",""time"":200},{""stimulus"":""img/red_ll/5.jpg"",""time"":263},{""stimulus"":""img/red_ll/6.jpg"",""time"":311},{""stimulus"":""img/red_ll/7.jpg"",""time"":359},{""stimulus"":""img/red_ll/8.jpg"",""time"":407},{""stimulus"":""img/red_ll/9.jpg"",""time"":450},{""stimulus"":""img/red_ll/10.jpg"",""time"":503},{""stimulus"":""img/red_ll/11.jpg"",""time"":551}]","[]"
"image-keyboard-response","56","74031","0.0-5.0-1.26","63d881ab484805569b553bd8","bdp_lott","Fri Mar 24 2023 16:50:23 GMT-0700 (Mountain Standard Time)","263121","green","red","","127","","","","choice","","img/red_ll/choose11.jpg","2","199","red","0.5","0.5","0.5","w","",""
"animation","57","74647","0.0-5.0-2.26","63d881ab484805569b553bd8","bdp_lott","Fri Mar 24 2023 16:50:23 GMT-0700 (Mountain Standard Time)","263121","green","red","","","","","","","","","","199","","","","","","[{""stimulus"":""img/red_lw/1.jpg"",""time"":61},{""stimulus"":""img/red_lw/2.jpg"",""time"":109},{""stimulus"":""img/red_lw/3.jpg"",""time"":156},{""stimulus"":""img/red_lw/4.jpg"",""time"":200},{""stimulus"":""img/red_lw/5.jpg"",""time"":251},{""stimulus"":""img/red_lw/6.jpg"",""time"":315},{""stimulus"":""img/red_lw/7.jpg"",""time"":362},{""stimulus"":""img/red_lw/8.jpg"",""time"":409},{""stimulus"":""img/red_lw/9.jpg"",""time"":457},{""stimulus"":""img/red_lw/10.jpg"",""time"":500},{""stimulus"":""img/red_lw/11.jpg"",""time"":553}]","[]"
"image-keyboard-response","58","74777","0.0-5.0-1.27","63d881ab484805569b553bd8","bdp_lott","Fri Mar 24 2023 16:50:23 GMT-0700 (Mountain Standard Time)","263121","green","red","","129","","","","choice","","img/red_lw/choose11.jpg","2","198","red","0.5","0.5","0.5","l","",""
"animation","59","75380","0.0-5.0-2.27","63d881ab484805569b553bd8","bdp_lott","Fri Mar 24 2023 16:50:23 GMT-0700 (Mountain Standard Time)","263121","green","red","","","","","","","","","","198","","","","","","[{""stimulus"":""img/red_ll/1.jpg"",""time"":50},{""stimulus"":""img/red_ll/2.jpg"",""time"":109},{""stimulus"":""img/red_ll/3.jpg"",""time"":155},{""stimulus"":""img/red_ll/4.jpg"",""time"":203},{""stimulus"":""img/red_ll/5.jpg"",""time"":251},{""stimulus"":""img/red_ll/6.jpg"",""time"":315},{""stimulus"":""img/red_ll/7.jpg"",""time"":362},{""stimulus"":""img/red_ll/8.jpg"",""time"":410},{""stimulus"":""img/red_ll/9.jpg"",""time"":458},{""stimulus"":""img/red_ll/10.jpg"",""time"":506},{""stimulus"":""img/red_ll/11.jpg"",""time"":554}]","[]"
"image-keyboard-response","60","75897","0.0-5.0-1.28","63d881ab484805569b553bd8","bdp_lott","Fri Mar 24 2023 16:50:23 GMT-0700 (Mountain Standard Time)","263121","green","red","","517","","","","choice","","img/red_ll/choose11.jpg","2","197","red","0.5","0.5","0.5","l","",""
"animation","61","76512","0.0-5.0-2.28","63d881ab484805569b553bd8","bdp_lott","Fri Mar 24 2023 16:50:23 GMT-0700 (Mountain Standard Time)","263121","green","red","","","","","","","","","","197","","","","","","[{""stimulus"":""img/red_ll/1.jpg"",""time"":56},{""stimulus"":""img/red_ll/2.jpg"",""time"":104},{""stimulus"":""img/red_ll/3.jpg"",""time"":152},{""stimulus"":""img/red_ll/4.jpg"",""time"":216},{""stimulus"":""img/red_ll/5.jpg"",""time"":263},{""stimulus"":""img/red_ll/6.jpg"",""time"":311},{""stimulus"":""img/red_ll/7.jpg"",""time"":352},{""stimulus"":""img/red_ll/8.jpg"",""time"":407},{""stimulus"":""img/red_ll/9.jpg"",""time"":455},{""stimulus"":""img/red_ll/10.jpg"",""time"":503},{""stimulus"":""img/red_ll/11.jpg"",""time"":566}]","[]"
"image-keyboard-response","62","76560","0.0-5.0-1.29","63d881ab484805569b553bd8","bdp_lott","Fri Mar 24 2023 16:50:23 GMT-0700 (Mountain Standard Time)","263121","green","red","","48","","","","choice","","img/red_ll/choose11.jpg","2","196","red","0.5","0.5","0.5","w","",""
"animation","63","77167","0.0-5.0-2.29","63d881ab484805569b553bd8","bdp_lott","Fri Mar 24 2023 16:50:23 GMT-0700 (Mountain Standard Time)","263121","green","red","","","","","","","","","","196","","","","","","[{""stimulus"":""img/red_lw/1.jpg"",""time"":51},{""stimulus"":""img/red_lw/2.jpg"",""time"":101},{""stimulus"":""img/red_lw/3.jpg"",""time"":159},{""stimulus"":""img/red_lw/4.jpg"",""time"":207},{""stimulus"":""img/red_lw/5.jpg"",""time"":255},{""stimulus"":""img/red_lw/6.jpg"",""time"":303},{""stimulus"":""img/red_lw/7.jpg"",""time"":351},{""stimulus"":""img/red_lw/8.jpg"",""time"":414},{""stimulus"":""img/red_lw/9.jpg"",""time"":462},{""stimulus"":""img/red_lw/10.jpg"",""time"":510},{""stimulus"":""img/red_lw/11.jpg"",""time"":558}]","[]"
"image-keyboard-response","64","77273","0.0-5.0-1.30","63d881ab484805569b553bd8","bdp_lott","Fri Mar 24 2023 16:50:23 GMT-0700 (Mountain Standard Time)","263121","green","red","","106","","","","choice","","img/red_lw/choose11.jpg","2","195","red","0.5","0.5","0.5","l","",""
"animation","65","77875","0.0-5.0-2.30","63d881ab484805569b553bd8","bdp_lott","Fri Mar 24 2023 16:50:23 GMT-0700 (Mountain Standard Time)","263121","green","red","","","","","","","","","","195","","","","","","[{""stimulus"":""img/red_ll/1.jpg"",""time"":52},{""stimulus"":""img/red_ll/2.jpg"",""time"":101},{""stimulus"":""img/red_ll/3.jpg"",""time"":164},{""stimulus"":""img/red_ll/4.jpg"",""time"":212},{""stimulus"":""img/red_ll/5.jpg"",""time"":260},{""stimulus"":""img/red_ll/6.jpg"",""time"":308},{""stimulus"":""img/red_ll/7.jpg"",""time"":355},{""stimulus"":""img/red_ll/8.jpg"",""time"":403},{""stimulus"":""img/red_ll/9.jpg"",""time"":451},{""stimulus"":""img/red_ll/10.jpg"",""time"":515},{""stimulus"":""img/red_ll/11.jpg"",""time"":563}]","[]"
"image-keyboard-response","66","77907","0.0-5.0-1.31","63d881ab484805569b553bd8","bdp_lott","Fri Mar 24 2023 16:50:23 GMT-0700 (Mountain Standard Time)","263121","green","red","","32","","","","choice","","img/red_ll/choose11.jpg","2","194","red","0.5","0.5","0.5","w","",""
"animation","67","78523","0.0-5.0-2.31","63d881ab484805569b553bd8","bdp_lott","Fri Mar 24 2023 16:50:23 GMT-0700 (Mountain Standard Time)","263121","green","red","","","","","","","","","","194","","","","","","[{""stimulus"":""img/red_lw/1.jpg"",""time"":51},{""stimulus"":""img/red_lw/2.jpg"",""time"":101},{""stimulus"":""img/red_lw/3.jpg"",""time"":152},{""stimulus"":""img/red_lw/4.jpg"",""time"":216},{""stimulus"":""img/red_lw/5.jpg"",""time"":251},{""stimulus"":""img/red_lw/6.jpg"",""time"":312},{""stimulus"":""img/red_lw/7.jpg"",""time"":360},{""stimulus"":""img/red_lw/8.jpg"",""time"":408},{""stimulus"":""img/red_lw/9.jpg"",""time"":455},{""stimulus"":""img/red_lw/10.jpg"",""time"":503},{""stimulus"":""img/red_lw/11.jpg"",""time"":551}]","[]"
"image-keyboard-response","68","81421","0.0-5.0-1.32","63d881ab484805569b553bd8","bdp_lott","Fri Mar 24 2023 16:50:23 GMT-0700 (Mountain Standard Time)","263121","green","red","","2898","","","","choice","","img/red_lw/choose11.jpg","2","193","red","0.5","0.5","0.5","w","",""
"animation","69","82033","0.0-5.0-2.32","63d881ab484805569b553bd8","bdp_lott","Fri Mar 24 2023 16:50:23 GMT-0700 (Mountain Standard Time)","263121","green","red","","","","","","","","","","193","","","","","","[{""stimulus"":""img/red_lw/1.jpg"",""time"":51},{""stimulus"":""img/red_lw/2.jpg"",""time"":101},{""stimulus"":""img/red_lw/3.jpg"",""time"":166},{""stimulus"":""img/red_lw/4.jpg"",""time"":214},{""stimulus"":""img/red_lw/5.jpg"",""time"":252},{""stimulus"":""img/red_lw/6.jpg"",""time"":310},{""stimulus"":""img/red_lw/7.jpg"",""time"":358},{""stimulus"":""img/red_lw/8.jpg"",""time"":406},{""stimulus"":""img/red_lw/9.jpg"",""time"":453},{""stimulus"":""img/red_lw/10.jpg"",""time"":516},{""stimulus"":""img/red_lw/11.jpg"",""time"":564}]","[]"
"image-keyboard-response","70","82993","0.0-5.0-1.33","63d881ab484805569b553bd8","bdp_lott","Fri Mar 24 2023 16:50:23 GMT-0700 (Mountain Standard Time)","263121","green","red","","958","","","","choice","","img/red_lw/choose11.jpg","2","192","red","0.5","0.5","0.5","w","",""
"animation","71","83595","0.0-5.0-2.33","63d881ab484805569b553bd8","bdp_lott","Fri Mar 24 2023 16:50:23 GMT-0700 (Mountain Standard Time)","263121","green","red","","","","","","","","","","192","","","","","","[{""stimulus"":""img/red_lw/1.jpg"",""time"":61},{""stimulus"":""img/red_lw/2.jpg"",""time"":101},{""stimulus"":""img/red_lw/3.jpg"",""time"":156},{""stimulus"":""img/red_lw/4.jpg"",""time"":203},{""stimulus"":""img/red_lw/5.jpg"",""time"":251},{""stimulus"":""img/red_lw/6.jpg"",""time"":315},{""stimulus"":""img/red_lw/7.jpg"",""time"":363},{""stimulus"":""img/red_lw/8.jpg"",""time"":411},{""stimulus"":""img/red_lw/9.jpg"",""time"":458},{""stimulus"":""img/red_lw/10.jpg"",""time"":506},{""stimulus"":""img/red_lw/11.jpg"",""time"":554}]","[]"
"image-keyboard-response","72","84006","0.0-5.0-1.34","63d881ab484805569b553bd8","bdp_lott","Fri Mar 24 2023 16:50:23 GMT-0700 (Mountain Standard Time)","263121","green","red","","411","","","","choice","","img/red_lw/choose11.jpg","2","191","red","0.5","0.5","0.5","w","",""
"animation","73","84609","0.0-5.0-2.34","63d881ab484805569b553bd8","bdp_lott","Fri Mar 24 2023 16:50:23 GMT-0700 (Mountain Standard Time)","263121","green","red","","","","","","","","","","191","","","","","","[{""stimulus"":""img/red_lw/1.jpg"",""time"":50},{""stimulus"":""img/red_lw/2.jpg"",""time"":114},{""stimulus"":""img/red_lw/3.jpg"",""time"":161},{""stimulus"":""img/red_lw/4.jpg"",""time"":208},{""stimulus"":""img/red_lw/5.jpg"",""time"":253},{""stimulus"":""img/red_lw/6.jpg"",""time"":304},{""stimulus"":""img/red_lw/7.jpg"",""time"":351},{""stimulus"":""img/red_lw/8.jpg"",""time"":415},{""stimulus"":""img/red_lw/9.jpg"",""time"":461},{""stimulus"":""img/red_lw/10.jpg"",""time"":508},{""stimulus"":""img/red_lw/11.jpg"",""time"":554}]","[]"
"image-keyboard-response","74","84733","0.0-5.0-1.35","63d881ab484805569b553bd8","bdp_lott","Fri Mar 24 2023 16:50:23 GMT-0700 (Mountain Standard Time)","263121","green","red","","124","","","","choice","","img/red_lw/choose11.jpg","2","190","red","0.5","0.5","0.5","w","",""
"animation","75","85339","0.0-5.0-2.35","63d881ab484805569b553bd8","bdp_lott","Fri Mar 24 2023 16:50:23 GMT-0700 (Mountain Standard Time)","263121","green","red","","","","","","","","","","190","","","","","","[{""stimulus"":""img/red_lw/1.jpg"",""time"":66},{""stimulus"":""img/red_lw/2.jpg"",""time"":101},{""stimulus"":""img/red_lw/3.jpg"",""time"":151},{""stimulus"":""img/red_lw/4.jpg"",""time"":208},{""stimulus"":""img/red_lw/5.jpg"",""time"":255},{""stimulus"":""img/red_lw/6.jpg"",""time"":303},{""stimulus"":""img/red_lw/7.jpg"",""time"":365},{""stimulus"":""img/red_lw/8.jpg"",""time"":401},{""stimulus"":""img/red_lw/9.jpg"",""time"":461},{""stimulus"":""img/red_lw/10.jpg"",""time"":509},{""stimulus"":""img/red_lw/11.jpg"",""time"":557}]","[]"
"image-keyboard-response","76","85430","0.0-5.0-1.36","63d881ab484805569b553bd8","bdp_lott","Fri Mar 24 2023 16:50:23 GMT-0700 (Mountain Standard Time)","263121","green","red","","91","","","","choice","","img/red_lw/choose11.jpg","2","189","red","0.5","0.5","0.5","l","",""
"animation","77","86041","0.0-5.0-2.36","63d881ab484805569b553bd8","bdp_lott","Fri Mar 24 2023 16:50:23 GMT-0700 (Mountain Standard Time)","263121","green","red","","","","","","","","","","189","","","","","","[{""stimulus"":""img/red_ll/1.jpg"",""time"":50},{""stimulus"":""img/red_ll/2.jpg"",""time"":100},{""stimulus"":""img/red_ll/3.jpg"",""time"":163},{""stimulus"":""img/red_ll/4.jpg"",""time"":211},{""stimulus"":""img/red_ll/5.jpg"",""time"":259},{""stimulus"":""img/red_ll/6.jpg"",""time"":300},{""stimulus"":""img/red_ll/7.jpg"",""time"":355},{""stimulus"":""img/red_ll/8.jpg"",""time"":403},{""stimulus"":""img/red_ll/9.jpg"",""time"":451},{""stimulus"":""img/red_ll/10.jpg"",""time"":515},{""stimulus"":""img/red_ll/11.jpg"",""time"":562}]","[]"
"image-keyboard-response","78","86701","0.0-5.0-1.37","63d881ab484805569b553bd8","bdp_lott","Fri Mar 24 2023 16:50:23 GMT-0700 (Mountain Standard Time)","263121","green","red","","659","","","","choice","","img/red_ll/choose11.jpg","1","188","green","0.5","0.5","0.5","w","",""
"animation","79","87316","0.0-5.0-2.37","63d881ab484805569b553bd8","bdp_lott","Fri Mar 24 2023 16:50:23 GMT-0700 (Mountain Standard Time)","263121","green","red","","","","","","","","","","188","","","","","","[{""stimulus"":""img/green_wl/1.jpg"",""time"":55},{""stimulus"":""img/green_wl/2.jpg"",""time"":101},{""stimulus"":""img/green_wl/3.jpg"",""time"":151},{""stimulus"":""img/green_wl/4.jpg"",""time"":215},{""stimulus"":""img/green_wl/5.jpg"",""time"":262},{""stimulus"":""img/green_wl/6.jpg"",""time"":310},{""stimulus"":""img/green_wl/7.jpg"",""time"":358},{""stimulus"":""img/green_wl/8.jpg"",""time"":406},{""stimulus"":""img/green_wl/9.jpg"",""time"":452},{""stimulus"":""img/green_wl/10.jpg"",""time"":502},{""stimulus"":""img/green_wl/11.jpg"",""time"":566}]","[]"
"image-keyboard-response","80","87325","0.0-5.0-1.38","63d881ab484805569b553bd8","bdp_lott","Fri Mar 24 2023 16:50:23 GMT-0700 (Mountain Standard Time)","263121","green","red","","9","","","","choice","","img/green_wl/choose11.jpg","2","187","red","0.5","0.5","0.5","w","",""
"animation","81","87935","0.0-5.0-2.38","63d881ab484805569b553bd8","bdp_lott","Fri Mar 24 2023 16:50:23 GMT-0700 (Mountain Standard Time)","263121","green","red","","","","","","","","","","187","","","","","","[{""stimulus"":""img/red_ww/1.jpg"",""time"":54},{""stimulus"":""img/red_ww/2.jpg"",""time"":102},{""stimulus"":""img/red_ww/3.jpg"",""time"":165},{""stimulus"":""img/red_ww/4.jpg"",""time"":213},{""stimulus"":""img/red_ww/5.jpg"",""time"":259},{""stimulus"":""img/red_ww/6.jpg"",""time"":307},{""stimulus"":""img/red_ww/7.jpg"",""time"":354},{""stimulus"":""img/red_ww/8.jpg"",""time"":402},{""stimulus"":""img/red_ww/9.jpg"",""time"":466},{""stimulus"":""img/red_ww/10.jpg"",""time"":514},{""stimulus"":""img/red_ww/11.jpg"",""time"":562}]","[]"
"image-keyboard-response","82","88272","0.0-5.0-1.39","63d881ab484805569b553bd8","bdp_lott","Fri Mar 24 2023 16:50:23 GMT-0700 (Mountain Standard Time)","263121","green","red","","337","","","","choice","","img/red_ww/choose11.jpg","1","186","green","0.5","0.5","0.5","w","",""
"animation","83","88878","0.0-5.0-2.39","63d881ab484805569b553bd8","bdp_lott","Fri Mar 24 2023 16:50:23 GMT-0700 (Mountain Standard Time)","263121","green","red","","","","","","","","","","186","","","","","","[{""stimulus"":""img/green_ww/1.jpg"",""time"":62},{""stimulus"":""img/green_ww/2.jpg"",""time"":101},{""stimulus"":""img/green_ww/3.jpg"",""time"":157},{""stimulus"":""img/green_ww/4.jpg"",""time"":205},{""stimulus"":""img/green_ww/5.jpg"",""time"":253},{""stimulus"":""img/green_ww/6.jpg"",""time"":301},{""stimulus"":""img/green_ww/7.jpg"",""time"":365},{""stimulus"":""img/green_ww/8.jpg"",""time"":413},{""stimulus"":""img/green_ww/9.jpg"",""time"":461},{""stimulus"":""img/green_ww/10.jpg"",""time"":501},{""stimulus"":""img/green_ww/11.jpg"",""time"":550}]","[]"
"image-keyboard-response","84","88931","0.0-5.0-1.40","63d881ab484805569b553bd8","bdp_lott","Fri Mar 24 2023 16:50:23 GMT-0700 (Mountain Standard Time)","263121","green","red","","53","","","","choice","","img/green_ww/choose11.jpg","2","185","red","0.5","0.5","0.5","w","",""
"animation","85","89533","0.0-5.0-2.40","63d881ab484805569b553bd8","bdp_lott","Fri Mar 24 2023 16:50:23 GMT-0700 (Mountain Standard Time)","263121","green","red","","","","","","","","","","185","","","","","","[{""stimulus"":""img/red_ww/1.jpg"",""time"":50},{""stimulus"":""img/red_ww/2.jpg"",""time"":100},{""stimulus"":""img/red_ww/3.jpg"",""time"":150},{""stimulus"":""img/red_ww/4.jpg"",""time"":201},{""stimulus"":""img/red_ww/5.jpg"",""time"":265},{""stimulus"":""img/red_ww/6.jpg"",""time"":313},{""stimulus"":""img/red_ww/7.jpg"",""time"":361},{""stimulus"":""img/red_ww/8.jpg"",""time"":409},{""stimulus"":""img/red_ww/9.jpg"",""time"":450},{""stimulus"":""img/red_ww/10.jpg"",""time"":505},{""stimulus"":""img/red_ww/11.jpg"",""time"":553}]","[]"
"image-keyboard-response","86","89763","0.0-5.0-1.41","63d881ab484805569b553bd8","bdp_lott","Fri Mar 24 2023 16:50:23 GMT-0700 (Mountain Standard Time)","263121","green","red","","230","","","","choice","","img/red_ww/choose11.jpg","1","184","green","0.5","0.5","0.5","l","",""
"animation","87","90378","0.0-5.0-2.41","63d881ab484805569b553bd8","bdp_lott","Fri Mar 24 2023 16:50:23 GMT-0700 (Mountain Standard Time)","263121","green","red","","","","","","","","","","184","","","","","","[{""stimulus"":""img/green_lw/1.jpg"",""time"":50},{""stimulus"":""img/green_lw/2.jpg"",""time"":105},{""stimulus"":""img/green_lw/3.jpg"",""time"":154},{""stimulus"":""img/green_lw/4.jpg"",""time"":215},{""stimulus"":""img/green_lw/5.jpg"",""time"":263},{""stimulus"":""img/green_lw/6.jpg"",""time"":311},{""stimulus"":""img/green_lw/7.jpg"",""time"":358},{""stimulus"":""img/green_lw/8.jpg"",""time"":406},{""stimulus"":""img/green_lw/9.jpg"",""time"":450},{""stimulus"":""img/green_lw/10.jpg"",""time"":502},{""stimulus"":""img/green_lw/11.jpg"",""time"":550}]","[]"
"image-keyboard-response","88","90535","0.0-5.0-1.42","63d881ab484805569b553bd8","bdp_lott","Fri Mar 24 2023 16:50:23 GMT-0700 (Mountain Standard Time)","263121","green","red","","157","","","","choice","","img/green_lw/choose11.jpg","2","183","red","0.5","0.5","0.5","l","",""
"animation","89","91145","0.0-5.0-2.42","63d881ab484805569b553bd8","bdp_lott","Fri Mar 24 2023 16:50:23 GMT-0700 (Mountain Standard Time)","263121","green","red","","","","","","","","","","183","","","","","","[{""stimulus"":""img/red_ll/1.jpg"",""time"":51},{""stimulus"":""img/red_ll/2.jpg"",""time"":100},{""stimulus"":""img/red_ll/3.jpg"",""time"":163},{""stimulus"":""img/red_ll/4.jpg"",""time"":211},{""stimulus"":""img/red_ll/5.jpg"",""time"":260},{""stimulus"":""img/red_ll/6.jpg"",""time"":307},{""stimulus"":""img/red_ll/7.jpg"",""time"":351},{""stimulus"":""img/red_ll/8.jpg"",""time"":403},{""stimulus"":""img/red_ll/9.jpg"",""time"":450},{""stimulus"":""img/red_ll/10.jpg"",""time"":515},{""stimulus"":""img/red_ll/11.jpg"",""time"":563}]","[]"
"image-keyboard-response","90","91357","0.0-5.0-1.43","63d881ab484805569b553bd8","bdp_lott","Fri Mar 24 2023 16:50:23 GMT-0700 (Mountain Standard Time)","263121","green","red","","211","","","","choice","","img/red_ll/choose11.jpg","1","182","green","0.5","0.5","0.5","l","",""
"animation","91","91972","0.0-5.0-2.43","63d881ab484805569b553bd8","bdp_lott","Fri Mar 24 2023 16:50:23 GMT-0700 (Mountain Standard Time)","263121","green","red","","","","","","","","","","182","","","","","","[{""stimulus"":""img/green_ll/1.jpg"",""time"":59},{""stimulus"":""img/green_ll/2.jpg"",""time"":101},{""stimulus"":""img/green_ll/3.jpg"",""time"":154},{""stimulus"":""img/green_ll/4.jpg"",""time"":201},{""stimulus"":""img/green_ll/5.jpg"",""time"":265},{""stimulus"":""img/green_ll/6.jpg"",""time"":313},{""stimulus"":""img/green_ll/7.jpg"",""time"":361},{""stimulus"":""img/green_ll/8.jpg"",""time"":409},{""stimulus"":""img/green_ll/9.jpg"",""time"":456},{""stimulus"":""img/green_ll/10.jpg"",""time"":504},{""stimulus"":""img/green_ll/11.jpg"",""time"":552}]","[]"
"image-keyboard-response","92","92438","0.0-5.0-1.44","63d881ab484805569b553bd8","bdp_lott","Fri Mar 24 2023 16:50:23 GMT-0700 (Mountain Standard Time)","263121","green","red","","465","","","","choice","","img/green_ll/choose11.jpg","2","181","red","0.5","0.5","0.5","w","",""
"animation","93","93042","0.0-5.0-2.44","63d881ab484805569b553bd8","bdp_lott","Fri Mar 24 2023 16:50:23 GMT-0700 (Mountain Standard Time)","263121","green","red","","","","","","","","","","181","","","","","","[{""stimulus"":""img/red_lw/1.jpg"",""time"":61},{""stimulus"":""img/red_lw/2.jpg"",""time"":101},{""stimulus"":""img/red_lw/3.jpg"",""time"":157},{""stimulus"":""img/red_lw/4.jpg"",""time"":205},{""stimulus"":""img/red_lw/5.jpg"",""time"":253},{""stimulus"":""img/red_lw/6.jpg"",""time"":301},{""stimulus"":""img/red_lw/7.jpg"",""time"":365},{""stimulus"":""img/red_lw/8.jpg"",""time"":413},{""stimulus"":""img/red_lw/9.jpg"",""time"":460},{""stimulus"":""img/red_lw/10.jpg"",""time"":508},{""stimulus"":""img/red_lw/11.jpg"",""time"":556}]","[]"
"image-keyboard-response","94","93152","0.0-5.0-1.45","63d881ab484805569b553bd8","bdp_lott","Fri Mar 24 2023 16:50:23 GMT-0700 (Mountain Standard Time)","263121","green","red","","109","","","","choice","","img/red_lw/choose11.jpg","1","180","green","0.5","0.5","0.5","l","",""
"animation","95","93754","0.0-5.0-2.45","63d881ab484805569b553bd8","bdp_lott","Fri Mar 24 2023 16:50:23 GMT-0700 (Mountain Standard Time)","263121","green","red","","","","","","","","","","180","","","","","","[{""stimulus"":""img/green_lw/1.jpg"",""time"":66},{""stimulus"":""img/green_lw/2.jpg"",""time"":101},{""stimulus"":""img/green_lw/3.jpg"",""time"":161},{""stimulus"":""img/green_lw/4.jpg"",""time"":209},{""stimulus"":""img/green_lw/5.jpg"",""time"":257},{""stimulus"":""img/green_lw/6.jpg"",""time"":305},{""stimulus"":""img/green_lw/7.jpg"",""time"":352},{""stimulus"":""img/green_lw/8.jpg"",""time"":400},{""stimulus"":""img/green_lw/9.jpg"",""time"":451},{""stimulus"":""img/green_lw/10.jpg"",""time"":511},{""stimulus"":""img/green_lw/11.jpg"",""time"":559}]","[]"
"image-keyboard-response","96","93894","0.0-5.0-1.46","63d881ab484805569b553bd8","bdp_lott","Fri Mar 24 2023 16:50:23 GMT-0700 (Mountain Standard Time)","263121","green","red","","139","","","","choice","","img/green_lw/choose11.jpg","2","179","red","0.5","0.5","0.5","w","",""
"animation","97","94509","0.0-5.0-2.46","63d881ab484805569b553bd8","bdp_lott","Fri Mar 24 2023 16:50:23 GMT-0700 (Mountain Standard Time)","263121","green","red","","","","","","","","","","179","","","","","","[{""stimulus"":""img/red_lw/1.jpg"",""time"":56},{""stimulus"":""img/red_lw/2.jpg"",""time"":104},{""stimulus"":""img/red_lw/3.jpg"",""time"":152},{""stimulus"":""img/red_lw/4.jpg"",""time"":216},{""stimulus"":""img/red_lw/5.jpg"",""time"":264},{""stimulus"":""img/red_lw/6.jpg"",""time"":312},{""stimulus"":""img/red_lw/7.jpg"",""time"":360},{""stimulus"":""img/red_lw/8.jpg"",""time"":408},{""stimulus"":""img/red_lw/9.jpg"",""time"":455},{""stimulus"":""img/red_lw/10.jpg"",""time"":503},{""stimulus"":""img/red_lw/11.jpg"",""time"":551}]","[]"
"image-keyboard-response","98","94714","0.0-5.0-1.47","63d881ab484805569b553bd8","bdp_lott","Fri Mar 24 2023 16:50:23 GMT-0700 (Mountain Standard Time)","263121","green","red","","205","","","","choice","","img/red_lw/choose11.jpg","2","178","red","0.5","0.5","0.5","w","",""
"animation","99","95322","0.0-5.0-2.47","63d881ab484805569b553bd8","bdp_lott","Fri Mar 24 2023 16:50:23 GMT-0700 (Mountain Standard Time)","263121","green","red","","","","","","","","","","178","","","","","","[{""stimulus"":""img/red_lw/1.jpg"",""time"":66},{""stimulus"":""img/red_lw/2.jpg"",""time"":101},{""stimulus"":""img/red_lw/3.jpg"",""time"":162},{""stimulus"":""img/red_lw/4.jpg"",""time"":210},{""stimulus"":""img/red_lw/5.jpg"",""time"":257},{""stimulus"":""img/red_lw/6.jpg"",""time"":304},{""stimulus"":""img/red_lw/7.jpg"",""time"":351},{""stimulus"":""img/red_lw/8.jpg"",""time"":415},{""stimulus"":""img/red_lw/9.jpg"",""time"":463},{""stimulus"":""img/red_lw/10.jpg"",""time"":511},{""stimulus"":""img/red_lw/11.jpg"",""time"":559}]","[]"
"image-keyboard-response","100","95590","0.0-5.0-1.48","63d881ab484805569b553bd8","bdp_lott","Fri Mar 24 2023 16:50:23 GMT-0700 (Mountain Standard Time)","263121","green","red","","268","","","","choice","","img/red_lw/choose11.jpg","1","177","green","0.5","0.5","0.5","w","",""
"animation","101","96196","0.0-5.0-2.48","63d881ab484805569b553bd8","bdp_lott","Fri Mar 24 2023 16:50:23 GMT-0700 (Mountain Standard Time)","263121","green","red","","","","","","","","","","177","","","","","","[{""stimulus"":""img/green_ww/1.jpg"",""time"":50},{""stimulus"":""img/green_ww/2.jpg"",""time"":101},{""stimulus"":""img/green_ww/3.jpg"",""time"":163},{""stimulus"":""img/green_ww/4.jpg"",""time"":209},{""stimulus"":""img/green_ww/5.jpg"",""time"":250},{""stimulus"":""img/green_ww/6.jpg"",""time"":305},{""stimulus"":""img/green_ww/7.jpg"",""time"":352},{""stimulus"":""img/green_ww/8.jpg"",""time"":415},{""stimulus"":""img/green_ww/9.jpg"",""time"":463},{""stimulus"":""img/green_ww/10.jpg"",""time"":510},{""stimulus"":""img/green_ww/11.jpg"",""time"":558}]","[]"
"image-keyboard-response","102","96548","0.0-5.0-1.49","63d881ab484805569b553bd8","bdp_lott","Fri Mar 24 2023 16:50:23 GMT-0700 (Mountain Standard Time)","263121","green","red","","352","","","","choice","","img/green_ww/choose11.jpg","2","176","red","0.5","0.5","0.5","w","",""
"animation","103","97152","0.0-5.0-2.49","63d881ab484805569b553bd8","bdp_lott","Fri Mar 24 2023 16:50:23 GMT-0700 (Mountain Standard Time)","263121","green","red","","","","","","","","","","176","","","","","","[{""stimulus"":""img/red_ww/1.jpg"",""time"":62},{""stimulus"":""img/red_ww/2.jpg"",""time"":101},{""stimulus"":""img/red_ww/3.jpg"",""time"":158},{""stimulus"":""img/red_ww/4.jpg"",""time"":206},{""stimulus"":""img/red_ww/5.jpg"",""time"":252},{""stimulus"":""img/red_ww/6.jpg"",""time"":301},{""stimulus"":""img/red_ww/7.jpg"",""time"":365},{""stimulus"":""img/red_ww/8.jpg"",""time"":413},{""stimulus"":""img/red_ww/9.jpg"",""time"":460},{""stimulus"":""img/red_ww/10.jpg"",""time"":509},{""stimulus"":""img/red_ww/11.jpg"",""time"":556}]","[]"
"image-keyboard-response","104","97229","0.0-5.0-1.50","63d881ab484805569b553bd8","bdp_lott","Fri Mar 24 2023 16:50:23 GMT-0700 (Mountain Standard Time)","263121","green","red","","77","","","","choice","","img/red_ww/choose11.jpg","1","175","green","0.5","0.5","0.5","l","",""
"animation","105","97837","0.0-5.0-2.50","63d881ab484805569b553bd8","bdp_lott","Fri Mar 24 2023 16:50:23 GMT-0700 (Mountain Standard Time)","263121","green","red","","","","","","","","","","175","","","","","","[{""stimulus"":""img/green_lw/1.jpg"",""time"":51},{""stimulus"":""img/green_lw/2.jpg"",""time"":100},{""stimulus"":""img/green_lw/3.jpg"",""time"":151},{""stimulus"":""img/green_lw/4.jpg"",""time"":202},{""stimulus"":""img/green_lw/5.jpg"",""time"":257},{""stimulus"":""img/green_lw/6.jpg"",""time"":305},{""stimulus"":""img/green_lw/7.jpg"",""time"":351},{""stimulus"":""img/green_lw/8.jpg"",""time"":401},{""stimulus"":""img/green_lw/9.jpg"",""time"":463},{""stimulus"":""img/green_lw/10.jpg"",""time"":511},{""stimulus"":""img/green_lw/11.jpg"",""time"":550}]","[]"
"image-keyboard-response","106","97946","0.0-5.0-1.51","63d881ab484805569b553bd8","bdp_lott","Fri Mar 24 2023 16:50:23 GMT-0700 (Mountain Standard Time)","263121","green","red","","109","","","","choice","","img/green_lw/choose11.jpg","2","174","red","0.5","0.5","0.5","w","",""
"animation","107","98551","0.0-5.0-2.51","63d881ab484805569b553bd8","bdp_lott","Fri Mar 24 2023 16:50:23 GMT-0700 (Mountain Standard Time)","263121","green","red","","","","","","","","","","174","","","","","","[{""stimulus"":""img/red_lw/1.jpg"",""time"":65},{""stimulus"":""img/red_lw/2.jpg"",""time"":101},{""stimulus"":""img/red_lw/3.jpg"",""time"":160},{""stimulus"":""img/red_lw/4.jpg"",""time"":208},{""stimulus"":""img/red_lw/5.jpg"",""time"":256},{""stimulus"":""img/red_lw/6.jpg"",""time"":301},{""stimulus"":""img/red_lw/7.jpg"",""time"":351},{""stimulus"":""img/red_lw/8.jpg"",""time"":414},{""stimulus"":""img/red_lw/9.jpg"",""time"":462},{""stimulus"":""img/red_lw/10.jpg"",""time"":510},{""stimulus"":""img/red_lw/11.jpg"",""time"":557}]","[]"
"image-keyboard-response","108","98689","0.0-5.0-1.52","63d881ab484805569b553bd8","bdp_lott","Fri Mar 24 2023 16:50:23 GMT-0700 (Mountain Standard Time)","263121","green","red","","138","","","","choice","","img/red_lw/choose11.jpg","1","173","green","0.5","0.5","0.5","l","",""
"animation","109","99300","0.0-5.0-2.52","63d881ab484805569b553bd8","bdp_lott","Fri Mar 24 2023 16:50:23 GMT-0700 (Mountain Standard Time)","263121","green","red","","","","","","","","","","173","","","","","","[{""stimulus"":""img/green_lw/1.jpg"",""time"":53},{""stimulus"":""img/green_lw/2.jpg"",""time"":100},{""stimulus"":""img/green_lw/3.jpg"",""time"":165},{""stimulus"":""img/green_lw/4.jpg"",""time"":211},{""stimulus"":""img/green_lw/5.jpg"",""time"":261},{""stimulus"":""img/green_lw/6.jpg"",""time"":309},{""stimulus"":""img/green_lw/7.jpg"",""time"":357},{""stimulus"":""img/green_lw/8.jpg"",""time"":405},{""stimulus"":""img/green_lw/9.jpg"",""time"":453},{""stimulus"":""img/green_lw/10.jpg"",""time"":516},{""stimulus"":""img/green_lw/11.jpg"",""time"":564}]","[]"
"image-keyboard-response","110","99437","0.0-5.0-1.53","63d881ab484805569b553bd8","bdp_lott","Fri Mar 24 2023 16:50:23 GMT-0700 (Mountain Standard Time)","263121","green","red","","136","","","","choice","","img/green_lw/choose11.jpg","2","172","red","0.5","0.5","0.5","w","",""
"animation","111","100050","0.0-5.0-2.53","63d881ab484805569b553bd8","bdp_lott","Fri Mar 24 2023 16:50:23 GMT-0700 (Mountain Standard Time)","263121","green","red","","","","","","","","","","172","","","","","","[{""stimulus"":""img/red_lw/1.jpg"",""time"":51},{""stimulus"":""img/red_lw/2.jpg"",""time"":101},{""stimulus"":""img/red_lw/3.jpg"",""time"":166},{""stimulus"":""img/red_lw/4.jpg"",""time"":214},{""stimulus"":""img/red_lw/5.jpg"",""time"":262},{""stimulus"":""img/red_lw/6.jpg"",""time"":310},{""stimulus"":""img/red_lw/7.jpg"",""time"":357},{""stimulus"":""img/red_lw/8.jpg"",""time"":402},{""stimulus"":""img/red_lw/9.jpg"",""time"":452},{""stimulus"":""img/red_lw/10.jpg"",""time"":501},{""stimulus"":""img/red_lw/11.jpg"",""time"":565}]","[]"
"image-keyboard-response","112","100246","0.0-5.0-1.54","63d881ab484805569b553bd8","bdp_lott","Fri Mar 24 2023 16:50:23 GMT-0700 (Mountain Standard Time)","263121","green","red","","195","","","","choice","","img/red_lw/choose11.jpg","1","171","green","0.5","0.5","0.5","l","",""
"animation","113","100863","0.0-5.0-2.54","63d881ab484805569b553bd8","bdp_lott","Fri Mar 24 2023 16:50:23 GMT-0700 (Mountain Standard Time)","263121","green","red","","","","","","","","","","171","","","","","","[{""stimulus"":""img/green_lw/1.jpg"",""time"":60},{""stimulus"":""img/green_lw/2.jpg"",""time"":101},{""stimulus"":""img/green_lw/3.jpg"",""time"":155},{""stimulus"":""img/green_lw/4.jpg"",""time"":203},{""stimulus"":""img/green_lw/5.jpg"",""time"":265},{""stimulus"":""img/green_lw/6.jpg"",""time"":313},{""stimulus"":""img/green_lw/7.jpg"",""time"":352},{""stimulus"":""img/green_lw/8.jpg"",""time"":409},{""stimulus"":""img/green_lw/9.jpg"",""time"":457},{""stimulus"":""img/green_lw/10.jpg"",""time"":504},{""stimulus"":""img/green_lw/11.jpg"",""time"":552}]","[]"
"image-keyboard-response","114","101050","0.0-5.0-1.55","63d881ab484805569b553bd8","bdp_lott","Fri Mar 24 2023 16:50:23 GMT-0700 (Mountain Standard Time)","263121","green","red","","187","","","","choice","","img/green_lw/choose11.jpg","2","170","red","0.5","0.5","0.5","w","",""
"animation","115","101661","0.0-5.0-2.55","63d881ab484805569b553bd8","bdp_lott","Fri Mar 24 2023 16:50:23 GMT-0700 (Mountain Standard Time)","263121","green","red","","","","","","","","","","170","","","","","","[{""stimulus"":""img/red_lw/1.jpg"",""time"":52},{""stimulus"":""img/red_lw/2.jpg"",""time"":116},{""stimulus"":""img/red_lw/3.jpg"",""time"":164},{""stimulus"":""img/red_lw/4.jpg"",""time"":212},{""stimulus"":""img/red_lw/5.jpg"",""time"":251},{""stimulus"":""img/red_lw/6.jpg"",""time"":308},{""stimulus"":""img/red_lw/7.jpg"",""time"":355},{""stimulus"":""img/red_lw/8.jpg"",""time"":403},{""stimulus"":""img/red_lw/9.jpg"",""time"":466},{""stimulus"":""img/red_lw/10.jpg"",""time"":514},{""stimulus"":""img/red_lw/11.jpg"",""time"":562}]","[]"
"image-keyboard-response","116","101923","0.0-5.0-1.56","63d881ab484805569b553bd8","bdp_lott","Fri Mar 24 2023 16:50:23 GMT-0700 (Mountain Standard Time)","263121","green","red","","262","","","","choice","","img/red_lw/choose11.jpg","1","169","green","0.5","0.5","0.5","l","",""
"animation","117","102538","0.0-5.0-2.56","63d881ab484805569b553bd8","bdp_lott","Fri Mar 24 2023 16:50:23 GMT-0700 (Mountain Standard Time)","263121","green","red","","","","","","","","","","169","","","","","","[{""stimulus"":""img/green_lw/1.jpg"",""time"":51},{""stimulus"":""img/green_lw/2.jpg"",""time"":101},{""stimulus"":""img/green_lw/3.jpg"",""time"":151},{""stimulus"":""img/green_lw/4.jpg"",""time"":200},{""stimulus"":""img/green_lw/5.jpg"",""time"":263},{""stimulus"":""img/green_lw/6.jpg"",""time"":310},{""stimulus"":""img/green_lw/7.jpg"",""time"":358},{""stimulus"":""img/green_lw/8.jpg"",""time"":406},{""stimulus"":""img/green_lw/9.jpg"",""time"":454},{""stimulus"":""img/green_lw/10.jpg"",""time"":502},{""stimulus"":""img/green_lw/11.jpg"",""time"":550}]","[]"
"image-keyboard-response","118","102569","0.0-5.0-1.57","63d881ab484805569b553bd8","bdp_lott","Fri Mar 24 2023 16:50:23 GMT-0700 (Mountain Standard Time)","263121","green","red","","30","","","","choice","","img/green_lw/choose11.jpg","2","168","red","0.5","0.5","0.5","l","",""
"animation","119","103169","0.0-5.0-2.57","63d881ab484805569b553bd8","bdp_lott","Fri Mar 24 2023 16:50:23 GMT-0700 (Mountain Standard Time)","263121","green","red","","","","","","","","","","168","","","","","","[{""stimulus"":""img/red_ll/1.jpg"",""time"":51},{""stimulus"":""img/red_ll/2.jpg"",""time"":100},{""stimulus"":""img/red_ll/3.jpg"",""time"":161},{""stimulus"":""img/red_ll/4.jpg"",""time"":201},{""stimulus"":""img/red_ll/5.jpg"",""time"":257},{""stimulus"":""img/red_ll/6.jpg"",""time"":305},{""stimulus"":""img/red_ll/7.jpg"",""time"":353},{""stimulus"":""img/red_ll/8.jpg"",""time"":401},{""stimulus"":""img/red_ll/9.jpg"",""time"":465},{""stimulus"":""img/red_ll/10.jpg"",""time"":513},{""stimulus"":""img/red_ll/11.jpg"",""time"":561}]","[]"
"image-keyboard-response","120","103299","0.0-5.0-1.58","63d881ab484805569b553bd8","bdp_lott","Fri Mar 24 2023 16:50:23 GMT-0700 (Mountain Standard Time)","263121","green","red","","130","","","","choice","","img/red_ll/choose11.jpg","1","167","green","0.5","0.5","0.5","w","",""
"animation","121","103908","0.0-5.0-2.58","63d881ab484805569b553bd8","bdp_lott","Fri Mar 24 2023 16:50:23 GMT-0700 (Mountain Standard Time)","263121","green","red","","","","","","","","","","167","","","","","","[{""stimulus"":""img/green_wl/1.jpg"",""time"":50},{""stimulus"":""img/green_wl/2.jpg"",""time"":100},{""stimulus"":""img/green_wl/3.jpg"",""time"":164},{""stimulus"":""img/green_wl/4.jpg"",""time"":212},{""stimulus"":""img/green_wl/5.jpg"",""time"":260},{""stimulus"":""img/green_wl/6.jpg"",""time"":308},{""stimulus"":""img/green_wl/7.jpg"",""time"":351},{""stimulus"":""img/green_wl/8.jpg"",""time"":404},{""stimulus"":""img/green_wl/9.jpg"",""time"":451},{""stimulus"":""img/green_wl/10.jpg"",""time"":514},{""stimulus"":""img/green_wl/11.jpg"",""time"":561}]","[]"
"image-keyboard-response","122","104093","0.0-5.0-1.59","63d881ab484805569b553bd8","bdp_lott","Fri Mar 24 2023 16:50:23 GMT-0700 (Mountain Standard Time)","263121","green","red","","185","","","","choice","","img/green_wl/choose11.jpg","2","166","red","0.5","0.5","0.5","w","",""
"animation","123","104703","0.0-5.0-2.59","63d881ab484805569b553bd8","bdp_lott","Fri Mar 24 2023 16:50:23 GMT-0700 (Mountain Standard Time)","263121","green","red","","","","","","","","","","166","","","","","","[{""stimulus"":""img/red_ww/1.jpg"",""time"":50},{""stimulus"":""img/red_ww/2.jpg"",""time"":115},{""stimulus"":""img/red_ww/3.jpg"",""time"":163},{""stimulus"":""img/red_ww/4.jpg"",""time"":200},{""stimulus"":""img/red_ww/5.jpg"",""time"":258},{""stimulus"":""img/red_ww/6.jpg"",""time"":306},{""stimulus"":""img/red_ww/7.jpg"",""time"":354},{""stimulus"":""img/red_ww/8.jpg"",""time"":403},{""stimulus"":""img/red_ww/9.jpg"",""time"":465},{""stimulus"":""img/red_ww/10.jpg"",""time"":514},{""stimulus"":""img/red_ww/11.jpg"",""time"":561}]","[]"
"image-keyboard-response","124","105214","0.0-5.0-1.60","63d881ab484805569b553bd8","bdp_lott","Fri Mar 24 2023 16:50:23 GMT-0700 (Mountain Standard Time)","263121","green","red","","509","","","","choice","","img/red_ww/choose11.jpg","2","165","red","0.5","0.5","0.5","l","",""
"animation","125","105816","0.0-5.0-2.60","63d881ab484805569b553bd8","bdp_lott","Fri Mar 24 2023 16:50:23 GMT-0700 (Mountain Standard Time)","263121","green","red","","","","","","","","","","165","","","","","","[{""stimulus"":""img/red_wl/1.jpg"",""time"":51},{""stimulus"":""img/red_wl/2.jpg"",""time"":101},{""stimulus"":""img/red_wl/3.jpg"",""time"":157},{""stimulus"":""img/red_wl/4.jpg"",""time"":205},{""stimulus"":""img/red_wl/5.jpg"",""time"":253},{""stimulus"":""img/red_wl/6.jpg"",""time"":301},{""stimulus"":""img/red_wl/7.jpg"",""time"":364},{""stimulus"":""img/red_wl/8.jpg"",""time"":412},{""stimulus"":""img/red_wl/9.jpg"",""time"":460},{""stimulus"":""img/red_wl/10.jpg"",""time"":507},{""stimulus"":""img/red_wl/11.jpg"",""time"":555}]","[]"
"image-keyboard-response","126","105936","0.0-5.0-1.61","63d881ab484805569b553bd8","bdp_lott","Fri Mar 24 2023 16:50:23 GMT-0700 (Mountain Standard Time)","263121","green","red","","120","","","","choice","","img/red_wl/choose11.jpg","1","164","green","0.5","0.5","0.5","w","",""
"animation","127","106549","0.0-5.0-2.61","63d881ab484805569b553bd8","bdp_lott","Fri Mar 24 2023 16:50:23 GMT-0700 (Mountain Standard Time)","263121","green","red","","","","","","","","","","164","","","","","","[{""stimulus"":""img/green_wl/1.jpg"",""time"":53},{""stimulus"":""img/green_wl/2.jpg"",""time"":101},{""stimulus"":""img/green_wl/3.jpg"",""time"":165},{""stimulus"":""img/green_wl/4.jpg"",""time"":213},{""stimulus"":""img/green_wl/5.jpg"",""time"":261},{""stimulus"":""img/green_wl/6.jpg"",""time"":309},{""stimulus"":""img/green_wl/7.jpg"",""time"":357},{""stimulus"":""img/green_wl/8.jpg"",""time"":405},{""stimulus"":""img/green_wl/9.jpg"",""time"":453},{""stimulus"":""img/green_wl/10.jpg"",""time"":501},{""stimulus"":""img/green_wl/11.jpg"",""time"":551}]","[]"
"image-keyboard-response","128","106951","0.0-5.0-1.62","63d881ab484805569b553bd8","bdp_lott","Fri Mar 24 2023 16:50:23 GMT-0700 (Mountain Standard Time)","263121","green","red","","402","","","","choice","","img/green_wl/choose11.jpg","1","163","green","0.5","0.5","0.5","w","",""
"animation","129","107564","0.0-5.0-2.62","63d881ab484805569b553bd8","bdp_lott","Fri Mar 24 2023 16:50:23 GMT-0700 (Mountain Standard Time)","263121","green","red","","","","","","","","","","163","","","","","","[{""stimulus"":""img/green_wl/1.jpg"",""time"":51},{""stimulus"":""img/green_wl/2.jpg"",""time"":100},{""stimulus"":""img/green_wl/3.jpg"",""time"":155},{""stimulus"":""img/green_wl/4.jpg"",""time"":201},{""stimulus"":""img/green_wl/5.jpg"",""time"":265},{""stimulus"":""img/green_wl/6.jpg"",""time"":301},{""stimulus"":""img/green_wl/7.jpg"",""time"":360},{""stimulus"":""img/green_wl/8.jpg"",""time"":401},{""stimulus"":""img/green_wl/9.jpg"",""time"":455},{""stimulus"":""img/green_wl/10.jpg"",""time"":501},{""stimulus"":""img/green_wl/11.jpg"",""time"":565}]","[]"
"image-keyboard-response","130","107959","0.0-5.0-1.63","63d881ab484805569b553bd8","bdp_lott","Fri Mar 24 2023 16:50:23 GMT-0700 (Mountain Standard Time)","263121","green","red","","395","","","","choice","","img/green_wl/choose11.jpg","1","162","green","0.5","0.5","0.5","l","",""
"animation","131","108566","0.0-5.0-2.63","63d881ab484805569b553bd8","bdp_lott","Fri Mar 24 2023 16:50:23 GMT-0700 (Mountain Standard Time)","263121","green","red","","","","","","","","","","162","","","","","","[{""stimulus"":""img/green_ll/1.jpg"",""time"":50},{""stimulus"":""img/green_ll/2.jpg"",""time"":101},{""stimulus"":""img/green_ll/3.jpg"",""time"":162},{""stimulus"":""img/green_ll/4.jpg"",""time"":210},{""stimulus"":""img/green_ll/5.jpg"",""time"":258},{""stimulus"":""img/green_ll/6.jpg"",""time"":301},{""stimulus"":""img/green_ll/7.jpg"",""time"":353},{""stimulus"":""img/green_ll/8.jpg"",""time"":401},{""stimulus"":""img/green_ll/9.jpg"",""time"":464},{""stimulus"":""img/green_ll/10.jpg"",""time"":512},{""stimulus"":""img/green_ll/11.jpg"",""time"":559}]","[]"
"image-keyboard-response","132","109047","0.0-5.0-1.64","63d881ab484805569b553bd8","bdp_lott","Fri Mar 24 2023 16:50:23 GMT-0700 (Mountain Standard Time)","263121","green","red","","481","","","","choice","","img/green_ll/choose11.jpg","2","161","red","0.5","0.5","0.5","w","",""
"animation","133","109648","0.0-5.0-2.64","63d881ab484805569b553bd8","bdp_lott","Fri Mar 24 2023 16:50:23 GMT-0700 (Mountain Standard Time)","263121","green","red","","","","","","","","","","161","","","","","","[{""stimulus"":""img/red_lw/1.jpg"",""time"":60},{""stimulus"":""img/red_lw/2.jpg"",""time"":107},{""stimulus"":""img/red_lw/3.jpg"",""time"":155},{""stimulus"":""img/red_lw/4.jpg"",""time"":202},{""stimulus"":""img/red_lw/5.jpg"",""time"":266},{""stimulus"":""img/red_lw/6.jpg"",""time"":314},{""stimulus"":""img/red_lw/7.jpg"",""time"":352},{""stimulus"":""img/red_lw/8.jpg"",""time"":410},{""stimulus"":""img/red_lw/9.jpg"",""time"":451},{""stimulus"":""img/red_lw/10.jpg"",""time"":506},{""stimulus"":""img/red_lw/11.jpg"",""time"":554}]","[]"
"image-keyboard-response","134","110080","0.0-5.0-1.65","63d881ab484805569b553bd8","bdp_lott","Fri Mar 24 2023 16:50:23 GMT-0700 (Mountain Standard Time)","263121","green","red","","431","","","","choice","","img/red_lw/choose11.jpg","2","160","red","0.5","0.5","0.5","w","",""
"animation","135","110682","0.0-5.0-2.65","63d881ab484805569b553bd8","bdp_lott","Fri Mar 24 2023 16:50:23 GMT-0700 (Mountain Standard Time)","263121","green","red","","","","","","","","","","160","","","","","","[{""stimulus"":""img/red_lw/1.jpg"",""time"":51},{""stimulus"":""img/red_lw/2.jpg"",""time"":101},{""stimulus"":""img/red_lw/3.jpg"",""time"":156},{""stimulus"":""img/red_lw/4.jpg"",""time"":203},{""stimulus"":""img/red_lw/5.jpg"",""time"":251},{""stimulus"":""img/red_lw/6.jpg"",""time"":314},{""stimulus"":""img/red_lw/7.jpg"",""time"":362},{""stimulus"":""img/red_lw/8.jpg"",""time"":410},{""stimulus"":""img/red_lw/9.jpg"",""time"":458},{""stimulus"":""img/red_lw/10.jpg"",""time"":505},{""stimulus"":""img/red_lw/11.jpg"",""time"":553}]","[]"
"image-keyboard-response","136","111035","0.0-5.0-1.66","63d881ab484805569b553bd8","bdp_lott","Fri Mar 24 2023 16:50:23 GMT-0700 (Mountain Standard Time)","263121","green","red","","352","","","","choice","","img/red_lw/choose11.jpg","2","159","red","0.5","0.5","0.5","w","",""
"animation","137","111640","0.0-5.0-2.66","63d881ab484805569b553bd8","bdp_lott","Fri Mar 24 2023 16:50:23 GMT-0700 (Mountain Standard Time)","263121","green","red","","","","","","","","","","159","","","","","","[{""stimulus"":""img/red_lw/1.jpg"",""time"":63},{""stimulus"":""img/red_lw/2.jpg"",""time"":101},{""stimulus"":""img/red_lw/3.jpg"",""time"":158},{""stimulus"":""img/red_lw/4.jpg"",""time"":206},{""stimulus"":""img/red_lw/5.jpg"",""time"":254},{""stimulus"":""img/red_lw/6.jpg"",""time"":302},{""stimulus"":""img/red_lw/7.jpg"",""time"":366},{""stimulus"":""img/red_lw/8.jpg"",""time"":414},{""stimulus"":""img/red_lw/9.jpg"",""time"":452},{""stimulus"":""img/red_lw/10.jpg"",""time"":509},{""stimulus"":""img/red_lw/11.jpg"",""time"":557}]","[]"
"image-keyboard-response","138","111927","0.0-5.0-1.67","63d881ab484805569b553bd8","bdp_lott","Fri Mar 24 2023 16:50:23 GMT-0700 (Mountain Standard Time)","263121","green","red","","287","","","","choice","","img/red_lw/choose11.jpg","2","158","red","0.5","0.5","0.5","l","",""
"animation","139","112533","0.0-5.0-2.67","63d881ab484805569b553bd8","bdp_lott","Fri Mar 24 2023 16:50:23 GMT-0700 (Mountain Standard Time)","263121","green","red","","","","","","","","","","158","","","","","","[{""stimulus"":""img/red_ll/1.jpg"",""time"":51},{""stimulus"":""img/red_ll/2.jpg"",""time"":101},{""stimulus"":""img/red_ll/3.jpg"",""time"":160},{""stimulus"":""img/red_ll/4.jpg"",""time"":207},{""stimulus"":""img/red_ll/5.jpg"",""time"":254},{""stimulus"":""img/red_ll/6.jpg"",""time"":302},{""stimulus"":""img/red_ll/7.jpg"",""time"":366},{""stimulus"":""img/red_ll/8.jpg"",""time"":414},{""stimulus"":""img/red_ll/9.jpg"",""time"":451},{""stimulus"":""img/red_ll/10.jpg"",""time"":510},{""stimulus"":""img/red_ll/11.jpg"",""time"":557}]","[]"
"image-keyboard-response","140","113589","0.0-5.0-1.68","63d881ab484805569b553bd8","bdp_lott","Fri Mar 24 2023 16:50:23 GMT-0700 (Mountain Standard Time)","263121","green","red","","1056","","","","choice","","img/red_ll/choose11.jpg","2","157","red","0.5","0.5","0.5","w","",""
"animation","141","114192","0.0-5.0-2.68","63d881ab484805569b553bd8","bdp_lott","Fri Mar 24 2023 16:50:23 GMT-0700 (Mountain Standard Time)","263121","green","red","","","","","","","","","","157","","","","","","[{""stimulus"":""img/red_lw/1.jpg"",""time"":51},{""stimulus"":""img/red_lw/2.jpg"",""time"":110},{""stimulus"":""img/red_lw/3.jpg"",""time"":158},{""stimulus"":""img/red_lw/4.jpg"",""time"":206},{""stimulus"":""img/red_lw/5.jpg"",""time"":253},{""stimulus"":""img/red_lw/6.jpg"",""time"":301},{""stimulus"":""img/red_lw/7.jpg"",""time"":366},{""stimulus"":""img/red_lw/8.jpg"",""time"":413},{""stimulus"":""img/red_lw/9.jpg"",""time"":461},{""stimulus"":""img/red_lw/10.jpg"",""time"":508},{""stimulus"":""img/red_lw/11.jpg"",""time"":556}]","[]"
"image-keyboard-response","142","114590","0.0-5.0-1.69","63d881ab484805569b553bd8","bdp_lott","Fri Mar 24 2023 16:50:23 GMT-0700 (Mountain Standard Time)","263121","green","red","","397","","","","choice","","img/red_lw/choose11.jpg","2","156","red","0.5","0.5","0.5","w","",""
"animation","143","115197","0.0-5.0-2.69","63d881ab484805569b553bd8","bdp_lott","Fri Mar 24 2023 16:50:23 GMT-0700 (Mountain Standard Time)","263121","green","red","","","","","","","","","","156","","","","","","[{""stimulus"":""img/red_lw/1.jpg"",""time"":66},{""stimulus"":""img/red_lw/2.jpg"",""time"":101},{""stimulus"":""img/red_lw/3.jpg"",""time"":151},{""stimulus"":""img/red_lw/4.jpg"",""time"":209},{""stimulus"":""img/red_lw/5.jpg"",""time"":252},{""stimulus"":""img/red_lw/6.jpg"",""time"":305},{""stimulus"":""img/red_lw/7.jpg"",""time"":353},{""stimulus"":""img/red_lw/8.jpg"",""time"":416},{""stimulus"":""img/red_lw/9.jpg"",""time"":452},{""stimulus"":""img/red_lw/10.jpg"",""time"":512},{""stimulus"":""img/red_lw/11.jpg"",""time"":559}]","[]"
"image-keyboard-response","144","115489","0.0-5.0-1.70","63d881ab484805569b553bd8","bdp_lott","Fri Mar 24 2023 16:50:23 GMT-0700 (Mountain Standard Time)","263121","green","red","","292","","","","choice","","img/red_lw/choose11.jpg","2","155","red","0.5","0.5","0.5","l","",""
"animation","145","116091","0.0-5.0-2.70","63d881ab484805569b553bd8","bdp_lott","Fri Mar 24 2023 16:50:23 GMT-0700 (Mountain Standard Time)","263121","green","red","","","","","","","","","","155","","","","","","[{""stimulus"":""img/red_ll/1.jpg"",""time"":51},{""stimulus"":""img/red_ll/2.jpg"",""time"":102},{""stimulus"":""img/red_ll/3.jpg"",""time"":155},{""stimulus"":""img/red_ll/4.jpg"",""time"":202},{""stimulus"":""img/red_ll/5.jpg"",""time"":266},{""stimulus"":""img/red_ll/6.jpg"",""time"":314},{""stimulus"":""img/red_ll/7.jpg"",""time"":362},{""stimulus"":""img/red_ll/8.jpg"",""time"":410},{""stimulus"":""img/red_ll/9.jpg"",""time"":458},{""stimulus"":""img/red_ll/10.jpg"",""time"":506},{""stimulus"":""img/red_ll/11.jpg"",""time"":554}]","[]"
"image-keyboard-response","146","116378","0.0-5.0-1.71","63d881ab484805569b553bd8","bdp_lott","Fri Mar 24 2023 16:50:23 GMT-0700 (Mountain Standard Time)","263121","green","red","","287","","","","choice","","img/red_ll/choose11.jpg","2","154","red","0.5","0.5","0.5","w","",""
"animation","147","116985","0.0-5.0-2.71","63d881ab484805569b553bd8","bdp_lott","Fri Mar 24 2023 16:50:23 GMT-0700 (Mountain Standard Time)","263121","green","red","","","","","","","","","","154","","","","","","[{""stimulus"":""img/red_lw/1.jpg"",""time"":51},{""stimulus"":""img/red_lw/2.jpg"",""time"":101},{""stimulus"":""img/red_lw/3.jpg"",""time"":160},{""stimulus"":""img/red_lw/4.jpg"",""time"":201},{""stimulus"":""img/red_lw/5.jpg"",""time"":256},{""stimulus"":""img/red_lw/6.jpg"",""time"":304},{""stimulus"":""img/red_lw/7.jpg"",""time"":352},{""stimulus"":""img/red_lw/8.jpg"",""time"":416},{""stimulus"":""img/red_lw/9.jpg"",""time"":463},{""stimulus"":""img/red_lw/10.jpg"",""time"":511},{""stimulus"":""img/red_lw/11.jpg"",""time"":559}]","[]"
"image-keyboard-response","148","117364","0.0-5.0-1.72","63d881ab484805569b553bd8","bdp_lott","Fri Mar 24 2023 16:50:23 GMT-0700 (Mountain Standard Time)","263121","green","red","","379","","","","choice","","img/red_lw/choose11.jpg","2","153","red","0.5","0.5","0.5","l","",""
"animation","149","117972","0.0-5.0-2.72","63d881ab484805569b553bd8","bdp_lott","Fri Mar 24 2023 16:50:23 GMT-0700 (Mountain Standard Time)","263121","green","red","","","","","","","","","","153","","","","","","[{""stimulus"":""img/red_ll/1.jpg"",""time"":51},{""stimulus"":""img/red_ll/2.jpg"",""time"":101},{""stimulus"":""img/red_ll/3.jpg"",""time"":164},{""stimulus"":""img/red_ll/4.jpg"",""time"":212},{""stimulus"":""img/red_ll/5.jpg"",""time"":259},{""stimulus"":""img/red_ll/6.jpg"",""time"":307},{""stimulus"":""img/red_ll/7.jpg"",""time"":354},{""stimulus"":""img/red_ll/8.jpg"",""time"":402},{""stimulus"":""img/red_ll/9.jpg"",""time"":466},{""stimulus"":""img/red_ll/10.jpg"",""time"":514},{""stimulus"":""img/red_ll/11.jpg"",""time"":561}]","[]"
"image-keyboard-response","150","118794","0.0-5.0-1.73","63d881ab484805569b553bd8","bdp_lott","Fri Mar 24 2023 16:50:23 GMT-0700 (Mountain Standard Time)","263121","green","red","","822","","","","choice","","img/red_ll/choose11.jpg","1","152","green","0.5","0.5","0.5","l","",""
"animation","151","119405","0.0-5.0-2.73","63d881ab484805569b553bd8","bdp_lott","Fri Mar 24 2023 16:50:23 GMT-0700 (Mountain Standard Time)","263121","green","red","","","","","","","","","","152","","","","","","[{""stimulus"":""img/green_ll/1.jpg"",""time"":55},{""stimulus"":""img/green_ll/2.jpg"",""time"":100},{""stimulus"":""img/green_ll/3.jpg"",""time"":165},{""stimulus"":""img/green_ll/4.jpg"",""time"":213},{""stimulus"":""img/green_ll/5.jpg"",""time"":261},{""stimulus"":""img/green_ll/6.jpg"",""time"":309},{""stimulus"":""img/green_ll/7.jpg"",""time"":351},{""stimulus"":""img/green_ll/8.jpg"",""time"":404},{""stimulus"":""img/green_ll/9.jpg"",""time"":451},{""stimulus"":""img/green_ll/10.jpg"",""time"":514},{""stimulus"":""img/green_ll/11.jpg"",""time"":562}]","[]"
"image-keyboard-response","152","120026","0.0-5.0-1.74","63d881ab484805569b553bd8","bdp_lott","Fri Mar 24 2023 16:50:23 GMT-0700 (Mountain Standard Time)","263121","green","red","","621","","","","choice","","img/green_ll/choose11.jpg","2","151","red","0.5","0.5","0.5","l","",""
"animation","153","120630","0.0-5.0-2.74","63d881ab484805569b553bd8","bdp_lott","Fri Mar 24 2023 16:50:23 GMT-0700 (Mountain Standard Time)","263121","green","red","","","","","","","","","","151","","","","","","[{""stimulus"":""img/red_ll/1.jpg"",""time"":61},{""stimulus"":""img/red_ll/2.jpg"",""time"":109},{""stimulus"":""img/red_ll/3.jpg"",""time"":156},{""stimulus"":""img/red_ll/4.jpg"",""time"":205},{""stimulus"":""img/red_ll/5.jpg"",""time"":253},{""stimulus"":""img/red_ll/6.jpg"",""time"":317},{""stimulus"":""img/red_ll/7.jpg"",""time"":364},{""stimulus"":""img/red_ll/8.jpg"",""time"":412},{""stimulus"":""img/red_ll/9.jpg"",""time"":459},{""stimulus"":""img/red_ll/10.jpg"",""time"":508},{""stimulus"":""img/red_ll/11.jpg"",""time"":556}]","[]"
"image-keyboard-response","154","121063","0.0-5.0-1.75","63d881ab484805569b553bd8","bdp_lott","Fri Mar 24 2023 16:50:23 GMT-0700 (Mountain Standard Time)","263121","green","red","","432","","","","choice","","img/red_ll/choose11.jpg","2","150","red","0.5","0.5","0.5","w","",""
"animation","155","121666","0.0-5.0-2.75","63d881ab484805569b553bd8","bdp_lott","Fri Mar 24 2023 16:50:23 GMT-0700 (Mountain Standard Time)","263121","green","red","","","","","","","","","","150","","","","","","[{""stimulus"":""img/red_lw/1.jpg"",""time"":51},{""stimulus"":""img/red_lw/2.jpg"",""time"":111},{""stimulus"":""img/red_lw/3.jpg"",""time"":159},{""stimulus"":""img/red_lw/4.jpg"",""time"":206},{""stimulus"":""img/red_lw/5.jpg"",""time"":252},{""stimulus"":""img/red_lw/6.jpg"",""time"":317},{""stimulus"":""img/red_lw/7.jpg"",""time"":364},{""stimulus"":""img/red_lw/8.jpg"",""time"":411},{""stimulus"":""img/red_lw/9.jpg"",""time"":460},{""stimulus"":""img/red_lw/10.jpg"",""time"":508},{""stimulus"":""img/red_lw/11.jpg"",""time"":556}]","[]"
"image-keyboard-response","156","122098","0.0-5.0-1.76","63d881ab484805569b553bd8","bdp_lott","Fri Mar 24 2023 16:50:23 GMT-0700 (Mountain Standard Time)","263121","green","red","","430","","","","choice","","img/red_lw/choose11.jpg","2","149","red","0.5","0.1","0.1","l","",""
"animation","157","122704","0.0-5.0-2.76","63d881ab484805569b553bd8","bdp_lott","Fri Mar 24 2023 16:50:23 GMT-0700 (Mountain Standard Time)","263121","green","red","","","","","","","","","","149","","","","","","[{""stimulus"":""img/red_ll/1.jpg"",""time"":64},{""stimulus"":""img/red_ll/2.jpg"",""time"":102},{""stimulus"":""img/red_ll/3.jpg"",""time"":159},{""stimulus"":""img/red_ll/4.jpg"",""time"":207},{""stimulus"":""img/red_ll/5.jpg"",""time"":251},{""stimulus"":""img/red_ll/6.jpg"",""time"":303},{""stimulus"":""img/red_ll/7.jpg"",""time"":366},{""stimulus"":""img/red_ll/8.jpg"",""time"":414},{""stimulus"":""img/red_ll/9.jpg"",""time"":451},{""stimulus"":""img/red_ll/10.jpg"",""time"":510},{""stimulus"":""img/red_ll/11.jpg"",""time"":558}]","[]"
"image-keyboard-response","158","123294","0.0-5.0-1.77","63d881ab484805569b553bd8","bdp_lott","Fri Mar 24 2023 16:50:23 GMT-0700 (Mountain Standard Time)","263121","green","red","","590","","","","choice","","img/red_ll/choose11.jpg","2","148","red","0.5","0.1","0.1","l","",""
"animation","159","123900","0.0-5.0-2.77","63d881ab484805569b553bd8","bdp_lott","Fri Mar 24 2023 16:50:23 GMT-0700 (Mountain Standard Time)","263121","green","red","","","","","","","","","","148","","","","","","[{""stimulus"":""img/red_ll/1.jpg"",""time"":52},{""stimulus"":""img/red_ll/2.jpg"",""time"":102},{""stimulus"":""img/red_ll/3.jpg"",""time"":161},{""stimulus"":""img/red_ll/4.jpg"",""time"":207},{""stimulus"":""img/red_ll/5.jpg"",""time"":255},{""stimulus"":""img/red_ll/6.jpg"",""time"":301},{""stimulus"":""img/red_ll/7.jpg"",""time"":351},{""stimulus"":""img/red_ll/8.jpg"",""time"":414},{""stimulus"":""img/red_ll/9.jpg"",""time"":462},{""stimulus"":""img/red_ll/10.jpg"",""time"":510},{""stimulus"":""img/red_ll/11.jpg"",""time"":558}]","[]"
"image-keyboard-response","160","124370","0.0-5.0-1.78","63d881ab484805569b553bd8","bdp_lott","Fri Mar 24 2023 16:50:23 GMT-0700 (Mountain Standard Time)","263121","green","red","","468","","","","choice","","img/red_ll/choose11.jpg","2","147","red","0.5","0.1","0.1","l","",""
"animation","161","124985","0.0-5.0-2.78","63d881ab484805569b553bd8","bdp_lott","Fri Mar 24 2023 16:50:23 GMT-0700 (Mountain Standard Time)","263121","green","red","","","","","","","","","","147","","","","","","[{""stimulus"":""img/red_ll/1.jpg"",""time"":57},{""stimulus"":""img/red_ll/2.jpg"",""time"":106},{""stimulus"":""img/red_ll/3.jpg"",""time"":154},{""stimulus"":""img/red_ll/4.jpg"",""time"":202},{""stimulus"":""img/red_ll/5.jpg"",""time"":264},{""stimulus"":""img/red_ll/6.jpg"",""time"":312},{""stimulus"":""img/red_ll/7.jpg"",""time"":359},{""stimulus"":""img/red_ll/8.jpg"",""time"":408},{""stimulus"":""img/red_ll/9.jpg"",""time"":456},{""stimulus"":""img/red_ll/10.jpg"",""time"":500},{""stimulus"":""img/red_ll/11.jpg"",""time"":552}]","[]"
"image-keyboard-response","162","125268","0.0-5.0-1.79","63d881ab484805569b553bd8","bdp_lott","Fri Mar 24 2023 16:50:23 GMT-0700 (Mountain Standard Time)","263121","green","red","","282","","","","choice","","img/red_ll/choose11.jpg","2","146","red","0.5","0.1","0.1","l","",""
"animation","163","125879","0.0-5.0-2.79","63d881ab484805569b553bd8","bdp_lott","Fri Mar 24 2023 16:50:23 GMT-0700 (Mountain Standard Time)","263121","green","red","","","","","","","","","","146","","","","","","[{""stimulus"":""img/red_ll/1.jpg"",""time"":51},{""stimulus"":""img/red_ll/2.jpg"",""time"":102},{""stimulus"":""img/red_ll/3.jpg"",""time"":164},{""stimulus"":""img/red_ll/4.jpg"",""time"":213},{""stimulus"":""img/red_ll/5.jpg"",""time"":253},{""stimulus"":""img/red_ll/6.jpg"",""time"":309},{""stimulus"":""img/red_ll/7.jpg"",""time"":357},{""stimulus"":""img/red_ll/8.jpg"",""time"":402},{""stimulus"":""img/red_ll/9.jpg"",""time"":453},{""stimulus"":""img/red_ll/10.jpg"",""time"":516},{""stimulus"":""img/red_ll/11.jpg"",""time"":564}]","[]"
"image-keyboard-response","164","126292","0.0-5.0-1.80","63d881ab484805569b553bd8","bdp_lott","Fri Mar 24 2023 16:50:23 GMT-0700 (Mountain Standard Time)","263121","green","red","","412","","","","choice","","img/red_ll/choose11.jpg","2","145","red","0.5","0.1","0.1","l","",""
"animation","165","126900","0.0-5.0-2.80","63d881ab484805569b553bd8","bdp_lott","Fri Mar 24 2023 16:50:23 GMT-0700 (Mountain Standard Time)","263121","green","red","","","","","","","","","","145","","","","","","[{""stimulus"":""img/red_ll/1.jpg"",""time"":52},{""stimulus"":""img/red_ll/2.jpg"",""time"":102},{""stimulus"":""img/red_ll/3.jpg"",""time"":163},{""stimulus"":""img/red_ll/4.jpg"",""time"":211},{""stimulus"":""img/red_ll/5.jpg"",""time"":258},{""stimulus"":""img/red_ll/6.jpg"",""time"":305},{""stimulus"":""img/red_ll/7.jpg"",""time"":354},{""stimulus"":""img/red_ll/8.jpg"",""time"":417},{""stimulus"":""img/red_ll/9.jpg"",""time"":465},{""stimulus"":""img/red_ll/10.jpg"",""time"":513},{""stimulus"":""img/red_ll/11.jpg"",""time"":561}]","[]"
"image-keyboard-response","166","127191","0.0-5.0-1.81","63d881ab484805569b553bd8","bdp_lott","Fri Mar 24 2023 16:50:23 GMT-0700 (Mountain Standard Time)","263121","green","red","","290","","","","choice","","img/red_ll/choose11.jpg","2","144","red","0.5","0.1","0.1","l","",""
"animation","167","127794","0.0-5.0-2.81","63d881ab484805569b553bd8","bdp_lott","Fri Mar 24 2023 16:50:23 GMT-0700 (Mountain Standard Time)","263121","green","red","","","","","","","","","","144","","","","","","[{""stimulus"":""img/red_ll/1.jpg"",""time"":52},{""stimulus"":""img/red_ll/2.jpg"",""time"":102},{""stimulus"":""img/red_ll/3.jpg"",""time"":157},{""stimulus"":""img/red_ll/4.jpg"",""time"":205},{""stimulus"":""img/red_ll/5.jpg"",""time"":252},{""stimulus"":""img/red_ll/6.jpg"",""time"":316},{""stimulus"":""img/red_ll/7.jpg"",""time"":364},{""stimulus"":""img/red_ll/8.jpg"",""time"":412},{""stimulus"":""img/red_ll/9.jpg"",""time"":460},{""stimulus"":""img/red_ll/10.jpg"",""time"":502},{""stimulus"":""img/red_ll/11.jpg"",""time"":556}]","[]"
"image-keyboard-response","168","127985","0.0-5.0-1.82","63d881ab484805569b553bd8","bdp_lott","Fri Mar 24 2023 16:50:23 GMT-0700 (Mountain Standard Time)","263121","green","red","","190","","","","choice","","img/red_ll/choose11.jpg","1","143","green","0.5","0.1","0.5","w","",""
"animation","169","128590","0.0-5.0-2.82","63d881ab484805569b553bd8","bdp_lott","Fri Mar 24 2023 16:50:23 GMT-0700 (Mountain Standard Time)","263121","green","red","","","","","","","","","","143","","","","","","[{""stimulus"":""img/green_wl/1.jpg"",""time"":65},{""stimulus"":""img/green_wl/2.jpg"",""time"":102},{""stimulus"":""img/green_wl/3.jpg"",""time"":161},{""stimulus"":""img/green_wl/4.jpg"",""time"":209},{""stimulus"":""img/green_wl/5.jpg"",""time"":257},{""stimulus"":""img/green_wl/6.jpg"",""time"":305},{""stimulus"":""img/green_wl/7.jpg"",""time"":353},{""stimulus"":""img/green_wl/8.jpg"",""time"":416},{""stimulus"":""img/green_wl/9.jpg"",""time"":463},{""stimulus"":""img/green_wl/10.jpg"",""time"":511},{""stimulus"":""img/green_wl/11.jpg"",""time"":558}]","[]"
"image-keyboard-response","170","128852","0.0-5.0-1.83","63d881ab484805569b553bd8","bdp_lott","Fri Mar 24 2023 16:50:23 GMT-0700 (Mountain Standard Time)","263121","green","red","","261","","","","choice","","img/green_wl/choose11.jpg","1","142","green","0.5","0.1","0.5","l","",""
"animation","171","129454","0.0-5.0-2.83","63d881ab484805569b553bd8","bdp_lott","Fri Mar 24 2023 16:50:23 GMT-0700 (Mountain Standard Time)","263121","green","red","","","","","","","","","","142","","","","","","[{""stimulus"":""img/green_ll/1.jpg"",""time"":57},{""stimulus"":""img/green_ll/2.jpg"",""time"":101},{""stimulus"":""img/green_ll/3.jpg"",""time"":153},{""stimulus"":""img/green_ll/4.jpg"",""time"":201},{""stimulus"":""img/green_ll/5.jpg"",""time"":265},{""stimulus"":""img/green_ll/6.jpg"",""time"":301},{""stimulus"":""img/green_ll/7.jpg"",""time"":352},{""stimulus"":""img/green_ll/8.jpg"",""time"":408},{""stimulus"":""img/green_ll/9.jpg"",""time"":455},{""stimulus"":""img/green_ll/10.jpg"",""time"":502},{""stimulus"":""img/green_ll/11.jpg"",""time"":565}]","[]"
"image-keyboard-response","172","129575","0.0-5.0-1.84","63d881ab484805569b553bd8","bdp_lott","Fri Mar 24 2023 16:50:23 GMT-0700 (Mountain Standard Time)","263121","green","red","","120","","","","choice","","img/green_ll/choose11.jpg","2","141","red","0.5","0.1","0.1","l","",""
"animation","173","130181","0.0-5.0-2.84","63d881ab484805569b553bd8","bdp_lott","Fri Mar 24 2023 16:50:23 GMT-0700 (Mountain Standard Time)","263121","green","red","","","","","","","","","","141","","","","","","[{""stimulus"":""img/red_ll/1.jpg"",""time"":51},{""stimulus"":""img/red_ll/2.jpg"",""time"":102},{""stimulus"":""img/red_ll/3.jpg"",""time"":163},{""stimulus"":""img/red_ll/4.jpg"",""time"":202},{""stimulus"":""img/red_ll/5.jpg"",""time"":259},{""stimulus"":""img/red_ll/6.jpg"",""time"":307},{""stimulus"":""img/red_ll/7.jpg"",""time"":354},{""stimulus"":""img/red_ll/8.jpg"",""time"":417},{""stimulus"":""img/red_ll/9.jpg"",""time"":465},{""stimulus"":""img/red_ll/10.jpg"",""time"":513},{""stimulus"":""img/red_ll/11.jpg"",""time"":560}]","[]"
"image-keyboard-response","174","130398","0.0-5.0-1.85","63d881ab484805569b553bd8","bdp_lott","Fri Mar 24 2023 16:50:23 GMT-0700 (Mountain Standard Time)","263121","green","red","","216","","","","choice","","img/red_ll/choose11.jpg","1","140","green","0.5","0.1","0.5","w","",""
"animation","175","131011","0.0-5.0-2.85","63d881ab484805569b553bd8","bdp_lott","Fri Mar 24 2023 16:50:23 GMT-0700 (Mountain Standard Time)","263121","green","red","","","","","","","","","","140","","","","","","[{""stimulus"":""img/green_wl/1.jpg"",""time"":56},{""stimulus"":""img/green_wl/2.jpg"",""time"":104},{""stimulus"":""img/green_wl/3.jpg"",""time"":152},{""stimulus"":""img/green_wl/4.jpg"",""time"":216},{""stimulus"":""img/green_wl/5.jpg"",""time"":252},{""stimulus"":""img/green_wl/6.jpg"",""time"":311},{""stimulus"":""img/green_wl/7.jpg"",""time"":359},{""stimulus"":""img/green_wl/8.jpg"",""time"":407},{""stimulus"":""img/green_wl/9.jpg"",""time"":455},{""stimulus"":""img/green_wl/10.jpg"",""time"":503},{""stimulus"":""img/green_wl/11.jpg"",""time"":566}]","[]"
"image-keyboard-response","176","131140","0.0-5.0-1.86","63d881ab484805569b553bd8","bdp_lott","Fri Mar 24 2023 16:50:23 GMT-0700 (Mountain Standard Time)","263121","green","red","","128","","","","choice","","img/green_wl/choose11.jpg","2","139","red","0.5","0.1","0.1","l","",""
"animation","177","131746","0.0-5.0-2.86","63d881ab484805569b553bd8","bdp_lott","Fri Mar 24 2023 16:50:23 GMT-0700 (Mountain Standard Time)","263121","green","red","","","","","","","","","","139","","","","","","[{""stimulus"":""img/red_wl/1.jpg"",""time"":64},{""stimulus"":""img/red_wl/2.jpg"",""time"":102},{""stimulus"":""img/red_wl/3.jpg"",""time"":160},{""stimulus"":""img/red_wl/4.jpg"",""time"":207},{""stimulus"":""img/red_wl/5.jpg"",""time"":255},{""stimulus"":""img/red_wl/6.jpg"",""time"":303},{""stimulus"":""img/red_wl/7.jpg"",""time"":366},{""stimulus"":""img/red_wl/8.jpg"",""time"":414},{""stimulus"":""img/red_wl/9.jpg"",""time"":462},{""stimulus"":""img/red_wl/10.jpg"",""time"":510},{""stimulus"":""img/red_wl/11.jpg"",""time"":558}]","[]"
"image-keyboard-response","178","131873","0.0-5.0-1.87","63d881ab484805569b553bd8","bdp_lott","Fri Mar 24 2023 16:50:23 GMT-0700 (Mountain Standard Time)","263121","green","red","","127","","","","choice","","img/red_wl/choose11.jpg","1","138","green","0.5","0.1","0.5","w","",""
"animation","179","132475","0.0-5.0-2.87","63d881ab484805569b553bd8","bdp_lott","Fri Mar 24 2023 16:50:23 GMT-0700 (Mountain Standard Time)","263121","green","red","","","","","","","","","","138","","","","","","[{""stimulus"":""img/green_wl/1.jpg"",""time"":52},{""stimulus"":""img/green_wl/2.jpg"",""time"":102},{""stimulus"":""img/green_wl/3.jpg"",""time"":161},{""stimulus"":""img/green_wl/4.jpg"",""time"":209},{""stimulus"":""img/green_wl/5.jpg"",""time"":252},{""stimulus"":""img/green_wl/6.jpg"",""time"":305},{""stimulus"":""img/green_wl/7.jpg"",""time"":351},{""stimulus"":""img/green_wl/8.jpg"",""time"":416},{""stimulus"":""img/green_wl/9.jpg"",""time"":464},{""stimulus"":""img/green_wl/10.jpg"",""time"":512},{""stimulus"":""img/green_wl/11.jpg"",""time"":559}]","[]"
"image-keyboard-response","180","132785","0.0-5.0-1.88","63d881ab484805569b553bd8","bdp_lott","Fri Mar 24 2023 16:50:23 GMT-0700 (Mountain Standard Time)","263121","green","red","","310","","","","choice","","img/green_wl/choose11.jpg","2","137","red","0.5","0.1","0.1","l","",""
"animation","181","133390","0.0-5.0-2.88","63d881ab484805569b553bd8","bdp_lott","Fri Mar 24 2023 16:50:23 GMT-0700 (Mountain Standard Time)","263121","green","red","","","","","","","","","","137","","","","","","[{""stimulus"":""img/red_wl/1.jpg"",""time"":51},{""stimulus"":""img/red_wl/2.jpg"",""time"":101},{""stimulus"":""img/red_wl/3.jpg"",""time"":158},{""stimulus"":""img/red_wl/4.jpg"",""time"":206},{""stimulus"":""img/red_wl/5.jpg"",""time"":254},{""stimulus"":""img/red_wl/6.jpg"",""time"":302},{""stimulus"":""img/red_wl/7.jpg"",""time"":366},{""stimulus"":""img/red_wl/8.jpg"",""time"":414},{""stimulus"":""img/red_wl/9.jpg"",""time"":462},{""stimulus"":""img/red_wl/10.jpg"",""time"":510},{""stimulus"":""img/red_wl/11.jpg"",""time"":558}]","[]"
"image-keyboard-response","182","133547","0.0-5.0-1.89","63d881ab484805569b553bd8","bdp_lott","Fri Mar 24 2023 16:50:23 GMT-0700 (Mountain Standard Time)","263121","green","red","","157","","","","choice","","img/red_wl/choose11.jpg","1","136","green","0.5","0.1","0.5","l","",""
"animation","183","134148","0.0-5.0-2.89","63d881ab484805569b553bd8","bdp_lott","Fri Mar 24 2023 16:50:23 GMT-0700 (Mountain Standard Time)","263121","green","red","","","","","","","","","","136","","","","","","[{""stimulus"":""img/green_ll/1.jpg"",""time"":50},{""stimulus"":""img/green_ll/2.jpg"",""time"":101},{""stimulus"":""img/green_ll/3.jpg"",""time"":150},{""stimulus"":""img/green_ll/4.jpg"",""time"":208},{""stimulus"":""img/green_ll/5.jpg"",""time"":252},{""stimulus"":""img/green_ll/6.jpg"",""time"":302},{""stimulus"":""img/green_ll/7.jpg"",""time"":350},{""stimulus"":""img/green_ll/8.jpg"",""time"":414},{""stimulus"":""img/green_ll/9.jpg"",""time"":462},{""stimulus"":""img/green_ll/10.jpg"",""time"":509},{""stimulus"":""img/green_ll/11.jpg"",""time"":557}]","[]"
"image-keyboard-response","184","134457","0.0-5.0-1.90","63d881ab484805569b553bd8","bdp_lott","Fri Mar 24 2023 16:50:23 GMT-0700 (Mountain Standard Time)","263121","green","red","","309","","","","choice","","img/green_ll/choose11.jpg","1","135","green","0.5","0.1","0.5","w","",""
"animation","185","135064","0.0-5.0-2.90","63d881ab484805569b553bd8","bdp_lott","Fri Mar 24 2023 16:50:23 GMT-0700 (Mountain Standard Time)","263121","green","red","","","","","","","","","","135","","","","","","[{""stimulus"":""img/green_wl/1.jpg"",""time"":65},{""stimulus"":""img/green_wl/2.jpg"",""time"":101},{""stimulus"":""img/green_wl/3.jpg"",""time"":161},{""stimulus"":""img/green_wl/4.jpg"",""time"":202},{""stimulus"":""img/green_wl/5.jpg"",""time"":251},{""stimulus"":""img/green_wl/6.jpg"",""time"":304},{""stimulus"":""img/green_wl/7.jpg"",""time"":352},{""stimulus"":""img/green_wl/8.jpg"",""time"":415},{""stimulus"":""img/green_wl/9.jpg"",""time"":463},{""stimulus"":""img/green_wl/10.jpg"",""time"":511},{""stimulus"":""img/green_wl/11.jpg"",""time"":559}]","[]"
"image-keyboard-response","186","136075","0.0-5.0-1.91","63d881ab484805569b553bd8","bdp_lott","Fri Mar 24 2023 16:50:23 GMT-0700 (Mountain Standard Time)","263121","green","red","","1011","","","","choice","","img/green_wl/choose11.jpg","1","134","green","0.5","0.1","0.5","l","",""
"animation","187","136691","0.0-5.0-2.91","63d881ab484805569b553bd8","bdp_lott","Fri Mar 24 2023 16:50:23 GMT-0700 (Mountain Standard Time)","263121","green","red","","","","","","","","","","134","","","","","","[{""stimulus"":""img/green_ll/1.jpg"",""time"":51},{""stimulus"":""img/green_ll/2.jpg"",""time"":100},{""stimulus"":""img/green_ll/3.jpg"",""time"":151},{""stimulus"":""img/green_ll/4.jpg"",""time"":215},{""stimulus"":""img/green_ll/5.jpg"",""time"":251},{""stimulus"":""img/green_ll/6.jpg"",""time"":311},{""stimulus"":""img/green_ll/7.jpg"",""time"":359},{""stimulus"":""img/green_ll/8.jpg"",""time"":400},{""stimulus"":""img/green_ll/9.jpg"",""time"":455},{""stimulus"":""img/green_ll/10.jpg"",""time"":503},{""stimulus"":""img/green_ll/11.jpg"",""time"":551}]","[]"
"image-keyboard-response","188","137048","0.0-5.0-1.92","63d881ab484805569b553bd8","bdp_lott","Fri Mar 24 2023 16:50:23 GMT-0700 (Mountain Standard Time)","263121","green","red","","357","","","","choice","","img/green_ll/choose11.jpg","1","133","green","0.5","0.1","0.5","l","",""
"animation","189","137662","0.0-5.0-2.92","63d881ab484805569b553bd8","bdp_lott","Fri Mar 24 2023 16:50:23 GMT-0700 (Mountain Standard Time)","263121","green","red","","","","","","","","","","133","","","","","","[{""stimulus"":""img/green_ll/1.jpg"",""time"":50},{""stimulus"":""img/green_ll/2.jpg"",""time"":104},{""stimulus"":""img/green_ll/3.jpg"",""time"":152},{""stimulus"":""img/green_ll/4.jpg"",""time"":215},{""stimulus"":""img/green_ll/5.jpg"",""time"":261},{""stimulus"":""img/green_ll/6.jpg"",""time"":311},{""stimulus"":""img/green_ll/7.jpg"",""time"":359},{""stimulus"":""img/green_ll/8.jpg"",""time"":407},{""stimulus"":""img/green_ll/9.jpg"",""time"":455},{""stimulus"":""img/green_ll/10.jpg"",""time"":502},{""stimulus"":""img/green_ll/11.jpg"",""time"":565}]","[]"
"image-keyboard-response","190","138177","0.0-5.0-1.93","63d881ab484805569b553bd8","bdp_lott","Fri Mar 24 2023 16:50:23 GMT-0700 (Mountain Standard Time)","263121","green","red","","515","","","","choice","","img/green_ll/choose11.jpg","2","132","red","0.5","0.1","0.1","l","",""
"animation","191","138778","0.0-5.0-2.93","63d881ab484805569b553bd8","bdp_lott","Fri Mar 24 2023 16:50:23 GMT-0700 (Mountain Standard Time)","263121","green","red","","","","","","","","","","132","","","","","","[{""stimulus"":""img/red_ll/1.jpg"",""time"":51},{""stimulus"":""img/red_ll/2.jpg"",""time"":107},{""stimulus"":""img/red_ll/3.jpg"",""time"":155},{""stimulus"":""img/red_ll/4.jpg"",""time"":203},{""stimulus"":""img/red_ll/5.jpg"",""time"":265},{""stimulus"":""img/red_ll/6.jpg"",""time"":303},{""stimulus"":""img/red_ll/7.jpg"",""time"":361},{""stimulus"":""img/red_ll/8.jpg"",""time"":402},{""stimulus"":""img/red_ll/9.jpg"",""time"":457},{""stimulus"":""img/red_ll/10.jpg"",""time"":505},{""stimulus"":""img/red_ll/11.jpg"",""time"":553}]","[]"
"image-keyboard-response","192","139035","0.0-5.0-1.94","63d881ab484805569b553bd8","bdp_lott","Fri Mar 24 2023 16:50:23 GMT-0700 (Mountain Standard Time)","263121","green","red","","256","","","","choice","","img/red_ll/choose11.jpg","1","131","green","0.5","0.1","0.5","w","",""
