"trial_type","trial_index","time_elapsed","internal_node_id","subject_id","task","startTime","totalTime","fairMachine","unfairMachine","view_history","rt","event","trial","time","trialtype","success","stimulus","key_press","roundsLeft","chosen","pFairMachWin","pUnfairMachWin","pTrialWin","outcome","animation_sequence","responses"
"pavlovia","0","2","0.0-0.0","5d3bcf190e510a001b3df200","bdp_lott","Sun Mar 26 2023 15:18:11 GMT-0500 (Central Daylight Time)","270442","green","red","","","","","","","","","","","","","","","","",""
"instructions","1","2600","0.0-1.0","5d3bcf190e510a001b3df200","bdp_lott","Sun Mar 26 2023 15:18:11 GMT-0500 (Central Daylight Time)","270442","green","red","[{""page_index"":0,""viewing_time"":2596}]","2597","","","","","","","","","","","","","","",""
"","","","","5d3bcf190e510a001b3df200","bdp_lott","Sun Mar 26 2023 15:18:11 GMT-0500 (Central Daylight Time)","270442","green","red","","","fullscreenenter","2","3876","fullscreenenter","","","","","","","","","","",""
"fullscreen","2","4863","0.0-2.0","5d3bcf190e510a001b3df200","bdp_lott","Sun Mar 26 2023 15:18:11 GMT-0500 (Central Daylight Time)","270442","green","red","","","","","","","true","","","","","","","","","",""
"instructions","3","28273","0.0-4.0","5d3bcf190e510a001b3df200","bdp_lott","Sun Mar 26 2023 15:18:11 GMT-0500 (Central Daylight Time)","270442","green","red","[{""page_index"":0,""viewing_time"":23409}]","23409","","","","","","","","","","","","","","",""
"image-keyboard-response","4","31662","0.0-5.0-1.0","5d3bcf190e510a001b3df200","bdp_lott","Sun Mar 26 2023 15:18:11 GMT-0500 (Central Daylight Time)","270442","green","red","","3387","","","","choice","","img/red_ll/initchoose11.jpg","1","225","green","0.5","0.5","0.5","w","",""
"animation","5","32268","0.0-5.0-2.0","5d3bcf190e510a001b3df200","bdp_lott","Sun Mar 26 2023 15:18:11 GMT-0500 (Central Daylight Time)","270442","green","red","","","","","","","","","","225","","","","","","[{""stimulus"":""img/green_wl/1.jpg"",""time"":66},{""stimulus"":""img/green_wl/2.jpg"",""time"":107},{""stimulus"":""img/green_wl/3.jpg"",""time"":163},{""stimulus"":""img/green_wl/4.jpg"",""time"":207},{""stimulus"":""img/green_wl/5.jpg"",""time"":263},{""stimulus"":""img/green_wl/6.jpg"",""time"":307},{""stimulus"":""img/green_wl/7.jpg"",""time"":357},{""stimulus"":""img/green_wl/8.jpg"",""time"":407},{""stimulus"":""img/green_wl/9.jpg"",""time"":463},{""stimulus"":""img/green_wl/10.jpg"",""time"":508},{""stimulus"":""img/green_wl/11.jpg"",""time"":556}]","[]"
"image-keyboard-response","6","34424","0.0-5.0-1.1","5d3bcf190e510a001b3df200","bdp_lott","Sun Mar 26 2023 15:18:11 GMT-0500 (Central Daylight Time)","270442","green","red","","2156","","","","choice","","img/green_wl/choose11.jpg","1","224","green","0.5","0.5","0.5","l","",""
"animation","7","35044","0.0-5.0-2.1","5d3bcf190e510a001b3df200","bdp_lott","Sun Mar 26 2023 15:18:11 GMT-0500 (Central Daylight Time)","270442","green","red","","","","","","","","","","224","","","","","","[{""stimulus"":""img/green_ll/1.jpg"",""time"":53},{""stimulus"":""img/green_ll/2.jpg"",""time"":103},{""stimulus"":""img/green_ll/3.jpg"",""time"":151},{""stimulus"":""img/green_ll/4.jpg"",""time"":210},{""stimulus"":""img/green_ll/5.jpg"",""time"":252},{""stimulus"":""img/green_ll/6.jpg"",""time"":302},{""stimulus"":""img/green_ll/7.jpg"",""time"":366},{""stimulus"":""img/green_ll/8.jpg"",""time"":403},{""stimulus"":""img/green_ll/9.jpg"",""time"":453},{""stimulus"":""img/green_ll/10.jpg"",""time"":503},{""stimulus"":""img/green_ll/11.jpg"",""time"":552}]","[]"
"image-keyboard-response","8","36361","0.0-5.0-1.2","5d3bcf190e510a001b3df200","bdp_lott","Sun Mar 26 2023 15:18:11 GMT-0500 (Central Daylight Time)","270442","green","red","","1316","","","","choice","","img/green_ll/choose11.jpg","1","223","green","0.5","0.5","0.5","w","",""
"animation","9","36961","0.0-5.0-2.2","5d3bcf190e510a001b3df200","bdp_lott","Sun Mar 26 2023 15:18:11 GMT-0500 (Central Daylight Time)","270442","green","red","","","","","","","","","","223","","","","","","[{""stimulus"":""img/green_wl/1.jpg"",""time"":53},{""stimulus"":""img/green_wl/2.jpg"",""time"":108},{""stimulus"":""img/green_wl/3.jpg"",""time"":156},{""stimulus"":""img/green_wl/4.jpg"",""time"":224},{""stimulus"":""img/green_wl/5.jpg"",""time"":250},{""stimulus"":""img/green_wl/6.jpg"",""time"":323},{""stimulus"":""img/green_wl/7.jpg"",""time"":351},{""stimulus"":""img/green_wl/8.jpg"",""time"":401},{""stimulus"":""img/green_wl/9.jpg"",""time"":451},{""stimulus"":""img/green_wl/10.jpg"",""time"":501},{""stimulus"":""img/green_wl/11.jpg"",""time"":551}]","[]"
"image-keyboard-response","10","38439","0.0-5.0-1.3","5d3bcf190e510a001b3df200","bdp_lott","Sun Mar 26 2023 15:18:11 GMT-0500 (Central Daylight Time)","270442","green","red","","1477","","","","choice","","img/green_wl/choose11.jpg","2","222","red","0.5","0.5","0.5","w","",""
"animation","11","39044","0.0-5.0-2.3","5d3bcf190e510a001b3df200","bdp_lott","Sun Mar 26 2023 15:18:11 GMT-0500 (Central Daylight Time)","270442","green","red","","","","","","","","","","222","","","","","","[{""stimulus"":""img/red_ww/1.jpg"",""time"":53},{""stimulus"":""img/red_ww/2.jpg"",""time"":101},{""stimulus"":""img/red_ww/3.jpg"",""time"":151},{""stimulus"":""img/red_ww/4.jpg"",""time"":201},{""stimulus"":""img/red_ww/5.jpg"",""time"":252},{""stimulus"":""img/red_ww/6.jpg"",""time"":306},{""stimulus"":""img/red_ww/7.jpg"",""time"":352},{""stimulus"":""img/red_ww/8.jpg"",""time"":401},{""stimulus"":""img/red_ww/9.jpg"",""time"":455},{""stimulus"":""img/red_ww/10.jpg"",""time"":504},{""stimulus"":""img/red_ww/11.jpg"",""time"":556}]","[]"
"image-keyboard-response","12","39903","0.0-5.0-1.4","5d3bcf190e510a001b3df200","bdp_lott","Sun Mar 26 2023 15:18:11 GMT-0500 (Central Daylight Time)","270442","green","red","","858","","","","choice","","img/red_ww/choose11.jpg","1","221","green","0.5","0.5","0.5","l","",""
"animation","13","40527","0.0-5.0-2.4","5d3bcf190e510a001b3df200","bdp_lott","Sun Mar 26 2023 15:18:11 GMT-0500 (Central Daylight Time)","270442","green","red","","","","","","","","","","221","","","","","","[{""stimulus"":""img/green_lw/1.jpg"",""time"":62},{""stimulus"":""img/green_lw/2.jpg"",""time"":109},{""stimulus"":""img/green_lw/3.jpg"",""time"":158},{""stimulus"":""img/green_lw/4.jpg"",""time"":209},{""stimulus"":""img/green_lw/5.jpg"",""time"":257},{""stimulus"":""img/green_lw/6.jpg"",""time"":300},{""stimulus"":""img/green_lw/7.jpg"",""time"":357},{""stimulus"":""img/green_lw/8.jpg"",""time"":408},{""stimulus"":""img/green_lw/9.jpg"",""time"":457},{""stimulus"":""img/green_lw/10.jpg"",""time"":525},{""stimulus"":""img/green_lw/11.jpg"",""time"":556}]","[]"
"image-keyboard-response","14","41357","0.0-5.0-1.5","5d3bcf190e510a001b3df200","bdp_lott","Sun Mar 26 2023 15:18:11 GMT-0500 (Central Daylight Time)","270442","green","red","","830","","","","choice","","img/green_lw/choose11.jpg","2","220","red","0.5","0.5","0.5","w","",""
"animation","15","41965","0.0-5.0-2.5","5d3bcf190e510a001b3df200","bdp_lott","Sun Mar 26 2023 15:18:11 GMT-0500 (Central Daylight Time)","270442","green","red","","","","","","","","","","220","","","","","","[{""stimulus"":""img/red_lw/1.jpg"",""time"":61},{""stimulus"":""img/red_lw/2.jpg"",""time"":103},{""stimulus"":""img/red_lw/3.jpg"",""time"":154},{""stimulus"":""img/red_lw/4.jpg"",""time"":203},{""stimulus"":""img/red_lw/5.jpg"",""time"":262},{""stimulus"":""img/red_lw/6.jpg"",""time"":301},{""stimulus"":""img/red_lw/7.jpg"",""time"":354},{""stimulus"":""img/red_lw/8.jpg"",""time"":404},{""stimulus"":""img/red_lw/9.jpg"",""time"":454},{""stimulus"":""img/red_lw/10.jpg"",""time"":504},{""stimulus"":""img/red_lw/11.jpg"",""time"":554}]","[]"
"image-keyboard-response","16","42720","0.0-5.0-1.6","5d3bcf190e510a001b3df200","bdp_lott","Sun Mar 26 2023 15:18:11 GMT-0500 (Central Daylight Time)","270442","green","red","","754","","","","choice","","img/red_lw/choose11.jpg","2","219","red","0.5","0.5","0.5","l","",""
"animation","17","43329","0.0-5.0-2.6","5d3bcf190e510a001b3df200","bdp_lott","Sun Mar 26 2023 15:18:11 GMT-0500 (Central Daylight Time)","270442","green","red","","","","","","","","","","219","","","","","","[{""stimulus"":""img/red_ll/1.jpg"",""time"":62},{""stimulus"":""img/red_ll/2.jpg"",""time"":106},{""stimulus"":""img/red_ll/3.jpg"",""time"":154},{""stimulus"":""img/red_ll/4.jpg"",""time"":206},{""stimulus"":""img/red_ll/5.jpg"",""time"":255},{""stimulus"":""img/red_ll/6.jpg"",""time"":306},{""stimulus"":""img/red_ll/7.jpg"",""time"":356},{""stimulus"":""img/red_ll/8.jpg"",""time"":404},{""stimulus"":""img/red_ll/9.jpg"",""time"":450},{""stimulus"":""img/red_ll/10.jpg"",""time"":508},{""stimulus"":""img/red_ll/11.jpg"",""time"":557}]","[]"
"image-keyboard-response","18","44363","0.0-5.0-1.7","5d3bcf190e510a001b3df200","bdp_lott","Sun Mar 26 2023 15:18:11 GMT-0500 (Central Daylight Time)","270442","green","red","","1032","","","","choice","","img/red_ll/choose11.jpg","2","218","red","0.5","0.5","0.5","w","",""
"animation","19","44965","0.0-5.0-2.7","5d3bcf190e510a001b3df200","bdp_lott","Sun Mar 26 2023 15:18:11 GMT-0500 (Central Daylight Time)","270442","green","red","","","","","","","","","","218","","","","","","[{""stimulus"":""img/red_lw/1.jpg"",""time"":62},{""stimulus"":""img/red_lw/2.jpg"",""time"":107},{""stimulus"":""img/red_lw/3.jpg"",""time"":156},{""stimulus"":""img/red_lw/4.jpg"",""time"":212},{""stimulus"":""img/red_lw/5.jpg"",""time"":252},{""stimulus"":""img/red_lw/6.jpg"",""time"":301},{""stimulus"":""img/red_lw/7.jpg"",""time"":358},{""stimulus"":""img/red_lw/8.jpg"",""time"":402},{""stimulus"":""img/red_lw/9.jpg"",""time"":450},{""stimulus"":""img/red_lw/10.jpg"",""time"":506},{""stimulus"":""img/red_lw/11.jpg"",""time"":554}]","[]"
"image-keyboard-response","20","46559","0.0-5.0-1.8","5d3bcf190e510a001b3df200","bdp_lott","Sun Mar 26 2023 15:18:11 GMT-0500 (Central Daylight Time)","270442","green","red","","1594","","","","choice","","img/red_lw/choose11.jpg","2","217","red","0.5","0.5","0.5","l","",""
"animation","21","47180","0.0-5.0-2.8","5d3bcf190e510a001b3df200","bdp_lott","Sun Mar 26 2023 15:18:11 GMT-0500 (Central Daylight Time)","270442","green","red","","","","","","","","","","217","","","","","","[{""stimulus"":""img/red_ll/1.jpg"",""time"":53},{""stimulus"":""img/red_ll/2.jpg"",""time"":102},{""stimulus"":""img/red_ll/3.jpg"",""time"":152},{""stimulus"":""img/red_ll/4.jpg"",""time"":202},{""stimulus"":""img/red_ll/5.jpg"",""time"":251},{""stimulus"":""img/red_ll/6.jpg"",""time"":308},{""stimulus"":""img/red_ll/7.jpg"",""time"":352},{""stimulus"":""img/red_ll/8.jpg"",""time"":408},{""stimulus"":""img/red_ll/9.jpg"",""time"":453},{""stimulus"":""img/red_ll/10.jpg"",""time"":508},{""stimulus"":""img/red_ll/11.jpg"",""time"":550}]","[]"
"image-keyboard-response","22","47907","0.0-5.0-1.9","5d3bcf190e510a001b3df200","bdp_lott","Sun Mar 26 2023 15:18:11 GMT-0500 (Central Daylight Time)","270442","green","red","","726","","","","choice","","img/red_ll/choose11.jpg","2","216","red","0.5","0.5","0.5","w","",""
"animation","23","48511","0.0-5.0-2.9","5d3bcf190e510a001b3df200","bdp_lott","Sun Mar 26 2023 15:18:11 GMT-0500 (Central Daylight Time)","270442","green","red","","","","","","","","","","216","","","","","","[{""stimulus"":""img/red_lw/1.jpg"",""time"":62},{""stimulus"":""img/red_lw/2.jpg"",""time"":104},{""stimulus"":""img/red_lw/3.jpg"",""time"":154},{""stimulus"":""img/red_lw/4.jpg"",""time"":201},{""stimulus"":""img/red_lw/5.jpg"",""time"":258},{""stimulus"":""img/red_lw/6.jpg"",""time"":323},{""stimulus"":""img/red_lw/7.jpg"",""time"":354},{""stimulus"":""img/red_lw/8.jpg"",""time"":404},{""stimulus"":""img/red_lw/9.jpg"",""time"":451},{""stimulus"":""img/red_lw/10.jpg"",""time"":505},{""stimulus"":""img/red_lw/11.jpg"",""time"":554}]","[]"
"image-keyboard-response","24","49528","0.0-5.0-1.10","5d3bcf190e510a001b3df200","bdp_lott","Sun Mar 26 2023 15:18:11 GMT-0500 (Central Daylight Time)","270442","green","red","","1016","","","","choice","","img/red_lw/choose11.jpg","2","215","red","0.5","0.5","0.5","w","",""
"animation","25","50136","0.0-5.0-2.10","5d3bcf190e510a001b3df200","bdp_lott","Sun Mar 26 2023 15:18:11 GMT-0500 (Central Daylight Time)","270442","green","red","","","","","","","","","","215","","","","","","[{""stimulus"":""img/red_lw/1.jpg"",""time"":66},{""stimulus"":""img/red_lw/2.jpg"",""time"":107},{""stimulus"":""img/red_lw/3.jpg"",""time"":158},{""stimulus"":""img/red_lw/4.jpg"",""time"":208},{""stimulus"":""img/red_lw/5.jpg"",""time"":251},{""stimulus"":""img/red_lw/6.jpg"",""time"":301},{""stimulus"":""img/red_lw/7.jpg"",""time"":364},{""stimulus"":""img/red_lw/8.jpg"",""time"":408},{""stimulus"":""img/red_lw/9.jpg"",""time"":451},{""stimulus"":""img/red_lw/10.jpg"",""time"":508},{""stimulus"":""img/red_lw/11.jpg"",""time"":557}]","[]"
"image-keyboard-response","26","50619","0.0-5.0-1.11","5d3bcf190e510a001b3df200","bdp_lott","Sun Mar 26 2023 15:18:11 GMT-0500 (Central Daylight Time)","270442","green","red","","483","","","","choice","","img/red_lw/choose11.jpg","2","214","red","0.5","0.5","0.5","w","",""
"animation","27","51227","0.0-5.0-2.11","5d3bcf190e510a001b3df200","bdp_lott","Sun Mar 26 2023 15:18:11 GMT-0500 (Central Daylight Time)","270442","green","red","","","","","","","","","","214","","","","","","[{""stimulus"":""img/red_lw/1.jpg"",""time"":55},{""stimulus"":""img/red_lw/2.jpg"",""time"":108},{""stimulus"":""img/red_lw/3.jpg"",""time"":159},{""stimulus"":""img/red_lw/4.jpg"",""time"":208},{""stimulus"":""img/red_lw/5.jpg"",""time"":258},{""stimulus"":""img/red_lw/6.jpg"",""time"":306},{""stimulus"":""img/red_lw/7.jpg"",""time"":358},{""stimulus"":""img/red_lw/8.jpg"",""time"":409},{""stimulus"":""img/red_lw/9.jpg"",""time"":456},{""stimulus"":""img/red_lw/10.jpg"",""time"":508},{""stimulus"":""img/red_lw/11.jpg"",""time"":559}]","[]"
"image-keyboard-response","28","51718","0.0-5.0-1.12","5d3bcf190e510a001b3df200","bdp_lott","Sun Mar 26 2023 15:18:11 GMT-0500 (Central Daylight Time)","270442","green","red","","490","","","","choice","","img/red_lw/choose11.jpg","2","213","red","0.5","0.5","0.5","l","",""
"animation","29","52319","0.0-5.0-2.12","5d3bcf190e510a001b3df200","bdp_lott","Sun Mar 26 2023 15:18:11 GMT-0500 (Central Daylight Time)","270442","green","red","","","","","","","","","","213","","","","","","[{""stimulus"":""img/red_ll/1.jpg"",""time"":62},{""stimulus"":""img/red_ll/2.jpg"",""time"":101},{""stimulus"":""img/red_ll/3.jpg"",""time"":151},{""stimulus"":""img/red_ll/4.jpg"",""time"":207},{""stimulus"":""img/red_ll/5.jpg"",""time"":251},{""stimulus"":""img/red_ll/6.jpg"",""time"":301},{""stimulus"":""img/red_ll/7.jpg"",""time"":356},{""stimulus"":""img/red_ll/8.jpg"",""time"":402},{""stimulus"":""img/red_ll/9.jpg"",""time"":451},{""stimulus"":""img/red_ll/10.jpg"",""time"":501},{""stimulus"":""img/red_ll/11.jpg"",""time"":551}]","[]"
"image-keyboard-response","30","52737","0.0-5.0-1.13","5d3bcf190e510a001b3df200","bdp_lott","Sun Mar 26 2023 15:18:11 GMT-0500 (Central Daylight Time)","270442","green","red","","417","","","","choice","","img/red_ll/choose11.jpg","2","212","red","0.5","0.5","0.5","l","",""
"animation","31","53343","0.0-5.0-2.13","5d3bcf190e510a001b3df200","bdp_lott","Sun Mar 26 2023 15:18:11 GMT-0500 (Central Daylight Time)","270442","green","red","","","","","","","","","","212","","","","","","[{""stimulus"":""img/red_ll/1.jpg"",""time"":61},{""stimulus"":""img/red_ll/2.jpg"",""time"":107},{""stimulus"":""img/red_ll/3.jpg"",""time"":157},{""stimulus"":""img/red_ll/4.jpg"",""time"":202},{""stimulus"":""img/red_ll/5.jpg"",""time"":274},{""stimulus"":""img/red_ll/6.jpg"",""time"":307},{""stimulus"":""img/red_ll/7.jpg"",""time"":356},{""stimulus"":""img/red_ll/8.jpg"",""time"":407},{""stimulus"":""img/red_ll/9.jpg"",""time"":457},{""stimulus"":""img/red_ll/10.jpg"",""time"":508},{""stimulus"":""img/red_ll/11.jpg"",""time"":559}]","[]"
"image-keyboard-response","32","53733","0.0-5.0-1.14","5d3bcf190e510a001b3df200","bdp_lott","Sun Mar 26 2023 15:18:11 GMT-0500 (Central Daylight Time)","270442","green","red","","389","","","","choice","","img/red_ll/choose11.jpg","2","211","red","0.5","0.5","0.5","l","",""
"animation","33","54336","0.0-5.0-2.14","5d3bcf190e510a001b3df200","bdp_lott","Sun Mar 26 2023 15:18:11 GMT-0500 (Central Daylight Time)","270442","green","red","","","","","","","","","","211","","","","","","[{""stimulus"":""img/red_ll/1.jpg"",""time"":62},{""stimulus"":""img/red_ll/2.jpg"",""time"":102},{""stimulus"":""img/red_ll/3.jpg"",""time"":151},{""stimulus"":""img/red_ll/4.jpg"",""time"":207},{""stimulus"":""img/red_ll/5.jpg"",""time"":255},{""stimulus"":""img/red_ll/6.jpg"",""time"":304},{""stimulus"":""img/red_ll/7.jpg"",""time"":351},{""stimulus"":""img/red_ll/8.jpg"",""time"":402},{""stimulus"":""img/red_ll/9.jpg"",""time"":457},{""stimulus"":""img/red_ll/10.jpg"",""time"":501},{""stimulus"":""img/red_ll/11.jpg"",""time"":551}]","[]"
"image-keyboard-response","34","55535","0.0-5.0-1.15","5d3bcf190e510a001b3df200","bdp_lott","Sun Mar 26 2023 15:18:11 GMT-0500 (Central Daylight Time)","270442","green","red","","1199","","","","choice","","img/red_ll/choose11.jpg","1","210","green","0.5","0.5","0.5","l","",""
"animation","35","56141","0.0-5.0-2.15","5d3bcf190e510a001b3df200","bdp_lott","Sun Mar 26 2023 15:18:11 GMT-0500 (Central Daylight Time)","270442","green","red","","","","","","","","","","210","","","","","","[{""stimulus"":""img/green_ll/1.jpg"",""time"":65},{""stimulus"":""img/green_ll/2.jpg"",""time"":109},{""stimulus"":""img/green_ll/3.jpg"",""time"":158},{""stimulus"":""img/green_ll/4.jpg"",""time"":207},{""stimulus"":""img/green_ll/5.jpg"",""time"":258},{""stimulus"":""img/green_ll/6.jpg"",""time"":310},{""stimulus"":""img/green_ll/7.jpg"",""time"":359},{""stimulus"":""img/green_ll/8.jpg"",""time"":409},{""stimulus"":""img/green_ll/9.jpg"",""time"":458},{""stimulus"":""img/green_ll/10.jpg"",""time"":506},{""stimulus"":""img/green_ll/11.jpg"",""time"":559}]","[]"
"image-keyboard-response","36","56567","0.0-5.0-1.16","5d3bcf190e510a001b3df200","bdp_lott","Sun Mar 26 2023 15:18:11 GMT-0500 (Central Daylight Time)","270442","green","red","","426","","","","choice","","img/green_ll/choose11.jpg","1","209","green","0.5","0.5","0.5","w","",""
"animation","37","57183","0.0-5.0-2.16","5d3bcf190e510a001b3df200","bdp_lott","Sun Mar 26 2023 15:18:11 GMT-0500 (Central Daylight Time)","270442","green","red","","","","","","","","","","209","","","","","","[{""stimulus"":""img/green_wl/1.jpg"",""time"":58},{""stimulus"":""img/green_wl/2.jpg"",""time"":107},{""stimulus"":""img/green_wl/3.jpg"",""time"":152},{""stimulus"":""img/green_wl/4.jpg"",""time"":210},{""stimulus"":""img/green_wl/5.jpg"",""time"":254},{""stimulus"":""img/green_wl/6.jpg"",""time"":302},{""stimulus"":""img/green_wl/7.jpg"",""time"":352},{""stimulus"":""img/green_wl/8.jpg"",""time"":402},{""stimulus"":""img/green_wl/9.jpg"",""time"":455},{""stimulus"":""img/green_wl/10.jpg"",""time"":502},{""stimulus"":""img/green_wl/11.jpg"",""time"":560}]","[]"
"image-keyboard-response","38","57774","0.0-5.0-1.17","5d3bcf190e510a001b3df200","bdp_lott","Sun Mar 26 2023 15:18:11 GMT-0500 (Central Daylight Time)","270442","green","red","","591","","","","choice","","img/green_wl/choose11.jpg","1","208","green","0.5","0.5","0.5","l","",""
"animation","39","58375","0.0-5.0-2.17","5d3bcf190e510a001b3df200","bdp_lott","Sun Mar 26 2023 15:18:11 GMT-0500 (Central Daylight Time)","270442","green","red","","","","","","","","","","208","","","","","","[{""stimulus"":""img/green_ll/1.jpg"",""time"":53},{""stimulus"":""img/green_ll/2.jpg"",""time"":104},{""stimulus"":""img/green_ll/3.jpg"",""time"":151},{""stimulus"":""img/green_ll/4.jpg"",""time"":203},{""stimulus"":""img/green_ll/5.jpg"",""time"":262},{""stimulus"":""img/green_ll/6.jpg"",""time"":308},{""stimulus"":""img/green_ll/7.jpg"",""time"":351},{""stimulus"":""img/green_ll/8.jpg"",""time"":409},{""stimulus"":""img/green_ll/9.jpg"",""time"":454},{""stimulus"":""img/green_ll/10.jpg"",""time"":502},{""stimulus"":""img/green_ll/11.jpg"",""time"":557}]","[]"
"image-keyboard-response","40","58875","0.0-5.0-1.18","5d3bcf190e510a001b3df200","bdp_lott","Sun Mar 26 2023 15:18:11 GMT-0500 (Central Daylight Time)","270442","green","red","","500","","","","choice","","img/green_ll/choose11.jpg","1","207","green","0.5","0.5","0.5","w","",""
"animation","41","59500","0.0-5.0-2.18","5d3bcf190e510a001b3df200","bdp_lott","Sun Mar 26 2023 15:18:11 GMT-0500 (Central Daylight Time)","270442","green","red","","","","","","","","","","207","","","","","","[{""stimulus"":""img/green_wl/1.jpg"",""time"":58},{""stimulus"":""img/green_wl/2.jpg"",""time"":102},{""stimulus"":""img/green_wl/3.jpg"",""time"":153},{""stimulus"":""img/green_wl/4.jpg"",""time"":201},{""stimulus"":""img/green_wl/5.jpg"",""time"":264},{""stimulus"":""img/green_wl/6.jpg"",""time"":301},{""stimulus"":""img/green_wl/7.jpg"",""time"":357},{""stimulus"":""img/green_wl/8.jpg"",""time"":402},{""stimulus"":""img/green_wl/9.jpg"",""time"":452},{""stimulus"":""img/green_wl/10.jpg"",""time"":503},{""stimulus"":""img/green_wl/11.jpg"",""time"":551}]","[]"
"image-keyboard-response","42","59930","0.0-5.0-1.19","5d3bcf190e510a001b3df200","bdp_lott","Sun Mar 26 2023 15:18:11 GMT-0500 (Central Daylight Time)","270442","green","red","","430","","","","choice","","img/green_wl/choose11.jpg","1","206","green","0.5","0.5","0.5","w","",""
"animation","43","60535","0.0-5.0-2.19","5d3bcf190e510a001b3df200","bdp_lott","Sun Mar 26 2023 15:18:11 GMT-0500 (Central Daylight Time)","270442","green","red","","","","","","","","","","206","","","","","","[{""stimulus"":""img/green_wl/1.jpg"",""time"":62},{""stimulus"":""img/green_wl/2.jpg"",""time"":114},{""stimulus"":""img/green_wl/3.jpg"",""time"":153},{""stimulus"":""img/green_wl/4.jpg"",""time"":201},{""stimulus"":""img/green_wl/5.jpg"",""time"":264},{""stimulus"":""img/green_wl/6.jpg"",""time"":306},{""stimulus"":""img/green_wl/7.jpg"",""time"":363},{""stimulus"":""img/green_wl/8.jpg"",""time"":406},{""stimulus"":""img/green_wl/9.jpg"",""time"":455},{""stimulus"":""img/green_wl/10.jpg"",""time"":504},{""stimulus"":""img/green_wl/11.jpg"",""time"":552}]","[]"
"image-keyboard-response","44","61175","0.0-5.0-1.20","5d3bcf190e510a001b3df200","bdp_lott","Sun Mar 26 2023 15:18:11 GMT-0500 (Central Daylight Time)","270442","green","red","","639","","","","choice","","img/green_wl/choose11.jpg","1","205","green","0.5","0.5","0.5","w","",""
"animation","45","61776","0.0-5.0-2.20","5d3bcf190e510a001b3df200","bdp_lott","Sun Mar 26 2023 15:18:11 GMT-0500 (Central Daylight Time)","270442","green","red","","","","","","","","","","205","","","","","","[{""stimulus"":""img/green_wl/1.jpg"",""time"":51},{""stimulus"":""img/green_wl/2.jpg"",""time"":107},{""stimulus"":""img/green_wl/3.jpg"",""time"":151},{""stimulus"":""img/green_wl/4.jpg"",""time"":216},{""stimulus"":""img/green_wl/5.jpg"",""time"":253},{""stimulus"":""img/green_wl/6.jpg"",""time"":303},{""stimulus"":""img/green_wl/7.jpg"",""time"":353},{""stimulus"":""img/green_wl/8.jpg"",""time"":403},{""stimulus"":""img/green_wl/9.jpg"",""time"":453},{""stimulus"":""img/green_wl/10.jpg"",""time"":501},{""stimulus"":""img/green_wl/11.jpg"",""time"":551}]","[]"
"image-keyboard-response","46","62564","0.0-5.0-1.21","5d3bcf190e510a001b3df200","bdp_lott","Sun Mar 26 2023 15:18:11 GMT-0500 (Central Daylight Time)","270442","green","red","","787","","","","choice","","img/green_wl/choose11.jpg","1","204","green","0.5","0.5","0.5","w","",""
"animation","47","63165","0.0-5.0-2.21","5d3bcf190e510a001b3df200","bdp_lott","Sun Mar 26 2023 15:18:11 GMT-0500 (Central Daylight Time)","270442","green","red","","","","","","","","","","204","","","","","","[{""stimulus"":""img/green_wl/1.jpg"",""time"":61},{""stimulus"":""img/green_wl/2.jpg"",""time"":113},{""stimulus"":""img/green_wl/3.jpg"",""time"":157},{""stimulus"":""img/green_wl/4.jpg"",""time"":205},{""stimulus"":""img/green_wl/5.jpg"",""time"":265},{""stimulus"":""img/green_wl/6.jpg"",""time"":305},{""stimulus"":""img/green_wl/7.jpg"",""time"":355},{""stimulus"":""img/green_wl/8.jpg"",""time"":405},{""stimulus"":""img/green_wl/9.jpg"",""time"":454},{""stimulus"":""img/green_wl/10.jpg"",""time"":505},{""stimulus"":""img/green_wl/11.jpg"",""time"":553}]","[]"
"image-keyboard-response","48","63620","0.0-5.0-1.22","5d3bcf190e510a001b3df200","bdp_lott","Sun Mar 26 2023 15:18:11 GMT-0500 (Central Daylight Time)","270442","green","red","","454","","","","choice","","img/green_wl/choose11.jpg","1","203","green","0.5","0.5","0.5","l","",""
"animation","49","64220","0.0-5.0-2.22","5d3bcf190e510a001b3df200","bdp_lott","Sun Mar 26 2023 15:18:11 GMT-0500 (Central Daylight Time)","270442","green","red","","","","","","","","","","203","","","","","","[{""stimulus"":""img/green_ll/1.jpg"",""time"":53},{""stimulus"":""img/green_ll/2.jpg"",""time"":107},{""stimulus"":""img/green_ll/3.jpg"",""time"":154},{""stimulus"":""img/green_ll/4.jpg"",""time"":207},{""stimulus"":""img/green_ll/5.jpg"",""time"":251},{""stimulus"":""img/green_ll/6.jpg"",""time"":324},{""stimulus"":""img/green_ll/7.jpg"",""time"":356},{""stimulus"":""img/green_ll/8.jpg"",""time"":406},{""stimulus"":""img/green_ll/9.jpg"",""time"":458},{""stimulus"":""img/green_ll/10.jpg"",""time"":508},{""stimulus"":""img/green_ll/11.jpg"",""time"":551}]","[]"
"image-keyboard-response","50","64702","0.0-5.0-1.23","5d3bcf190e510a001b3df200","bdp_lott","Sun Mar 26 2023 15:18:11 GMT-0500 (Central Daylight Time)","270442","green","red","","481","","","","choice","","img/green_ll/choose11.jpg","1","202","green","0.5","0.5","0.5","w","",""
"animation","51","65304","0.0-5.0-2.23","5d3bcf190e510a001b3df200","bdp_lott","Sun Mar 26 2023 15:18:11 GMT-0500 (Central Daylight Time)","270442","green","red","","","","","","","","","","202","","","","","","[{""stimulus"":""img/green_wl/1.jpg"",""time"":61},{""stimulus"":""img/green_wl/2.jpg"",""time"":101},{""stimulus"":""img/green_wl/3.jpg"",""time"":155},{""stimulus"":""img/green_wl/4.jpg"",""time"":203},{""stimulus"":""img/green_wl/5.jpg"",""time"":258},{""stimulus"":""img/green_wl/6.jpg"",""time"":305},{""stimulus"":""img/green_wl/7.jpg"",""time"":351},{""stimulus"":""img/green_wl/8.jpg"",""time"":415},{""stimulus"":""img/green_wl/9.jpg"",""time"":459},{""stimulus"":""img/green_wl/10.jpg"",""time"":508},{""stimulus"":""img/green_wl/11.jpg"",""time"":554}]","[]"
"image-keyboard-response","52","65678","0.0-5.0-1.24","5d3bcf190e510a001b3df200","bdp_lott","Sun Mar 26 2023 15:18:11 GMT-0500 (Central Daylight Time)","270442","green","red","","374","","","","choice","","img/green_wl/choose11.jpg","1","201","green","0.5","0.5","0.5","w","",""
"animation","53","66285","0.0-5.0-2.24","5d3bcf190e510a001b3df200","bdp_lott","Sun Mar 26 2023 15:18:11 GMT-0500 (Central Daylight Time)","270442","green","red","","","","","","","","","","201","","","","","","[{""stimulus"":""img/green_wl/1.jpg"",""time"":53},{""stimulus"":""img/green_wl/2.jpg"",""time"":107},{""stimulus"":""img/green_wl/3.jpg"",""time"":153},{""stimulus"":""img/green_wl/4.jpg"",""time"":204},{""stimulus"":""img/green_wl/5.jpg"",""time"":258},{""stimulus"":""img/green_wl/6.jpg"",""time"":322},{""stimulus"":""img/green_wl/7.jpg"",""time"":357},{""stimulus"":""img/green_wl/8.jpg"",""time"":412},{""stimulus"":""img/green_wl/9.jpg"",""time"":457},{""stimulus"":""img/green_wl/10.jpg"",""time"":507},{""stimulus"":""img/green_wl/11.jpg"",""time"":556}]","[]"
"image-keyboard-response","54","67228","0.0-5.0-1.25","5d3bcf190e510a001b3df200","bdp_lott","Sun Mar 26 2023 15:18:11 GMT-0500 (Central Daylight Time)","270442","green","red","","943","","","","choice","","img/green_wl/choose11.jpg","2","200","red","0.5","0.5","0.5","w","",""
"animation","55","67829","0.0-5.0-2.25","5d3bcf190e510a001b3df200","bdp_lott","Sun Mar 26 2023 15:18:11 GMT-0500 (Central Daylight Time)","270442","green","red","","","","","","","","","","200","","","","","","[{""stimulus"":""img/red_ww/1.jpg"",""time"":62},{""stimulus"":""img/red_ww/2.jpg"",""time"":119},{""stimulus"":""img/red_ww/3.jpg"",""time"":158},{""stimulus"":""img/red_ww/4.jpg"",""time"":215},{""stimulus"":""img/red_ww/5.jpg"",""time"":265},{""stimulus"":""img/red_ww/6.jpg"",""time"":312},{""stimulus"":""img/red_ww/7.jpg"",""time"":352},{""stimulus"":""img/red_ww/8.jpg"",""time"":415},{""stimulus"":""img/red_ww/9.jpg"",""time"":458},{""stimulus"":""img/red_ww/10.jpg"",""time"":507},{""stimulus"":""img/red_ww/11.jpg"",""time"":556}]","[]"
"image-keyboard-response","56","68262","0.0-5.0-1.26","5d3bcf190e510a001b3df200","bdp_lott","Sun Mar 26 2023 15:18:11 GMT-0500 (Central Daylight Time)","270442","green","red","","432","","","","choice","","img/red_ww/choose11.jpg","2","199","red","0.5","0.5","0.5","w","",""
"animation","57","68877","0.0-5.0-2.26","5d3bcf190e510a001b3df200","bdp_lott","Sun Mar 26 2023 15:18:11 GMT-0500 (Central Daylight Time)","270442","green","red","","","","","","","","","","199","","","","","","[{""stimulus"":""img/red_ww/1.jpg"",""time"":63},{""stimulus"":""img/red_ww/2.jpg"",""time"":111},{""stimulus"":""img/red_ww/3.jpg"",""time"":152},{""stimulus"":""img/red_ww/4.jpg"",""time"":206},{""stimulus"":""img/red_ww/5.jpg"",""time"":256},{""stimulus"":""img/red_ww/6.jpg"",""time"":305},{""stimulus"":""img/red_ww/7.jpg"",""time"":356},{""stimulus"":""img/red_ww/8.jpg"",""time"":406},{""stimulus"":""img/red_ww/9.jpg"",""time"":459},{""stimulus"":""img/red_ww/10.jpg"",""time"":506},{""stimulus"":""img/red_ww/11.jpg"",""time"":556}]","[]"
"image-keyboard-response","58","69346","0.0-5.0-1.27","5d3bcf190e510a001b3df200","bdp_lott","Sun Mar 26 2023 15:18:11 GMT-0500 (Central Daylight Time)","270442","green","red","","467","","","","choice","","img/red_ww/choose11.jpg","2","198","red","0.5","0.5","0.5","w","",""
"animation","59","69950","0.0-5.0-2.27","5d3bcf190e510a001b3df200","bdp_lott","Sun Mar 26 2023 15:18:11 GMT-0500 (Central Daylight Time)","270442","green","red","","","","","","","","","","198","","","","","","[{""stimulus"":""img/red_ww/1.jpg"",""time"":58},{""stimulus"":""img/red_ww/2.jpg"",""time"":106},{""stimulus"":""img/red_ww/3.jpg"",""time"":164},{""stimulus"":""img/red_ww/4.jpg"",""time"":205},{""stimulus"":""img/red_ww/5.jpg"",""time"":255},{""stimulus"":""img/red_ww/6.jpg"",""time"":314},{""stimulus"":""img/red_ww/7.jpg"",""time"":356},{""stimulus"":""img/red_ww/8.jpg"",""time"":414},{""stimulus"":""img/red_ww/9.jpg"",""time"":456},{""stimulus"":""img/red_ww/10.jpg"",""time"":506},{""stimulus"":""img/red_ww/11.jpg"",""time"":556}]","[]"
"image-keyboard-response","60","70529","0.0-5.0-1.28","5d3bcf190e510a001b3df200","bdp_lott","Sun Mar 26 2023 15:18:11 GMT-0500 (Central Daylight Time)","270442","green","red","","578","","","","choice","","img/red_ww/choose11.jpg","2","197","red","0.5","0.5","0.5","l","",""
"animation","61","71135","0.0-5.0-2.28","5d3bcf190e510a001b3df200","bdp_lott","Sun Mar 26 2023 15:18:11 GMT-0500 (Central Daylight Time)","270442","green","red","","","","","","","","","","197","","","","","","[{""stimulus"":""img/red_wl/1.jpg"",""time"":63},{""stimulus"":""img/red_wl/2.jpg"",""time"":115},{""stimulus"":""img/red_wl/3.jpg"",""time"":157},{""stimulus"":""img/red_wl/4.jpg"",""time"":213},{""stimulus"":""img/red_wl/5.jpg"",""time"":257},{""stimulus"":""img/red_wl/6.jpg"",""time"":313},{""stimulus"":""img/red_wl/7.jpg"",""time"":356},{""stimulus"":""img/red_wl/8.jpg"",""time"":413},{""stimulus"":""img/red_wl/9.jpg"",""time"":456},{""stimulus"":""img/red_wl/10.jpg"",""time"":507},{""stimulus"":""img/red_wl/11.jpg"",""time"":555}]","[]"
"image-keyboard-response","62","71496","0.0-5.0-1.29","5d3bcf190e510a001b3df200","bdp_lott","Sun Mar 26 2023 15:18:11 GMT-0500 (Central Daylight Time)","270442","green","red","","361","","","","choice","","img/red_wl/choose11.jpg","2","196","red","0.5","0.5","0.5","l","",""
"animation","63","72101","0.0-5.0-2.29","5d3bcf190e510a001b3df200","bdp_lott","Sun Mar 26 2023 15:18:11 GMT-0500 (Central Daylight Time)","270442","green","red","","","","","","","","","","196","","","","","","[{""stimulus"":""img/red_wl/1.jpg"",""time"":57},{""stimulus"":""img/red_wl/2.jpg"",""time"":114},{""stimulus"":""img/red_wl/3.jpg"",""time"":165},{""stimulus"":""img/red_wl/4.jpg"",""time"":203},{""stimulus"":""img/red_wl/5.jpg"",""time"":265},{""stimulus"":""img/red_wl/6.jpg"",""time"":304},{""stimulus"":""img/red_wl/7.jpg"",""time"":356},{""stimulus"":""img/red_wl/8.jpg"",""time"":414},{""stimulus"":""img/red_wl/9.jpg"",""time"":458},{""stimulus"":""img/red_wl/10.jpg"",""time"":506},{""stimulus"":""img/red_wl/11.jpg"",""time"":557}]","[]"
"image-keyboard-response","64","72546","0.0-5.0-1.30","5d3bcf190e510a001b3df200","bdp_lott","Sun Mar 26 2023 15:18:11 GMT-0500 (Central Daylight Time)","270442","green","red","","445","","","","choice","","img/red_wl/choose11.jpg","1","195","green","0.5","0.5","0.5","w","",""
"animation","65","73147","0.0-5.0-2.30","5d3bcf190e510a001b3df200","bdp_lott","Sun Mar 26 2023 15:18:11 GMT-0500 (Central Daylight Time)","270442","green","red","","","","","","","","","","195","","","","","","[{""stimulus"":""img/green_wl/1.jpg"",""time"":51},{""stimulus"":""img/green_wl/2.jpg"",""time"":106},{""stimulus"":""img/green_wl/3.jpg"",""time"":154},{""stimulus"":""img/green_wl/4.jpg"",""time"":216},{""stimulus"":""img/green_wl/5.jpg"",""time"":264},{""stimulus"":""img/green_wl/6.jpg"",""time"":300},{""stimulus"":""img/green_wl/7.jpg"",""time"":356},{""stimulus"":""img/green_wl/8.jpg"",""time"":406},{""stimulus"":""img/green_wl/9.jpg"",""time"":455},{""stimulus"":""img/green_wl/10.jpg"",""time"":506},{""stimulus"":""img/green_wl/11.jpg"",""time"":561}]","[]"
"image-keyboard-response","66","73472","0.0-5.0-1.31","5d3bcf190e510a001b3df200","bdp_lott","Sun Mar 26 2023 15:18:11 GMT-0500 (Central Daylight Time)","270442","green","red","","325","","","","choice","","img/green_wl/choose11.jpg","1","194","green","0.5","0.5","0.5","l","",""
"animation","67","74077","0.0-5.0-2.31","5d3bcf190e510a001b3df200","bdp_lott","Sun Mar 26 2023 15:18:11 GMT-0500 (Central Daylight Time)","270442","green","red","","","","","","","","","","194","","","","","","[{""stimulus"":""img/green_ll/1.jpg"",""time"":56},{""stimulus"":""img/green_ll/2.jpg"",""time"":105},{""stimulus"":""img/green_ll/3.jpg"",""time"":155},{""stimulus"":""img/green_ll/4.jpg"",""time"":201},{""stimulus"":""img/green_ll/5.jpg"",""time"":256},{""stimulus"":""img/green_ll/6.jpg"",""time"":305},{""stimulus"":""img/green_ll/7.jpg"",""time"":351},{""stimulus"":""img/green_ll/8.jpg"",""time"":401},{""stimulus"":""img/green_ll/9.jpg"",""time"":472},{""stimulus"":""img/green_ll/10.jpg"",""time"":506},{""stimulus"":""img/green_ll/11.jpg"",""time"":555}]","[]"
"image-keyboard-response","68","74614","0.0-5.0-1.32","5d3bcf190e510a001b3df200","bdp_lott","Sun Mar 26 2023 15:18:11 GMT-0500 (Central Daylight Time)","270442","green","red","","536","","","","choice","","img/green_ll/choose11.jpg","1","193","green","0.5","0.5","0.5","l","",""
"animation","69","75219","0.0-5.0-2.32","5d3bcf190e510a001b3df200","bdp_lott","Sun Mar 26 2023 15:18:11 GMT-0500 (Central Daylight Time)","270442","green","red","","","","","","","","","","193","","","","","","[{""stimulus"":""img/green_ll/1.jpg"",""time"":59},{""stimulus"":""img/green_ll/2.jpg"",""time"":114},{""stimulus"":""img/green_ll/3.jpg"",""time"":154},{""stimulus"":""img/green_ll/4.jpg"",""time"":202},{""stimulus"":""img/green_ll/5.jpg"",""time"":254},{""stimulus"":""img/green_ll/6.jpg"",""time"":304},{""stimulus"":""img/green_ll/7.jpg"",""time"":355},{""stimulus"":""img/green_ll/8.jpg"",""time"":408},{""stimulus"":""img/green_ll/9.jpg"",""time"":454},{""stimulus"":""img/green_ll/10.jpg"",""time"":513},{""stimulus"":""img/green_ll/11.jpg"",""time"":553}]","[]"
"image-keyboard-response","70","75637","0.0-5.0-1.33","5d3bcf190e510a001b3df200","bdp_lott","Sun Mar 26 2023 15:18:11 GMT-0500 (Central Daylight Time)","270442","green","red","","418","","","","choice","","img/green_ll/choose11.jpg","1","192","green","0.5","0.5","0.5","w","",""
"animation","71","76243","0.0-5.0-2.33","5d3bcf190e510a001b3df200","bdp_lott","Sun Mar 26 2023 15:18:11 GMT-0500 (Central Daylight Time)","270442","green","red","","","","","","","","","","192","","","","","","[{""stimulus"":""img/green_wl/1.jpg"",""time"":55},{""stimulus"":""img/green_wl/2.jpg"",""time"":103},{""stimulus"":""img/green_wl/3.jpg"",""time"":156},{""stimulus"":""img/green_wl/4.jpg"",""time"":208},{""stimulus"":""img/green_wl/5.jpg"",""time"":273},{""stimulus"":""img/green_wl/6.jpg"",""time"":307},{""stimulus"":""img/green_wl/7.jpg"",""time"":357},{""stimulus"":""img/green_wl/8.jpg"",""time"":407},{""stimulus"":""img/green_wl/9.jpg"",""time"":457},{""stimulus"":""img/green_wl/10.jpg"",""time"":504},{""stimulus"":""img/green_wl/11.jpg"",""time"":553}]","[]"
"image-keyboard-response","72","76617","0.0-5.0-1.34","5d3bcf190e510a001b3df200","bdp_lott","Sun Mar 26 2023 15:18:11 GMT-0500 (Central Daylight Time)","270442","green","red","","372","","","","choice","","img/green_wl/choose11.jpg","1","191","green","0.5","0.5","0.5","l","",""
"animation","73","77218","0.0-5.0-2.34","5d3bcf190e510a001b3df200","bdp_lott","Sun Mar 26 2023 15:18:11 GMT-0500 (Central Daylight Time)","270442","green","red","","","","","","","","","","191","","","","","","[{""stimulus"":""img/green_ll/1.jpg"",""time"":52},{""stimulus"":""img/green_ll/2.jpg"",""time"":102},{""stimulus"":""img/green_ll/3.jpg"",""time"":163},{""stimulus"":""img/green_ll/4.jpg"",""time"":203},{""stimulus"":""img/green_ll/5.jpg"",""time"":260},{""stimulus"":""img/green_ll/6.jpg"",""time"":301},{""stimulus"":""img/green_ll/7.jpg"",""time"":352},{""stimulus"":""img/green_ll/8.jpg"",""time"":401},{""stimulus"":""img/green_ll/9.jpg"",""time"":452},{""stimulus"":""img/green_ll/10.jpg"",""time"":501},{""stimulus"":""img/green_ll/11.jpg"",""time"":551}]","[]"
"image-keyboard-response","74","77587","0.0-5.0-1.35","5d3bcf190e510a001b3df200","bdp_lott","Sun Mar 26 2023 15:18:11 GMT-0500 (Central Daylight Time)","270442","green","red","","369","","","","choice","","img/green_ll/choose11.jpg","1","190","green","0.5","0.5","0.5","l","",""
"animation","75","78194","0.0-5.0-2.35","5d3bcf190e510a001b3df200","bdp_lott","Sun Mar 26 2023 15:18:11 GMT-0500 (Central Daylight Time)","270442","green","red","","","","","","","","","","190","","","","","","[{""stimulus"":""img/green_ll/1.jpg"",""time"":61},{""stimulus"":""img/green_ll/2.jpg"",""time"":106},{""stimulus"":""img/green_ll/3.jpg"",""time"":155},{""stimulus"":""img/green_ll/4.jpg"",""time"":201},{""stimulus"":""img/green_ll/5.jpg"",""time"":255},{""stimulus"":""img/green_ll/6.jpg"",""time"":305},{""stimulus"":""img/green_ll/7.jpg"",""time"":350},{""stimulus"":""img/green_ll/8.jpg"",""time"":406},{""stimulus"":""img/green_ll/9.jpg"",""time"":455},{""stimulus"":""img/green_ll/10.jpg"",""time"":506},{""stimulus"":""img/green_ll/11.jpg"",""time"":556}]","[]"
"image-keyboard-response","76","78665","0.0-5.0-1.36","5d3bcf190e510a001b3df200","bdp_lott","Sun Mar 26 2023 15:18:11 GMT-0500 (Central Daylight Time)","270442","green","red","","470","","","","choice","","img/green_ll/choose11.jpg","1","189","green","0.5","0.5","0.5","l","",""
"animation","77","79269","0.0-5.0-2.36","5d3bcf190e510a001b3df200","bdp_lott","Sun Mar 26 2023 15:18:11 GMT-0500 (Central Daylight Time)","270442","green","red","","","","","","","","","","189","","","","","","[{""stimulus"":""img/green_ll/1.jpg"",""time"":65},{""stimulus"":""img/green_ll/2.jpg"",""time"":104},{""stimulus"":""img/green_ll/3.jpg"",""time"":154},{""stimulus"":""img/green_ll/4.jpg"",""time"":211},{""stimulus"":""img/green_ll/5.jpg"",""time"":251},{""stimulus"":""img/green_ll/6.jpg"",""time"":304},{""stimulus"":""img/green_ll/7.jpg"",""time"":352},{""stimulus"":""img/green_ll/8.jpg"",""time"":403},{""stimulus"":""img/green_ll/9.jpg"",""time"":454},{""stimulus"":""img/green_ll/10.jpg"",""time"":511},{""stimulus"":""img/green_ll/11.jpg"",""time"":553}]","[]"
"image-keyboard-response","78","79710","0.0-5.0-1.37","5d3bcf190e510a001b3df200","bdp_lott","Sun Mar 26 2023 15:18:11 GMT-0500 (Central Daylight Time)","270442","green","red","","441","","","","choice","","img/green_ll/choose11.jpg","1","188","green","0.5","0.5","0.5","w","",""
"animation","79","80326","0.0-5.0-2.37","5d3bcf190e510a001b3df200","bdp_lott","Sun Mar 26 2023 15:18:11 GMT-0500 (Central Daylight Time)","270442","green","red","","","","","","","","","","188","","","","","","[{""stimulus"":""img/green_wl/1.jpg"",""time"":56},{""stimulus"":""img/green_wl/2.jpg"",""time"":101},{""stimulus"":""img/green_wl/3.jpg"",""time"":158},{""stimulus"":""img/green_wl/4.jpg"",""time"":209},{""stimulus"":""img/green_wl/5.jpg"",""time"":255},{""stimulus"":""img/green_wl/6.jpg"",""time"":307},{""stimulus"":""img/green_wl/7.jpg"",""time"":353},{""stimulus"":""img/green_wl/8.jpg"",""time"":408},{""stimulus"":""img/green_wl/9.jpg"",""time"":453},{""stimulus"":""img/green_wl/10.jpg"",""time"":509},{""stimulus"":""img/green_wl/11.jpg"",""time"":567}]","[]"
"image-keyboard-response","80","80779","0.0-5.0-1.38","5d3bcf190e510a001b3df200","bdp_lott","Sun Mar 26 2023 15:18:11 GMT-0500 (Central Daylight Time)","270442","green","red","","452","","","","choice","","img/green_wl/choose11.jpg","1","187","green","0.5","0.5","0.5","l","",""
"animation","81","81385","0.0-5.0-2.38","5d3bcf190e510a001b3df200","bdp_lott","Sun Mar 26 2023 15:18:11 GMT-0500 (Central Daylight Time)","270442","green","red","","","","","","","","","","187","","","","","","[{""stimulus"":""img/green_ll/1.jpg"",""time"":65},{""stimulus"":""img/green_ll/2.jpg"",""time"":106},{""stimulus"":""img/green_ll/3.jpg"",""time"":156},{""stimulus"":""img/green_ll/4.jpg"",""time"":204},{""stimulus"":""img/green_ll/5.jpg"",""time"":255},{""stimulus"":""img/green_ll/6.jpg"",""time"":313},{""stimulus"":""img/green_ll/7.jpg"",""time"":356},{""stimulus"":""img/green_ll/8.jpg"",""time"":404},{""stimulus"":""img/green_ll/9.jpg"",""time"":456},{""stimulus"":""img/green_ll/10.jpg"",""time"":504},{""stimulus"":""img/green_ll/11.jpg"",""time"":556}]","[]"
"image-keyboard-response","82","81755","0.0-5.0-1.39","5d3bcf190e510a001b3df200","bdp_lott","Sun Mar 26 2023 15:18:11 GMT-0500 (Central Daylight Time)","270442","green","red","","370","","","","choice","","img/green_ll/choose11.jpg","1","186","green","0.5","0.5","0.5","l","",""
"animation","83","82356","0.0-5.0-2.39","5d3bcf190e510a001b3df200","bdp_lott","Sun Mar 26 2023 15:18:11 GMT-0500 (Central Daylight Time)","270442","green","red","","","","","","","","","","186","","","","","","[{""stimulus"":""img/green_ll/1.jpg"",""time"":61},{""stimulus"":""img/green_ll/2.jpg"",""time"":104},{""stimulus"":""img/green_ll/3.jpg"",""time"":171},{""stimulus"":""img/green_ll/4.jpg"",""time"":205},{""stimulus"":""img/green_ll/5.jpg"",""time"":255},{""stimulus"":""img/green_ll/6.jpg"",""time"":302},{""stimulus"":""img/green_ll/7.jpg"",""time"":354},{""stimulus"":""img/green_ll/8.jpg"",""time"":401},{""stimulus"":""img/green_ll/9.jpg"",""time"":455},{""stimulus"":""img/green_ll/10.jpg"",""time"":506},{""stimulus"":""img/green_ll/11.jpg"",""time"":554}]","[]"
"image-keyboard-response","84","82870","0.0-5.0-1.40","5d3bcf190e510a001b3df200","bdp_lott","Sun Mar 26 2023 15:18:11 GMT-0500 (Central Daylight Time)","270442","green","red","","514","","","","choice","","img/green_ll/choose11.jpg","1","185","green","0.5","0.5","0.5","w","",""
"animation","85","83477","0.0-5.0-2.40","5d3bcf190e510a001b3df200","bdp_lott","Sun Mar 26 2023 15:18:11 GMT-0500 (Central Daylight Time)","270442","green","red","","","","","","","","","","185","","","","","","[{""stimulus"":""img/green_wl/1.jpg"",""time"":56},{""stimulus"":""img/green_wl/2.jpg"",""time"":107},{""stimulus"":""img/green_wl/3.jpg"",""time"":156},{""stimulus"":""img/green_wl/4.jpg"",""time"":207},{""stimulus"":""img/green_wl/5.jpg"",""time"":256},{""stimulus"":""img/green_wl/6.jpg"",""time"":306},{""stimulus"":""img/green_wl/7.jpg"",""time"":357},{""stimulus"":""img/green_wl/8.jpg"",""time"":400},{""stimulus"":""img/green_wl/9.jpg"",""time"":473},{""stimulus"":""img/green_wl/10.jpg"",""time"":505},{""stimulus"":""img/green_wl/11.jpg"",""time"":555}]","[]"
"image-keyboard-response","86","84097","0.0-5.0-1.41","5d3bcf190e510a001b3df200","bdp_lott","Sun Mar 26 2023 15:18:11 GMT-0500 (Central Daylight Time)","270442","green","red","","619","","","","choice","","img/green_wl/choose11.jpg","1","184","green","0.5","0.5","0.5","w","",""
"animation","87","84702","0.0-5.0-2.41","5d3bcf190e510a001b3df200","bdp_lott","Sun Mar 26 2023 15:18:11 GMT-0500 (Central Daylight Time)","270442","green","red","","","","","","","","","","184","","","","","","[{""stimulus"":""img/green_wl/1.jpg"",""time"":51},{""stimulus"":""img/green_wl/2.jpg"",""time"":104},{""stimulus"":""img/green_wl/3.jpg"",""time"":157},{""stimulus"":""img/green_wl/4.jpg"",""time"":203},{""stimulus"":""img/green_wl/5.jpg"",""time"":254},{""stimulus"":""img/green_wl/6.jpg"",""time"":303},{""stimulus"":""img/green_wl/7.jpg"",""time"":354},{""stimulus"":""img/green_wl/8.jpg"",""time"":412},{""stimulus"":""img/green_wl/9.jpg"",""time"":455},{""stimulus"":""img/green_wl/10.jpg"",""time"":512},{""stimulus"":""img/green_wl/11.jpg"",""time"":553}]","[]"
"image-keyboard-response","88","86191","0.0-5.0-1.42","5d3bcf190e510a001b3df200","bdp_lott","Sun Mar 26 2023 15:18:11 GMT-0500 (Central Daylight Time)","270442","green","red","","1488","","","","choice","","img/green_wl/choose11.jpg","1","183","green","0.5","0.5","0.5","w","",""
"animation","89","86794","0.0-5.0-2.42","5d3bcf190e510a001b3df200","bdp_lott","Sun Mar 26 2023 15:18:11 GMT-0500 (Central Daylight Time)","270442","green","red","","","","","","","","","","183","","","","","","[{""stimulus"":""img/green_wl/1.jpg"",""time"":61},{""stimulus"":""img/green_wl/2.jpg"",""time"":102},{""stimulus"":""img/green_wl/3.jpg"",""time"":153},{""stimulus"":""img/green_wl/4.jpg"",""time"":202},{""stimulus"":""img/green_wl/5.jpg"",""time"":250},{""stimulus"":""img/green_wl/6.jpg"",""time"":302},{""stimulus"":""img/green_wl/7.jpg"",""time"":350},{""stimulus"":""img/green_wl/8.jpg"",""time"":403},{""stimulus"":""img/green_wl/9.jpg"",""time"":453},{""stimulus"":""img/green_wl/10.jpg"",""time"":503},{""stimulus"":""img/green_wl/11.jpg"",""time"":552}]","[]"
"image-keyboard-response","90","87212","0.0-5.0-1.43","5d3bcf190e510a001b3df200","bdp_lott","Sun Mar 26 2023 15:18:11 GMT-0500 (Central Daylight Time)","270442","green","red","","417","","","","choice","","img/green_wl/choose11.jpg","1","182","green","0.5","0.5","0.5","w","",""
"animation","91","87817","0.0-5.0-2.43","5d3bcf190e510a001b3df200","bdp_lott","Sun Mar 26 2023 15:18:11 GMT-0500 (Central Daylight Time)","270442","green","red","","","","","","","","","","182","","","","","","[{""stimulus"":""img/green_wl/1.jpg"",""time"":63},{""stimulus"":""img/green_wl/2.jpg"",""time"":115},{""stimulus"":""img/green_wl/3.jpg"",""time"":162},{""stimulus"":""img/green_wl/4.jpg"",""time"":214},{""stimulus"":""img/green_wl/5.jpg"",""time"":256},{""stimulus"":""img/green_wl/6.jpg"",""time"":307},{""stimulus"":""img/green_wl/7.jpg"",""time"":354},{""stimulus"":""img/green_wl/8.jpg"",""time"":402},{""stimulus"":""img/green_wl/9.jpg"",""time"":456},{""stimulus"":""img/green_wl/10.jpg"",""time"":506},{""stimulus"":""img/green_wl/11.jpg"",""time"":557}]","[]"
"image-keyboard-response","92","88137","0.0-5.0-1.44","5d3bcf190e510a001b3df200","bdp_lott","Sun Mar 26 2023 15:18:11 GMT-0500 (Central Daylight Time)","270442","green","red","","320","","","","choice","","img/green_wl/choose11.jpg","1","181","green","0.5","0.5","0.5","l","",""
"animation","93","88746","0.0-5.0-2.44","5d3bcf190e510a001b3df200","bdp_lott","Sun Mar 26 2023 15:18:11 GMT-0500 (Central Daylight Time)","270442","green","red","","","","","","","","","","181","","","","","","[{""stimulus"":""img/green_ll/1.jpg"",""time"":54},{""stimulus"":""img/green_ll/2.jpg"",""time"":100},{""stimulus"":""img/green_ll/3.jpg"",""time"":158},{""stimulus"":""img/green_ll/4.jpg"",""time"":216},{""stimulus"":""img/green_ll/5.jpg"",""time"":253},{""stimulus"":""img/green_ll/6.jpg"",""time"":308},{""stimulus"":""img/green_ll/7.jpg"",""time"":358},{""stimulus"":""img/green_ll/8.jpg"",""time"":426},{""stimulus"":""img/green_ll/9.jpg"",""time"":458},{""stimulus"":""img/green_ll/10.jpg"",""time"":509},{""stimulus"":""img/green_ll/11.jpg"",""time"":558}]","[]"
"image-keyboard-response","94","89214","0.0-5.0-1.45","5d3bcf190e510a001b3df200","bdp_lott","Sun Mar 26 2023 15:18:11 GMT-0500 (Central Daylight Time)","270442","green","red","","467","","","","choice","","img/green_ll/choose11.jpg","1","180","green","0.5","0.5","0.5","w","",""
"animation","95","89820","0.0-5.0-2.45","5d3bcf190e510a001b3df200","bdp_lott","Sun Mar 26 2023 15:18:11 GMT-0500 (Central Daylight Time)","270442","green","red","","","","","","","","","","180","","","","","","[{""stimulus"":""img/green_wl/1.jpg"",""time"":56},{""stimulus"":""img/green_wl/2.jpg"",""time"":114},{""stimulus"":""img/green_wl/3.jpg"",""time"":155},{""stimulus"":""img/green_wl/4.jpg"",""time"":204},{""stimulus"":""img/green_wl/5.jpg"",""time"":251},{""stimulus"":""img/green_wl/6.jpg"",""time"":308},{""stimulus"":""img/green_wl/7.jpg"",""time"":355},{""stimulus"":""img/green_wl/8.jpg"",""time"":406},{""stimulus"":""img/green_wl/9.jpg"",""time"":461},{""stimulus"":""img/green_wl/10.jpg"",""time"":502},{""stimulus"":""img/green_wl/11.jpg"",""time"":550}]","[]"
"image-keyboard-response","96","90214","0.0-5.0-1.46","5d3bcf190e510a001b3df200","bdp_lott","Sun Mar 26 2023 15:18:11 GMT-0500 (Central Daylight Time)","270442","green","red","","393","","","","choice","","img/green_wl/choose11.jpg","1","179","green","0.5","0.5","0.5","w","",""
"animation","97","90817","0.0-5.0-2.46","5d3bcf190e510a001b3df200","bdp_lott","Sun Mar 26 2023 15:18:11 GMT-0500 (Central Daylight Time)","270442","green","red","","","","","","","","","","179","","","","","","[{""stimulus"":""img/green_wl/1.jpg"",""time"":51},{""stimulus"":""img/green_wl/2.jpg"",""time"":104},{""stimulus"":""img/green_wl/3.jpg"",""time"":164},{""stimulus"":""img/green_wl/4.jpg"",""time"":212},{""stimulus"":""img/green_wl/5.jpg"",""time"":263},{""stimulus"":""img/green_wl/6.jpg"",""time"":303},{""stimulus"":""img/green_wl/7.jpg"",""time"":362},{""stimulus"":""img/green_wl/8.jpg"",""time"":402},{""stimulus"":""img/green_wl/9.jpg"",""time"":458},{""stimulus"":""img/green_wl/10.jpg"",""time"":506},{""stimulus"":""img/green_wl/11.jpg"",""time"":554}]","[]"
"image-keyboard-response","98","91336","0.0-5.0-1.47","5d3bcf190e510a001b3df200","bdp_lott","Sun Mar 26 2023 15:18:11 GMT-0500 (Central Daylight Time)","270442","green","red","","518","","","","choice","","img/green_wl/choose11.jpg","1","178","green","0.5","0.5","0.5","w","",""
"animation","99","91944","0.0-5.0-2.47","5d3bcf190e510a001b3df200","bdp_lott","Sun Mar 26 2023 15:18:11 GMT-0500 (Central Daylight Time)","270442","green","red","","","","","","","","","","178","","","","","","[{""stimulus"":""img/green_wl/1.jpg"",""time"":53},{""stimulus"":""img/green_wl/2.jpg"",""time"":102},{""stimulus"":""img/green_wl/3.jpg"",""time"":152},{""stimulus"":""img/green_wl/4.jpg"",""time"":202},{""stimulus"":""img/green_wl/5.jpg"",""time"":266},{""stimulus"":""img/green_wl/6.jpg"",""time"":302},{""stimulus"":""img/green_wl/7.jpg"",""time"":357},{""stimulus"":""img/green_wl/8.jpg"",""time"":406},{""stimulus"":""img/green_wl/9.jpg"",""time"":457},{""stimulus"":""img/green_wl/10.jpg"",""time"":508},{""stimulus"":""img/green_wl/11.jpg"",""time"":551}]","[]"
"image-keyboard-response","100","92281","0.0-5.0-1.48","5d3bcf190e510a001b3df200","bdp_lott","Sun Mar 26 2023 15:18:11 GMT-0500 (Central Daylight Time)","270442","green","red","","337","","","","choice","","img/green_wl/choose11.jpg","1","177","green","0.5","0.5","0.5","w","",""
"animation","101","92887","0.0-5.0-2.48","5d3bcf190e510a001b3df200","bdp_lott","Sun Mar 26 2023 15:18:11 GMT-0500 (Central Daylight Time)","270442","green","red","","","","","","","","","","177","","","","","","[{""stimulus"":""img/green_wl/1.jpg"",""time"":57},{""stimulus"":""img/green_wl/2.jpg"",""time"":115},{""stimulus"":""img/green_wl/3.jpg"",""time"":151},{""stimulus"":""img/green_wl/4.jpg"",""time"":207},{""stimulus"":""img/green_wl/5.jpg"",""time"":263},{""stimulus"":""img/green_wl/6.jpg"",""time"":305},{""stimulus"":""img/green_wl/7.jpg"",""time"":353},{""stimulus"":""img/green_wl/8.jpg"",""time"":407},{""stimulus"":""img/green_wl/9.jpg"",""time"":464},{""stimulus"":""img/green_wl/10.jpg"",""time"":505},{""stimulus"":""img/green_wl/11.jpg"",""time"":555}]","[]"
"image-keyboard-response","102","93252","0.0-5.0-1.49","5d3bcf190e510a001b3df200","bdp_lott","Sun Mar 26 2023 15:18:11 GMT-0500 (Central Daylight Time)","270442","green","red","","364","","","","choice","","img/green_wl/choose11.jpg","1","176","green","0.5","0.5","0.5","l","",""
"animation","103","93860","0.0-5.0-2.49","5d3bcf190e510a001b3df200","bdp_lott","Sun Mar 26 2023 15:18:11 GMT-0500 (Central Daylight Time)","270442","green","red","","","","","","","","","","176","","","","","","[{""stimulus"":""img/green_ll/1.jpg"",""time"":63},{""stimulus"":""img/green_ll/2.jpg"",""time"":101},{""stimulus"":""img/green_ll/3.jpg"",""time"":152},{""stimulus"":""img/green_ll/4.jpg"",""time"":201},{""stimulus"":""img/green_ll/5.jpg"",""time"":259},{""stimulus"":""img/green_ll/6.jpg"",""time"":304},{""stimulus"":""img/green_ll/7.jpg"",""time"":355},{""stimulus"":""img/green_ll/8.jpg"",""time"":404},{""stimulus"":""img/green_ll/9.jpg"",""time"":451},{""stimulus"":""img/green_ll/10.jpg"",""time"":505},{""stimulus"":""img/green_ll/11.jpg"",""time"":551}]","[]"
"image-keyboard-response","104","94223","0.0-5.0-1.50","5d3bcf190e510a001b3df200","bdp_lott","Sun Mar 26 2023 15:18:11 GMT-0500 (Central Daylight Time)","270442","green","red","","362","","","","choice","","img/green_ll/choose11.jpg","1","175","green","0.5","0.5","0.5","w","",""
"animation","105","94829","0.0-5.0-2.50","5d3bcf190e510a001b3df200","bdp_lott","Sun Mar 26 2023 15:18:11 GMT-0500 (Central Daylight Time)","270442","green","red","","","","","","","","","","175","","","","","","[{""stimulus"":""img/green_wl/1.jpg"",""time"":53},{""stimulus"":""img/green_wl/2.jpg"",""time"":121},{""stimulus"":""img/green_wl/3.jpg"",""time"":157},{""stimulus"":""img/green_wl/4.jpg"",""time"":205},{""stimulus"":""img/green_wl/5.jpg"",""time"":259},{""stimulus"":""img/green_wl/6.jpg"",""time"":301},{""stimulus"":""img/green_wl/7.jpg"",""time"":355},{""stimulus"":""img/green_wl/8.jpg"",""time"":405},{""stimulus"":""img/green_wl/9.jpg"",""time"":454},{""stimulus"":""img/green_wl/10.jpg"",""time"":502},{""stimulus"":""img/green_wl/11.jpg"",""time"":555}]","[]"
"image-keyboard-response","106","95185","0.0-5.0-1.51","5d3bcf190e510a001b3df200","bdp_lott","Sun Mar 26 2023 15:18:11 GMT-0500 (Central Daylight Time)","270442","green","red","","355","","","","choice","","img/green_wl/choose11.jpg","1","174","green","0.5","0.5","0.5","w","",""
"animation","107","95800","0.0-5.0-2.51","5d3bcf190e510a001b3df200","bdp_lott","Sun Mar 26 2023 15:18:11 GMT-0500 (Central Daylight Time)","270442","green","red","","","","","","","","","","174","","","","","","[{""stimulus"":""img/green_wl/1.jpg"",""time"":53},{""stimulus"":""img/green_wl/2.jpg"",""time"":111},{""stimulus"":""img/green_wl/3.jpg"",""time"":159},{""stimulus"":""img/green_wl/4.jpg"",""time"":211},{""stimulus"":""img/green_wl/5.jpg"",""time"":251},{""stimulus"":""img/green_wl/6.jpg"",""time"":303},{""stimulus"":""img/green_wl/7.jpg"",""time"":352},{""stimulus"":""img/green_wl/8.jpg"",""time"":402},{""stimulus"":""img/green_wl/9.jpg"",""time"":459},{""stimulus"":""img/green_wl/10.jpg"",""time"":507},{""stimulus"":""img/green_wl/11.jpg"",""time"":555}]","[]"
"image-keyboard-response","108","96160","0.0-5.0-1.52","5d3bcf190e510a001b3df200","bdp_lott","Sun Mar 26 2023 15:18:11 GMT-0500 (Central Daylight Time)","270442","green","red","","359","","","","choice","","img/green_wl/choose11.jpg","1","173","green","0.5","0.5","0.5","w","",""
"animation","109","96769","0.0-5.0-2.52","5d3bcf190e510a001b3df200","bdp_lott","Sun Mar 26 2023 15:18:11 GMT-0500 (Central Daylight Time)","270442","green","red","","","","","","","","","","173","","","","","","[{""stimulus"":""img/green_wl/1.jpg"",""time"":55},{""stimulus"":""img/green_wl/2.jpg"",""time"":101},{""stimulus"":""img/green_wl/3.jpg"",""time"":171},{""stimulus"":""img/green_wl/4.jpg"",""time"":202},{""stimulus"":""img/green_wl/5.jpg"",""time"":252},{""stimulus"":""img/green_wl/6.jpg"",""time"":302},{""stimulus"":""img/green_wl/7.jpg"",""time"":352},{""stimulus"":""img/green_wl/8.jpg"",""time"":400},{""stimulus"":""img/green_wl/9.jpg"",""time"":458},{""stimulus"":""img/green_wl/10.jpg"",""time"":501},{""stimulus"":""img/green_wl/11.jpg"",""time"":552}]","[]"
"image-keyboard-response","110","97131","0.0-5.0-1.53","5d3bcf190e510a001b3df200","bdp_lott","Sun Mar 26 2023 15:18:11 GMT-0500 (Central Daylight Time)","270442","green","red","","362","","","","choice","","img/green_wl/choose11.jpg","1","172","green","0.5","0.5","0.5","w","",""
"animation","111","97734","0.0-5.0-2.53","5d3bcf190e510a001b3df200","bdp_lott","Sun Mar 26 2023 15:18:11 GMT-0500 (Central Daylight Time)","270442","green","red","","","","","","","","","","172","","","","","","[{""stimulus"":""img/green_wl/1.jpg"",""time"":67},{""stimulus"":""img/green_wl/2.jpg"",""time"":106},{""stimulus"":""img/green_wl/3.jpg"",""time"":155},{""stimulus"":""img/green_wl/4.jpg"",""time"":207},{""stimulus"":""img/green_wl/5.jpg"",""time"":252},{""stimulus"":""img/green_wl/6.jpg"",""time"":307},{""stimulus"":""img/green_wl/7.jpg"",""time"":355},{""stimulus"":""img/green_wl/8.jpg"",""time"":407},{""stimulus"":""img/green_wl/9.jpg"",""time"":463},{""stimulus"":""img/green_wl/10.jpg"",""time"":501},{""stimulus"":""img/green_wl/11.jpg"",""time"":555}]","[]"
"image-keyboard-response","112","98072","0.0-5.0-1.54","5d3bcf190e510a001b3df200","bdp_lott","Sun Mar 26 2023 15:18:11 GMT-0500 (Central Daylight Time)","270442","green","red","","337","","","","choice","","img/green_wl/choose11.jpg","1","171","green","0.5","0.5","0.5","w","",""
"animation","113","98679","0.0-5.0-2.54","5d3bcf190e510a001b3df200","bdp_lott","Sun Mar 26 2023 15:18:11 GMT-0500 (Central Daylight Time)","270442","green","red","","","","","","","","","","171","","","","","","[{""stimulus"":""img/green_wl/1.jpg"",""time"":54},{""stimulus"":""img/green_wl/2.jpg"",""time"":107},{""stimulus"":""img/green_wl/3.jpg"",""time"":158},{""stimulus"":""img/green_wl/4.jpg"",""time"":207},{""stimulus"":""img/green_wl/5.jpg"",""time"":251},{""stimulus"":""img/green_wl/6.jpg"",""time"":300},{""stimulus"":""img/green_wl/7.jpg"",""time"":356},{""stimulus"":""img/green_wl/8.jpg"",""time"":405},{""stimulus"":""img/green_wl/9.jpg"",""time"":450},{""stimulus"":""img/green_wl/10.jpg"",""time"":502},{""stimulus"":""img/green_wl/11.jpg"",""time"":553}]","[]"
"image-keyboard-response","114","98948","0.0-5.0-1.55","5d3bcf190e510a001b3df200","bdp_lott","Sun Mar 26 2023 15:18:11 GMT-0500 (Central Daylight Time)","270442","green","red","","268","","","","choice","","img/green_wl/choose11.jpg","1","170","green","0.5","0.5","0.5","l","",""
"animation","115","99553","0.0-5.0-2.55","5d3bcf190e510a001b3df200","bdp_lott","Sun Mar 26 2023 15:18:11 GMT-0500 (Central Daylight Time)","270442","green","red","","","","","","","","","","170","","","","","","[{""stimulus"":""img/green_ll/1.jpg"",""time"":61},{""stimulus"":""img/green_ll/2.jpg"",""time"":110},{""stimulus"":""img/green_ll/3.jpg"",""time"":156},{""stimulus"":""img/green_ll/4.jpg"",""time"":214},{""stimulus"":""img/green_ll/5.jpg"",""time"":257},{""stimulus"":""img/green_ll/6.jpg"",""time"":305},{""stimulus"":""img/green_ll/7.jpg"",""time"":357},{""stimulus"":""img/green_ll/8.jpg"",""time"":406},{""stimulus"":""img/green_ll/9.jpg"",""time"":457},{""stimulus"":""img/green_ll/10.jpg"",""time"":506},{""stimulus"":""img/green_ll/11.jpg"",""time"":557}]","[]"
"image-keyboard-response","116","100029","0.0-5.0-1.56","5d3bcf190e510a001b3df200","bdp_lott","Sun Mar 26 2023 15:18:11 GMT-0500 (Central Daylight Time)","270442","green","red","","475","","","","choice","","img/green_ll/choose11.jpg","1","169","green","0.5","0.5","0.5","l","",""
"animation","117","100637","0.0-5.0-2.56","5d3bcf190e510a001b3df200","bdp_lott","Sun Mar 26 2023 15:18:11 GMT-0500 (Central Daylight Time)","270442","green","red","","","","","","","","","","169","","","","","","[{""stimulus"":""img/green_ll/1.jpg"",""time"":66},{""stimulus"":""img/green_ll/2.jpg"",""time"":101},{""stimulus"":""img/green_ll/3.jpg"",""time"":169},{""stimulus"":""img/green_ll/4.jpg"",""time"":208},{""stimulus"":""img/green_ll/5.jpg"",""time"":257},{""stimulus"":""img/green_ll/6.jpg"",""time"":302},{""stimulus"":""img/green_ll/7.jpg"",""time"":360},{""stimulus"":""img/green_ll/8.jpg"",""time"":408},{""stimulus"":""img/green_ll/9.jpg"",""time"":457},{""stimulus"":""img/green_ll/10.jpg"",""time"":502},{""stimulus"":""img/green_ll/11.jpg"",""time"":551}]","[]"
"image-keyboard-response","118","101026","0.0-5.0-1.57","5d3bcf190e510a001b3df200","bdp_lott","Sun Mar 26 2023 15:18:11 GMT-0500 (Central Daylight Time)","270442","green","red","","388","","","","choice","","img/green_ll/choose11.jpg","1","168","green","0.5","0.5","0.5","l","",""
"animation","119","101629","0.0-5.0-2.57","5d3bcf190e510a001b3df200","bdp_lott","Sun Mar 26 2023 15:18:11 GMT-0500 (Central Daylight Time)","270442","green","red","","","","","","","","","","168","","","","","","[{""stimulus"":""img/green_ll/1.jpg"",""time"":59},{""stimulus"":""img/green_ll/2.jpg"",""time"":102},{""stimulus"":""img/green_ll/3.jpg"",""time"":156},{""stimulus"":""img/green_ll/4.jpg"",""time"":204},{""stimulus"":""img/green_ll/5.jpg"",""time"":270},{""stimulus"":""img/green_ll/6.jpg"",""time"":303},{""stimulus"":""img/green_ll/7.jpg"",""time"":351},{""stimulus"":""img/green_ll/8.jpg"",""time"":420},{""stimulus"":""img/green_ll/9.jpg"",""time"":454},{""stimulus"":""img/green_ll/10.jpg"",""time"":504},{""stimulus"":""img/green_ll/11.jpg"",""time"":552}]","[]"
"image-keyboard-response","120","101994","0.0-5.0-1.58","5d3bcf190e510a001b3df200","bdp_lott","Sun Mar 26 2023 15:18:11 GMT-0500 (Central Daylight Time)","270442","green","red","","364","","","","choice","","img/green_ll/choose11.jpg","1","167","green","0.5","0.5","0.5","w","",""
"animation","121","102619","0.0-5.0-2.58","5d3bcf190e510a001b3df200","bdp_lott","Sun Mar 26 2023 15:18:11 GMT-0500 (Central Daylight Time)","270442","green","red","","","","","","","","","","167","","","","","","[{""stimulus"":""img/green_wl/1.jpg"",""time"":60},{""stimulus"":""img/green_wl/2.jpg"",""time"":100},{""stimulus"":""img/green_wl/3.jpg"",""time"":151},{""stimulus"":""img/green_wl/4.jpg"",""time"":203},{""stimulus"":""img/green_wl/5.jpg"",""time"":258},{""stimulus"":""img/green_wl/6.jpg"",""time"":308},{""stimulus"":""img/green_wl/7.jpg"",""time"":351},{""stimulus"":""img/green_wl/8.jpg"",""time"":407},{""stimulus"":""img/green_wl/9.jpg"",""time"":451},{""stimulus"":""img/green_wl/10.jpg"",""time"":508},{""stimulus"":""img/green_wl/11.jpg"",""time"":551}]","[]"
"image-keyboard-response","122","102993","0.0-5.0-1.59","5d3bcf190e510a001b3df200","bdp_lott","Sun Mar 26 2023 15:18:11 GMT-0500 (Central Daylight Time)","270442","green","red","","374","","","","choice","","img/green_wl/choose11.jpg","1","166","green","0.5","0.5","0.5","w","",""
"animation","123","103596","0.0-5.0-2.59","5d3bcf190e510a001b3df200","bdp_lott","Sun Mar 26 2023 15:18:11 GMT-0500 (Central Daylight Time)","270442","green","red","","","","","","","","","","166","","","","","","[{""stimulus"":""img/green_wl/1.jpg"",""time"":61},{""stimulus"":""img/green_wl/2.jpg"",""time"":102},{""stimulus"":""img/green_wl/3.jpg"",""time"":152},{""stimulus"":""img/green_wl/4.jpg"",""time"":210},{""stimulus"":""img/green_wl/5.jpg"",""time"":252},{""stimulus"":""img/green_wl/6.jpg"",""time"":302},{""stimulus"":""img/green_wl/7.jpg"",""time"":352},{""stimulus"":""img/green_wl/8.jpg"",""time"":402},{""stimulus"":""img/green_wl/9.jpg"",""time"":451},{""stimulus"":""img/green_wl/10.jpg"",""time"":514},{""stimulus"":""img/green_wl/11.jpg"",""time"":552}]","[]"
"image-keyboard-response","124","104014","0.0-5.0-1.60","5d3bcf190e510a001b3df200","bdp_lott","Sun Mar 26 2023 15:18:11 GMT-0500 (Central Daylight Time)","270442","green","red","","418","","","","choice","","img/green_wl/choose11.jpg","1","165","green","0.5","0.5","0.5","w","",""
"animation","125","104619","0.0-5.0-2.60","5d3bcf190e510a001b3df200","bdp_lott","Sun Mar 26 2023 15:18:11 GMT-0500 (Central Daylight Time)","270442","green","red","","","","","","","","","","165","","","","","","[{""stimulus"":""img/green_wl/1.jpg"",""time"":53},{""stimulus"":""img/green_wl/2.jpg"",""time"":107},{""stimulus"":""img/green_wl/3.jpg"",""time"":156},{""stimulus"":""img/green_wl/4.jpg"",""time"":207},{""stimulus"":""img/green_wl/5.jpg"",""time"":256},{""stimulus"":""img/green_wl/6.jpg"",""time"":315},{""stimulus"":""img/green_wl/7.jpg"",""time"":355},{""stimulus"":""img/green_wl/8.jpg"",""time"":406},{""stimulus"":""img/green_wl/9.jpg"",""time"":457},{""stimulus"":""img/green_wl/10.jpg"",""time"":514},{""stimulus"":""img/green_wl/11.jpg"",""time"":555}]","[]"
"image-keyboard-response","126","104985","0.0-5.0-1.61","5d3bcf190e510a001b3df200","bdp_lott","Sun Mar 26 2023 15:18:11 GMT-0500 (Central Daylight Time)","270442","green","red","","366","","","","choice","","img/green_wl/choose11.jpg","1","164","green","0.5","0.5","0.5","l","",""
"animation","127","105586","0.0-5.0-2.61","5d3bcf190e510a001b3df200","bdp_lott","Sun Mar 26 2023 15:18:11 GMT-0500 (Central Daylight Time)","270442","green","red","","","","","","","","","","164","","","","","","[{""stimulus"":""img/green_ll/1.jpg"",""time"":61},{""stimulus"":""img/green_ll/2.jpg"",""time"":101},{""stimulus"":""img/green_ll/3.jpg"",""time"":160},{""stimulus"":""img/green_ll/4.jpg"",""time"":201},{""stimulus"":""img/green_ll/5.jpg"",""time"":252},{""stimulus"":""img/green_ll/6.jpg"",""time"":301},{""stimulus"":""img/green_ll/7.jpg"",""time"":350},{""stimulus"":""img/green_ll/8.jpg"",""time"":409},{""stimulus"":""img/green_ll/9.jpg"",""time"":452},{""stimulus"":""img/green_ll/10.jpg"",""time"":507},{""stimulus"":""img/green_ll/11.jpg"",""time"":557}]","[]"
"image-keyboard-response","128","106031","0.0-5.0-1.62","5d3bcf190e510a001b3df200","bdp_lott","Sun Mar 26 2023 15:18:11 GMT-0500 (Central Daylight Time)","270442","green","red","","443","","","","choice","","img/green_ll/choose11.jpg","1","163","green","0.5","0.5","0.5","w","",""
"animation","129","106669","0.0-5.0-2.62","5d3bcf190e510a001b3df200","bdp_lott","Sun Mar 26 2023 15:18:11 GMT-0500 (Central Daylight Time)","270442","green","red","","","","","","","","","","163","","","","","","[{""stimulus"":""img/green_wl/1.jpg"",""time"":54},{""stimulus"":""img/green_wl/2.jpg"",""time"":114},{""stimulus"":""img/green_wl/3.jpg"",""time"":156},{""stimulus"":""img/green_wl/4.jpg"",""time"":205},{""stimulus"":""img/green_wl/5.jpg"",""time"":261},{""stimulus"":""img/green_wl/6.jpg"",""time"":302},{""stimulus"":""img/green_wl/7.jpg"",""time"":356},{""stimulus"":""img/green_wl/8.jpg"",""time"":406},{""stimulus"":""img/green_wl/9.jpg"",""time"":456},{""stimulus"":""img/green_wl/10.jpg"",""time"":506},{""stimulus"":""img/green_wl/11.jpg"",""time"":554}]","[]"
"image-keyboard-response","130","107331","0.0-5.0-1.63","5d3bcf190e510a001b3df200","bdp_lott","Sun Mar 26 2023 15:18:11 GMT-0500 (Central Daylight Time)","270442","green","red","","661","","","","choice","","img/green_wl/choose11.jpg","1","162","green","0.5","0.5","0.5","w","",""
"animation","131","107936","0.0-5.0-2.63","5d3bcf190e510a001b3df200","bdp_lott","Sun Mar 26 2023 15:18:11 GMT-0500 (Central Daylight Time)","270442","green","red","","","","","","","","","","162","","","","","","[{""stimulus"":""img/green_wl/1.jpg"",""time"":62},{""stimulus"":""img/green_wl/2.jpg"",""time"":113},{""stimulus"":""img/green_wl/3.jpg"",""time"":153},{""stimulus"":""img/green_wl/4.jpg"",""time"":208},{""stimulus"":""img/green_wl/5.jpg"",""time"":255},{""stimulus"":""img/green_wl/6.jpg"",""time"":311},{""stimulus"":""img/green_wl/7.jpg"",""time"":356},{""stimulus"":""img/green_wl/8.jpg"",""time"":405},{""stimulus"":""img/green_wl/9.jpg"",""time"":456},{""stimulus"":""img/green_wl/10.jpg"",""time"":514},{""stimulus"":""img/green_wl/11.jpg"",""time"":556}]","[]"
"image-keyboard-response","132","108472","0.0-5.0-1.64","5d3bcf190e510a001b3df200","bdp_lott","Sun Mar 26 2023 15:18:11 GMT-0500 (Central Daylight Time)","270442","green","red","","535","","","","choice","","img/green_wl/choose11.jpg","1","161","green","0.5","0.5","0.5","l","",""
"animation","133","109078","0.0-5.0-2.64","5d3bcf190e510a001b3df200","bdp_lott","Sun Mar 26 2023 15:18:11 GMT-0500 (Central Daylight Time)","270442","green","red","","","","","","","","","","161","","","","","","[{""stimulus"":""img/green_ll/1.jpg"",""time"":54},{""stimulus"":""img/green_ll/2.jpg"",""time"":115},{""stimulus"":""img/green_ll/3.jpg"",""time"":157},{""stimulus"":""img/green_ll/4.jpg"",""time"":207},{""stimulus"":""img/green_ll/5.jpg"",""time"":254},{""stimulus"":""img/green_ll/6.jpg"",""time"":307},{""stimulus"":""img/green_ll/7.jpg"",""time"":374},{""stimulus"":""img/green_ll/8.jpg"",""time"":401},{""stimulus"":""img/green_ll/9.jpg"",""time"":464},{""stimulus"":""img/green_ll/10.jpg"",""time"":515},{""stimulus"":""img/green_ll/11.jpg"",""time"":559}]","[]"
"image-keyboard-response","134","109468","0.0-5.0-1.65","5d3bcf190e510a001b3df200","bdp_lott","Sun Mar 26 2023 15:18:11 GMT-0500 (Central Daylight Time)","270442","green","red","","389","","","","choice","","img/green_ll/choose11.jpg","1","160","green","0.5","0.5","0.5","w","",""
"animation","135","110073","0.0-5.0-2.65","5d3bcf190e510a001b3df200","bdp_lott","Sun Mar 26 2023 15:18:11 GMT-0500 (Central Daylight Time)","270442","green","red","","","","","","","","","","160","","","","","","[{""stimulus"":""img/green_wl/1.jpg"",""time"":62},{""stimulus"":""img/green_wl/2.jpg"",""time"":101},{""stimulus"":""img/green_wl/3.jpg"",""time"":152},{""stimulus"":""img/green_wl/4.jpg"",""time"":201},{""stimulus"":""img/green_wl/5.jpg"",""time"":252},{""stimulus"":""img/green_wl/6.jpg"",""time"":301},{""stimulus"":""img/green_wl/7.jpg"",""time"":352},{""stimulus"":""img/green_wl/8.jpg"",""time"":401},{""stimulus"":""img/green_wl/9.jpg"",""time"":451},{""stimulus"":""img/green_wl/10.jpg"",""time"":509},{""stimulus"":""img/green_wl/11.jpg"",""time"":552}]","[]"
"image-keyboard-response","136","110681","0.0-5.0-1.66","5d3bcf190e510a001b3df200","bdp_lott","Sun Mar 26 2023 15:18:11 GMT-0500 (Central Daylight Time)","270442","green","red","","606","","","","choice","","img/green_wl/choose11.jpg","1","159","green","0.5","0.5","0.5","w","",""
"animation","137","111282","0.0-5.0-2.66","5d3bcf190e510a001b3df200","bdp_lott","Sun Mar 26 2023 15:18:11 GMT-0500 (Central Daylight Time)","270442","green","red","","","","","","","","","","159","","","","","","[{""stimulus"":""img/green_wl/1.jpg"",""time"":56},{""stimulus"":""img/green_wl/2.jpg"",""time"":105},{""stimulus"":""img/green_wl/3.jpg"",""time"":155},{""stimulus"":""img/green_wl/4.jpg"",""time"":205},{""stimulus"":""img/green_wl/5.jpg"",""time"":265},{""stimulus"":""img/green_wl/6.jpg"",""time"":305},{""stimulus"":""img/green_wl/7.jpg"",""time"":355},{""stimulus"":""img/green_wl/8.jpg"",""time"":405},{""stimulus"":""img/green_wl/9.jpg"",""time"":454},{""stimulus"":""img/green_wl/10.jpg"",""time"":505},{""stimulus"":""img/green_wl/11.jpg"",""time"":560}]","[]"
"image-keyboard-response","138","111864","0.0-5.0-1.67","5d3bcf190e510a001b3df200","bdp_lott","Sun Mar 26 2023 15:18:11 GMT-0500 (Central Daylight Time)","270442","green","red","","581","","","","choice","","img/green_wl/choose11.jpg","1","158","green","0.5","0.5","0.5","l","",""
"animation","139","112465","0.0-5.0-2.67","5d3bcf190e510a001b3df200","bdp_lott","Sun Mar 26 2023 15:18:11 GMT-0500 (Central Daylight Time)","270442","green","red","","","","","","","","","","158","","","","","","[{""stimulus"":""img/green_ll/1.jpg"",""time"":54},{""stimulus"":""img/green_ll/2.jpg"",""time"":115},{""stimulus"":""img/green_ll/3.jpg"",""time"":156},{""stimulus"":""img/green_ll/4.jpg"",""time"":205},{""stimulus"":""img/green_ll/5.jpg"",""time"":253},{""stimulus"":""img/green_ll/6.jpg"",""time"":306},{""stimulus"":""img/green_ll/7.jpg"",""time"":353},{""stimulus"":""img/green_ll/8.jpg"",""time"":407},{""stimulus"":""img/green_ll/9.jpg"",""time"":462},{""stimulus"":""img/green_ll/10.jpg"",""time"":507},{""stimulus"":""img/green_ll/11.jpg"",""time"":561}]","[]"
"image-keyboard-response","140","113058","0.0-5.0-1.68","5d3bcf190e510a001b3df200","bdp_lott","Sun Mar 26 2023 15:18:11 GMT-0500 (Central Daylight Time)","270442","green","red","","592","","","","choice","","img/green_ll/choose11.jpg","1","157","green","0.5","0.5","0.5","l","",""
"animation","141","113662","0.0-5.0-2.68","5d3bcf190e510a001b3df200","bdp_lott","Sun Mar 26 2023 15:18:11 GMT-0500 (Central Daylight Time)","270442","green","red","","","","","","","","","","157","","","","","","[{""stimulus"":""img/green_ll/1.jpg"",""time"":61},{""stimulus"":""img/green_ll/2.jpg"",""time"":104},{""stimulus"":""img/green_ll/3.jpg"",""time"":151},{""stimulus"":""img/green_ll/4.jpg"",""time"":211},{""stimulus"":""img/green_ll/5.jpg"",""time"":251},{""stimulus"":""img/green_ll/6.jpg"",""time"":303},{""stimulus"":""img/green_ll/7.jpg"",""time"":352},{""stimulus"":""img/green_ll/8.jpg"",""time"":403},{""stimulus"":""img/green_ll/9.jpg"",""time"":452},{""stimulus"":""img/green_ll/10.jpg"",""time"":500},{""stimulus"":""img/green_ll/11.jpg"",""time"":564}]","[]"
"image-keyboard-response","142","114051","0.0-5.0-1.69","5d3bcf190e510a001b3df200","bdp_lott","Sun Mar 26 2023 15:18:11 GMT-0500 (Central Daylight Time)","270442","green","red","","388","","","","choice","","img/green_ll/choose11.jpg","1","156","green","0.5","0.5","0.5","l","",""
"animation","143","114654","0.0-5.0-2.69","5d3bcf190e510a001b3df200","bdp_lott","Sun Mar 26 2023 15:18:11 GMT-0500 (Central Daylight Time)","270442","green","red","","","","","","","","","","156","","","","","","[{""stimulus"":""img/green_ll/1.jpg"",""time"":57},{""stimulus"":""img/green_ll/2.jpg"",""time"":110},{""stimulus"":""img/green_ll/3.jpg"",""time"":157},{""stimulus"":""img/green_ll/4.jpg"",""time"":205},{""stimulus"":""img/green_ll/5.jpg"",""time"":253},{""stimulus"":""img/green_ll/6.jpg"",""time"":303},{""stimulus"":""img/green_ll/7.jpg"",""time"":353},{""stimulus"":""img/green_ll/8.jpg"",""time"":402},{""stimulus"":""img/green_ll/9.jpg"",""time"":452},{""stimulus"":""img/green_ll/10.jpg"",""time"":509},{""stimulus"":""img/green_ll/11.jpg"",""time"":553}]","[]"
"image-keyboard-response","144","114978","0.0-5.0-1.70","5d3bcf190e510a001b3df200","bdp_lott","Sun Mar 26 2023 15:18:11 GMT-0500 (Central Daylight Time)","270442","green","red","","323","","","","choice","","img/green_ll/choose11.jpg","1","155","green","0.5","0.5","0.5","l","",""
"animation","145","115579","0.0-5.0-2.70","5d3bcf190e510a001b3df200","bdp_lott","Sun Mar 26 2023 15:18:11 GMT-0500 (Central Daylight Time)","270442","green","red","","","","","","","","","","155","","","","","","[{""stimulus"":""img/green_ll/1.jpg"",""time"":63},{""stimulus"":""img/green_ll/2.jpg"",""time"":101},{""stimulus"":""img/green_ll/3.jpg"",""time"":151},{""stimulus"":""img/green_ll/4.jpg"",""time"":201},{""stimulus"":""img/green_ll/5.jpg"",""time"":251},{""stimulus"":""img/green_ll/6.jpg"",""time"":308},{""stimulus"":""img/green_ll/7.jpg"",""time"":358},{""stimulus"":""img/green_ll/8.jpg"",""time"":424},{""stimulus"":""img/green_ll/9.jpg"",""time"":451},{""stimulus"":""img/green_ll/10.jpg"",""time"":501},{""stimulus"":""img/green_ll/11.jpg"",""time"":551}]","[]"
"image-keyboard-response","146","115937","0.0-5.0-1.71","5d3bcf190e510a001b3df200","bdp_lott","Sun Mar 26 2023 15:18:11 GMT-0500 (Central Daylight Time)","270442","green","red","","358","","","","choice","","img/green_ll/choose11.jpg","1","154","green","0.5","0.5","0.5","w","",""
"animation","147","116538","0.0-5.0-2.71","5d3bcf190e510a001b3df200","bdp_lott","Sun Mar 26 2023 15:18:11 GMT-0500 (Central Daylight Time)","270442","green","red","","","","","","","","","","154","","","","","","[{""stimulus"":""img/green_wl/1.jpg"",""time"":61},{""stimulus"":""img/green_wl/2.jpg"",""time"":108},{""stimulus"":""img/green_wl/3.jpg"",""time"":156},{""stimulus"":""img/green_wl/4.jpg"",""time"":213},{""stimulus"":""img/green_wl/5.jpg"",""time"":251},{""stimulus"":""img/green_wl/6.jpg"",""time"":308},{""stimulus"":""img/green_wl/7.jpg"",""time"":358},{""stimulus"":""img/green_wl/8.jpg"",""time"":408},{""stimulus"":""img/green_wl/9.jpg"",""time"":457},{""stimulus"":""img/green_wl/10.jpg"",""time"":505},{""stimulus"":""img/green_wl/11.jpg"",""time"":559}]","[]"
"image-keyboard-response","148","117336","0.0-5.0-1.72","5d3bcf190e510a001b3df200","bdp_lott","Sun Mar 26 2023 15:18:11 GMT-0500 (Central Daylight Time)","270442","green","red","","798","","","","choice","","img/green_wl/choose11.jpg","1","153","green","0.5","0.5","0.5","l","",""
"animation","149","117944","0.0-5.0-2.72","5d3bcf190e510a001b3df200","bdp_lott","Sun Mar 26 2023 15:18:11 GMT-0500 (Central Daylight Time)","270442","green","red","","","","","","","","","","153","","","","","","[{""stimulus"":""img/green_ll/1.jpg"",""time"":58},{""stimulus"":""img/green_ll/2.jpg"",""time"":106},{""stimulus"":""img/green_ll/3.jpg"",""time"":151},{""stimulus"":""img/green_ll/4.jpg"",""time"":201},{""stimulus"":""img/green_ll/5.jpg"",""time"":251},{""stimulus"":""img/green_ll/6.jpg"",""time"":307},{""stimulus"":""img/green_ll/7.jpg"",""time"":355},{""stimulus"":""img/green_ll/8.jpg"",""time"":401},{""stimulus"":""img/green_ll/9.jpg"",""time"":455},{""stimulus"":""img/green_ll/10.jpg"",""time"":504},{""stimulus"":""img/green_ll/11.jpg"",""time"":551}]","[]"
"image-keyboard-response","150","118397","0.0-5.0-1.73","5d3bcf190e510a001b3df200","bdp_lott","Sun Mar 26 2023 15:18:11 GMT-0500 (Central Daylight Time)","270442","green","red","","452","","","","choice","","img/green_ll/choose11.jpg","1","152","green","0.5","0.5","0.5","w","",""
"animation","151","119001","0.0-5.0-2.73","5d3bcf190e510a001b3df200","bdp_lott","Sun Mar 26 2023 15:18:11 GMT-0500 (Central Daylight Time)","270442","green","red","","","","","","","","","","152","","","","","","[{""stimulus"":""img/green_wl/1.jpg"",""time"":62},{""stimulus"":""img/green_wl/2.jpg"",""time"":110},{""stimulus"":""img/green_wl/3.jpg"",""time"":157},{""stimulus"":""img/green_wl/4.jpg"",""time"":213},{""stimulus"":""img/green_wl/5.jpg"",""time"":255},{""stimulus"":""img/green_wl/6.jpg"",""time"":306},{""stimulus"":""img/green_wl/7.jpg"",""time"":355},{""stimulus"":""img/green_wl/8.jpg"",""time"":411},{""stimulus"":""img/green_wl/9.jpg"",""time"":456},{""stimulus"":""img/green_wl/10.jpg"",""time"":503},{""stimulus"":""img/green_wl/11.jpg"",""time"":551}]","[]"
"image-keyboard-response","152","119716","0.0-5.0-1.74","5d3bcf190e510a001b3df200","bdp_lott","Sun Mar 26 2023 15:18:11 GMT-0500 (Central Daylight Time)","270442","green","red","","715","","","","choice","","img/green_wl/choose11.jpg","1","151","green","0.5","0.5","0.5","w","",""
"animation","153","120318","0.0-5.0-2.74","5d3bcf190e510a001b3df200","bdp_lott","Sun Mar 26 2023 15:18:11 GMT-0500 (Central Daylight Time)","270442","green","red","","","","","","","","","","151","","","","","","[{""stimulus"":""img/green_wl/1.jpg"",""time"":61},{""stimulus"":""img/green_wl/2.jpg"",""time"":101},{""stimulus"":""img/green_wl/3.jpg"",""time"":168},{""stimulus"":""img/green_wl/4.jpg"",""time"":204},{""stimulus"":""img/green_wl/5.jpg"",""time"":254},{""stimulus"":""img/green_wl/6.jpg"",""time"":305},{""stimulus"":""img/green_wl/7.jpg"",""time"":356},{""stimulus"":""img/green_wl/8.jpg"",""time"":416},{""stimulus"":""img/green_wl/9.jpg"",""time"":454},{""stimulus"":""img/green_wl/10.jpg"",""time"":507},{""stimulus"":""img/green_wl/11.jpg"",""time"":554}]","[]"
"image-keyboard-response","154","120747","0.0-5.0-1.75","5d3bcf190e510a001b3df200","bdp_lott","Sun Mar 26 2023 15:18:11 GMT-0500 (Central Daylight Time)","270442","green","red","","428","","","","choice","","img/green_wl/choose11.jpg","1","150","green","0.5","0.5","0.5","l","",""
"animation","155","121353","0.0-5.0-2.75","5d3bcf190e510a001b3df200","bdp_lott","Sun Mar 26 2023 15:18:11 GMT-0500 (Central Daylight Time)","270442","green","red","","","","","","","","","","150","","","","","","[{""stimulus"":""img/green_ll/1.jpg"",""time"":63},{""stimulus"":""img/green_ll/2.jpg"",""time"":115},{""stimulus"":""img/green_ll/3.jpg"",""time"":156},{""stimulus"":""img/green_ll/4.jpg"",""time"":206},{""stimulus"":""img/green_ll/5.jpg"",""time"":257},{""stimulus"":""img/green_ll/6.jpg"",""time"":307},{""stimulus"":""img/green_ll/7.jpg"",""time"":362},{""stimulus"":""img/green_ll/8.jpg"",""time"":402},{""stimulus"":""img/green_ll/9.jpg"",""time"":457},{""stimulus"":""img/green_ll/10.jpg"",""time"":514},{""stimulus"":""img/green_ll/11.jpg"",""time"":556}]","[]"
"image-keyboard-response","156","121725","0.0-5.0-1.76","5d3bcf190e510a001b3df200","bdp_lott","Sun Mar 26 2023 15:18:11 GMT-0500 (Central Daylight Time)","270442","green","red","","371","","","","choice","","img/green_ll/choose11.jpg","1","149","green","0.5","0.1","0.5","l","",""
"animation","157","122326","0.0-5.0-2.76","5d3bcf190e510a001b3df200","bdp_lott","Sun Mar 26 2023 15:18:11 GMT-0500 (Central Daylight Time)","270442","green","red","","","","","","","","","","149","","","","","","[{""stimulus"":""img/green_ll/1.jpg"",""time"":53},{""stimulus"":""img/green_ll/2.jpg"",""time"":102},{""stimulus"":""img/green_ll/3.jpg"",""time"":165},{""stimulus"":""img/green_ll/4.jpg"",""time"":204},{""stimulus"":""img/green_ll/5.jpg"",""time"":254},{""stimulus"":""img/green_ll/6.jpg"",""time"":304},{""stimulus"":""img/green_ll/7.jpg"",""time"":354},{""stimulus"":""img/green_ll/8.jpg"",""time"":404},{""stimulus"":""img/green_ll/9.jpg"",""time"":453},{""stimulus"":""img/green_ll/10.jpg"",""time"":504},{""stimulus"":""img/green_ll/11.jpg"",""time"":553}]","[]"
"image-keyboard-response","158","122599","0.0-5.0-1.77","5d3bcf190e510a001b3df200","bdp_lott","Sun Mar 26 2023 15:18:11 GMT-0500 (Central Daylight Time)","270442","green","red","","273","","","","choice","","img/green_ll/choose11.jpg","1","148","green","0.5","0.1","0.5","l","",""
"animation","159","123204","0.0-5.0-2.77","5d3bcf190e510a001b3df200","bdp_lott","Sun Mar 26 2023 15:18:11 GMT-0500 (Central Daylight Time)","270442","green","red","","","","","","","","","","148","","","","","","[{""stimulus"":""img/green_ll/1.jpg"",""time"":63},{""stimulus"":""img/green_ll/2.jpg"",""time"":104},{""stimulus"":""img/green_ll/3.jpg"",""time"":152},{""stimulus"":""img/green_ll/4.jpg"",""time"":201},{""stimulus"":""img/green_ll/5.jpg"",""time"":252},{""stimulus"":""img/green_ll/6.jpg"",""time"":303},{""stimulus"":""img/green_ll/7.jpg"",""time"":354},{""stimulus"":""img/green_ll/8.jpg"",""time"":404},{""stimulus"":""img/green_ll/9.jpg"",""time"":453},{""stimulus"":""img/green_ll/10.jpg"",""time"":503},{""stimulus"":""img/green_ll/11.jpg"",""time"":552}]","[]"
"image-keyboard-response","160","123648","0.0-5.0-1.78","5d3bcf190e510a001b3df200","bdp_lott","Sun Mar 26 2023 15:18:11 GMT-0500 (Central Daylight Time)","270442","green","red","","444","","","","choice","","img/green_ll/choose11.jpg","1","147","green","0.5","0.1","0.5","l","",""
"animation","161","124253","0.0-5.0-2.78","5d3bcf190e510a001b3df200","bdp_lott","Sun Mar 26 2023 15:18:11 GMT-0500 (Central Daylight Time)","270442","green","red","","","","","","","","","","147","","","","","","[{""stimulus"":""img/green_ll/1.jpg"",""time"":61},{""stimulus"":""img/green_ll/2.jpg"",""time"":112},{""stimulus"":""img/green_ll/3.jpg"",""time"":153},{""stimulus"":""img/green_ll/4.jpg"",""time"":209},{""stimulus"":""img/green_ll/5.jpg"",""time"":256},{""stimulus"":""img/green_ll/6.jpg"",""time"":312},{""stimulus"":""img/green_ll/7.jpg"",""time"":355},{""stimulus"":""img/green_ll/8.jpg"",""time"":406},{""stimulus"":""img/green_ll/9.jpg"",""time"":454},{""stimulus"":""img/green_ll/10.jpg"",""time"":506},{""stimulus"":""img/green_ll/11.jpg"",""time"":554}]","[]"
"image-keyboard-response","162","124571","0.0-5.0-1.79","5d3bcf190e510a001b3df200","bdp_lott","Sun Mar 26 2023 15:18:11 GMT-0500 (Central Daylight Time)","270442","green","red","","318","","","","choice","","img/green_ll/choose11.jpg","1","146","green","0.5","0.1","0.5","l","",""
"animation","163","125178","0.0-5.0-2.79","5d3bcf190e510a001b3df200","bdp_lott","Sun Mar 26 2023 15:18:11 GMT-0500 (Central Daylight Time)","270442","green","red","","","","","","","","","","146","","","","","","[{""stimulus"":""img/green_ll/1.jpg"",""time"":63},{""stimulus"":""img/green_ll/2.jpg"",""time"":124},{""stimulus"":""img/green_ll/3.jpg"",""time"":157},{""stimulus"":""img/green_ll/4.jpg"",""time"":207},{""stimulus"":""img/green_ll/5.jpg"",""time"":255},{""stimulus"":""img/green_ll/6.jpg"",""time"":309},{""stimulus"":""img/green_ll/7.jpg"",""time"":358},{""stimulus"":""img/green_ll/8.jpg"",""time"":408},{""stimulus"":""img/green_ll/9.jpg"",""time"":457},{""stimulus"":""img/green_ll/10.jpg"",""time"":508},{""stimulus"":""img/green_ll/11.jpg"",""time"":574}]","[]"
"image-keyboard-response","164","125552","0.0-5.0-1.80","5d3bcf190e510a001b3df200","bdp_lott","Sun Mar 26 2023 15:18:11 GMT-0500 (Central Daylight Time)","270442","green","red","","373","","","","choice","","img/green_ll/choose11.jpg","1","145","green","0.5","0.1","0.5","l","",""
"animation","165","126155","0.0-5.0-2.80","5d3bcf190e510a001b3df200","bdp_lott","Sun Mar 26 2023 15:18:11 GMT-0500 (Central Daylight Time)","270442","green","red","","","","","","","","","","145","","","","","","[{""stimulus"":""img/green_ll/1.jpg"",""time"":61},{""stimulus"":""img/green_ll/2.jpg"",""time"":112},{""stimulus"":""img/green_ll/3.jpg"",""time"":152},{""stimulus"":""img/green_ll/4.jpg"",""time"":203},{""stimulus"":""img/green_ll/5.jpg"",""time"":251},{""stimulus"":""img/green_ll/6.jpg"",""time"":303},{""stimulus"":""img/green_ll/7.jpg"",""time"":353},{""stimulus"":""img/green_ll/8.jpg"",""time"":415},{""stimulus"":""img/green_ll/9.jpg"",""time"":452},{""stimulus"":""img/green_ll/10.jpg"",""time"":503},{""stimulus"":""img/green_ll/11.jpg"",""time"":552}]","[]"
"image-keyboard-response","166","126533","0.0-5.0-1.81","5d3bcf190e510a001b3df200","bdp_lott","Sun Mar 26 2023 15:18:11 GMT-0500 (Central Daylight Time)","270442","green","red","","378","","","","choice","","img/green_ll/choose11.jpg","1","144","green","0.5","0.1","0.5","w","",""
"animation","167","127145","0.0-5.0-2.81","5d3bcf190e510a001b3df200","bdp_lott","Sun Mar 26 2023 15:18:11 GMT-0500 (Central Daylight Time)","270442","green","red","","","","","","","","","","144","","","","","","[{""stimulus"":""img/green_wl/1.jpg"",""time"":62},{""stimulus"":""img/green_wl/2.jpg"",""time"":102},{""stimulus"":""img/green_wl/3.jpg"",""time"":153},{""stimulus"":""img/green_wl/4.jpg"",""time"":203},{""stimulus"":""img/green_wl/5.jpg"",""time"":260},{""stimulus"":""img/green_wl/6.jpg"",""time"":301},{""stimulus"":""img/green_wl/7.jpg"",""time"":353},{""stimulus"":""img/green_wl/8.jpg"",""time"":416},{""stimulus"":""img/green_wl/9.jpg"",""time"":453},{""stimulus"":""img/green_wl/10.jpg"",""time"":509},{""stimulus"":""img/green_wl/11.jpg"",""time"":558}]","[]"
"image-keyboard-response","168","127494","0.0-5.0-1.82","5d3bcf190e510a001b3df200","bdp_lott","Sun Mar 26 2023 15:18:11 GMT-0500 (Central Daylight Time)","270442","green","red","","348","","","","choice","","img/green_wl/choose11.jpg","1","143","green","0.5","0.1","0.5","l","",""
"animation","169","128102","0.0-5.0-2.82","5d3bcf190e510a001b3df200","bdp_lott","Sun Mar 26 2023 15:18:11 GMT-0500 (Central Daylight Time)","270442","green","red","","","","","","","","","","143","","","","","","[{""stimulus"":""img/green_ll/1.jpg"",""time"":54},{""stimulus"":""img/green_ll/2.jpg"",""time"":108},{""stimulus"":""img/green_ll/3.jpg"",""time"":159},{""stimulus"":""img/green_ll/4.jpg"",""time"":206},{""stimulus"":""img/green_ll/5.jpg"",""time"":255},{""stimulus"":""img/green_ll/6.jpg"",""time"":307},{""stimulus"":""img/green_ll/7.jpg"",""time"":359},{""stimulus"":""img/green_ll/8.jpg"",""time"":401},{""stimulus"":""img/green_ll/9.jpg"",""time"":458},{""stimulus"":""img/green_ll/10.jpg"",""time"":500},{""stimulus"":""img/green_ll/11.jpg"",""time"":550}]","[]"
"image-keyboard-response","170","128461","0.0-5.0-1.83","5d3bcf190e510a001b3df200","bdp_lott","Sun Mar 26 2023 15:18:11 GMT-0500 (Central Daylight Time)","270442","green","red","","357","","","","choice","","img/green_ll/choose11.jpg","1","142","green","0.5","0.1","0.5","w","",""
"animation","171","129062","0.0-5.0-2.83","5d3bcf190e510a001b3df200","bdp_lott","Sun Mar 26 2023 15:18:11 GMT-0500 (Central Daylight Time)","270442","green","red","","","","","","","","","","142","","","","","","[{""stimulus"":""img/green_wl/1.jpg"",""time"":58},{""stimulus"":""img/green_wl/2.jpg"",""time"":122},{""stimulus"":""img/green_wl/3.jpg"",""time"":150},{""stimulus"":""img/green_wl/4.jpg"",""time"":223},{""stimulus"":""img/green_wl/5.jpg"",""time"":251},{""stimulus"":""img/green_wl/6.jpg"",""time"":301},{""stimulus"":""img/green_wl/7.jpg"",""time"":351},{""stimulus"":""img/green_wl/8.jpg"",""time"":401},{""stimulus"":""img/green_wl/9.jpg"",""time"":451},{""stimulus"":""img/green_wl/10.jpg"",""time"":501},{""stimulus"":""img/green_wl/11.jpg"",""time"":565}]","[]"
"image-keyboard-response","172","129442","0.0-5.0-1.84","5d3bcf190e510a001b3df200","bdp_lott","Sun Mar 26 2023 15:18:11 GMT-0500 (Central Daylight Time)","270442","green","red","","379","","","","choice","","img/green_wl/choose11.jpg","1","141","green","0.5","0.1","0.5","w","",""
"animation","173","130043","0.0-5.0-2.84","5d3bcf190e510a001b3df200","bdp_lott","Sun Mar 26 2023 15:18:11 GMT-0500 (Central Daylight Time)","270442","green","red","","","","","","","","","","141","","","","","","[{""stimulus"":""img/green_wl/1.jpg"",""time"":66},{""stimulus"":""img/green_wl/2.jpg"",""time"":104},{""stimulus"":""img/green_wl/3.jpg"",""time"":154},{""stimulus"":""img/green_wl/4.jpg"",""time"":203},{""stimulus"":""img/green_wl/5.jpg"",""time"":252},{""stimulus"":""img/green_wl/6.jpg"",""time"":312},{""stimulus"":""img/green_wl/7.jpg"",""time"":361},{""stimulus"":""img/green_wl/8.jpg"",""time"":403},{""stimulus"":""img/green_wl/9.jpg"",""time"":458},{""stimulus"":""img/green_wl/10.jpg"",""time"":503},{""stimulus"":""img/green_wl/11.jpg"",""time"":571}]","[]"
"image-keyboard-response","174","130362","0.0-5.0-1.85","5d3bcf190e510a001b3df200","bdp_lott","Sun Mar 26 2023 15:18:11 GMT-0500 (Central Daylight Time)","270442","green","red","","319","","","","choice","","img/green_wl/choose11.jpg","1","140","green","0.5","0.1","0.5","l","",""
"animation","175","130970","0.0-5.0-2.85","5d3bcf190e510a001b3df200","bdp_lott","Sun Mar 26 2023 15:18:11 GMT-0500 (Central Daylight Time)","270442","green","red","","","","","","","","","","140","","","","","","[{""stimulus"":""img/green_ll/1.jpg"",""time"":65},{""stimulus"":""img/green_ll/2.jpg"",""time"":105},{""stimulus"":""img/green_ll/3.jpg"",""time"":158},{""stimulus"":""img/green_ll/4.jpg"",""time"":224},{""stimulus"":""img/green_ll/5.jpg"",""time"":258},{""stimulus"":""img/green_ll/6.jpg"",""time"":306},{""stimulus"":""img/green_ll/7.jpg"",""time"":355},{""stimulus"":""img/green_ll/8.jpg"",""time"":404},{""stimulus"":""img/green_ll/9.jpg"",""time"":458},{""stimulus"":""img/green_ll/10.jpg"",""time"":508},{""stimulus"":""img/green_ll/11.jpg"",""time"":564}]","[]"
"image-keyboard-response","176","131323","0.0-5.0-1.86","5d3bcf190e510a001b3df200","bdp_lott","Sun Mar 26 2023 15:18:11 GMT-0500 (Central Daylight Time)","270442","green","red","","353","","","","choice","","img/green_ll/choose11.jpg","1","139","green","0.5","0.1","0.5","l","",""
"animation","177","131928","0.0-5.0-2.86","5d3bcf190e510a001b3df200","bdp_lott","Sun Mar 26 2023 15:18:11 GMT-0500 (Central Daylight Time)","270442","green","red","","","","","","","","","","139","","","","","","[{""stimulus"":""img/green_ll/1.jpg"",""time"":51},{""stimulus"":""img/green_ll/2.jpg"",""time"":104},{""stimulus"":""img/green_ll/3.jpg"",""time"":158},{""stimulus"":""img/green_ll/4.jpg"",""time"":205},{""stimulus"":""img/green_ll/5.jpg"",""time"":254},{""stimulus"":""img/green_ll/6.jpg"",""time"":308},{""stimulus"":""img/green_ll/7.jpg"",""time"":355},{""stimulus"":""img/green_ll/8.jpg"",""time"":403},{""stimulus"":""img/green_ll/9.jpg"",""time"":472},{""stimulus"":""img/green_ll/10.jpg"",""time"":505},{""stimulus"":""img/green_ll/11.jpg"",""time"":555}]","[]"
"image-keyboard-response","178","132342","0.0-5.0-1.87","5d3bcf190e510a001b3df200","bdp_lott","Sun Mar 26 2023 15:18:11 GMT-0500 (Central Daylight Time)","270442","green","red","","413","","","","choice","","img/green_ll/choose11.jpg","1","138","green","0.5","0.1","0.5","l","",""
"animation","179","132944","0.0-5.0-2.87","5d3bcf190e510a001b3df200","bdp_lott","Sun Mar 26 2023 15:18:11 GMT-0500 (Central Daylight Time)","270442","green","red","","","","","","","","","","138","","","","","","[{""stimulus"":""img/green_ll/1.jpg"",""time"":60},{""stimulus"":""img/green_ll/2.jpg"",""time"":107},{""stimulus"":""img/green_ll/3.jpg"",""time"":151},{""stimulus"":""img/green_ll/4.jpg"",""time"":207},{""stimulus"":""img/green_ll/5.jpg"",""time"":260},{""stimulus"":""img/green_ll/6.jpg"",""time"":302},{""stimulus"":""img/green_ll/7.jpg"",""time"":352},{""stimulus"":""img/green_ll/8.jpg"",""time"":408},{""stimulus"":""img/green_ll/9.jpg"",""time"":453},{""stimulus"":""img/green_ll/10.jpg"",""time"":507},{""stimulus"":""img/green_ll/11.jpg"",""time"":552}]","[]"
"image-keyboard-response","180","133567","0.0-5.0-1.88","5d3bcf190e510a001b3df200","bdp_lott","Sun Mar 26 2023 15:18:11 GMT-0500 (Central Daylight Time)","270442","green","red","","622","","","","choice","","img/green_ll/choose11.jpg","2","137","red","0.5","0.1","0.1","l","",""
"animation","181","134176","0.0-5.0-2.88","5d3bcf190e510a001b3df200","bdp_lott","Sun Mar 26 2023 15:18:11 GMT-0500 (Central Daylight Time)","270442","green","red","","","","","","","","","","137","","","","","","[{""stimulus"":""img/red_ll/1.jpg"",""time"":58},{""stimulus"":""img/red_ll/2.jpg"",""time"":108},{""stimulus"":""img/red_ll/3.jpg"",""time"":155},{""stimulus"":""img/red_ll/4.jpg"",""time"":203},{""stimulus"":""img/red_ll/5.jpg"",""time"":253},{""stimulus"":""img/red_ll/6.jpg"",""time"":308},{""stimulus"":""img/red_ll/7.jpg"",""time"":353},{""stimulus"":""img/red_ll/8.jpg"",""time"":408},{""stimulus"":""img/red_ll/9.jpg"",""time"":465},{""stimulus"":""img/red_ll/10.jpg"",""time"":503},{""stimulus"":""img/red_ll/11.jpg"",""time"":553}]","[]"
"image-keyboard-response","182","134489","0.0-5.0-1.89","5d3bcf190e510a001b3df200","bdp_lott","Sun Mar 26 2023 15:18:11 GMT-0500 (Central Daylight Time)","270442","green","red","","312","","","","choice","","img/red_ll/choose11.jpg","2","136","red","0.5","0.1","0.1","l","",""
"animation","183","135096","0.0-5.0-2.89","5d3bcf190e510a001b3df200","bdp_lott","Sun Mar 26 2023 15:18:11 GMT-0500 (Central Daylight Time)","270442","green","red","","","","","","","","","","136","","","","","","[{""stimulus"":""img/red_ll/1.jpg"",""time"":62},{""stimulus"":""img/red_ll/2.jpg"",""time"":105},{""stimulus"":""img/red_ll/3.jpg"",""time"":156},{""stimulus"":""img/red_ll/4.jpg"",""time"":206},{""stimulus"":""img/red_ll/5.jpg"",""time"":251},{""stimulus"":""img/red_ll/6.jpg"",""time"":308},{""stimulus"":""img/red_ll/7.jpg"",""time"":355},{""stimulus"":""img/red_ll/8.jpg"",""time"":402},{""stimulus"":""img/red_ll/9.jpg"",""time"":455},{""stimulus"":""img/red_ll/10.jpg"",""time"":504},{""stimulus"":""img/red_ll/11.jpg"",""time"":556}]","[]"
"image-keyboard-response","184","135443","0.0-5.0-1.90","5d3bcf190e510a001b3df200","bdp_lott","Sun Mar 26 2023 15:18:11 GMT-0500 (Central Daylight Time)","270442","green","red","","347","","","","choice","","img/red_ll/choose11.jpg","2","135","red","0.5","0.1","0.1","l","",""
"animation","185","136045","0.0-5.0-2.90","5d3bcf190e510a001b3df200","bdp_lott","Sun Mar 26 2023 15:18:11 GMT-0500 (Central Daylight Time)","270442","green","red","","","","","","","","","","135","","","","","","[{""stimulus"":""img/red_ll/1.jpg"",""time"":62},{""stimulus"":""img/red_ll/2.jpg"",""time"":102},{""stimulus"":""img/red_ll/3.jpg"",""time"":174},{""stimulus"":""img/red_ll/4.jpg"",""time"":202},{""stimulus"":""img/red_ll/5.jpg"",""time"":253},{""stimulus"":""img/red_ll/6.jpg"",""time"":302},{""stimulus"":""img/red_ll/7.jpg"",""time"":352},{""stimulus"":""img/red_ll/8.jpg"",""time"":402},{""stimulus"":""img/red_ll/9.jpg"",""time"":452},{""stimulus"":""img/red_ll/10.jpg"",""time"":501},{""stimulus"":""img/red_ll/11.jpg"",""time"":553}]","[]"
"image-keyboard-response","186","136330","0.0-5.0-1.91","5d3bcf190e510a001b3df200","bdp_lott","Sun Mar 26 2023 15:18:11 GMT-0500 (Central Daylight Time)","270442","green","red","","284","","","","choice","","img/red_ll/choose11.jpg","2","134","red","0.5","0.1","0.1","l","",""
"animation","187","136937","0.0-5.0-2.91","5d3bcf190e510a001b3df200","bdp_lott","Sun Mar 26 2023 15:18:11 GMT-0500 (Central Daylight Time)","270442","green","red","","","","","","","","","","134","","","","","","[{""stimulus"":""img/red_ll/1.jpg"",""time"":57},{""stimulus"":""img/red_ll/2.jpg"",""time"":107},{""stimulus"":""img/red_ll/3.jpg"",""time"":166},{""stimulus"":""img/red_ll/4.jpg"",""time"":206},{""stimulus"":""img/red_ll/5.jpg"",""time"":257},{""stimulus"":""img/red_ll/6.jpg"",""time"":306},{""stimulus"":""img/red_ll/7.jpg"",""time"":364},{""stimulus"":""img/red_ll/8.jpg"",""time"":404},{""stimulus"":""img/red_ll/9.jpg"",""time"":452},{""stimulus"":""img/red_ll/10.jpg"",""time"":508},{""stimulus"":""img/red_ll/11.jpg"",""time"":557}]","[]"
"image-keyboard-response","188","137482","0.0-5.0-1.92","5d3bcf190e510a001b3df200","bdp_lott","Sun Mar 26 2023 15:18:11 GMT-0500 (Central Daylight Time)","270442","green","red","","544","","","","choice","","img/red_ll/choose11.jpg","2","133","red","0.5","0.1","0.1","l","",""
"animation","189","138084","0.0-5.0-2.92","5d3bcf190e510a001b3df200","bdp_lott","Sun Mar 26 2023 15:18:11 GMT-0500 (Central Daylight Time)","270442","green","red","","","","","","","","","","133","","","","","","[{""stimulus"":""img/red_ll/1.jpg"",""time"":61},{""stimulus"":""img/red_ll/2.jpg"",""time"":108},{""stimulus"":""img/red_ll/3.jpg"",""time"":158},{""stimulus"":""img/red_ll/4.jpg"",""time"":207},{""stimulus"":""img/red_ll/5.jpg"",""time"":255},{""stimulus"":""img/red_ll/6.jpg"",""time"":307},{""stimulus"":""img/red_ll/7.jpg"",""time"":356},{""stimulus"":""img/red_ll/8.jpg"",""time"":405},{""stimulus"":""img/red_ll/9.jpg"",""time"":456},{""stimulus"":""img/red_ll/10.jpg"",""time"":504},{""stimulus"":""img/red_ll/11.jpg"",""time"":555}]","[]"
"image-keyboard-response","190","138678","0.0-5.0-1.93","5d3bcf190e510a001b3df200","bdp_lott","Sun Mar 26 2023 15:18:11 GMT-0500 (Central Daylight Time)","270442","green","red","","593","","","","choice","","img/red_ll/choose11.jpg","2","132","red","0.5","0.1","0.1","l","",""
