"trial_type","trial_index","time_elapsed","internal_node_id","subject_id","task","startTime","totalTime","fairMachine","unfairMachine","view_history","rt","event","trial","time","trialtype","success","stimulus","key_press","roundsLeft","chosen","pFairMachWin","pUnfairMachWin","pTrialWin","outcome","animation_sequence","responses","numBlurs"
"pavlovia","0","8","0.0-0.0","63f68fcc9f84b736270f0e8e","bdp_lott","Mon Mar 27 2023 17:53:45 GMT-0500 (Central Daylight Time)","745381","green","red","","","","","","","","","","","","","","","","","",""
"instructions","1","5079","0.0-1.0","63f68fcc9f84b736270f0e8e","bdp_lott","Mon Mar 27 2023 17:53:45 GMT-0500 (Central Daylight Time)","745381","green","red","[{""page_index"":0,""viewing_time"":5070}]","5070","","","","","","","","","","","","","","","",""
"","","","","63f68fcc9f84b736270f0e8e","bdp_lott","Mon Mar 27 2023 17:53:45 GMT-0500 (Central Daylight Time)","745381","green","red","","","fullscreenenter","2","7059","fullscreenenter","","","","","","","","","","","",""
"fullscreen","2","8006","0.0-2.0","63f68fcc9f84b736270f0e8e","bdp_lott","Mon Mar 27 2023 17:53:45 GMT-0500 (Central Daylight Time)","745381","green","red","","","","","","","true","","","","","","","","","","",""
"instructions","3","26990","0.0-4.0","63f68fcc9f84b736270f0e8e","bdp_lott","Mon Mar 27 2023 17:53:45 GMT-0500 (Central Daylight Time)","745381","green","red","[{""page_index"":0,""viewing_time"":18983}]","18983","","","","","","","","","","","","","","","",""
"image-keyboard-response","4","33579","0.0-5.0-1.0","63f68fcc9f84b736270f0e8e","bdp_lott","Mon Mar 27 2023 17:53:45 GMT-0500 (Central Daylight Time)","745381","green","red","","6586","","","","choice","","img/red_ll/initchoose11.jpg","1","225","green","0.5","0.5","0.5","l","","",""
"animation","5","34181","0.0-5.0-2.0","63f68fcc9f84b736270f0e8e","bdp_lott","Mon Mar 27 2023 17:53:45 GMT-0500 (Central Daylight Time)","745381","green","red","","","","","","","","","","225","","","","","","[{""stimulus"":""img/green_ll/1.jpg"",""time"":51},{""stimulus"":""img/green_ll/2.jpg"",""time"":102},{""stimulus"":""img/green_ll/3.jpg"",""time"":152},{""stimulus"":""img/green_ll/4.jpg"",""time"":201},{""stimulus"":""img/green_ll/5.jpg"",""time"":251},{""stimulus"":""img/green_ll/6.jpg"",""time"":301},{""stimulus"":""img/green_ll/7.jpg"",""time"":352},{""stimulus"":""img/green_ll/8.jpg"",""time"":401},{""stimulus"":""img/green_ll/9.jpg"",""time"":451},{""stimulus"":""img/green_ll/10.jpg"",""time"":502},{""stimulus"":""img/green_ll/11.jpg"",""time"":552}]","[]",""
"image-keyboard-response","6","34890","0.0-5.0-1.1","63f68fcc9f84b736270f0e8e","bdp_lott","Mon Mar 27 2023 17:53:45 GMT-0500 (Central Daylight Time)","745381","green","red","","708","","","","choice","","img/green_ll/choose11.jpg","2","224","red","0.5","0.5","0.5","w","","",""
"animation","7","35490","0.0-5.0-2.1","63f68fcc9f84b736270f0e8e","bdp_lott","Mon Mar 27 2023 17:53:45 GMT-0500 (Central Daylight Time)","745381","green","red","","","","","","","","","","224","","","","","","[{""stimulus"":""img/red_lw/1.jpg"",""time"":51},{""stimulus"":""img/red_lw/2.jpg"",""time"":101},{""stimulus"":""img/red_lw/3.jpg"",""time"":152},{""stimulus"":""img/red_lw/4.jpg"",""time"":202},{""stimulus"":""img/red_lw/5.jpg"",""time"":252},{""stimulus"":""img/red_lw/6.jpg"",""time"":302},{""stimulus"":""img/red_lw/7.jpg"",""time"":351},{""stimulus"":""img/red_lw/8.jpg"",""time"":400},{""stimulus"":""img/red_lw/9.jpg"",""time"":451},{""stimulus"":""img/red_lw/10.jpg"",""time"":502},{""stimulus"":""img/red_lw/11.jpg"",""time"":551}]","[]",""
"image-keyboard-response","8","36110","0.0-5.0-1.2","63f68fcc9f84b736270f0e8e","bdp_lott","Mon Mar 27 2023 17:53:45 GMT-0500 (Central Daylight Time)","745381","green","red","","618","","","","choice","","img/red_lw/choose11.jpg","1","223","green","0.5","0.5","0.5","l","","",""
"animation","9","36711","0.0-5.0-2.2","63f68fcc9f84b736270f0e8e","bdp_lott","Mon Mar 27 2023 17:53:45 GMT-0500 (Central Daylight Time)","745381","green","red","","","","","","","","","","223","","","","","","[{""stimulus"":""img/green_lw/1.jpg"",""time"":51},{""stimulus"":""img/green_lw/2.jpg"",""time"":100},{""stimulus"":""img/green_lw/3.jpg"",""time"":151},{""stimulus"":""img/green_lw/4.jpg"",""time"":200},{""stimulus"":""img/green_lw/5.jpg"",""time"":251},{""stimulus"":""img/green_lw/6.jpg"",""time"":301},{""stimulus"":""img/green_lw/7.jpg"",""time"":351},{""stimulus"":""img/green_lw/8.jpg"",""time"":401},{""stimulus"":""img/green_lw/9.jpg"",""time"":450},{""stimulus"":""img/green_lw/10.jpg"",""time"":500},{""stimulus"":""img/green_lw/11.jpg"",""time"":551}]","[]",""
"image-keyboard-response","10","37268","0.0-5.0-1.3","63f68fcc9f84b736270f0e8e","bdp_lott","Mon Mar 27 2023 17:53:45 GMT-0500 (Central Daylight Time)","745381","green","red","","556","","","","choice","","img/green_lw/choose11.jpg","1","222","green","0.5","0.5","0.5","l","","",""
"animation","11","37869","0.0-5.0-2.3","63f68fcc9f84b736270f0e8e","bdp_lott","Mon Mar 27 2023 17:53:45 GMT-0500 (Central Daylight Time)","745381","green","red","","","","","","","","","","222","","","","","","[{""stimulus"":""img/green_lw/1.jpg"",""time"":52},{""stimulus"":""img/green_lw/2.jpg"",""time"":101},{""stimulus"":""img/green_lw/3.jpg"",""time"":151},{""stimulus"":""img/green_lw/4.jpg"",""time"":201},{""stimulus"":""img/green_lw/5.jpg"",""time"":250},{""stimulus"":""img/green_lw/6.jpg"",""time"":301},{""stimulus"":""img/green_lw/7.jpg"",""time"":352},{""stimulus"":""img/green_lw/8.jpg"",""time"":401},{""stimulus"":""img/green_lw/9.jpg"",""time"":451},{""stimulus"":""img/green_lw/10.jpg"",""time"":501},{""stimulus"":""img/green_lw/11.jpg"",""time"":551}]","[]",""
"image-keyboard-response","12","38189","0.0-5.0-1.4","63f68fcc9f84b736270f0e8e","bdp_lott","Mon Mar 27 2023 17:53:45 GMT-0500 (Central Daylight Time)","745381","green","red","","320","","","","choice","","img/green_lw/choose11.jpg","1","221","green","0.5","0.5","0.5","l","","",""
"animation","13","38790","0.0-5.0-2.4","63f68fcc9f84b736270f0e8e","bdp_lott","Mon Mar 27 2023 17:53:45 GMT-0500 (Central Daylight Time)","745381","green","red","","","","","","","","","","221","","","","","","[{""stimulus"":""img/green_lw/1.jpg"",""time"":51},{""stimulus"":""img/green_lw/2.jpg"",""time"":102},{""stimulus"":""img/green_lw/3.jpg"",""time"":151},{""stimulus"":""img/green_lw/4.jpg"",""time"":201},{""stimulus"":""img/green_lw/5.jpg"",""time"":251},{""stimulus"":""img/green_lw/6.jpg"",""time"":301},{""stimulus"":""img/green_lw/7.jpg"",""time"":352},{""stimulus"":""img/green_lw/8.jpg"",""time"":400},{""stimulus"":""img/green_lw/9.jpg"",""time"":451},{""stimulus"":""img/green_lw/10.jpg"",""time"":502},{""stimulus"":""img/green_lw/11.jpg"",""time"":551}]","[]",""
"image-keyboard-response","14","39087","0.0-5.0-1.5","63f68fcc9f84b736270f0e8e","bdp_lott","Mon Mar 27 2023 17:53:45 GMT-0500 (Central Daylight Time)","745381","green","red","","297","","","","choice","","img/green_lw/choose11.jpg","1","220","green","0.5","0.5","0.5","w","","",""
"animation","15","39687","0.0-5.0-2.5","63f68fcc9f84b736270f0e8e","bdp_lott","Mon Mar 27 2023 17:53:45 GMT-0500 (Central Daylight Time)","745381","green","red","","","","","","","","","","220","","","","","","[{""stimulus"":""img/green_ww/1.jpg"",""time"":51},{""stimulus"":""img/green_ww/2.jpg"",""time"":101},{""stimulus"":""img/green_ww/3.jpg"",""time"":151},{""stimulus"":""img/green_ww/4.jpg"",""time"":200},{""stimulus"":""img/green_ww/5.jpg"",""time"":251},{""stimulus"":""img/green_ww/6.jpg"",""time"":302},{""stimulus"":""img/green_ww/7.jpg"",""time"":350},{""stimulus"":""img/green_ww/8.jpg"",""time"":401},{""stimulus"":""img/green_ww/9.jpg"",""time"":451},{""stimulus"":""img/green_ww/10.jpg"",""time"":500},{""stimulus"":""img/green_ww/11.jpg"",""time"":550}]","[]",""
"image-keyboard-response","16","39917","0.0-5.0-1.6","63f68fcc9f84b736270f0e8e","bdp_lott","Mon Mar 27 2023 17:53:45 GMT-0500 (Central Daylight Time)","745381","green","red","","229","","","","choice","","img/green_ww/choose11.jpg","1","219","green","0.5","0.5","0.5","w","","",""
"animation","17","40518","0.0-5.0-2.6","63f68fcc9f84b736270f0e8e","bdp_lott","Mon Mar 27 2023 17:53:45 GMT-0500 (Central Daylight Time)","745381","green","red","","","","","","","","","","219","","","","","","[{""stimulus"":""img/green_ww/1.jpg"",""time"":51},{""stimulus"":""img/green_ww/2.jpg"",""time"":100},{""stimulus"":""img/green_ww/3.jpg"",""time"":150},{""stimulus"":""img/green_ww/4.jpg"",""time"":201},{""stimulus"":""img/green_ww/5.jpg"",""time"":251},{""stimulus"":""img/green_ww/6.jpg"",""time"":301},{""stimulus"":""img/green_ww/7.jpg"",""time"":351},{""stimulus"":""img/green_ww/8.jpg"",""time"":401},{""stimulus"":""img/green_ww/9.jpg"",""time"":451},{""stimulus"":""img/green_ww/10.jpg"",""time"":501},{""stimulus"":""img/green_ww/11.jpg"",""time"":551}]","[]",""
"image-keyboard-response","18","40883","0.0-5.0-1.7","63f68fcc9f84b736270f0e8e","bdp_lott","Mon Mar 27 2023 17:53:45 GMT-0500 (Central Daylight Time)","745381","green","red","","364","","","","choice","","img/green_ww/choose11.jpg","2","218","red","0.5","0.5","0.5","w","","",""
"animation","19","41484","0.0-5.0-2.7","63f68fcc9f84b736270f0e8e","bdp_lott","Mon Mar 27 2023 17:53:45 GMT-0500 (Central Daylight Time)","745381","green","red","","","","","","","","","","218","","","","","","[{""stimulus"":""img/red_ww/1.jpg"",""time"":51},{""stimulus"":""img/red_ww/2.jpg"",""time"":102},{""stimulus"":""img/red_ww/3.jpg"",""time"":151},{""stimulus"":""img/red_ww/4.jpg"",""time"":202},{""stimulus"":""img/red_ww/5.jpg"",""time"":251},{""stimulus"":""img/red_ww/6.jpg"",""time"":302},{""stimulus"":""img/red_ww/7.jpg"",""time"":351},{""stimulus"":""img/red_ww/8.jpg"",""time"":401},{""stimulus"":""img/red_ww/9.jpg"",""time"":451},{""stimulus"":""img/red_ww/10.jpg"",""time"":502},{""stimulus"":""img/red_ww/11.jpg"",""time"":551}]","[]",""
"image-keyboard-response","20","41772","0.0-5.0-1.8","63f68fcc9f84b736270f0e8e","bdp_lott","Mon Mar 27 2023 17:53:45 GMT-0500 (Central Daylight Time)","745381","green","red","","287","","","","choice","","img/red_ww/choose11.jpg","1","217","green","0.5","0.5","0.5","l","","",""
"animation","21","42373","0.0-5.0-2.8","63f68fcc9f84b736270f0e8e","bdp_lott","Mon Mar 27 2023 17:53:45 GMT-0500 (Central Daylight Time)","745381","green","red","","","","","","","","","","217","","","","","","[{""stimulus"":""img/green_lw/1.jpg"",""time"":50},{""stimulus"":""img/green_lw/2.jpg"",""time"":100},{""stimulus"":""img/green_lw/3.jpg"",""time"":151},{""stimulus"":""img/green_lw/4.jpg"",""time"":200},{""stimulus"":""img/green_lw/5.jpg"",""time"":250},{""stimulus"":""img/green_lw/6.jpg"",""time"":301},{""stimulus"":""img/green_lw/7.jpg"",""time"":350},{""stimulus"":""img/green_lw/8.jpg"",""time"":400},{""stimulus"":""img/green_lw/9.jpg"",""time"":450},{""stimulus"":""img/green_lw/10.jpg"",""time"":500},{""stimulus"":""img/green_lw/11.jpg"",""time"":552}]","[]",""
"image-keyboard-response","22","42794","0.0-5.0-1.9","63f68fcc9f84b736270f0e8e","bdp_lott","Mon Mar 27 2023 17:53:45 GMT-0500 (Central Daylight Time)","745381","green","red","","420","","","","choice","","img/green_lw/choose11.jpg","2","216","red","0.5","0.5","0.5","l","","",""
"animation","23","43396","0.0-5.0-2.9","63f68fcc9f84b736270f0e8e","bdp_lott","Mon Mar 27 2023 17:53:45 GMT-0500 (Central Daylight Time)","745381","green","red","","","","","","","","","","216","","","","","","[{""stimulus"":""img/red_ll/1.jpg"",""time"":52},{""stimulus"":""img/red_ll/2.jpg"",""time"":101},{""stimulus"":""img/red_ll/3.jpg"",""time"":152},{""stimulus"":""img/red_ll/4.jpg"",""time"":202},{""stimulus"":""img/red_ll/5.jpg"",""time"":251},{""stimulus"":""img/red_ll/6.jpg"",""time"":301},{""stimulus"":""img/red_ll/7.jpg"",""time"":351},{""stimulus"":""img/red_ll/8.jpg"",""time"":402},{""stimulus"":""img/red_ll/9.jpg"",""time"":452},{""stimulus"":""img/red_ll/10.jpg"",""time"":501},{""stimulus"":""img/red_ll/11.jpg"",""time"":552}]","[]",""
"image-keyboard-response","24","44151","0.0-5.0-1.10","63f68fcc9f84b736270f0e8e","bdp_lott","Mon Mar 27 2023 17:53:45 GMT-0500 (Central Daylight Time)","745381","green","red","","755","","","","choice","","img/red_ll/choose11.jpg","2","215","red","0.5","0.5","0.5","l","","",""
"animation","25","44752","0.0-5.0-2.10","63f68fcc9f84b736270f0e8e","bdp_lott","Mon Mar 27 2023 17:53:45 GMT-0500 (Central Daylight Time)","745381","green","red","","","","","","","","","","215","","","","","","[{""stimulus"":""img/red_ll/1.jpg"",""time"":52},{""stimulus"":""img/red_ll/2.jpg"",""time"":100},{""stimulus"":""img/red_ll/3.jpg"",""time"":151},{""stimulus"":""img/red_ll/4.jpg"",""time"":201},{""stimulus"":""img/red_ll/5.jpg"",""time"":251},{""stimulus"":""img/red_ll/6.jpg"",""time"":301},{""stimulus"":""img/red_ll/7.jpg"",""time"":351},{""stimulus"":""img/red_ll/8.jpg"",""time"":401},{""stimulus"":""img/red_ll/9.jpg"",""time"":451},{""stimulus"":""img/red_ll/10.jpg"",""time"":501},{""stimulus"":""img/red_ll/11.jpg"",""time"":551}]","[]",""
"image-keyboard-response","26","44919","0.0-5.0-1.11","63f68fcc9f84b736270f0e8e","bdp_lott","Mon Mar 27 2023 17:53:45 GMT-0500 (Central Daylight Time)","745381","green","red","","166","","","","choice","","img/red_ll/choose11.jpg","2","214","red","0.5","0.5","0.5","w","","",""
"animation","27","45520","0.0-5.0-2.11","63f68fcc9f84b736270f0e8e","bdp_lott","Mon Mar 27 2023 17:53:45 GMT-0500 (Central Daylight Time)","745381","green","red","","","","","","","","","","214","","","","","","[{""stimulus"":""img/red_lw/1.jpg"",""time"":52},{""stimulus"":""img/red_lw/2.jpg"",""time"":101},{""stimulus"":""img/red_lw/3.jpg"",""time"":151},{""stimulus"":""img/red_lw/4.jpg"",""time"":201},{""stimulus"":""img/red_lw/5.jpg"",""time"":251},{""stimulus"":""img/red_lw/6.jpg"",""time"":301},{""stimulus"":""img/red_lw/7.jpg"",""time"":352},{""stimulus"":""img/red_lw/8.jpg"",""time"":401},{""stimulus"":""img/red_lw/9.jpg"",""time"":451},{""stimulus"":""img/red_lw/10.jpg"",""time"":501},{""stimulus"":""img/red_lw/11.jpg"",""time"":552}]","[]",""
"image-keyboard-response","28","46303","0.0-5.0-1.12","63f68fcc9f84b736270f0e8e","bdp_lott","Mon Mar 27 2023 17:53:45 GMT-0500 (Central Daylight Time)","745381","green","red","","781","","","","choice","","img/red_lw/choose11.jpg","1","213","green","0.5","0.5","0.5","w","","",""
"animation","29","46906","0.0-5.0-2.12","63f68fcc9f84b736270f0e8e","bdp_lott","Mon Mar 27 2023 17:53:45 GMT-0500 (Central Daylight Time)","745381","green","red","","","","","","","","","","213","","","","","","[{""stimulus"":""img/green_ww/1.jpg"",""time"":50},{""stimulus"":""img/green_ww/2.jpg"",""time"":101},{""stimulus"":""img/green_ww/3.jpg"",""time"":150},{""stimulus"":""img/green_ww/4.jpg"",""time"":202},{""stimulus"":""img/green_ww/5.jpg"",""time"":251},{""stimulus"":""img/green_ww/6.jpg"",""time"":301},{""stimulus"":""img/green_ww/7.jpg"",""time"":350},{""stimulus"":""img/green_ww/8.jpg"",""time"":400},{""stimulus"":""img/green_ww/9.jpg"",""time"":450},{""stimulus"":""img/green_ww/10.jpg"",""time"":502},{""stimulus"":""img/green_ww/11.jpg"",""time"":552}]","[]",""
"image-keyboard-response","30","47162","0.0-5.0-1.13","63f68fcc9f84b736270f0e8e","bdp_lott","Mon Mar 27 2023 17:53:45 GMT-0500 (Central Daylight Time)","745381","green","red","","256","","","","choice","","img/green_ww/choose11.jpg","1","212","green","0.5","0.5","0.5","w","","",""
"animation","31","47763","0.0-5.0-2.13","63f68fcc9f84b736270f0e8e","bdp_lott","Mon Mar 27 2023 17:53:45 GMT-0500 (Central Daylight Time)","745381","green","red","","","","","","","","","","212","","","","","","[{""stimulus"":""img/green_ww/1.jpg"",""time"":51},{""stimulus"":""img/green_ww/2.jpg"",""time"":100},{""stimulus"":""img/green_ww/3.jpg"",""time"":150},{""stimulus"":""img/green_ww/4.jpg"",""time"":201},{""stimulus"":""img/green_ww/5.jpg"",""time"":250},{""stimulus"":""img/green_ww/6.jpg"",""time"":302},{""stimulus"":""img/green_ww/7.jpg"",""time"":351},{""stimulus"":""img/green_ww/8.jpg"",""time"":400},{""stimulus"":""img/green_ww/9.jpg"",""time"":451},{""stimulus"":""img/green_ww/10.jpg"",""time"":501},{""stimulus"":""img/green_ww/11.jpg"",""time"":551}]","[]",""
"image-keyboard-response","32","48073","0.0-5.0-1.14","63f68fcc9f84b736270f0e8e","bdp_lott","Mon Mar 27 2023 17:53:45 GMT-0500 (Central Daylight Time)","745381","green","red","","309","","","","choice","","img/green_ww/choose11.jpg","2","211","red","0.5","0.5","0.5","l","","",""
"animation","33","48675","0.0-5.0-2.14","63f68fcc9f84b736270f0e8e","bdp_lott","Mon Mar 27 2023 17:53:45 GMT-0500 (Central Daylight Time)","745381","green","red","","","","","","","","","","211","","","","","","[{""stimulus"":""img/red_wl/1.jpg"",""time"":51},{""stimulus"":""img/red_wl/2.jpg"",""time"":102},{""stimulus"":""img/red_wl/3.jpg"",""time"":152},{""stimulus"":""img/red_wl/4.jpg"",""time"":201},{""stimulus"":""img/red_wl/5.jpg"",""time"":252},{""stimulus"":""img/red_wl/6.jpg"",""time"":301},{""stimulus"":""img/red_wl/7.jpg"",""time"":351},{""stimulus"":""img/red_wl/8.jpg"",""time"":401},{""stimulus"":""img/red_wl/9.jpg"",""time"":452},{""stimulus"":""img/red_wl/10.jpg"",""time"":502},{""stimulus"":""img/red_wl/11.jpg"",""time"":551}]","[]",""
"image-keyboard-response","34","49044","0.0-5.0-1.15","63f68fcc9f84b736270f0e8e","bdp_lott","Mon Mar 27 2023 17:53:45 GMT-0500 (Central Daylight Time)","745381","green","red","","369","","","","choice","","img/red_wl/choose11.jpg","1","210","green","0.5","0.5","0.5","l","","",""
"animation","35","49647","0.0-5.0-2.15","63f68fcc9f84b736270f0e8e","bdp_lott","Mon Mar 27 2023 17:53:45 GMT-0500 (Central Daylight Time)","745381","green","red","","","","","","","","","","210","","","","","","[{""stimulus"":""img/green_ll/1.jpg"",""time"":52},{""stimulus"":""img/green_ll/2.jpg"",""time"":101},{""stimulus"":""img/green_ll/3.jpg"",""time"":151},{""stimulus"":""img/green_ll/4.jpg"",""time"":200},{""stimulus"":""img/green_ll/5.jpg"",""time"":250},{""stimulus"":""img/green_ll/6.jpg"",""time"":300},{""stimulus"":""img/green_ll/7.jpg"",""time"":351},{""stimulus"":""img/green_ll/8.jpg"",""time"":400},{""stimulus"":""img/green_ll/9.jpg"",""time"":452},{""stimulus"":""img/green_ll/10.jpg"",""time"":502},{""stimulus"":""img/green_ll/11.jpg"",""time"":552}]","[]",""
"image-keyboard-response","36","50373","0.0-5.0-1.16","63f68fcc9f84b736270f0e8e","bdp_lott","Mon Mar 27 2023 17:53:45 GMT-0500 (Central Daylight Time)","745381","green","red","","726","","","","choice","","img/green_ll/choose11.jpg","1","209","green","0.5","0.5","0.5","l","","",""
"animation","37","50974","0.0-5.0-2.16","63f68fcc9f84b736270f0e8e","bdp_lott","Mon Mar 27 2023 17:53:45 GMT-0500 (Central Daylight Time)","745381","green","red","","","","","","","","","","209","","","","","","[{""stimulus"":""img/green_ll/1.jpg"",""time"":51},{""stimulus"":""img/green_ll/2.jpg"",""time"":100},{""stimulus"":""img/green_ll/3.jpg"",""time"":151},{""stimulus"":""img/green_ll/4.jpg"",""time"":200},{""stimulus"":""img/green_ll/5.jpg"",""time"":251},{""stimulus"":""img/green_ll/6.jpg"",""time"":301},{""stimulus"":""img/green_ll/7.jpg"",""time"":350},{""stimulus"":""img/green_ll/8.jpg"",""time"":401},{""stimulus"":""img/green_ll/9.jpg"",""time"":450},{""stimulus"":""img/green_ll/10.jpg"",""time"":500},{""stimulus"":""img/green_ll/11.jpg"",""time"":552}]","[]",""
"image-keyboard-response","38","51373","0.0-5.0-1.17","63f68fcc9f84b736270f0e8e","bdp_lott","Mon Mar 27 2023 17:53:45 GMT-0500 (Central Daylight Time)","745381","green","red","","398","","","","choice","","img/green_ll/choose11.jpg","1","208","green","0.5","0.5","0.5","w","","",""
"animation","39","51974","0.0-5.0-2.17","63f68fcc9f84b736270f0e8e","bdp_lott","Mon Mar 27 2023 17:53:45 GMT-0500 (Central Daylight Time)","745381","green","red","","","","","","","","","","208","","","","","","[{""stimulus"":""img/green_wl/1.jpg"",""time"":51},{""stimulus"":""img/green_wl/2.jpg"",""time"":101},{""stimulus"":""img/green_wl/3.jpg"",""time"":150},{""stimulus"":""img/green_wl/4.jpg"",""time"":201},{""stimulus"":""img/green_wl/5.jpg"",""time"":250},{""stimulus"":""img/green_wl/6.jpg"",""time"":301},{""stimulus"":""img/green_wl/7.jpg"",""time"":350},{""stimulus"":""img/green_wl/8.jpg"",""time"":402},{""stimulus"":""img/green_wl/9.jpg"",""time"":451},{""stimulus"":""img/green_wl/10.jpg"",""time"":501},{""stimulus"":""img/green_wl/11.jpg"",""time"":551}]","[]",""
"image-keyboard-response","40","52381","0.0-5.0-1.18","63f68fcc9f84b736270f0e8e","bdp_lott","Mon Mar 27 2023 17:53:45 GMT-0500 (Central Daylight Time)","745381","green","red","","406","","","","choice","","img/green_wl/choose11.jpg","1","207","green","0.5","0.5","0.5","l","","",""
"animation","41","52983","0.0-5.0-2.18","63f68fcc9f84b736270f0e8e","bdp_lott","Mon Mar 27 2023 17:53:45 GMT-0500 (Central Daylight Time)","745381","green","red","","","","","","","","","","207","","","","","","[{""stimulus"":""img/green_ll/1.jpg"",""time"":50},{""stimulus"":""img/green_ll/2.jpg"",""time"":101},{""stimulus"":""img/green_ll/3.jpg"",""time"":150},{""stimulus"":""img/green_ll/4.jpg"",""time"":200},{""stimulus"":""img/green_ll/5.jpg"",""time"":251},{""stimulus"":""img/green_ll/6.jpg"",""time"":301},{""stimulus"":""img/green_ll/7.jpg"",""time"":351},{""stimulus"":""img/green_ll/8.jpg"",""time"":401},{""stimulus"":""img/green_ll/9.jpg"",""time"":451},{""stimulus"":""img/green_ll/10.jpg"",""time"":501},{""stimulus"":""img/green_ll/11.jpg"",""time"":552}]","[]",""
"image-keyboard-response","42","53383","0.0-5.0-1.19","63f68fcc9f84b736270f0e8e","bdp_lott","Mon Mar 27 2023 17:53:45 GMT-0500 (Central Daylight Time)","745381","green","red","","400","","","","choice","","img/green_ll/choose11.jpg","1","206","green","0.5","0.5","0.5","l","","",""
"animation","43","53985","0.0-5.0-2.19","63f68fcc9f84b736270f0e8e","bdp_lott","Mon Mar 27 2023 17:53:45 GMT-0500 (Central Daylight Time)","745381","green","red","","","","","","","","","","206","","","","","","[{""stimulus"":""img/green_ll/1.jpg"",""time"":51},{""stimulus"":""img/green_ll/2.jpg"",""time"":101},{""stimulus"":""img/green_ll/3.jpg"",""time"":151},{""stimulus"":""img/green_ll/4.jpg"",""time"":201},{""stimulus"":""img/green_ll/5.jpg"",""time"":251},{""stimulus"":""img/green_ll/6.jpg"",""time"":303},{""stimulus"":""img/green_ll/7.jpg"",""time"":352},{""stimulus"":""img/green_ll/8.jpg"",""time"":402},{""stimulus"":""img/green_ll/9.jpg"",""time"":451},{""stimulus"":""img/green_ll/10.jpg"",""time"":501},{""stimulus"":""img/green_ll/11.jpg"",""time"":551}]","[]",""
"image-keyboard-response","44","54363","0.0-5.0-1.20","63f68fcc9f84b736270f0e8e","bdp_lott","Mon Mar 27 2023 17:53:45 GMT-0500 (Central Daylight Time)","745381","green","red","","376","","","","choice","","img/green_ll/choose11.jpg","1","205","green","0.5","0.5","0.5","l","","",""
"animation","45","54964","0.0-5.0-2.20","63f68fcc9f84b736270f0e8e","bdp_lott","Mon Mar 27 2023 17:53:45 GMT-0500 (Central Daylight Time)","745381","green","red","","","","","","","","","","205","","","","","","[{""stimulus"":""img/green_ll/1.jpg"",""time"":51},{""stimulus"":""img/green_ll/2.jpg"",""time"":102},{""stimulus"":""img/green_ll/3.jpg"",""time"":151},{""stimulus"":""img/green_ll/4.jpg"",""time"":201},{""stimulus"":""img/green_ll/5.jpg"",""time"":251},{""stimulus"":""img/green_ll/6.jpg"",""time"":300},{""stimulus"":""img/green_ll/7.jpg"",""time"":351},{""stimulus"":""img/green_ll/8.jpg"",""time"":401},{""stimulus"":""img/green_ll/9.jpg"",""time"":452},{""stimulus"":""img/green_ll/10.jpg"",""time"":501},{""stimulus"":""img/green_ll/11.jpg"",""time"":551}]","[]",""
"image-keyboard-response","46","55281","0.0-5.0-1.21","63f68fcc9f84b736270f0e8e","bdp_lott","Mon Mar 27 2023 17:53:45 GMT-0500 (Central Daylight Time)","745381","green","red","","317","","","","choice","","img/green_ll/choose11.jpg","1","204","green","0.5","0.5","0.5","l","","",""
"animation","47","55882","0.0-5.0-2.21","63f68fcc9f84b736270f0e8e","bdp_lott","Mon Mar 27 2023 17:53:45 GMT-0500 (Central Daylight Time)","745381","green","red","","","","","","","","","","204","","","","","","[{""stimulus"":""img/green_ll/1.jpg"",""time"":51},{""stimulus"":""img/green_ll/2.jpg"",""time"":101},{""stimulus"":""img/green_ll/3.jpg"",""time"":150},{""stimulus"":""img/green_ll/4.jpg"",""time"":202},{""stimulus"":""img/green_ll/5.jpg"",""time"":250},{""stimulus"":""img/green_ll/6.jpg"",""time"":301},{""stimulus"":""img/green_ll/7.jpg"",""time"":351},{""stimulus"":""img/green_ll/8.jpg"",""time"":400},{""stimulus"":""img/green_ll/9.jpg"",""time"":450},{""stimulus"":""img/green_ll/10.jpg"",""time"":500},{""stimulus"":""img/green_ll/11.jpg"",""time"":550}]","[]",""
"image-keyboard-response","48","56268","0.0-5.0-1.22","63f68fcc9f84b736270f0e8e","bdp_lott","Mon Mar 27 2023 17:53:45 GMT-0500 (Central Daylight Time)","745381","green","red","","385","","","","choice","","img/green_ll/choose11.jpg","1","203","green","0.5","0.5","0.5","l","","",""
"animation","49","56869","0.0-5.0-2.22","63f68fcc9f84b736270f0e8e","bdp_lott","Mon Mar 27 2023 17:53:45 GMT-0500 (Central Daylight Time)","745381","green","red","","","","","","","","","","203","","","","","","[{""stimulus"":""img/green_ll/1.jpg"",""time"":51},{""stimulus"":""img/green_ll/2.jpg"",""time"":101},{""stimulus"":""img/green_ll/3.jpg"",""time"":151},{""stimulus"":""img/green_ll/4.jpg"",""time"":202},{""stimulus"":""img/green_ll/5.jpg"",""time"":251},{""stimulus"":""img/green_ll/6.jpg"",""time"":301},{""stimulus"":""img/green_ll/7.jpg"",""time"":352},{""stimulus"":""img/green_ll/8.jpg"",""time"":402},{""stimulus"":""img/green_ll/9.jpg"",""time"":451},{""stimulus"":""img/green_ll/10.jpg"",""time"":502},{""stimulus"":""img/green_ll/11.jpg"",""time"":551}]","[]",""
"image-keyboard-response","50","56939","0.0-5.0-1.23","63f68fcc9f84b736270f0e8e","bdp_lott","Mon Mar 27 2023 17:53:45 GMT-0500 (Central Daylight Time)","745381","green","red","","69","","","","choice","","img/green_ll/choose11.jpg","2","202","red","0.5","0.5","0.5","l","","",""
"animation","51","57540","0.0-5.0-2.23","63f68fcc9f84b736270f0e8e","bdp_lott","Mon Mar 27 2023 17:53:45 GMT-0500 (Central Daylight Time)","745381","green","red","","","","","","","","","","202","","","","","","[{""stimulus"":""img/red_ll/1.jpg"",""time"":52},{""stimulus"":""img/red_ll/2.jpg"",""time"":100},{""stimulus"":""img/red_ll/3.jpg"",""time"":151},{""stimulus"":""img/red_ll/4.jpg"",""time"":200},{""stimulus"":""img/red_ll/5.jpg"",""time"":252},{""stimulus"":""img/red_ll/6.jpg"",""time"":301},{""stimulus"":""img/red_ll/7.jpg"",""time"":351},{""stimulus"":""img/red_ll/8.jpg"",""time"":400},{""stimulus"":""img/red_ll/9.jpg"",""time"":450},{""stimulus"":""img/red_ll/10.jpg"",""time"":500},{""stimulus"":""img/red_ll/11.jpg"",""time"":550}]","[]",""
"image-keyboard-response","52","57818","0.0-5.0-1.24","63f68fcc9f84b736270f0e8e","bdp_lott","Mon Mar 27 2023 17:53:45 GMT-0500 (Central Daylight Time)","745381","green","red","","277","","","","choice","","img/red_ll/choose11.jpg","2","201","red","0.5","0.5","0.5","w","","",""
"animation","53","58419","0.0-5.0-2.24","63f68fcc9f84b736270f0e8e","bdp_lott","Mon Mar 27 2023 17:53:45 GMT-0500 (Central Daylight Time)","745381","green","red","","","","","","","","","","201","","","","","","[{""stimulus"":""img/red_lw/1.jpg"",""time"":53},{""stimulus"":""img/red_lw/2.jpg"",""time"":103},{""stimulus"":""img/red_lw/3.jpg"",""time"":153},{""stimulus"":""img/red_lw/4.jpg"",""time"":202},{""stimulus"":""img/red_lw/5.jpg"",""time"":252},{""stimulus"":""img/red_lw/6.jpg"",""time"":302},{""stimulus"":""img/red_lw/7.jpg"",""time"":352},{""stimulus"":""img/red_lw/8.jpg"",""time"":401},{""stimulus"":""img/red_lw/9.jpg"",""time"":452},{""stimulus"":""img/red_lw/10.jpg"",""time"":502},{""stimulus"":""img/red_lw/11.jpg"",""time"":552}]","[]",""
"image-keyboard-response","54","58685","0.0-5.0-1.25","63f68fcc9f84b736270f0e8e","bdp_lott","Mon Mar 27 2023 17:53:45 GMT-0500 (Central Daylight Time)","745381","green","red","","265","","","","choice","","img/red_lw/choose11.jpg","2","200","red","0.5","0.5","0.5","w","","",""
"animation","55","59287","0.0-5.0-2.25","63f68fcc9f84b736270f0e8e","bdp_lott","Mon Mar 27 2023 17:53:45 GMT-0500 (Central Daylight Time)","745381","green","red","","","","","","","","","","200","","","","","","[{""stimulus"":""img/red_lw/1.jpg"",""time"":52},{""stimulus"":""img/red_lw/2.jpg"",""time"":102},{""stimulus"":""img/red_lw/3.jpg"",""time"":152},{""stimulus"":""img/red_lw/4.jpg"",""time"":202},{""stimulus"":""img/red_lw/5.jpg"",""time"":252},{""stimulus"":""img/red_lw/6.jpg"",""time"":301},{""stimulus"":""img/red_lw/7.jpg"",""time"":352},{""stimulus"":""img/red_lw/8.jpg"",""time"":401},{""stimulus"":""img/red_lw/9.jpg"",""time"":451},{""stimulus"":""img/red_lw/10.jpg"",""time"":501},{""stimulus"":""img/red_lw/11.jpg"",""time"":551}]","[]",""
"image-keyboard-response","56","59916","0.0-5.0-1.26","63f68fcc9f84b736270f0e8e","bdp_lott","Mon Mar 27 2023 17:53:45 GMT-0500 (Central Daylight Time)","745381","green","red","","628","","","","choice","","img/red_lw/choose11.jpg","2","199","red","0.5","0.5","0.5","l","","",""
"animation","57","60517","0.0-5.0-2.26","63f68fcc9f84b736270f0e8e","bdp_lott","Mon Mar 27 2023 17:53:45 GMT-0500 (Central Daylight Time)","745381","green","red","","","","","","","","","","199","","","","","","[{""stimulus"":""img/red_ll/1.jpg"",""time"":51},{""stimulus"":""img/red_ll/2.jpg"",""time"":100},{""stimulus"":""img/red_ll/3.jpg"",""time"":151},{""stimulus"":""img/red_ll/4.jpg"",""time"":201},{""stimulus"":""img/red_ll/5.jpg"",""time"":251},{""stimulus"":""img/red_ll/6.jpg"",""time"":302},{""stimulus"":""img/red_ll/7.jpg"",""time"":351},{""stimulus"":""img/red_ll/8.jpg"",""time"":400},{""stimulus"":""img/red_ll/9.jpg"",""time"":451},{""stimulus"":""img/red_ll/10.jpg"",""time"":501},{""stimulus"":""img/red_ll/11.jpg"",""time"":552}]","[]",""
"image-keyboard-response","58","60713","0.0-5.0-1.27","63f68fcc9f84b736270f0e8e","bdp_lott","Mon Mar 27 2023 17:53:45 GMT-0500 (Central Daylight Time)","745381","green","red","","195","","","","choice","","img/red_ll/choose11.jpg","1","198","green","0.5","0.5","0.5","l","","",""
"animation","59","61314","0.0-5.0-2.27","63f68fcc9f84b736270f0e8e","bdp_lott","Mon Mar 27 2023 17:53:45 GMT-0500 (Central Daylight Time)","745381","green","red","","","","","","","","","","198","","","","","","[{""stimulus"":""img/green_ll/1.jpg"",""time"":50},{""stimulus"":""img/green_ll/2.jpg"",""time"":101},{""stimulus"":""img/green_ll/3.jpg"",""time"":151},{""stimulus"":""img/green_ll/4.jpg"",""time"":200},{""stimulus"":""img/green_ll/5.jpg"",""time"":251},{""stimulus"":""img/green_ll/6.jpg"",""time"":301},{""stimulus"":""img/green_ll/7.jpg"",""time"":351},{""stimulus"":""img/green_ll/8.jpg"",""time"":401},{""stimulus"":""img/green_ll/9.jpg"",""time"":451},{""stimulus"":""img/green_ll/10.jpg"",""time"":502},{""stimulus"":""img/green_ll/11.jpg"",""time"":552}]","[]",""
"image-keyboard-response","60","61674","0.0-5.0-1.28","63f68fcc9f84b736270f0e8e","bdp_lott","Mon Mar 27 2023 17:53:45 GMT-0500 (Central Daylight Time)","745381","green","red","","360","","","","choice","","img/green_ll/choose11.jpg","1","197","green","0.5","0.5","0.5","l","","",""
"animation","61","62275","0.0-5.0-2.28","63f68fcc9f84b736270f0e8e","bdp_lott","Mon Mar 27 2023 17:53:45 GMT-0500 (Central Daylight Time)","745381","green","red","","","","","","","","","","197","","","","","","[{""stimulus"":""img/green_ll/1.jpg"",""time"":51},{""stimulus"":""img/green_ll/2.jpg"",""time"":101},{""stimulus"":""img/green_ll/3.jpg"",""time"":152},{""stimulus"":""img/green_ll/4.jpg"",""time"":202},{""stimulus"":""img/green_ll/5.jpg"",""time"":252},{""stimulus"":""img/green_ll/6.jpg"",""time"":302},{""stimulus"":""img/green_ll/7.jpg"",""time"":352},{""stimulus"":""img/green_ll/8.jpg"",""time"":400},{""stimulus"":""img/green_ll/9.jpg"",""time"":451},{""stimulus"":""img/green_ll/10.jpg"",""time"":502},{""stimulus"":""img/green_ll/11.jpg"",""time"":551}]","[]",""
"image-keyboard-response","62","62538","0.0-5.0-1.29","63f68fcc9f84b736270f0e8e","bdp_lott","Mon Mar 27 2023 17:53:45 GMT-0500 (Central Daylight Time)","745381","green","red","","263","","","","choice","","img/green_ll/choose11.jpg","2","196","red","0.5","0.5","0.5","l","","",""
"animation","63","63140","0.0-5.0-2.29","63f68fcc9f84b736270f0e8e","bdp_lott","Mon Mar 27 2023 17:53:45 GMT-0500 (Central Daylight Time)","745381","green","red","","","","","","","","","","196","","","","","","[{""stimulus"":""img/red_ll/1.jpg"",""time"":50},{""stimulus"":""img/red_ll/2.jpg"",""time"":101},{""stimulus"":""img/red_ll/3.jpg"",""time"":151},{""stimulus"":""img/red_ll/4.jpg"",""time"":200},{""stimulus"":""img/red_ll/5.jpg"",""time"":251},{""stimulus"":""img/red_ll/6.jpg"",""time"":302},{""stimulus"":""img/red_ll/7.jpg"",""time"":351},{""stimulus"":""img/red_ll/8.jpg"",""time"":401},{""stimulus"":""img/red_ll/9.jpg"",""time"":452},{""stimulus"":""img/red_ll/10.jpg"",""time"":502},{""stimulus"":""img/red_ll/11.jpg"",""time"":551}]","[]",""
"image-keyboard-response","64","63410","0.0-5.0-1.30","63f68fcc9f84b736270f0e8e","bdp_lott","Mon Mar 27 2023 17:53:45 GMT-0500 (Central Daylight Time)","745381","green","red","","270","","","","choice","","img/red_ll/choose11.jpg","2","195","red","0.5","0.5","0.5","l","","",""
"animation","65","64011","0.0-5.0-2.30","63f68fcc9f84b736270f0e8e","bdp_lott","Mon Mar 27 2023 17:53:45 GMT-0500 (Central Daylight Time)","745381","green","red","","","","","","","","","","195","","","","","","[{""stimulus"":""img/red_ll/1.jpg"",""time"":51},{""stimulus"":""img/red_ll/2.jpg"",""time"":101},{""stimulus"":""img/red_ll/3.jpg"",""time"":151},{""stimulus"":""img/red_ll/4.jpg"",""time"":201},{""stimulus"":""img/red_ll/5.jpg"",""time"":252},{""stimulus"":""img/red_ll/6.jpg"",""time"":301},{""stimulus"":""img/red_ll/7.jpg"",""time"":351},{""stimulus"":""img/red_ll/8.jpg"",""time"":401},{""stimulus"":""img/red_ll/9.jpg"",""time"":451},{""stimulus"":""img/red_ll/10.jpg"",""time"":501},{""stimulus"":""img/red_ll/11.jpg"",""time"":552}]","[]",""
"image-keyboard-response","66","64255","0.0-5.0-1.31","63f68fcc9f84b736270f0e8e","bdp_lott","Mon Mar 27 2023 17:53:45 GMT-0500 (Central Daylight Time)","745381","green","red","","243","","","","choice","","img/red_ll/choose11.jpg","1","194","green","0.5","0.5","0.5","w","","",""
"animation","67","64856","0.0-5.0-2.31","63f68fcc9f84b736270f0e8e","bdp_lott","Mon Mar 27 2023 17:53:45 GMT-0500 (Central Daylight Time)","745381","green","red","","","","","","","","","","194","","","","","","[{""stimulus"":""img/green_wl/1.jpg"",""time"":51},{""stimulus"":""img/green_wl/2.jpg"",""time"":101},{""stimulus"":""img/green_wl/3.jpg"",""time"":151},{""stimulus"":""img/green_wl/4.jpg"",""time"":203},{""stimulus"":""img/green_wl/5.jpg"",""time"":251},{""stimulus"":""img/green_wl/6.jpg"",""time"":302},{""stimulus"":""img/green_wl/7.jpg"",""time"":351},{""stimulus"":""img/green_wl/8.jpg"",""time"":401},{""stimulus"":""img/green_wl/9.jpg"",""time"":452},{""stimulus"":""img/green_wl/10.jpg"",""time"":501},{""stimulus"":""img/green_wl/11.jpg"",""time"":552}]","[]",""
"image-keyboard-response","68","64919","0.0-5.0-1.32","63f68fcc9f84b736270f0e8e","bdp_lott","Mon Mar 27 2023 17:53:45 GMT-0500 (Central Daylight Time)","745381","green","red","","63","","","","choice","","img/green_wl/choose11.jpg","1","193","green","0.5","0.5","0.5","l","","",""
"animation","69","65520","0.0-5.0-2.32","63f68fcc9f84b736270f0e8e","bdp_lott","Mon Mar 27 2023 17:53:45 GMT-0500 (Central Daylight Time)","745381","green","red","","","","","","","","","","193","","","","","","[{""stimulus"":""img/green_ll/1.jpg"",""time"":51},{""stimulus"":""img/green_ll/2.jpg"",""time"":101},{""stimulus"":""img/green_ll/3.jpg"",""time"":152},{""stimulus"":""img/green_ll/4.jpg"",""time"":201},{""stimulus"":""img/green_ll/5.jpg"",""time"":252},{""stimulus"":""img/green_ll/6.jpg"",""time"":301},{""stimulus"":""img/green_ll/7.jpg"",""time"":352},{""stimulus"":""img/green_ll/8.jpg"",""time"":400},{""stimulus"":""img/green_ll/9.jpg"",""time"":452},{""stimulus"":""img/green_ll/10.jpg"",""time"":502},{""stimulus"":""img/green_ll/11.jpg"",""time"":551}]","[]",""
"image-keyboard-response","70","65857","0.0-5.0-1.33","63f68fcc9f84b736270f0e8e","bdp_lott","Mon Mar 27 2023 17:53:45 GMT-0500 (Central Daylight Time)","745381","green","red","","336","","","","choice","","img/green_ll/choose11.jpg","2","192","red","0.5","0.5","0.5","w","","",""
"animation","71","66458","0.0-5.0-2.33","63f68fcc9f84b736270f0e8e","bdp_lott","Mon Mar 27 2023 17:53:45 GMT-0500 (Central Daylight Time)","745381","green","red","","","","","","","","","","192","","","","","","[{""stimulus"":""img/red_lw/1.jpg"",""time"":51},{""stimulus"":""img/red_lw/2.jpg"",""time"":101},{""stimulus"":""img/red_lw/3.jpg"",""time"":151},{""stimulus"":""img/red_lw/4.jpg"",""time"":200},{""stimulus"":""img/red_lw/5.jpg"",""time"":251},{""stimulus"":""img/red_lw/6.jpg"",""time"":301},{""stimulus"":""img/red_lw/7.jpg"",""time"":352},{""stimulus"":""img/red_lw/8.jpg"",""time"":400},{""stimulus"":""img/red_lw/9.jpg"",""time"":450},{""stimulus"":""img/red_lw/10.jpg"",""time"":500},{""stimulus"":""img/red_lw/11.jpg"",""time"":551}]","[]",""
"image-keyboard-response","72","66501","0.0-5.0-1.34","63f68fcc9f84b736270f0e8e","bdp_lott","Mon Mar 27 2023 17:53:45 GMT-0500 (Central Daylight Time)","745381","green","red","","43","","","","choice","","img/red_lw/choose11.jpg","2","191","red","0.5","0.5","0.5","l","","",""
"animation","73","67102","0.0-5.0-2.34","63f68fcc9f84b736270f0e8e","bdp_lott","Mon Mar 27 2023 17:53:45 GMT-0500 (Central Daylight Time)","745381","green","red","","","","","","","","","","191","","","","","","[{""stimulus"":""img/red_ll/1.jpg"",""time"":52},{""stimulus"":""img/red_ll/2.jpg"",""time"":102},{""stimulus"":""img/red_ll/3.jpg"",""time"":151},{""stimulus"":""img/red_ll/4.jpg"",""time"":201},{""stimulus"":""img/red_ll/5.jpg"",""time"":251},{""stimulus"":""img/red_ll/6.jpg"",""time"":302},{""stimulus"":""img/red_ll/7.jpg"",""time"":351},{""stimulus"":""img/red_ll/8.jpg"",""time"":401},{""stimulus"":""img/red_ll/9.jpg"",""time"":451},{""stimulus"":""img/red_ll/10.jpg"",""time"":501},{""stimulus"":""img/red_ll/11.jpg"",""time"":551}]","[]",""
"image-keyboard-response","74","67412","0.0-5.0-1.35","63f68fcc9f84b736270f0e8e","bdp_lott","Mon Mar 27 2023 17:53:45 GMT-0500 (Central Daylight Time)","745381","green","red","","309","","","","choice","","img/red_ll/choose11.jpg","1","190","green","0.5","0.5","0.5","w","","",""
"animation","75","68012","0.0-5.0-2.35","63f68fcc9f84b736270f0e8e","bdp_lott","Mon Mar 27 2023 17:53:45 GMT-0500 (Central Daylight Time)","745381","green","red","","","","","","","","","","190","","","","","","[{""stimulus"":""img/green_wl/1.jpg"",""time"":51},{""stimulus"":""img/green_wl/2.jpg"",""time"":101},{""stimulus"":""img/green_wl/3.jpg"",""time"":151},{""stimulus"":""img/green_wl/4.jpg"",""time"":202},{""stimulus"":""img/green_wl/5.jpg"",""time"":252},{""stimulus"":""img/green_wl/6.jpg"",""time"":302},{""stimulus"":""img/green_wl/7.jpg"",""time"":351},{""stimulus"":""img/green_wl/8.jpg"",""time"":401},{""stimulus"":""img/green_wl/9.jpg"",""time"":451},{""stimulus"":""img/green_wl/10.jpg"",""time"":502},{""stimulus"":""img/green_wl/11.jpg"",""time"":551}]","[]",""
"image-keyboard-response","76","68332","0.0-5.0-1.36","63f68fcc9f84b736270f0e8e","bdp_lott","Mon Mar 27 2023 17:53:45 GMT-0500 (Central Daylight Time)","745381","green","red","","319","","","","choice","","img/green_wl/choose11.jpg","1","189","green","0.5","0.5","0.5","w","","",""
"animation","77","68934","0.0-5.0-2.36","63f68fcc9f84b736270f0e8e","bdp_lott","Mon Mar 27 2023 17:53:45 GMT-0500 (Central Daylight Time)","745381","green","red","","","","","","","","","","189","","","","","","[{""stimulus"":""img/green_wl/1.jpg"",""time"":51},{""stimulus"":""img/green_wl/2.jpg"",""time"":101},{""stimulus"":""img/green_wl/3.jpg"",""time"":152},{""stimulus"":""img/green_wl/4.jpg"",""time"":201},{""stimulus"":""img/green_wl/5.jpg"",""time"":251},{""stimulus"":""img/green_wl/6.jpg"",""time"":301},{""stimulus"":""img/green_wl/7.jpg"",""time"":351},{""stimulus"":""img/green_wl/8.jpg"",""time"":401},{""stimulus"":""img/green_wl/9.jpg"",""time"":451},{""stimulus"":""img/green_wl/10.jpg"",""time"":502},{""stimulus"":""img/green_wl/11.jpg"",""time"":551}]","[]",""
"image-keyboard-response","78","69177","0.0-5.0-1.37","63f68fcc9f84b736270f0e8e","bdp_lott","Mon Mar 27 2023 17:53:45 GMT-0500 (Central Daylight Time)","745381","green","red","","243","","","","choice","","img/green_wl/choose11.jpg","2","188","red","0.5","0.5","0.5","w","","",""
"animation","79","69778","0.0-5.0-2.37","63f68fcc9f84b736270f0e8e","bdp_lott","Mon Mar 27 2023 17:53:45 GMT-0500 (Central Daylight Time)","745381","green","red","","","","","","","","","","188","","","","","","[{""stimulus"":""img/red_ww/1.jpg"",""time"":50},{""stimulus"":""img/red_ww/2.jpg"",""time"":101},{""stimulus"":""img/red_ww/3.jpg"",""time"":152},{""stimulus"":""img/red_ww/4.jpg"",""time"":201},{""stimulus"":""img/red_ww/5.jpg"",""time"":251},{""stimulus"":""img/red_ww/6.jpg"",""time"":301},{""stimulus"":""img/red_ww/7.jpg"",""time"":351},{""stimulus"":""img/red_ww/8.jpg"",""time"":400},{""stimulus"":""img/red_ww/9.jpg"",""time"":451},{""stimulus"":""img/red_ww/10.jpg"",""time"":501},{""stimulus"":""img/red_ww/11.jpg"",""time"":550}]","[]",""
"image-keyboard-response","80","70534","0.0-5.0-1.38","63f68fcc9f84b736270f0e8e","bdp_lott","Mon Mar 27 2023 17:53:45 GMT-0500 (Central Daylight Time)","745381","green","red","","755","","","","choice","","img/red_ww/choose11.jpg","2","187","red","0.5","0.5","0.5","l","","",""
"animation","81","71135","0.0-5.0-2.38","63f68fcc9f84b736270f0e8e","bdp_lott","Mon Mar 27 2023 17:53:45 GMT-0500 (Central Daylight Time)","745381","green","red","","","","","","","","","","187","","","","","","[{""stimulus"":""img/red_wl/1.jpg"",""time"":52},{""stimulus"":""img/red_wl/2.jpg"",""time"":102},{""stimulus"":""img/red_wl/3.jpg"",""time"":153},{""stimulus"":""img/red_wl/4.jpg"",""time"":203},{""stimulus"":""img/red_wl/5.jpg"",""time"":251},{""stimulus"":""img/red_wl/6.jpg"",""time"":301},{""stimulus"":""img/red_wl/7.jpg"",""time"":352},{""stimulus"":""img/red_wl/8.jpg"",""time"":402},{""stimulus"":""img/red_wl/9.jpg"",""time"":452},{""stimulus"":""img/red_wl/10.jpg"",""time"":501},{""stimulus"":""img/red_wl/11.jpg"",""time"":551}]","[]",""
"image-keyboard-response","82","71458","0.0-5.0-1.39","63f68fcc9f84b736270f0e8e","bdp_lott","Mon Mar 27 2023 17:53:45 GMT-0500 (Central Daylight Time)","745381","green","red","","323","","","","choice","","img/red_wl/choose11.jpg","1","186","green","0.5","0.5","0.5","l","","",""
"animation","83","72059","0.0-5.0-2.39","63f68fcc9f84b736270f0e8e","bdp_lott","Mon Mar 27 2023 17:53:45 GMT-0500 (Central Daylight Time)","745381","green","red","","","","","","","","","","186","","","","","","[{""stimulus"":""img/green_ll/1.jpg"",""time"":51},{""stimulus"":""img/green_ll/2.jpg"",""time"":101},{""stimulus"":""img/green_ll/3.jpg"",""time"":151},{""stimulus"":""img/green_ll/4.jpg"",""time"":202},{""stimulus"":""img/green_ll/5.jpg"",""time"":251},{""stimulus"":""img/green_ll/6.jpg"",""time"":302},{""stimulus"":""img/green_ll/7.jpg"",""time"":351},{""stimulus"":""img/green_ll/8.jpg"",""time"":401},{""stimulus"":""img/green_ll/9.jpg"",""time"":451},{""stimulus"":""img/green_ll/10.jpg"",""time"":502},{""stimulus"":""img/green_ll/11.jpg"",""time"":552}]","[]",""
"image-keyboard-response","84","72487","0.0-5.0-1.40","63f68fcc9f84b736270f0e8e","bdp_lott","Mon Mar 27 2023 17:53:45 GMT-0500 (Central Daylight Time)","745381","green","red","","428","","","","choice","","img/green_ll/choose11.jpg","1","185","green","0.5","0.5","0.5","l","","",""
"animation","85","73088","0.0-5.0-2.40","63f68fcc9f84b736270f0e8e","bdp_lott","Mon Mar 27 2023 17:53:45 GMT-0500 (Central Daylight Time)","745381","green","red","","","","","","","","","","185","","","","","","[{""stimulus"":""img/green_ll/1.jpg"",""time"":52},{""stimulus"":""img/green_ll/2.jpg"",""time"":101},{""stimulus"":""img/green_ll/3.jpg"",""time"":152},{""stimulus"":""img/green_ll/4.jpg"",""time"":201},{""stimulus"":""img/green_ll/5.jpg"",""time"":252},{""stimulus"":""img/green_ll/6.jpg"",""time"":302},{""stimulus"":""img/green_ll/7.jpg"",""time"":352},{""stimulus"":""img/green_ll/8.jpg"",""time"":402},{""stimulus"":""img/green_ll/9.jpg"",""time"":451},{""stimulus"":""img/green_ll/10.jpg"",""time"":501},{""stimulus"":""img/green_ll/11.jpg"",""time"":551}]","[]",""
"image-keyboard-response","86","73546","0.0-5.0-1.41","63f68fcc9f84b736270f0e8e","bdp_lott","Mon Mar 27 2023 17:53:45 GMT-0500 (Central Daylight Time)","745381","green","red","","458","","","","choice","","img/green_ll/choose11.jpg","1","184","green","0.5","0.5","0.5","w","","",""
"animation","87","74148","0.0-5.0-2.41","63f68fcc9f84b736270f0e8e","bdp_lott","Mon Mar 27 2023 17:53:45 GMT-0500 (Central Daylight Time)","745381","green","red","","","","","","","","","","184","","","","","","[{""stimulus"":""img/green_wl/1.jpg"",""time"":51},{""stimulus"":""img/green_wl/2.jpg"",""time"":101},{""stimulus"":""img/green_wl/3.jpg"",""time"":151},{""stimulus"":""img/green_wl/4.jpg"",""time"":201},{""stimulus"":""img/green_wl/5.jpg"",""time"":252},{""stimulus"":""img/green_wl/6.jpg"",""time"":302},{""stimulus"":""img/green_wl/7.jpg"",""time"":351},{""stimulus"":""img/green_wl/8.jpg"",""time"":400},{""stimulus"":""img/green_wl/9.jpg"",""time"":451},{""stimulus"":""img/green_wl/10.jpg"",""time"":500},{""stimulus"":""img/green_wl/11.jpg"",""time"":551}]","[]",""
"image-keyboard-response","88","75002","0.0-5.0-1.42","63f68fcc9f84b736270f0e8e","bdp_lott","Mon Mar 27 2023 17:53:45 GMT-0500 (Central Daylight Time)","745381","green","red","","854","","","","choice","","img/green_wl/choose11.jpg","1","183","green","0.5","0.5","0.5","l","","",""
"animation","89","75605","0.0-5.0-2.42","63f68fcc9f84b736270f0e8e","bdp_lott","Mon Mar 27 2023 17:53:45 GMT-0500 (Central Daylight Time)","745381","green","red","","","","","","","","","","183","","","","","","[{""stimulus"":""img/green_ll/1.jpg"",""time"":51},{""stimulus"":""img/green_ll/2.jpg"",""time"":101},{""stimulus"":""img/green_ll/3.jpg"",""time"":151},{""stimulus"":""img/green_ll/4.jpg"",""time"":201},{""stimulus"":""img/green_ll/5.jpg"",""time"":251},{""stimulus"":""img/green_ll/6.jpg"",""time"":301},{""stimulus"":""img/green_ll/7.jpg"",""time"":350},{""stimulus"":""img/green_ll/8.jpg"",""time"":402},{""stimulus"":""img/green_ll/9.jpg"",""time"":451},{""stimulus"":""img/green_ll/10.jpg"",""time"":500},{""stimulus"":""img/green_ll/11.jpg"",""time"":551}]","[]",""
"image-keyboard-response","90","75982","0.0-5.0-1.43","63f68fcc9f84b736270f0e8e","bdp_lott","Mon Mar 27 2023 17:53:45 GMT-0500 (Central Daylight Time)","745381","green","red","","376","","","","choice","","img/green_ll/choose11.jpg","1","182","green","0.5","0.5","0.5","w","","",""
"animation","91","76582","0.0-5.0-2.43","63f68fcc9f84b736270f0e8e","bdp_lott","Mon Mar 27 2023 17:53:45 GMT-0500 (Central Daylight Time)","745381","green","red","","","","","","","","","","182","","","","","","[{""stimulus"":""img/green_wl/1.jpg"",""time"":51},{""stimulus"":""img/green_wl/2.jpg"",""time"":101},{""stimulus"":""img/green_wl/3.jpg"",""time"":150},{""stimulus"":""img/green_wl/4.jpg"",""time"":200},{""stimulus"":""img/green_wl/5.jpg"",""time"":250},{""stimulus"":""img/green_wl/6.jpg"",""time"":301},{""stimulus"":""img/green_wl/7.jpg"",""time"":351},{""stimulus"":""img/green_wl/8.jpg"",""time"":400},{""stimulus"":""img/green_wl/9.jpg"",""time"":451},{""stimulus"":""img/green_wl/10.jpg"",""time"":502},{""stimulus"":""img/green_wl/11.jpg"",""time"":551}]","[]",""
"image-keyboard-response","92","77189","0.0-5.0-1.44","63f68fcc9f84b736270f0e8e","bdp_lott","Mon Mar 27 2023 17:53:45 GMT-0500 (Central Daylight Time)","745381","green","red","","607","","","","choice","","img/green_wl/choose11.jpg","1","181","green","0.5","0.5","0.5","w","","",""
"animation","93","77790","0.0-5.0-2.44","63f68fcc9f84b736270f0e8e","bdp_lott","Mon Mar 27 2023 17:53:45 GMT-0500 (Central Daylight Time)","745381","green","red","","","","","","","","","","181","","","","","","[{""stimulus"":""img/green_wl/1.jpg"",""time"":51},{""stimulus"":""img/green_wl/2.jpg"",""time"":101},{""stimulus"":""img/green_wl/3.jpg"",""time"":150},{""stimulus"":""img/green_wl/4.jpg"",""time"":201},{""stimulus"":""img/green_wl/5.jpg"",""time"":251},{""stimulus"":""img/green_wl/6.jpg"",""time"":302},{""stimulus"":""img/green_wl/7.jpg"",""time"":351},{""stimulus"":""img/green_wl/8.jpg"",""time"":402},{""stimulus"":""img/green_wl/9.jpg"",""time"":451},{""stimulus"":""img/green_wl/10.jpg"",""time"":501},{""stimulus"":""img/green_wl/11.jpg"",""time"":551}]","[]",""
"image-keyboard-response","94","78084","0.0-5.0-1.45","63f68fcc9f84b736270f0e8e","bdp_lott","Mon Mar 27 2023 17:53:45 GMT-0500 (Central Daylight Time)","745381","green","red","","294","","","","choice","","img/green_wl/choose11.jpg","1","180","green","0.5","0.5","0.5","w","","",""
"animation","95","78685","0.0-5.0-2.45","63f68fcc9f84b736270f0e8e","bdp_lott","Mon Mar 27 2023 17:53:45 GMT-0500 (Central Daylight Time)","745381","green","red","","","","","","","","","","180","","","","","","[{""stimulus"":""img/green_wl/1.jpg"",""time"":52},{""stimulus"":""img/green_wl/2.jpg"",""time"":102},{""stimulus"":""img/green_wl/3.jpg"",""time"":151},{""stimulus"":""img/green_wl/4.jpg"",""time"":201},{""stimulus"":""img/green_wl/5.jpg"",""time"":252},{""stimulus"":""img/green_wl/6.jpg"",""time"":302},{""stimulus"":""img/green_wl/7.jpg"",""time"":352},{""stimulus"":""img/green_wl/8.jpg"",""time"":402},{""stimulus"":""img/green_wl/9.jpg"",""time"":452},{""stimulus"":""img/green_wl/10.jpg"",""time"":501},{""stimulus"":""img/green_wl/11.jpg"",""time"":551}]","[]",""
"image-keyboard-response","96","79106","0.0-5.0-1.46","63f68fcc9f84b736270f0e8e","bdp_lott","Mon Mar 27 2023 17:53:45 GMT-0500 (Central Daylight Time)","745381","green","red","","421","","","","choice","","img/green_wl/choose11.jpg","1","179","green","0.5","0.5","0.5","w","","",""
"animation","97","79708","0.0-5.0-2.46","63f68fcc9f84b736270f0e8e","bdp_lott","Mon Mar 27 2023 17:53:45 GMT-0500 (Central Daylight Time)","745381","green","red","","","","","","","","","","179","","","","","","[{""stimulus"":""img/green_wl/1.jpg"",""time"":51},{""stimulus"":""img/green_wl/2.jpg"",""time"":102},{""stimulus"":""img/green_wl/3.jpg"",""time"":151},{""stimulus"":""img/green_wl/4.jpg"",""time"":202},{""stimulus"":""img/green_wl/5.jpg"",""time"":251},{""stimulus"":""img/green_wl/6.jpg"",""time"":302},{""stimulus"":""img/green_wl/7.jpg"",""time"":351},{""stimulus"":""img/green_wl/8.jpg"",""time"":401},{""stimulus"":""img/green_wl/9.jpg"",""time"":451},{""stimulus"":""img/green_wl/10.jpg"",""time"":501},{""stimulus"":""img/green_wl/11.jpg"",""time"":551}]","[]",""
"image-keyboard-response","98","80019","0.0-5.0-1.47","63f68fcc9f84b736270f0e8e","bdp_lott","Mon Mar 27 2023 17:53:45 GMT-0500 (Central Daylight Time)","745381","green","red","","311","","","","choice","","img/green_wl/choose11.jpg","1","178","green","0.5","0.5","0.5","l","","",""
"animation","99","80619","0.0-5.0-2.47","63f68fcc9f84b736270f0e8e","bdp_lott","Mon Mar 27 2023 17:53:45 GMT-0500 (Central Daylight Time)","745381","green","red","","","","","","","","","","178","","","","","","[{""stimulus"":""img/green_ll/1.jpg"",""time"":51},{""stimulus"":""img/green_ll/2.jpg"",""time"":102},{""stimulus"":""img/green_ll/3.jpg"",""time"":151},{""stimulus"":""img/green_ll/4.jpg"",""time"":201},{""stimulus"":""img/green_ll/5.jpg"",""time"":252},{""stimulus"":""img/green_ll/6.jpg"",""time"":300},{""stimulus"":""img/green_ll/7.jpg"",""time"":350},{""stimulus"":""img/green_ll/8.jpg"",""time"":401},{""stimulus"":""img/green_ll/9.jpg"",""time"":452},{""stimulus"":""img/green_ll/10.jpg"",""time"":501},{""stimulus"":""img/green_ll/11.jpg"",""time"":550}]","[]",""
"image-keyboard-response","100","80901","0.0-5.0-1.48","63f68fcc9f84b736270f0e8e","bdp_lott","Mon Mar 27 2023 17:53:45 GMT-0500 (Central Daylight Time)","745381","green","red","","281","","","","choice","","img/green_ll/choose11.jpg","1","177","green","0.5","0.5","0.5","w","","",""
"animation","101","81502","0.0-5.0-2.48","63f68fcc9f84b736270f0e8e","bdp_lott","Mon Mar 27 2023 17:53:45 GMT-0500 (Central Daylight Time)","745381","green","red","","","","","","","","","","177","","","","","","[{""stimulus"":""img/green_wl/1.jpg"",""time"":51},{""stimulus"":""img/green_wl/2.jpg"",""time"":102},{""stimulus"":""img/green_wl/3.jpg"",""time"":152},{""stimulus"":""img/green_wl/4.jpg"",""time"":201},{""stimulus"":""img/green_wl/5.jpg"",""time"":252},{""stimulus"":""img/green_wl/6.jpg"",""time"":302},{""stimulus"":""img/green_wl/7.jpg"",""time"":351},{""stimulus"":""img/green_wl/8.jpg"",""time"":402},{""stimulus"":""img/green_wl/9.jpg"",""time"":452},{""stimulus"":""img/green_wl/10.jpg"",""time"":501},{""stimulus"":""img/green_wl/11.jpg"",""time"":552}]","[]",""
"image-keyboard-response","102","82043","0.0-5.0-1.49","63f68fcc9f84b736270f0e8e","bdp_lott","Mon Mar 27 2023 17:53:45 GMT-0500 (Central Daylight Time)","745381","green","red","","540","","","","choice","","img/green_wl/choose11.jpg","1","176","green","0.5","0.5","0.5","l","","",""
"animation","103","82644","0.0-5.0-2.49","63f68fcc9f84b736270f0e8e","bdp_lott","Mon Mar 27 2023 17:53:45 GMT-0500 (Central Daylight Time)","745381","green","red","","","","","","","","","","176","","","","","","[{""stimulus"":""img/green_ll/1.jpg"",""time"":51},{""stimulus"":""img/green_ll/2.jpg"",""time"":101},{""stimulus"":""img/green_ll/3.jpg"",""time"":151},{""stimulus"":""img/green_ll/4.jpg"",""time"":201},{""stimulus"":""img/green_ll/5.jpg"",""time"":252},{""stimulus"":""img/green_ll/6.jpg"",""time"":301},{""stimulus"":""img/green_ll/7.jpg"",""time"":351},{""stimulus"":""img/green_ll/8.jpg"",""time"":401},{""stimulus"":""img/green_ll/9.jpg"",""time"":451},{""stimulus"":""img/green_ll/10.jpg"",""time"":501},{""stimulus"":""img/green_ll/11.jpg"",""time"":551}]","[]",""
"image-keyboard-response","104","82894","0.0-5.0-1.50","63f68fcc9f84b736270f0e8e","bdp_lott","Mon Mar 27 2023 17:53:45 GMT-0500 (Central Daylight Time)","745381","green","red","","250","","","","choice","","img/green_ll/choose11.jpg","1","175","green","0.5","0.5","0.5","w","","",""
"animation","105","83495","0.0-5.0-2.50","63f68fcc9f84b736270f0e8e","bdp_lott","Mon Mar 27 2023 17:53:45 GMT-0500 (Central Daylight Time)","745381","green","red","","","","","","","","","","175","","","","","","[{""stimulus"":""img/green_wl/1.jpg"",""time"":50},{""stimulus"":""img/green_wl/2.jpg"",""time"":100},{""stimulus"":""img/green_wl/3.jpg"",""time"":151},{""stimulus"":""img/green_wl/4.jpg"",""time"":201},{""stimulus"":""img/green_wl/5.jpg"",""time"":250},{""stimulus"":""img/green_wl/6.jpg"",""time"":301},{""stimulus"":""img/green_wl/7.jpg"",""time"":351},{""stimulus"":""img/green_wl/8.jpg"",""time"":401},{""stimulus"":""img/green_wl/9.jpg"",""time"":451},{""stimulus"":""img/green_wl/10.jpg"",""time"":500},{""stimulus"":""img/green_wl/11.jpg"",""time"":551}]","[]",""
"image-keyboard-response","106","83630","0.0-5.0-1.51","63f68fcc9f84b736270f0e8e","bdp_lott","Mon Mar 27 2023 17:53:45 GMT-0500 (Central Daylight Time)","745381","green","red","","135","","","","choice","","img/green_wl/choose11.jpg","1","174","green","0.5","0.5","0.5","l","","",""
"animation","107","84230","0.0-5.0-2.51","63f68fcc9f84b736270f0e8e","bdp_lott","Mon Mar 27 2023 17:53:45 GMT-0500 (Central Daylight Time)","745381","green","red","","","","","","","","","","174","","","","","","[{""stimulus"":""img/green_ll/1.jpg"",""time"":50},{""stimulus"":""img/green_ll/2.jpg"",""time"":100},{""stimulus"":""img/green_ll/3.jpg"",""time"":151},{""stimulus"":""img/green_ll/4.jpg"",""time"":201},{""stimulus"":""img/green_ll/5.jpg"",""time"":251},{""stimulus"":""img/green_ll/6.jpg"",""time"":301},{""stimulus"":""img/green_ll/7.jpg"",""time"":352},{""stimulus"":""img/green_ll/8.jpg"",""time"":401},{""stimulus"":""img/green_ll/9.jpg"",""time"":452},{""stimulus"":""img/green_ll/10.jpg"",""time"":502},{""stimulus"":""img/green_ll/11.jpg"",""time"":551}]","[]",""
"image-keyboard-response","108","84479","0.0-5.0-1.52","63f68fcc9f84b736270f0e8e","bdp_lott","Mon Mar 27 2023 17:53:45 GMT-0500 (Central Daylight Time)","745381","green","red","","248","","","","choice","","img/green_ll/choose11.jpg","1","173","green","0.5","0.5","0.5","w","","",""
"animation","109","85079","0.0-5.0-2.52","63f68fcc9f84b736270f0e8e","bdp_lott","Mon Mar 27 2023 17:53:45 GMT-0500 (Central Daylight Time)","745381","green","red","","","","","","","","","","173","","","","","","[{""stimulus"":""img/green_wl/1.jpg"",""time"":51},{""stimulus"":""img/green_wl/2.jpg"",""time"":102},{""stimulus"":""img/green_wl/3.jpg"",""time"":152},{""stimulus"":""img/green_wl/4.jpg"",""time"":201},{""stimulus"":""img/green_wl/5.jpg"",""time"":251},{""stimulus"":""img/green_wl/6.jpg"",""time"":301},{""stimulus"":""img/green_wl/7.jpg"",""time"":351},{""stimulus"":""img/green_wl/8.jpg"",""time"":400},{""stimulus"":""img/green_wl/9.jpg"",""time"":450},{""stimulus"":""img/green_wl/10.jpg"",""time"":500},{""stimulus"":""img/green_wl/11.jpg"",""time"":550}]","[]",""
"image-keyboard-response","110","85339","0.0-5.0-1.53","63f68fcc9f84b736270f0e8e","bdp_lott","Mon Mar 27 2023 17:53:45 GMT-0500 (Central Daylight Time)","745381","green","red","","259","","","","choice","","img/green_wl/choose11.jpg","1","172","green","0.5","0.5","0.5","l","","",""
"animation","111","85940","0.0-5.0-2.53","63f68fcc9f84b736270f0e8e","bdp_lott","Mon Mar 27 2023 17:53:45 GMT-0500 (Central Daylight Time)","745381","green","red","","","","","","","","","","172","","","","","","[{""stimulus"":""img/green_ll/1.jpg"",""time"":51},{""stimulus"":""img/green_ll/2.jpg"",""time"":101},{""stimulus"":""img/green_ll/3.jpg"",""time"":152},{""stimulus"":""img/green_ll/4.jpg"",""time"":202},{""stimulus"":""img/green_ll/5.jpg"",""time"":252},{""stimulus"":""img/green_ll/6.jpg"",""time"":303},{""stimulus"":""img/green_ll/7.jpg"",""time"":352},{""stimulus"":""img/green_ll/8.jpg"",""time"":401},{""stimulus"":""img/green_ll/9.jpg"",""time"":451},{""stimulus"":""img/green_ll/10.jpg"",""time"":501},{""stimulus"":""img/green_ll/11.jpg"",""time"":552}]","[]",""
"image-keyboard-response","112","86177","0.0-5.0-1.54","63f68fcc9f84b736270f0e8e","bdp_lott","Mon Mar 27 2023 17:53:45 GMT-0500 (Central Daylight Time)","745381","green","red","","236","","","","choice","","img/green_ll/choose11.jpg","1","171","green","0.5","0.5","0.5","l","","",""
"animation","113","86779","0.0-5.0-2.54","63f68fcc9f84b736270f0e8e","bdp_lott","Mon Mar 27 2023 17:53:45 GMT-0500 (Central Daylight Time)","745381","green","red","","","","","","","","","","171","","","","","","[{""stimulus"":""img/green_ll/1.jpg"",""time"":52},{""stimulus"":""img/green_ll/2.jpg"",""time"":101},{""stimulus"":""img/green_ll/3.jpg"",""time"":151},{""stimulus"":""img/green_ll/4.jpg"",""time"":200},{""stimulus"":""img/green_ll/5.jpg"",""time"":250},{""stimulus"":""img/green_ll/6.jpg"",""time"":300},{""stimulus"":""img/green_ll/7.jpg"",""time"":350},{""stimulus"":""img/green_ll/8.jpg"",""time"":401},{""stimulus"":""img/green_ll/9.jpg"",""time"":450},{""stimulus"":""img/green_ll/10.jpg"",""time"":500},{""stimulus"":""img/green_ll/11.jpg"",""time"":550}]","[]",""
"image-keyboard-response","114","87026","0.0-5.0-1.55","63f68fcc9f84b736270f0e8e","bdp_lott","Mon Mar 27 2023 17:53:45 GMT-0500 (Central Daylight Time)","745381","green","red","","247","","","","choice","","img/green_ll/choose11.jpg","1","170","green","0.5","0.5","0.5","w","","",""
"animation","115","87628","0.0-5.0-2.55","63f68fcc9f84b736270f0e8e","bdp_lott","Mon Mar 27 2023 17:53:45 GMT-0500 (Central Daylight Time)","745381","green","red","","","","","","","","","","170","","","","","","[{""stimulus"":""img/green_wl/1.jpg"",""time"":51},{""stimulus"":""img/green_wl/2.jpg"",""time"":101},{""stimulus"":""img/green_wl/3.jpg"",""time"":152},{""stimulus"":""img/green_wl/4.jpg"",""time"":201},{""stimulus"":""img/green_wl/5.jpg"",""time"":251},{""stimulus"":""img/green_wl/6.jpg"",""time"":302},{""stimulus"":""img/green_wl/7.jpg"",""time"":352},{""stimulus"":""img/green_wl/8.jpg"",""time"":401},{""stimulus"":""img/green_wl/9.jpg"",""time"":452},{""stimulus"":""img/green_wl/10.jpg"",""time"":501},{""stimulus"":""img/green_wl/11.jpg"",""time"":552}]","[]",""
"image-keyboard-response","116","87920","0.0-5.0-1.56","63f68fcc9f84b736270f0e8e","bdp_lott","Mon Mar 27 2023 17:53:45 GMT-0500 (Central Daylight Time)","745381","green","red","","290","","","","choice","","img/green_wl/choose11.jpg","1","169","green","0.5","0.5","0.5","l","","",""
"animation","117","88521","0.0-5.0-2.56","63f68fcc9f84b736270f0e8e","bdp_lott","Mon Mar 27 2023 17:53:45 GMT-0500 (Central Daylight Time)","745381","green","red","","","","","","","","","","169","","","","","","[{""stimulus"":""img/green_ll/1.jpg"",""time"":50},{""stimulus"":""img/green_ll/2.jpg"",""time"":100},{""stimulus"":""img/green_ll/3.jpg"",""time"":151},{""stimulus"":""img/green_ll/4.jpg"",""time"":200},{""stimulus"":""img/green_ll/5.jpg"",""time"":251},{""stimulus"":""img/green_ll/6.jpg"",""time"":300},{""stimulus"":""img/green_ll/7.jpg"",""time"":351},{""stimulus"":""img/green_ll/8.jpg"",""time"":401},{""stimulus"":""img/green_ll/9.jpg"",""time"":451},{""stimulus"":""img/green_ll/10.jpg"",""time"":502},{""stimulus"":""img/green_ll/11.jpg"",""time"":550}]","[]",""
"image-keyboard-response","118","88773","0.0-5.0-1.57","63f68fcc9f84b736270f0e8e","bdp_lott","Mon Mar 27 2023 17:53:45 GMT-0500 (Central Daylight Time)","745381","green","red","","251","","","","choice","","img/green_ll/choose11.jpg","1","168","green","0.5","0.5","0.5","w","","",""
"animation","119","89373","0.0-5.0-2.57","63f68fcc9f84b736270f0e8e","bdp_lott","Mon Mar 27 2023 17:53:45 GMT-0500 (Central Daylight Time)","745381","green","red","","","","","","","","","","168","","","","","","[{""stimulus"":""img/green_wl/1.jpg"",""time"":51},{""stimulus"":""img/green_wl/2.jpg"",""time"":102},{""stimulus"":""img/green_wl/3.jpg"",""time"":151},{""stimulus"":""img/green_wl/4.jpg"",""time"":201},{""stimulus"":""img/green_wl/5.jpg"",""time"":252},{""stimulus"":""img/green_wl/6.jpg"",""time"":301},{""stimulus"":""img/green_wl/7.jpg"",""time"":351},{""stimulus"":""img/green_wl/8.jpg"",""time"":401},{""stimulus"":""img/green_wl/9.jpg"",""time"":450},{""stimulus"":""img/green_wl/10.jpg"",""time"":502},{""stimulus"":""img/green_wl/11.jpg"",""time"":551}]","[]",""
"image-keyboard-response","120","89552","0.0-5.0-1.58","63f68fcc9f84b736270f0e8e","bdp_lott","Mon Mar 27 2023 17:53:45 GMT-0500 (Central Daylight Time)","745381","green","red","","178","","","","choice","","img/green_wl/choose11.jpg","1","167","green","0.5","0.5","0.5","l","","",""
"animation","121","90154","0.0-5.0-2.58","63f68fcc9f84b736270f0e8e","bdp_lott","Mon Mar 27 2023 17:53:45 GMT-0500 (Central Daylight Time)","745381","green","red","","","","","","","","","","167","","","","","","[{""stimulus"":""img/green_ll/1.jpg"",""time"":51},{""stimulus"":""img/green_ll/2.jpg"",""time"":102},{""stimulus"":""img/green_ll/3.jpg"",""time"":151},{""stimulus"":""img/green_ll/4.jpg"",""time"":201},{""stimulus"":""img/green_ll/5.jpg"",""time"":251},{""stimulus"":""img/green_ll/6.jpg"",""time"":301},{""stimulus"":""img/green_ll/7.jpg"",""time"":352},{""stimulus"":""img/green_ll/8.jpg"",""time"":401},{""stimulus"":""img/green_ll/9.jpg"",""time"":451},{""stimulus"":""img/green_ll/10.jpg"",""time"":502},{""stimulus"":""img/green_ll/11.jpg"",""time"":551}]","[]",""
"image-keyboard-response","122","90429","0.0-5.0-1.59","63f68fcc9f84b736270f0e8e","bdp_lott","Mon Mar 27 2023 17:53:45 GMT-0500 (Central Daylight Time)","745381","green","red","","274","","","","choice","","img/green_ll/choose11.jpg","1","166","green","0.5","0.5","0.5","l","","",""
"animation","123","91031","0.0-5.0-2.59","63f68fcc9f84b736270f0e8e","bdp_lott","Mon Mar 27 2023 17:53:45 GMT-0500 (Central Daylight Time)","745381","green","red","","","","","","","","","","166","","","","","","[{""stimulus"":""img/green_ll/1.jpg"",""time"":52},{""stimulus"":""img/green_ll/2.jpg"",""time"":101},{""stimulus"":""img/green_ll/3.jpg"",""time"":151},{""stimulus"":""img/green_ll/4.jpg"",""time"":201},{""stimulus"":""img/green_ll/5.jpg"",""time"":251},{""stimulus"":""img/green_ll/6.jpg"",""time"":301},{""stimulus"":""img/green_ll/7.jpg"",""time"":352},{""stimulus"":""img/green_ll/8.jpg"",""time"":402},{""stimulus"":""img/green_ll/9.jpg"",""time"":451},{""stimulus"":""img/green_ll/10.jpg"",""time"":501},{""stimulus"":""img/green_ll/11.jpg"",""time"":552}]","[]",""
"image-keyboard-response","124","91377","0.0-5.0-1.60","63f68fcc9f84b736270f0e8e","bdp_lott","Mon Mar 27 2023 17:53:45 GMT-0500 (Central Daylight Time)","745381","green","red","","346","","","","choice","","img/green_ll/choose11.jpg","1","165","green","0.5","0.5","0.5","w","","",""
"animation","125","91979","0.0-5.0-2.60","63f68fcc9f84b736270f0e8e","bdp_lott","Mon Mar 27 2023 17:53:45 GMT-0500 (Central Daylight Time)","745381","green","red","","","","","","","","","","165","","","","","","[{""stimulus"":""img/green_wl/1.jpg"",""time"":51},{""stimulus"":""img/green_wl/2.jpg"",""time"":101},{""stimulus"":""img/green_wl/3.jpg"",""time"":152},{""stimulus"":""img/green_wl/4.jpg"",""time"":201},{""stimulus"":""img/green_wl/5.jpg"",""time"":252},{""stimulus"":""img/green_wl/6.jpg"",""time"":302},{""stimulus"":""img/green_wl/7.jpg"",""time"":352},{""stimulus"":""img/green_wl/8.jpg"",""time"":401},{""stimulus"":""img/green_wl/9.jpg"",""time"":451},{""stimulus"":""img/green_wl/10.jpg"",""time"":501},{""stimulus"":""img/green_wl/11.jpg"",""time"":551}]","[]",""
"image-keyboard-response","126","92302","0.0-5.0-1.61","63f68fcc9f84b736270f0e8e","bdp_lott","Mon Mar 27 2023 17:53:45 GMT-0500 (Central Daylight Time)","745381","green","red","","323","","","","choice","","img/green_wl/choose11.jpg","1","164","green","0.5","0.5","0.5","l","","",""
"animation","127","92903","0.0-5.0-2.61","63f68fcc9f84b736270f0e8e","bdp_lott","Mon Mar 27 2023 17:53:45 GMT-0500 (Central Daylight Time)","745381","green","red","","","","","","","","","","164","","","","","","[{""stimulus"":""img/green_ll/1.jpg"",""time"":51},{""stimulus"":""img/green_ll/2.jpg"",""time"":101},{""stimulus"":""img/green_ll/3.jpg"",""time"":151},{""stimulus"":""img/green_ll/4.jpg"",""time"":201},{""stimulus"":""img/green_ll/5.jpg"",""time"":252},{""stimulus"":""img/green_ll/6.jpg"",""time"":300},{""stimulus"":""img/green_ll/7.jpg"",""time"":350},{""stimulus"":""img/green_ll/8.jpg"",""time"":402},{""stimulus"":""img/green_ll/9.jpg"",""time"":451},{""stimulus"":""img/green_ll/10.jpg"",""time"":501},{""stimulus"":""img/green_ll/11.jpg"",""time"":552}]","[]",""
"image-keyboard-response","128","93282","0.0-5.0-1.62","63f68fcc9f84b736270f0e8e","bdp_lott","Mon Mar 27 2023 17:53:45 GMT-0500 (Central Daylight Time)","745381","green","red","","379","","","","choice","","img/green_ll/choose11.jpg","1","163","green","0.5","0.5","0.5","w","","",""
"animation","129","93882","0.0-5.0-2.62","63f68fcc9f84b736270f0e8e","bdp_lott","Mon Mar 27 2023 17:53:45 GMT-0500 (Central Daylight Time)","745381","green","red","","","","","","","","","","163","","","","","","[{""stimulus"":""img/green_wl/1.jpg"",""time"":52},{""stimulus"":""img/green_wl/2.jpg"",""time"":101},{""stimulus"":""img/green_wl/3.jpg"",""time"":151},{""stimulus"":""img/green_wl/4.jpg"",""time"":202},{""stimulus"":""img/green_wl/5.jpg"",""time"":252},{""stimulus"":""img/green_wl/6.jpg"",""time"":303},{""stimulus"":""img/green_wl/7.jpg"",""time"":351},{""stimulus"":""img/green_wl/8.jpg"",""time"":401},{""stimulus"":""img/green_wl/9.jpg"",""time"":451},{""stimulus"":""img/green_wl/10.jpg"",""time"":501},{""stimulus"":""img/green_wl/11.jpg"",""time"":551}]","[]",""
"image-keyboard-response","130","94186","0.0-5.0-1.63","63f68fcc9f84b736270f0e8e","bdp_lott","Mon Mar 27 2023 17:53:45 GMT-0500 (Central Daylight Time)","745381","green","red","","303","","","","choice","","img/green_wl/choose11.jpg","2","162","red","0.5","0.5","0.5","l","","",""
"animation","131","94786","0.0-5.0-2.63","63f68fcc9f84b736270f0e8e","bdp_lott","Mon Mar 27 2023 17:53:45 GMT-0500 (Central Daylight Time)","745381","green","red","","","","","","","","","","162","","","","","","[{""stimulus"":""img/red_wl/1.jpg"",""time"":51},{""stimulus"":""img/red_wl/2.jpg"",""time"":102},{""stimulus"":""img/red_wl/3.jpg"",""time"":151},{""stimulus"":""img/red_wl/4.jpg"",""time"":202},{""stimulus"":""img/red_wl/5.jpg"",""time"":251},{""stimulus"":""img/red_wl/6.jpg"",""time"":301},{""stimulus"":""img/red_wl/7.jpg"",""time"":351},{""stimulus"":""img/red_wl/8.jpg"",""time"":401},{""stimulus"":""img/red_wl/9.jpg"",""time"":451},{""stimulus"":""img/red_wl/10.jpg"",""time"":502},{""stimulus"":""img/red_wl/11.jpg"",""time"":551}]","[]",""
"image-keyboard-response","132","95067","0.0-5.0-1.64","63f68fcc9f84b736270f0e8e","bdp_lott","Mon Mar 27 2023 17:53:45 GMT-0500 (Central Daylight Time)","745381","green","red","","280","","","","choice","","img/red_wl/choose11.jpg","2","161","red","0.5","0.5","0.5","l","","",""
"animation","133","95668","0.0-5.0-2.64","63f68fcc9f84b736270f0e8e","bdp_lott","Mon Mar 27 2023 17:53:45 GMT-0500 (Central Daylight Time)","745381","green","red","","","","","","","","","","161","","","","","","[{""stimulus"":""img/red_wl/1.jpg"",""time"":51},{""stimulus"":""img/red_wl/2.jpg"",""time"":101},{""stimulus"":""img/red_wl/3.jpg"",""time"":151},{""stimulus"":""img/red_wl/4.jpg"",""time"":202},{""stimulus"":""img/red_wl/5.jpg"",""time"":251},{""stimulus"":""img/red_wl/6.jpg"",""time"":301},{""stimulus"":""img/red_wl/7.jpg"",""time"":351},{""stimulus"":""img/red_wl/8.jpg"",""time"":402},{""stimulus"":""img/red_wl/9.jpg"",""time"":452},{""stimulus"":""img/red_wl/10.jpg"",""time"":500},{""stimulus"":""img/red_wl/11.jpg"",""time"":551}]","[]",""
"image-keyboard-response","134","95969","0.0-5.0-1.65","63f68fcc9f84b736270f0e8e","bdp_lott","Mon Mar 27 2023 17:53:45 GMT-0500 (Central Daylight Time)","745381","green","red","","301","","","","choice","","img/red_wl/choose11.jpg","2","160","red","0.5","0.5","0.5","l","","",""
"animation","135","96571","0.0-5.0-2.65","63f68fcc9f84b736270f0e8e","bdp_lott","Mon Mar 27 2023 17:53:45 GMT-0500 (Central Daylight Time)","745381","green","red","","","","","","","","","","160","","","","","","[{""stimulus"":""img/red_wl/1.jpg"",""time"":51},{""stimulus"":""img/red_wl/2.jpg"",""time"":101},{""stimulus"":""img/red_wl/3.jpg"",""time"":151},{""stimulus"":""img/red_wl/4.jpg"",""time"":201},{""stimulus"":""img/red_wl/5.jpg"",""time"":251},{""stimulus"":""img/red_wl/6.jpg"",""time"":301},{""stimulus"":""img/red_wl/7.jpg"",""time"":351},{""stimulus"":""img/red_wl/8.jpg"",""time"":401},{""stimulus"":""img/red_wl/9.jpg"",""time"":450},{""stimulus"":""img/red_wl/10.jpg"",""time"":500},{""stimulus"":""img/red_wl/11.jpg"",""time"":551}]","[]",""
"image-keyboard-response","136","96847","0.0-5.0-1.66","63f68fcc9f84b736270f0e8e","bdp_lott","Mon Mar 27 2023 17:53:45 GMT-0500 (Central Daylight Time)","745381","green","red","","276","","","","choice","","img/red_wl/choose11.jpg","2","159","red","0.5","0.5","0.5","w","","",""
"animation","137","97449","0.0-5.0-2.66","63f68fcc9f84b736270f0e8e","bdp_lott","Mon Mar 27 2023 17:53:45 GMT-0500 (Central Daylight Time)","745381","green","red","","","","","","","","","","159","","","","","","[{""stimulus"":""img/red_ww/1.jpg"",""time"":51},{""stimulus"":""img/red_ww/2.jpg"",""time"":102},{""stimulus"":""img/red_ww/3.jpg"",""time"":151},{""stimulus"":""img/red_ww/4.jpg"",""time"":201},{""stimulus"":""img/red_ww/5.jpg"",""time"":252},{""stimulus"":""img/red_ww/6.jpg"",""time"":301},{""stimulus"":""img/red_ww/7.jpg"",""time"":352},{""stimulus"":""img/red_ww/8.jpg"",""time"":402},{""stimulus"":""img/red_ww/9.jpg"",""time"":453},{""stimulus"":""img/red_ww/10.jpg"",""time"":502},{""stimulus"":""img/red_ww/11.jpg"",""time"":551}]","[]",""
"image-keyboard-response","138","97674","0.0-5.0-1.67","63f68fcc9f84b736270f0e8e","bdp_lott","Mon Mar 27 2023 17:53:45 GMT-0500 (Central Daylight Time)","745381","green","red","","224","","","","choice","","img/red_ww/choose11.jpg","2","158","red","0.5","0.5","0.5","l","","",""
"animation","139","98275","0.0-5.0-2.67","63f68fcc9f84b736270f0e8e","bdp_lott","Mon Mar 27 2023 17:53:45 GMT-0500 (Central Daylight Time)","745381","green","red","","","","","","","","","","158","","","","","","[{""stimulus"":""img/red_wl/1.jpg"",""time"":52},{""stimulus"":""img/red_wl/2.jpg"",""time"":101},{""stimulus"":""img/red_wl/3.jpg"",""time"":151},{""stimulus"":""img/red_wl/4.jpg"",""time"":201},{""stimulus"":""img/red_wl/5.jpg"",""time"":252},{""stimulus"":""img/red_wl/6.jpg"",""time"":301},{""stimulus"":""img/red_wl/7.jpg"",""time"":351},{""stimulus"":""img/red_wl/8.jpg"",""time"":402},{""stimulus"":""img/red_wl/9.jpg"",""time"":451},{""stimulus"":""img/red_wl/10.jpg"",""time"":502},{""stimulus"":""img/red_wl/11.jpg"",""time"":553}]","[]",""
"image-keyboard-response","140","98541","0.0-5.0-1.68","63f68fcc9f84b736270f0e8e","bdp_lott","Mon Mar 27 2023 17:53:45 GMT-0500 (Central Daylight Time)","745381","green","red","","265","","","","choice","","img/red_wl/choose11.jpg","2","157","red","0.5","0.5","0.5","l","","",""
"animation","141","99143","0.0-5.0-2.68","63f68fcc9f84b736270f0e8e","bdp_lott","Mon Mar 27 2023 17:53:45 GMT-0500 (Central Daylight Time)","745381","green","red","","","","","","","","","","157","","","","","","[{""stimulus"":""img/red_wl/1.jpg"",""time"":51},{""stimulus"":""img/red_wl/2.jpg"",""time"":101},{""stimulus"":""img/red_wl/3.jpg"",""time"":151},{""stimulus"":""img/red_wl/4.jpg"",""time"":201},{""stimulus"":""img/red_wl/5.jpg"",""time"":251},{""stimulus"":""img/red_wl/6.jpg"",""time"":300},{""stimulus"":""img/red_wl/7.jpg"",""time"":350},{""stimulus"":""img/red_wl/8.jpg"",""time"":401},{""stimulus"":""img/red_wl/9.jpg"",""time"":451},{""stimulus"":""img/red_wl/10.jpg"",""time"":501},{""stimulus"":""img/red_wl/11.jpg"",""time"":551}]","[]",""
"image-keyboard-response","142","99364","0.0-5.0-1.69","63f68fcc9f84b736270f0e8e","bdp_lott","Mon Mar 27 2023 17:53:45 GMT-0500 (Central Daylight Time)","745381","green","red","","220","","","","choice","","img/red_wl/choose11.jpg","2","156","red","0.5","0.5","0.5","w","","",""
"animation","143","99964","0.0-5.0-2.69","63f68fcc9f84b736270f0e8e","bdp_lott","Mon Mar 27 2023 17:53:45 GMT-0500 (Central Daylight Time)","745381","green","red","","","","","","","","","","156","","","","","","[{""stimulus"":""img/red_ww/1.jpg"",""time"":52},{""stimulus"":""img/red_ww/2.jpg"",""time"":102},{""stimulus"":""img/red_ww/3.jpg"",""time"":152},{""stimulus"":""img/red_ww/4.jpg"",""time"":201},{""stimulus"":""img/red_ww/5.jpg"",""time"":252},{""stimulus"":""img/red_ww/6.jpg"",""time"":301},{""stimulus"":""img/red_ww/7.jpg"",""time"":351},{""stimulus"":""img/red_ww/8.jpg"",""time"":401},{""stimulus"":""img/red_ww/9.jpg"",""time"":451},{""stimulus"":""img/red_ww/10.jpg"",""time"":500},{""stimulus"":""img/red_ww/11.jpg"",""time"":551}]","[]",""
"image-keyboard-response","144","100092","0.0-5.0-1.70","63f68fcc9f84b736270f0e8e","bdp_lott","Mon Mar 27 2023 17:53:45 GMT-0500 (Central Daylight Time)","745381","green","red","","127","","","","choice","","img/red_ww/choose11.jpg","1","155","green","0.5","0.5","0.5","l","","",""
"animation","145","100693","0.0-5.0-2.70","63f68fcc9f84b736270f0e8e","bdp_lott","Mon Mar 27 2023 17:53:45 GMT-0500 (Central Daylight Time)","745381","green","red","","","","","","","","","","155","","","","","","[{""stimulus"":""img/green_lw/1.jpg"",""time"":52},{""stimulus"":""img/green_lw/2.jpg"",""time"":102},{""stimulus"":""img/green_lw/3.jpg"",""time"":150},{""stimulus"":""img/green_lw/4.jpg"",""time"":201},{""stimulus"":""img/green_lw/5.jpg"",""time"":251},{""stimulus"":""img/green_lw/6.jpg"",""time"":301},{""stimulus"":""img/green_lw/7.jpg"",""time"":350},{""stimulus"":""img/green_lw/8.jpg"",""time"":401},{""stimulus"":""img/green_lw/9.jpg"",""time"":450},{""stimulus"":""img/green_lw/10.jpg"",""time"":501},{""stimulus"":""img/green_lw/11.jpg"",""time"":551}]","[]",""
"image-keyboard-response","146","100820","0.0-5.0-1.71","63f68fcc9f84b736270f0e8e","bdp_lott","Mon Mar 27 2023 17:53:45 GMT-0500 (Central Daylight Time)","745381","green","red","","126","","","","choice","","img/green_lw/choose11.jpg","1","154","green","0.5","0.5","0.5","w","","",""
"animation","147","101422","0.0-5.0-2.71","63f68fcc9f84b736270f0e8e","bdp_lott","Mon Mar 27 2023 17:53:45 GMT-0500 (Central Daylight Time)","745381","green","red","","","","","","","","","","154","","","","","","[{""stimulus"":""img/green_ww/1.jpg"",""time"":52},{""stimulus"":""img/green_ww/2.jpg"",""time"":101},{""stimulus"":""img/green_ww/3.jpg"",""time"":152},{""stimulus"":""img/green_ww/4.jpg"",""time"":201},{""stimulus"":""img/green_ww/5.jpg"",""time"":252},{""stimulus"":""img/green_ww/6.jpg"",""time"":302},{""stimulus"":""img/green_ww/7.jpg"",""time"":352},{""stimulus"":""img/green_ww/8.jpg"",""time"":401},{""stimulus"":""img/green_ww/9.jpg"",""time"":452},{""stimulus"":""img/green_ww/10.jpg"",""time"":501},{""stimulus"":""img/green_ww/11.jpg"",""time"":551}]","[]",""
"image-keyboard-response","148","101526","0.0-5.0-1.72","63f68fcc9f84b736270f0e8e","bdp_lott","Mon Mar 27 2023 17:53:45 GMT-0500 (Central Daylight Time)","745381","green","red","","103","","","","choice","","img/green_ww/choose11.jpg","1","153","green","0.5","0.5","0.5","l","","",""
"animation","149","102128","0.0-5.0-2.72","63f68fcc9f84b736270f0e8e","bdp_lott","Mon Mar 27 2023 17:53:45 GMT-0500 (Central Daylight Time)","745381","green","red","","","","","","","","","","153","","","","","","[{""stimulus"":""img/green_lw/1.jpg"",""time"":51},{""stimulus"":""img/green_lw/2.jpg"",""time"":100},{""stimulus"":""img/green_lw/3.jpg"",""time"":151},{""stimulus"":""img/green_lw/4.jpg"",""time"":200},{""stimulus"":""img/green_lw/5.jpg"",""time"":250},{""stimulus"":""img/green_lw/6.jpg"",""time"":301},{""stimulus"":""img/green_lw/7.jpg"",""time"":351},{""stimulus"":""img/green_lw/8.jpg"",""time"":401},{""stimulus"":""img/green_lw/9.jpg"",""time"":451},{""stimulus"":""img/green_lw/10.jpg"",""time"":501},{""stimulus"":""img/green_lw/11.jpg"",""time"":550}]","[]",""
"image-keyboard-response","150","102284","0.0-5.0-1.73","63f68fcc9f84b736270f0e8e","bdp_lott","Mon Mar 27 2023 17:53:45 GMT-0500 (Central Daylight Time)","745381","green","red","","155","","","","choice","","img/green_lw/choose11.jpg","1","152","green","0.5","0.5","0.5","w","","",""
"animation","151","102886","0.0-5.0-2.73","63f68fcc9f84b736270f0e8e","bdp_lott","Mon Mar 27 2023 17:53:45 GMT-0500 (Central Daylight Time)","745381","green","red","","","","","","","","","","152","","","","","","[{""stimulus"":""img/green_ww/1.jpg"",""time"":51},{""stimulus"":""img/green_ww/2.jpg"",""time"":101},{""stimulus"":""img/green_ww/3.jpg"",""time"":151},{""stimulus"":""img/green_ww/4.jpg"",""time"":201},{""stimulus"":""img/green_ww/5.jpg"",""time"":252},{""stimulus"":""img/green_ww/6.jpg"",""time"":302},{""stimulus"":""img/green_ww/7.jpg"",""time"":351},{""stimulus"":""img/green_ww/8.jpg"",""time"":401},{""stimulus"":""img/green_ww/9.jpg"",""time"":451},{""stimulus"":""img/green_ww/10.jpg"",""time"":501},{""stimulus"":""img/green_ww/11.jpg"",""time"":551}]","[]",""
"image-keyboard-response","152","102993","0.0-5.0-1.74","63f68fcc9f84b736270f0e8e","bdp_lott","Mon Mar 27 2023 17:53:45 GMT-0500 (Central Daylight Time)","745381","green","red","","107","","","","choice","","img/green_ww/choose11.jpg","1","151","green","0.5","0.5","0.5","w","","",""
"animation","153","103594","0.0-5.0-2.74","63f68fcc9f84b736270f0e8e","bdp_lott","Mon Mar 27 2023 17:53:45 GMT-0500 (Central Daylight Time)","745381","green","red","","","","","","","","","","151","","","","","","[{""stimulus"":""img/green_ww/1.jpg"",""time"":51},{""stimulus"":""img/green_ww/2.jpg"",""time"":101},{""stimulus"":""img/green_ww/3.jpg"",""time"":150},{""stimulus"":""img/green_ww/4.jpg"",""time"":200},{""stimulus"":""img/green_ww/5.jpg"",""time"":251},{""stimulus"":""img/green_ww/6.jpg"",""time"":301},{""stimulus"":""img/green_ww/7.jpg"",""time"":351},{""stimulus"":""img/green_ww/8.jpg"",""time"":401},{""stimulus"":""img/green_ww/9.jpg"",""time"":450},{""stimulus"":""img/green_ww/10.jpg"",""time"":500},{""stimulus"":""img/green_ww/11.jpg"",""time"":552}]","[]",""
"image-keyboard-response","154","103653","0.0-5.0-1.75","63f68fcc9f84b736270f0e8e","bdp_lott","Mon Mar 27 2023 17:53:45 GMT-0500 (Central Daylight Time)","745381","green","red","","58","","","","choice","","img/green_ww/choose11.jpg","1","150","green","0.5","0.5","0.5","l","","",""
"animation","155","104255","0.0-5.0-2.75","63f68fcc9f84b736270f0e8e","bdp_lott","Mon Mar 27 2023 17:53:45 GMT-0500 (Central Daylight Time)","745381","green","red","","","","","","","","","","150","","","","","","[{""stimulus"":""img/green_lw/1.jpg"",""time"":52},{""stimulus"":""img/green_lw/2.jpg"",""time"":102},{""stimulus"":""img/green_lw/3.jpg"",""time"":150},{""stimulus"":""img/green_lw/4.jpg"",""time"":201},{""stimulus"":""img/green_lw/5.jpg"",""time"":251},{""stimulus"":""img/green_lw/6.jpg"",""time"":301},{""stimulus"":""img/green_lw/7.jpg"",""time"":351},{""stimulus"":""img/green_lw/8.jpg"",""time"":401},{""stimulus"":""img/green_lw/9.jpg"",""time"":451},{""stimulus"":""img/green_lw/10.jpg"",""time"":501},{""stimulus"":""img/green_lw/11.jpg"",""time"":551}]","[]",""
"image-keyboard-response","156","104347","0.0-5.0-1.76","63f68fcc9f84b736270f0e8e","bdp_lott","Mon Mar 27 2023 17:53:45 GMT-0500 (Central Daylight Time)","745381","green","red","","92","","","","choice","","img/green_lw/choose11.jpg","1","149","green","0.5","0.1","0.5","w","","",""
"animation","157","104949","0.0-5.0-2.76","63f68fcc9f84b736270f0e8e","bdp_lott","Mon Mar 27 2023 17:53:45 GMT-0500 (Central Daylight Time)","745381","green","red","","","","","","","","","","149","","","","","","[{""stimulus"":""img/green_ww/1.jpg"",""time"":51},{""stimulus"":""img/green_ww/2.jpg"",""time"":101},{""stimulus"":""img/green_ww/3.jpg"",""time"":152},{""stimulus"":""img/green_ww/4.jpg"",""time"":201},{""stimulus"":""img/green_ww/5.jpg"",""time"":252},{""stimulus"":""img/green_ww/6.jpg"",""time"":302},{""stimulus"":""img/green_ww/7.jpg"",""time"":351},{""stimulus"":""img/green_ww/8.jpg"",""time"":401},{""stimulus"":""img/green_ww/9.jpg"",""time"":452},{""stimulus"":""img/green_ww/10.jpg"",""time"":502},{""stimulus"":""img/green_ww/11.jpg"",""time"":552}]","[]",""
"image-keyboard-response","158","104984","0.0-5.0-1.77","63f68fcc9f84b736270f0e8e","bdp_lott","Mon Mar 27 2023 17:53:45 GMT-0500 (Central Daylight Time)","745381","green","red","","34","","","","choice","","img/green_ww/choose11.jpg","1","148","green","0.5","0.1","0.5","w","","",""
"animation","159","105585","0.0-5.0-2.77","63f68fcc9f84b736270f0e8e","bdp_lott","Mon Mar 27 2023 17:53:45 GMT-0500 (Central Daylight Time)","745381","green","red","","","","","","","","","","148","","","","","","[{""stimulus"":""img/green_ww/1.jpg"",""time"":51},{""stimulus"":""img/green_ww/2.jpg"",""time"":100},{""stimulus"":""img/green_ww/3.jpg"",""time"":151},{""stimulus"":""img/green_ww/4.jpg"",""time"":201},{""stimulus"":""img/green_ww/5.jpg"",""time"":251},{""stimulus"":""img/green_ww/6.jpg"",""time"":302},{""stimulus"":""img/green_ww/7.jpg"",""time"":352},{""stimulus"":""img/green_ww/8.jpg"",""time"":400},{""stimulus"":""img/green_ww/9.jpg"",""time"":450},{""stimulus"":""img/green_ww/10.jpg"",""time"":500},{""stimulus"":""img/green_ww/11.jpg"",""time"":551}]","[]",""
"image-keyboard-response","160","105665","0.0-5.0-1.78","63f68fcc9f84b736270f0e8e","bdp_lott","Mon Mar 27 2023 17:53:45 GMT-0500 (Central Daylight Time)","745381","green","red","","79","","","","choice","","img/green_ww/choose11.jpg","1","147","green","0.5","0.1","0.5","l","","",""
"animation","161","106267","0.0-5.0-2.78","63f68fcc9f84b736270f0e8e","bdp_lott","Mon Mar 27 2023 17:53:45 GMT-0500 (Central Daylight Time)","745381","green","red","","","","","","","","","","147","","","","","","[{""stimulus"":""img/green_lw/1.jpg"",""time"":52},{""stimulus"":""img/green_lw/2.jpg"",""time"":101},{""stimulus"":""img/green_lw/3.jpg"",""time"":151},{""stimulus"":""img/green_lw/4.jpg"",""time"":201},{""stimulus"":""img/green_lw/5.jpg"",""time"":251},{""stimulus"":""img/green_lw/6.jpg"",""time"":302},{""stimulus"":""img/green_lw/7.jpg"",""time"":352},{""stimulus"":""img/green_lw/8.jpg"",""time"":401},{""stimulus"":""img/green_lw/9.jpg"",""time"":451},{""stimulus"":""img/green_lw/10.jpg"",""time"":501},{""stimulus"":""img/green_lw/11.jpg"",""time"":551}]","[]",""
"image-keyboard-response","162","106346","0.0-5.0-1.79","63f68fcc9f84b736270f0e8e","bdp_lott","Mon Mar 27 2023 17:53:45 GMT-0500 (Central Daylight Time)","745381","green","red","","79","","","","choice","","img/green_lw/choose11.jpg","1","146","green","0.5","0.1","0.5","w","","",""
"animation","163","106948","0.0-5.0-2.79","63f68fcc9f84b736270f0e8e","bdp_lott","Mon Mar 27 2023 17:53:45 GMT-0500 (Central Daylight Time)","745381","green","red","","","","","","","","","","146","","","","","","[{""stimulus"":""img/green_ww/1.jpg"",""time"":51},{""stimulus"":""img/green_ww/2.jpg"",""time"":102},{""stimulus"":""img/green_ww/3.jpg"",""time"":152},{""stimulus"":""img/green_ww/4.jpg"",""time"":203},{""stimulus"":""img/green_ww/5.jpg"",""time"":251},{""stimulus"":""img/green_ww/6.jpg"",""time"":301},{""stimulus"":""img/green_ww/7.jpg"",""time"":351},{""stimulus"":""img/green_ww/8.jpg"",""time"":401},{""stimulus"":""img/green_ww/9.jpg"",""time"":451},{""stimulus"":""img/green_ww/10.jpg"",""time"":502},{""stimulus"":""img/green_ww/11.jpg"",""time"":551}]","[]",""
"image-keyboard-response","164","106992","0.0-5.0-1.80","63f68fcc9f84b736270f0e8e","bdp_lott","Mon Mar 27 2023 17:53:45 GMT-0500 (Central Daylight Time)","745381","green","red","","44","","","","choice","","img/green_ww/choose11.jpg","1","145","green","0.5","0.1","0.5","l","","",""
"animation","165","107595","0.0-5.0-2.80","63f68fcc9f84b736270f0e8e","bdp_lott","Mon Mar 27 2023 17:53:45 GMT-0500 (Central Daylight Time)","745381","green","red","","","","","","","","","","145","","","","","","[{""stimulus"":""img/green_lw/1.jpg"",""time"":51},{""stimulus"":""img/green_lw/2.jpg"",""time"":101},{""stimulus"":""img/green_lw/3.jpg"",""time"":151},{""stimulus"":""img/green_lw/4.jpg"",""time"":201},{""stimulus"":""img/green_lw/5.jpg"",""time"":251},{""stimulus"":""img/green_lw/6.jpg"",""time"":301},{""stimulus"":""img/green_lw/7.jpg"",""time"":351},{""stimulus"":""img/green_lw/8.jpg"",""time"":401},{""stimulus"":""img/green_lw/9.jpg"",""time"":452},{""stimulus"":""img/green_lw/10.jpg"",""time"":501},{""stimulus"":""img/green_lw/11.jpg"",""time"":551}]","[]",""
"image-keyboard-response","166","107642","0.0-5.0-1.81","63f68fcc9f84b736270f0e8e","bdp_lott","Mon Mar 27 2023 17:53:45 GMT-0500 (Central Daylight Time)","745381","green","red","","47","","","","choice","","img/green_lw/choose11.jpg","1","144","green","0.5","0.1","0.5","l","","",""
"animation","167","108243","0.0-5.0-2.81","63f68fcc9f84b736270f0e8e","bdp_lott","Mon Mar 27 2023 17:53:45 GMT-0500 (Central Daylight Time)","745381","green","red","","","","","","","","","","144","","","","","","[{""stimulus"":""img/green_lw/1.jpg"",""time"":51},{""stimulus"":""img/green_lw/2.jpg"",""time"":101},{""stimulus"":""img/green_lw/3.jpg"",""time"":152},{""stimulus"":""img/green_lw/4.jpg"",""time"":202},{""stimulus"":""img/green_lw/5.jpg"",""time"":251},{""stimulus"":""img/green_lw/6.jpg"",""time"":301},{""stimulus"":""img/green_lw/7.jpg"",""time"":351},{""stimulus"":""img/green_lw/8.jpg"",""time"":401},{""stimulus"":""img/green_lw/9.jpg"",""time"":452},{""stimulus"":""img/green_lw/10.jpg"",""time"":502},{""stimulus"":""img/green_lw/11.jpg"",""time"":552}]","[]",""
"image-keyboard-response","168","108270","0.0-5.0-1.82","63f68fcc9f84b736270f0e8e","bdp_lott","Mon Mar 27 2023 17:53:45 GMT-0500 (Central Daylight Time)","745381","green","red","","26","","","","choice","","img/green_lw/choose11.jpg","1","143","green","0.5","0.1","0.5","w","","",""
"animation","169","108870","0.0-5.0-2.82","63f68fcc9f84b736270f0e8e","bdp_lott","Mon Mar 27 2023 17:53:45 GMT-0500 (Central Daylight Time)","745381","green","red","","","","","","","","","","143","","","","","","[{""stimulus"":""img/green_ww/1.jpg"",""time"":51},{""stimulus"":""img/green_ww/2.jpg"",""time"":102},{""stimulus"":""img/green_ww/3.jpg"",""time"":151},{""stimulus"":""img/green_ww/4.jpg"",""time"":201},{""stimulus"":""img/green_ww/5.jpg"",""time"":251},{""stimulus"":""img/green_ww/6.jpg"",""time"":301},{""stimulus"":""img/green_ww/7.jpg"",""time"":351},{""stimulus"":""img/green_ww/8.jpg"",""time"":401},{""stimulus"":""img/green_ww/9.jpg"",""time"":451},{""stimulus"":""img/green_ww/10.jpg"",""time"":501},{""stimulus"":""img/green_ww/11.jpg"",""time"":551}]","[]",""
"image-keyboard-response","170","109375","0.0-5.0-1.83","63f68fcc9f84b736270f0e8e","bdp_lott","Mon Mar 27 2023 17:53:45 GMT-0500 (Central Daylight Time)","745381","green","red","","504","","","","choice","","img/green_ww/choose11.jpg","1","142","green","0.5","0.1","0.5","w","","",""
"animation","171","109976","0.0-5.0-2.83","63f68fcc9f84b736270f0e8e","bdp_lott","Mon Mar 27 2023 17:53:45 GMT-0500 (Central Daylight Time)","745381","green","red","","","","","","","","","","142","","","","","","[{""stimulus"":""img/green_ww/1.jpg"",""time"":50},{""stimulus"":""img/green_ww/2.jpg"",""time"":101},{""stimulus"":""img/green_ww/3.jpg"",""time"":151},{""stimulus"":""img/green_ww/4.jpg"",""time"":200},{""stimulus"":""img/green_ww/5.jpg"",""time"":250},{""stimulus"":""img/green_ww/6.jpg"",""time"":301},{""stimulus"":""img/green_ww/7.jpg"",""time"":350},{""stimulus"":""img/green_ww/8.jpg"",""time"":401},{""stimulus"":""img/green_ww/9.jpg"",""time"":452},{""stimulus"":""img/green_ww/10.jpg"",""time"":502},{""stimulus"":""img/green_ww/11.jpg"",""time"":550}]","[]",""
"image-keyboard-response","172","110008","0.0-5.0-1.84","63f68fcc9f84b736270f0e8e","bdp_lott","Mon Mar 27 2023 17:53:45 GMT-0500 (Central Daylight Time)","745381","green","red","","32","","","","choice","","img/green_ww/choose11.jpg","1","141","green","0.5","0.1","0.5","l","","",""
"animation","173","110609","0.0-5.0-2.84","63f68fcc9f84b736270f0e8e","bdp_lott","Mon Mar 27 2023 17:53:45 GMT-0500 (Central Daylight Time)","745381","green","red","","","","","","","","","","141","","","","","","[{""stimulus"":""img/green_lw/1.jpg"",""time"":51},{""stimulus"":""img/green_lw/2.jpg"",""time"":101},{""stimulus"":""img/green_lw/3.jpg"",""time"":152},{""stimulus"":""img/green_lw/4.jpg"",""time"":201},{""stimulus"":""img/green_lw/5.jpg"",""time"":252},{""stimulus"":""img/green_lw/6.jpg"",""time"":301},{""stimulus"":""img/green_lw/7.jpg"",""time"":351},{""stimulus"":""img/green_lw/8.jpg"",""time"":401},{""stimulus"":""img/green_lw/9.jpg"",""time"":452},{""stimulus"":""img/green_lw/10.jpg"",""time"":501},{""stimulus"":""img/green_lw/11.jpg"",""time"":551}]","[]",""
"image-keyboard-response","174","110681","0.0-5.0-1.85","63f68fcc9f84b736270f0e8e","bdp_lott","Mon Mar 27 2023 17:53:45 GMT-0500 (Central Daylight Time)","745381","green","red","","71","","","","choice","","img/green_lw/choose11.jpg","1","140","green","0.5","0.1","0.5","l","","",""
"animation","175","111281","0.0-5.0-2.85","63f68fcc9f84b736270f0e8e","bdp_lott","Mon Mar 27 2023 17:53:45 GMT-0500 (Central Daylight Time)","745381","green","red","","","","","","","","","","140","","","","","","[{""stimulus"":""img/green_lw/1.jpg"",""time"":51},{""stimulus"":""img/green_lw/2.jpg"",""time"":100},{""stimulus"":""img/green_lw/3.jpg"",""time"":151},{""stimulus"":""img/green_lw/4.jpg"",""time"":201},{""stimulus"":""img/green_lw/5.jpg"",""time"":251},{""stimulus"":""img/green_lw/6.jpg"",""time"":301},{""stimulus"":""img/green_lw/7.jpg"",""time"":351},{""stimulus"":""img/green_lw/8.jpg"",""time"":401},{""stimulus"":""img/green_lw/9.jpg"",""time"":451},{""stimulus"":""img/green_lw/10.jpg"",""time"":501},{""stimulus"":""img/green_lw/11.jpg"",""time"":552}]","[]",""
"image-keyboard-response","176","111787","0.0-5.0-1.86","63f68fcc9f84b736270f0e8e","bdp_lott","Mon Mar 27 2023 17:53:45 GMT-0500 (Central Daylight Time)","745381","green","red","","505","","","","choice","","img/green_lw/choose11.jpg","1","139","green","0.5","0.1","0.5","w","","",""
"animation","177","112388","0.0-5.0-2.86","63f68fcc9f84b736270f0e8e","bdp_lott","Mon Mar 27 2023 17:53:45 GMT-0500 (Central Daylight Time)","745381","green","red","","","","","","","","","","139","","","","","","[{""stimulus"":""img/green_ww/1.jpg"",""time"":52},{""stimulus"":""img/green_ww/2.jpg"",""time"":102},{""stimulus"":""img/green_ww/3.jpg"",""time"":152},{""stimulus"":""img/green_ww/4.jpg"",""time"":202},{""stimulus"":""img/green_ww/5.jpg"",""time"":251},{""stimulus"":""img/green_ww/6.jpg"",""time"":301},{""stimulus"":""img/green_ww/7.jpg"",""time"":351},{""stimulus"":""img/green_ww/8.jpg"",""time"":401},{""stimulus"":""img/green_ww/9.jpg"",""time"":451},{""stimulus"":""img/green_ww/10.jpg"",""time"":501},{""stimulus"":""img/green_ww/11.jpg"",""time"":551}]","[]",""
"image-keyboard-response","178","112547","0.0-5.0-1.87","63f68fcc9f84b736270f0e8e","bdp_lott","Mon Mar 27 2023 17:53:45 GMT-0500 (Central Daylight Time)","745381","green","red","","158","","","","choice","","img/green_ww/choose11.jpg","2","138","red","0.5","0.1","0.1","l","","",""
"animation","179","113149","0.0-5.0-2.87","63f68fcc9f84b736270f0e8e","bdp_lott","Mon Mar 27 2023 17:53:45 GMT-0500 (Central Daylight Time)","745381","green","red","","","","","","","","","","138","","","","","","[{""stimulus"":""img/red_wl/1.jpg"",""time"":51},{""stimulus"":""img/red_wl/2.jpg"",""time"":102},{""stimulus"":""img/red_wl/3.jpg"",""time"":152},{""stimulus"":""img/red_wl/4.jpg"",""time"":202},{""stimulus"":""img/red_wl/5.jpg"",""time"":251},{""stimulus"":""img/red_wl/6.jpg"",""time"":301},{""stimulus"":""img/red_wl/7.jpg"",""time"":351},{""stimulus"":""img/red_wl/8.jpg"",""time"":400},{""stimulus"":""img/red_wl/9.jpg"",""time"":451},{""stimulus"":""img/red_wl/10.jpg"",""time"":502},{""stimulus"":""img/red_wl/11.jpg"",""time"":551}]","[]",""
"image-keyboard-response","180","113226","0.0-5.0-1.88","63f68fcc9f84b736270f0e8e","bdp_lott","Mon Mar 27 2023 17:53:45 GMT-0500 (Central Daylight Time)","745381","green","red","","77","","","","choice","","img/red_wl/choose11.jpg","2","137","red","0.5","0.1","0.1","l","","",""
"animation","181","113827","0.0-5.0-2.88","63f68fcc9f84b736270f0e8e","bdp_lott","Mon Mar 27 2023 17:53:45 GMT-0500 (Central Daylight Time)","745381","green","red","","","","","","","","","","137","","","","","","[{""stimulus"":""img/red_wl/1.jpg"",""time"":51},{""stimulus"":""img/red_wl/2.jpg"",""time"":101},{""stimulus"":""img/red_wl/3.jpg"",""time"":152},{""stimulus"":""img/red_wl/4.jpg"",""time"":201},{""stimulus"":""img/red_wl/5.jpg"",""time"":252},{""stimulus"":""img/red_wl/6.jpg"",""time"":301},{""stimulus"":""img/red_wl/7.jpg"",""time"":351},{""stimulus"":""img/red_wl/8.jpg"",""time"":402},{""stimulus"":""img/red_wl/9.jpg"",""time"":451},{""stimulus"":""img/red_wl/10.jpg"",""time"":501},{""stimulus"":""img/red_wl/11.jpg"",""time"":551}]","[]",""
"image-keyboard-response","182","114096","0.0-5.0-1.89","63f68fcc9f84b736270f0e8e","bdp_lott","Mon Mar 27 2023 17:53:45 GMT-0500 (Central Daylight Time)","745381","green","red","","268","","","","choice","","img/red_wl/choose11.jpg","2","136","red","0.5","0.1","0.1","l","","",""
"animation","183","114697","0.0-5.0-2.89","63f68fcc9f84b736270f0e8e","bdp_lott","Mon Mar 27 2023 17:53:45 GMT-0500 (Central Daylight Time)","745381","green","red","","","","","","","","","","136","","","","","","[{""stimulus"":""img/red_wl/1.jpg"",""time"":51},{""stimulus"":""img/red_wl/2.jpg"",""time"":101},{""stimulus"":""img/red_wl/3.jpg"",""time"":152},{""stimulus"":""img/red_wl/4.jpg"",""time"":201},{""stimulus"":""img/red_wl/5.jpg"",""time"":252},{""stimulus"":""img/red_wl/6.jpg"",""time"":302},{""stimulus"":""img/red_wl/7.jpg"",""time"":352},{""stimulus"":""img/red_wl/8.jpg"",""time"":401},{""stimulus"":""img/red_wl/9.jpg"",""time"":452},{""stimulus"":""img/red_wl/10.jpg"",""time"":500},{""stimulus"":""img/red_wl/11.jpg"",""time"":550}]","[]",""
"image-keyboard-response","184","115243","0.0-5.0-1.90","63f68fcc9f84b736270f0e8e","bdp_lott","Mon Mar 27 2023 17:53:45 GMT-0500 (Central Daylight Time)","745381","green","red","","545","","","","choice","","img/red_wl/choose11.jpg","2","135","red","0.5","0.1","0.1","l","","",""
"animation","185","115844","0.0-5.0-2.90","63f68fcc9f84b736270f0e8e","bdp_lott","Mon Mar 27 2023 17:53:45 GMT-0500 (Central Daylight Time)","745381","green","red","","","","","","","","","","135","","","","","","[{""stimulus"":""img/red_wl/1.jpg"",""time"":52},{""stimulus"":""img/red_wl/2.jpg"",""time"":101},{""stimulus"":""img/red_wl/3.jpg"",""time"":152},{""stimulus"":""img/red_wl/4.jpg"",""time"":201},{""stimulus"":""img/red_wl/5.jpg"",""time"":252},{""stimulus"":""img/red_wl/6.jpg"",""time"":301},{""stimulus"":""img/red_wl/7.jpg"",""time"":351},{""stimulus"":""img/red_wl/8.jpg"",""time"":402},{""stimulus"":""img/red_wl/9.jpg"",""time"":451},{""stimulus"":""img/red_wl/10.jpg"",""time"":501},{""stimulus"":""img/red_wl/11.jpg"",""time"":551}]","[]",""
"image-keyboard-response","186","119514","0.0-5.0-1.91","63f68fcc9f84b736270f0e8e","bdp_lott","Mon Mar 27 2023 17:53:45 GMT-0500 (Central Daylight Time)","745381","green","red","","3670","","","","choice","","img/red_wl/choose11.jpg","1","134","green","0.5","0.1","0.5","w","","",""
"animation","187","120116","0.0-5.0-2.91","63f68fcc9f84b736270f0e8e","bdp_lott","Mon Mar 27 2023 17:53:45 GMT-0500 (Central Daylight Time)","745381","green","red","","","","","","","","","","134","","","","","","[{""stimulus"":""img/green_wl/1.jpg"",""time"":51},{""stimulus"":""img/green_wl/2.jpg"",""time"":101},{""stimulus"":""img/green_wl/3.jpg"",""time"":151},{""stimulus"":""img/green_wl/4.jpg"",""time"":201},{""stimulus"":""img/green_wl/5.jpg"",""time"":251},{""stimulus"":""img/green_wl/6.jpg"",""time"":301},{""stimulus"":""img/green_wl/7.jpg"",""time"":351},{""stimulus"":""img/green_wl/8.jpg"",""time"":401},{""stimulus"":""img/green_wl/9.jpg"",""time"":451},{""stimulus"":""img/green_wl/10.jpg"",""time"":502},{""stimulus"":""img/green_wl/11.jpg"",""time"":551}]","[]",""
"image-keyboard-response","188","120448","0.0-5.0-1.92","63f68fcc9f84b736270f0e8e","bdp_lott","Mon Mar 27 2023 17:53:45 GMT-0500 (Central Daylight Time)","745381","green","red","","331","","","","choice","","img/green_wl/choose11.jpg","1","133","green","0.5","0.1","0.5","l","","",""
"animation","189","121049","0.0-5.0-2.92","63f68fcc9f84b736270f0e8e","bdp_lott","Mon Mar 27 2023 17:53:45 GMT-0500 (Central Daylight Time)","745381","green","red","","","","","","","","","","133","","","","","","[{""stimulus"":""img/green_ll/1.jpg"",""time"":51},{""stimulus"":""img/green_ll/2.jpg"",""time"":101},{""stimulus"":""img/green_ll/3.jpg"",""time"":151},{""stimulus"":""img/green_ll/4.jpg"",""time"":201},{""stimulus"":""img/green_ll/5.jpg"",""time"":251},{""stimulus"":""img/green_ll/6.jpg"",""time"":301},{""stimulus"":""img/green_ll/7.jpg"",""time"":351},{""stimulus"":""img/green_ll/8.jpg"",""time"":401},{""stimulus"":""img/green_ll/9.jpg"",""time"":451},{""stimulus"":""img/green_ll/10.jpg"",""time"":501},{""stimulus"":""img/green_ll/11.jpg"",""time"":552}]","[]",""
