"event","trial","time","trialtype","subject_id","task","startTime","totalTime","fairMachine","unfairMachine","trial_type","trial_index","time_elapsed","internal_node_id","view_history","rt","success","stimulus","key_press","roundsLeft","chosen","pFairMachWin","pUnfairMachWin","pTrialWin","outcome","animation_sequence","responses"
"focus","0","0","focusevent","63ea4164c5b33a0d13129c84","bdp_lott","Mon Mar 27 2023 15:51:55 GMT-0400 (Eastern Daylight Time)","295052","green","red","","","","","","","","","","","","","","","","",""
"","","","","63ea4164c5b33a0d13129c84","bdp_lott","Mon Mar 27 2023 15:51:55 GMT-0400 (Eastern Daylight Time)","295052","green","red","pavlovia","0","4","0.0-0.0","","","","","","","","","","","","",""
"","","","","63ea4164c5b33a0d13129c84","bdp_lott","Mon Mar 27 2023 15:51:55 GMT-0400 (Eastern Daylight Time)","295052","green","red","instructions","1","3222","0.0-1.0","[{""page_index"":0,""viewing_time"":3218}]","3218","","","","","","","","","","",""
"fullscreenenter","2","4601","fullscreenenter","63ea4164c5b33a0d13129c84","bdp_lott","Mon Mar 27 2023 15:51:55 GMT-0400 (Eastern Daylight Time)","295052","green","red","","","","","","","","","","","","","","","","",""
"","","","","63ea4164c5b33a0d13129c84","bdp_lott","Mon Mar 27 2023 15:51:55 GMT-0400 (Eastern Daylight Time)","295052","green","red","fullscreen","2","5598","0.0-2.0","","","true","","","","","","","","","",""
"","","","","63ea4164c5b33a0d13129c84","bdp_lott","Mon Mar 27 2023 15:51:55 GMT-0400 (Eastern Daylight Time)","295052","green","red","instructions","3","16872","0.0-4.0","[{""page_index"":0,""viewing_time"":11268}]","11268","","","","","","","","","","",""
"","","","choice","63ea4164c5b33a0d13129c84","bdp_lott","Mon Mar 27 2023 15:51:55 GMT-0400 (Eastern Daylight Time)","295052","green","red","image-keyboard-response","4","18677","0.0-5.0-1.0","","1802","","img/red_ll/initchoose11.jpg","1","225","green","0.5","0.5","0.5","l","",""
"","","","","63ea4164c5b33a0d13129c84","bdp_lott","Mon Mar 27 2023 15:51:55 GMT-0400 (Eastern Daylight Time)","295052","green","red","animation","5","19282","0.0-5.0-2.0","","","","","","225","","","","","","[{""stimulus"":""img/green_ll/1.jpg"",""time"":62},{""stimulus"":""img/green_ll/2.jpg"",""time"":109},{""stimulus"":""img/green_ll/3.jpg"",""time"":159},{""stimulus"":""img/green_ll/4.jpg"",""time"":205},{""stimulus"":""img/green_ll/5.jpg"",""time"":253},{""stimulus"":""img/green_ll/6.jpg"",""time"":318},{""stimulus"":""img/green_ll/7.jpg"",""time"":351},{""stimulus"":""img/green_ll/8.jpg"",""time"":413},{""stimulus"":""img/green_ll/9.jpg"",""time"":462},{""stimulus"":""img/green_ll/10.jpg"",""time"":509},{""stimulus"":""img/green_ll/11.jpg"",""time"":559}]","[]"
"","","","choice","63ea4164c5b33a0d13129c84","bdp_lott","Mon Mar 27 2023 15:51:55 GMT-0400 (Eastern Daylight Time)","295052","green","red","image-keyboard-response","6","20409","0.0-5.0-1.1","","1125","","img/green_ll/choose11.jpg","2","224","red","0.5","0.5","0.5","w","",""
"","","","","63ea4164c5b33a0d13129c84","bdp_lott","Mon Mar 27 2023 15:51:55 GMT-0400 (Eastern Daylight Time)","295052","green","red","animation","7","21028","0.0-5.0-2.1","","","","","","224","","","","","","[{""stimulus"":""img/red_lw/1.jpg"",""time"":58},{""stimulus"":""img/red_lw/2.jpg"",""time"":105},{""stimulus"":""img/red_lw/3.jpg"",""time"":169},{""stimulus"":""img/red_lw/4.jpg"",""time"":219},{""stimulus"":""img/red_lw/5.jpg"",""time"":265},{""stimulus"":""img/red_lw/6.jpg"",""time"":309},{""stimulus"":""img/red_lw/7.jpg"",""time"":360},{""stimulus"":""img/red_lw/8.jpg"",""time"":410},{""stimulus"":""img/red_lw/9.jpg"",""time"":457},{""stimulus"":""img/red_lw/10.jpg"",""time"":505},{""stimulus"":""img/red_lw/11.jpg"",""time"":569}]","[]"
"","","","choice","63ea4164c5b33a0d13129c84","bdp_lott","Mon Mar 27 2023 15:51:55 GMT-0400 (Eastern Daylight Time)","295052","green","red","image-keyboard-response","8","21712","0.0-5.0-1.2","","683","","img/red_lw/choose11.jpg","2","223","red","0.5","0.5","0.5","w","",""
"","","","","63ea4164c5b33a0d13129c84","bdp_lott","Mon Mar 27 2023 15:51:55 GMT-0400 (Eastern Daylight Time)","295052","green","red","animation","9","22322","0.0-5.0-2.2","","","","","","223","","","","","","[{""stimulus"":""img/red_lw/1.jpg"",""time"":66},{""stimulus"":""img/red_lw/2.jpg"",""time"":116},{""stimulus"":""img/red_lw/3.jpg"",""time"":162},{""stimulus"":""img/red_lw/4.jpg"",""time"":210},{""stimulus"":""img/red_lw/5.jpg"",""time"":257},{""stimulus"":""img/red_lw/6.jpg"",""time"":303},{""stimulus"":""img/red_lw/7.jpg"",""time"":354},{""stimulus"":""img/red_lw/8.jpg"",""time"":418},{""stimulus"":""img/red_lw/9.jpg"",""time"":466},{""stimulus"":""img/red_lw/10.jpg"",""time"":516},{""stimulus"":""img/red_lw/11.jpg"",""time"":562}]","[]"
"","","","choice","63ea4164c5b33a0d13129c84","bdp_lott","Mon Mar 27 2023 15:51:55 GMT-0400 (Eastern Daylight Time)","295052","green","red","image-keyboard-response","10","22602","0.0-5.0-1.3","","279","","img/red_lw/choose11.jpg","2","222","red","0.5","0.5","0.5","w","",""
"","","","","63ea4164c5b33a0d13129c84","bdp_lott","Mon Mar 27 2023 15:51:55 GMT-0400 (Eastern Daylight Time)","295052","green","red","animation","11","23219","0.0-5.0-2.3","","","","","","222","","","","","","[{""stimulus"":""img/red_lw/1.jpg"",""time"":56},{""stimulus"":""img/red_lw/2.jpg"",""time"":106},{""stimulus"":""img/red_lw/3.jpg"",""time"":167},{""stimulus"":""img/red_lw/4.jpg"",""time"":218},{""stimulus"":""img/red_lw/5.jpg"",""time"":264},{""stimulus"":""img/red_lw/6.jpg"",""time"":312},{""stimulus"":""img/red_lw/7.jpg"",""time"":360},{""stimulus"":""img/red_lw/8.jpg"",""time"":408},{""stimulus"":""img/red_lw/9.jpg"",""time"":456},{""stimulus"":""img/red_lw/10.jpg"",""time"":503},{""stimulus"":""img/red_lw/11.jpg"",""time"":569}]","[]"
"","","","choice","63ea4164c5b33a0d13129c84","bdp_lott","Mon Mar 27 2023 15:51:55 GMT-0400 (Eastern Daylight Time)","295052","green","red","image-keyboard-response","12","23523","0.0-5.0-1.4","","304","","img/red_lw/choose11.jpg","2","221","red","0.5","0.5","0.5","w","",""
"","","","","63ea4164c5b33a0d13129c84","bdp_lott","Mon Mar 27 2023 15:51:55 GMT-0400 (Eastern Daylight Time)","295052","green","red","animation","13","24130","0.0-5.0-2.4","","","","","","221","","","","","","[{""stimulus"":""img/red_lw/1.jpg"",""time"":63},{""stimulus"":""img/red_lw/2.jpg"",""time"":113},{""stimulus"":""img/red_lw/3.jpg"",""time"":159},{""stimulus"":""img/red_lw/4.jpg"",""time"":207},{""stimulus"":""img/red_lw/5.jpg"",""time"":254},{""stimulus"":""img/red_lw/6.jpg"",""time"":305},{""stimulus"":""img/red_lw/7.jpg"",""time"":366},{""stimulus"":""img/red_lw/8.jpg"",""time"":415},{""stimulus"":""img/red_lw/9.jpg"",""time"":463},{""stimulus"":""img/red_lw/10.jpg"",""time"":513},{""stimulus"":""img/red_lw/11.jpg"",""time"":559}]","[]"
"","","","choice","63ea4164c5b33a0d13129c84","bdp_lott","Mon Mar 27 2023 15:51:55 GMT-0400 (Eastern Daylight Time)","295052","green","red","image-keyboard-response","14","24404","0.0-5.0-1.5","","273","","img/red_lw/choose11.jpg","2","220","red","0.5","0.5","0.5","w","",""
"","","","","63ea4164c5b33a0d13129c84","bdp_lott","Mon Mar 27 2023 15:51:55 GMT-0400 (Eastern Daylight Time)","295052","green","red","animation","15","25011","0.0-5.0-2.5","","","","","","220","","","","","","[{""stimulus"":""img/red_lw/1.jpg"",""time"":62},{""stimulus"":""img/red_lw/2.jpg"",""time"":110},{""stimulus"":""img/red_lw/3.jpg"",""time"":158},{""stimulus"":""img/red_lw/4.jpg"",""time"":204},{""stimulus"":""img/red_lw/5.jpg"",""time"":254},{""stimulus"":""img/red_lw/6.jpg"",""time"":318},{""stimulus"":""img/red_lw/7.jpg"",""time"":365},{""stimulus"":""img/red_lw/8.jpg"",""time"":415},{""stimulus"":""img/red_lw/9.jpg"",""time"":462},{""stimulus"":""img/red_lw/10.jpg"",""time"":510},{""stimulus"":""img/red_lw/11.jpg"",""time"":558}]","[]"
"","","","choice","63ea4164c5b33a0d13129c84","bdp_lott","Mon Mar 27 2023 15:51:55 GMT-0400 (Eastern Daylight Time)","295052","green","red","image-keyboard-response","16","25168","0.0-5.0-1.6","","157","","img/red_lw/choose11.jpg","2","219","red","0.5","0.5","0.5","l","",""
"","","","","63ea4164c5b33a0d13129c84","bdp_lott","Mon Mar 27 2023 15:51:55 GMT-0400 (Eastern Daylight Time)","295052","green","red","animation","17","25777","0.0-5.0-2.6","","","","","","219","","","","","","[{""stimulus"":""img/red_ll/1.jpg"",""time"":66},{""stimulus"":""img/red_ll/2.jpg"",""time"":114},{""stimulus"":""img/red_ll/3.jpg"",""time"":162},{""stimulus"":""img/red_ll/4.jpg"",""time"":210},{""stimulus"":""img/red_ll/5.jpg"",""time"":260},{""stimulus"":""img/red_ll/6.jpg"",""time"":306},{""stimulus"":""img/red_ll/7.jpg"",""time"":354},{""stimulus"":""img/red_ll/8.jpg"",""time"":418},{""stimulus"":""img/red_ll/9.jpg"",""time"":451},{""stimulus"":""img/red_ll/10.jpg"",""time"":514},{""stimulus"":""img/red_ll/11.jpg"",""time"":562}]","[]"
"","","","choice","63ea4164c5b33a0d13129c84","bdp_lott","Mon Mar 27 2023 15:51:55 GMT-0400 (Eastern Daylight Time)","295052","green","red","image-keyboard-response","18","26029","0.0-5.0-1.7","","251","","img/red_ll/choose11.jpg","2","218","red","0.5","0.5","0.5","l","",""
"","","","","63ea4164c5b33a0d13129c84","bdp_lott","Mon Mar 27 2023 15:51:55 GMT-0400 (Eastern Daylight Time)","295052","green","red","animation","19","26641","0.0-5.0-2.7","","","","","","218","","","","","","[{""stimulus"":""img/red_ll/1.jpg"",""time"":70},{""stimulus"":""img/red_ll/2.jpg"",""time"":101},{""stimulus"":""img/red_ll/3.jpg"",""time"":165},{""stimulus"":""img/red_ll/4.jpg"",""time"":212},{""stimulus"":""img/red_ll/5.jpg"",""time"":261},{""stimulus"":""img/red_ll/6.jpg"",""time"":311},{""stimulus"":""img/red_ll/7.jpg"",""time"":357},{""stimulus"":""img/red_ll/8.jpg"",""time"":405},{""stimulus"":""img/red_ll/9.jpg"",""time"":469},{""stimulus"":""img/red_ll/10.jpg"",""time"":501},{""stimulus"":""img/red_ll/11.jpg"",""time"":565}]","[]"
"","","","choice","63ea4164c5b33a0d13129c84","bdp_lott","Mon Mar 27 2023 15:51:55 GMT-0400 (Eastern Daylight Time)","295052","green","red","image-keyboard-response","20","26894","0.0-5.0-1.8","","252","","img/red_ll/choose11.jpg","1","217","green","0.5","0.5","0.5","w","",""
"","","","","63ea4164c5b33a0d13129c84","bdp_lott","Mon Mar 27 2023 15:51:55 GMT-0400 (Eastern Daylight Time)","295052","green","red","animation","21","27506","0.0-5.0-2.8","","","","","","217","","","","","","[{""stimulus"":""img/green_wl/1.jpg"",""time"":68},{""stimulus"":""img/green_wl/2.jpg"",""time"":117},{""stimulus"":""img/green_wl/3.jpg"",""time"":164},{""stimulus"":""img/green_wl/4.jpg"",""time"":212},{""stimulus"":""img/green_wl/5.jpg"",""time"":261},{""stimulus"":""img/green_wl/6.jpg"",""time"":309},{""stimulus"":""img/green_wl/7.jpg"",""time"":356},{""stimulus"":""img/green_wl/8.jpg"",""time"":404},{""stimulus"":""img/green_wl/9.jpg"",""time"":469},{""stimulus"":""img/green_wl/10.jpg"",""time"":517},{""stimulus"":""img/green_wl/11.jpg"",""time"":564}]","[]"
"","","","choice","63ea4164c5b33a0d13129c84","bdp_lott","Mon Mar 27 2023 15:51:55 GMT-0400 (Eastern Daylight Time)","295052","green","red","image-keyboard-response","22","27845","0.0-5.0-1.9","","339","","img/green_wl/choose11.jpg","1","216","green","0.5","0.5","0.5","w","",""
"","","","","63ea4164c5b33a0d13129c84","bdp_lott","Mon Mar 27 2023 15:51:55 GMT-0400 (Eastern Daylight Time)","295052","green","red","animation","23","28450","0.0-5.0-2.9","","","","","","216","","","","","","[{""stimulus"":""img/green_wl/1.jpg"",""time"":61},{""stimulus"":""img/green_wl/2.jpg"",""time"":109},{""stimulus"":""img/green_wl/3.jpg"",""time"":158},{""stimulus"":""img/green_wl/4.jpg"",""time"":205},{""stimulus"":""img/green_wl/5.jpg"",""time"":269},{""stimulus"":""img/green_wl/6.jpg"",""time"":303},{""stimulus"":""img/green_wl/7.jpg"",""time"":366},{""stimulus"":""img/green_wl/8.jpg"",""time"":413},{""stimulus"":""img/green_wl/9.jpg"",""time"":461},{""stimulus"":""img/green_wl/10.jpg"",""time"":509},{""stimulus"":""img/green_wl/11.jpg"",""time"":559}]","[]"
"","","","choice","63ea4164c5b33a0d13129c84","bdp_lott","Mon Mar 27 2023 15:51:55 GMT-0400 (Eastern Daylight Time)","295052","green","red","image-keyboard-response","24","28678","0.0-5.0-1.10","","227","","img/green_wl/choose11.jpg","2","215","red","0.5","0.5","0.5","w","",""
"","","","","63ea4164c5b33a0d13129c84","bdp_lott","Mon Mar 27 2023 15:51:55 GMT-0400 (Eastern Daylight Time)","295052","green","red","animation","25","29282","0.0-5.0-2.10","","","","","","215","","","","","","[{""stimulus"":""img/red_ww/1.jpg"",""time"":60},{""stimulus"":""img/red_ww/2.jpg"",""time"":108},{""stimulus"":""img/red_ww/3.jpg"",""time"":158},{""stimulus"":""img/red_ww/4.jpg"",""time"":204},{""stimulus"":""img/red_ww/5.jpg"",""time"":252},{""stimulus"":""img/red_ww/6.jpg"",""time"":301},{""stimulus"":""img/red_ww/7.jpg"",""time"":362},{""stimulus"":""img/red_ww/8.jpg"",""time"":412},{""stimulus"":""img/red_ww/9.jpg"",""time"":460},{""stimulus"":""img/red_ww/10.jpg"",""time"":508},{""stimulus"":""img/red_ww/11.jpg"",""time"":558}]","[]"
"","","","choice","63ea4164c5b33a0d13129c84","bdp_lott","Mon Mar 27 2023 15:51:55 GMT-0400 (Eastern Daylight Time)","295052","green","red","image-keyboard-response","26","29587","0.0-5.0-1.11","","304","","img/red_ww/choose11.jpg","1","214","green","0.5","0.5","0.5","w","",""
"","","","","63ea4164c5b33a0d13129c84","bdp_lott","Mon Mar 27 2023 15:51:55 GMT-0400 (Eastern Daylight Time)","295052","green","red","animation","27","30194","0.0-5.0-2.11","","","","","","214","","","","","","[{""stimulus"":""img/green_ww/1.jpg"",""time"":63},{""stimulus"":""img/green_ww/2.jpg"",""time"":111},{""stimulus"":""img/green_ww/3.jpg"",""time"":159},{""stimulus"":""img/green_ww/4.jpg"",""time"":207},{""stimulus"":""img/green_ww/5.jpg"",""time"":253},{""stimulus"":""img/green_ww/6.jpg"",""time"":319},{""stimulus"":""img/green_ww/7.jpg"",""time"":367},{""stimulus"":""img/green_ww/8.jpg"",""time"":413},{""stimulus"":""img/green_ww/9.jpg"",""time"":463},{""stimulus"":""img/green_ww/10.jpg"",""time"":511},{""stimulus"":""img/green_ww/11.jpg"",""time"":557}]","[]"
"","","","choice","63ea4164c5b33a0d13129c84","bdp_lott","Mon Mar 27 2023 15:51:55 GMT-0400 (Eastern Daylight Time)","295052","green","red","image-keyboard-response","28","30403","0.0-5.0-1.12","","208","","img/green_ww/choose11.jpg","2","213","red","0.5","0.5","0.5","l","",""
"","","","","63ea4164c5b33a0d13129c84","bdp_lott","Mon Mar 27 2023 15:51:55 GMT-0400 (Eastern Daylight Time)","295052","green","red","animation","29","31010","0.0-5.0-2.12","","","","","","213","","","","","","[{""stimulus"":""img/red_wl/1.jpg"",""time"":62},{""stimulus"":""img/red_wl/2.jpg"",""time"":110},{""stimulus"":""img/red_wl/3.jpg"",""time"":158},{""stimulus"":""img/red_wl/4.jpg"",""time"":206},{""stimulus"":""img/red_wl/5.jpg"",""time"":254},{""stimulus"":""img/red_wl/6.jpg"",""time"":302},{""stimulus"":""img/red_wl/7.jpg"",""time"":365},{""stimulus"":""img/red_wl/8.jpg"",""time"":415},{""stimulus"":""img/red_wl/9.jpg"",""time"":462},{""stimulus"":""img/red_wl/10.jpg"",""time"":510},{""stimulus"":""img/red_wl/11.jpg"",""time"":558}]","[]"
"","","","choice","63ea4164c5b33a0d13129c84","bdp_lott","Mon Mar 27 2023 15:51:55 GMT-0400 (Eastern Daylight Time)","295052","green","red","image-keyboard-response","30","31324","0.0-5.0-1.13","","314","","img/red_wl/choose11.jpg","1","212","green","0.5","0.5","0.5","w","",""
"","","","","63ea4164c5b33a0d13129c84","bdp_lott","Mon Mar 27 2023 15:51:55 GMT-0400 (Eastern Daylight Time)","295052","green","red","animation","31","31938","0.0-5.0-2.13","","","","","","212","","","","","","[{""stimulus"":""img/green_wl/1.jpg"",""time"":69},{""stimulus"":""img/green_wl/2.jpg"",""time"":103},{""stimulus"":""img/green_wl/3.jpg"",""time"":165},{""stimulus"":""img/green_wl/4.jpg"",""time"":223},{""stimulus"":""img/green_wl/5.jpg"",""time"":260},{""stimulus"":""img/green_wl/6.jpg"",""time"":311},{""stimulus"":""img/green_wl/7.jpg"",""time"":358},{""stimulus"":""img/green_wl/8.jpg"",""time"":405},{""stimulus"":""img/green_wl/9.jpg"",""time"":469},{""stimulus"":""img/green_wl/10.jpg"",""time"":503},{""stimulus"":""img/green_wl/11.jpg"",""time"":565}]","[]"
"","","","choice","63ea4164c5b33a0d13129c84","bdp_lott","Mon Mar 27 2023 15:51:55 GMT-0400 (Eastern Daylight Time)","295052","green","red","image-keyboard-response","32","32363","0.0-5.0-1.14","","424","","img/green_wl/choose11.jpg","1","211","green","0.5","0.5","0.5","l","",""
"","","","","63ea4164c5b33a0d13129c84","bdp_lott","Mon Mar 27 2023 15:51:55 GMT-0400 (Eastern Daylight Time)","295052","green","red","animation","33","32977","0.0-5.0-2.14","","","","","","211","","","","","","[{""stimulus"":""img/green_ll/1.jpg"",""time"":54},{""stimulus"":""img/green_ll/2.jpg"",""time"":118},{""stimulus"":""img/green_ll/3.jpg"",""time"":166},{""stimulus"":""img/green_ll/4.jpg"",""time"":215},{""stimulus"":""img/green_ll/5.jpg"",""time"":264},{""stimulus"":""img/green_ll/6.jpg"",""time"":307},{""stimulus"":""img/green_ll/7.jpg"",""time"":358},{""stimulus"":""img/green_ll/8.jpg"",""time"":405},{""stimulus"":""img/green_ll/9.jpg"",""time"":455},{""stimulus"":""img/green_ll/10.jpg"",""time"":518},{""stimulus"":""img/green_ll/11.jpg"",""time"":566}]","[]"
"","","","choice","63ea4164c5b33a0d13129c84","bdp_lott","Mon Mar 27 2023 15:51:55 GMT-0400 (Eastern Daylight Time)","295052","green","red","image-keyboard-response","34","33470","0.0-5.0-1.15","","492","","img/green_ll/choose11.jpg","2","210","red","0.5","0.5","0.5","l","",""
"","","","","63ea4164c5b33a0d13129c84","bdp_lott","Mon Mar 27 2023 15:51:55 GMT-0400 (Eastern Daylight Time)","295052","green","red","animation","35","34082","0.0-5.0-2.15","","","","","","210","","","","","","[{""stimulus"":""img/red_ll/1.jpg"",""time"":68},{""stimulus"":""img/red_ll/2.jpg"",""time"":116},{""stimulus"":""img/red_ll/3.jpg"",""time"":166},{""stimulus"":""img/red_ll/4.jpg"",""time"":212},{""stimulus"":""img/red_ll/5.jpg"",""time"":260},{""stimulus"":""img/red_ll/6.jpg"",""time"":308},{""stimulus"":""img/red_ll/7.jpg"",""time"":357},{""stimulus"":""img/red_ll/8.jpg"",""time"":404},{""stimulus"":""img/red_ll/9.jpg"",""time"":468},{""stimulus"":""img/red_ll/10.jpg"",""time"":501},{""stimulus"":""img/red_ll/11.jpg"",""time"":562}]","[]"
"","","","choice","63ea4164c5b33a0d13129c84","bdp_lott","Mon Mar 27 2023 15:51:55 GMT-0400 (Eastern Daylight Time)","295052","green","red","image-keyboard-response","36","34552","0.0-5.0-1.16","","469","","img/red_ll/choose11.jpg","2","209","red","0.5","0.5","0.5","w","",""
"","","","","63ea4164c5b33a0d13129c84","bdp_lott","Mon Mar 27 2023 15:51:55 GMT-0400 (Eastern Daylight Time)","295052","green","red","animation","37","35170","0.0-5.0-2.16","","","","","","209","","","","","","[{""stimulus"":""img/red_lw/1.jpg"",""time"":57},{""stimulus"":""img/red_lw/2.jpg"",""time"":105},{""stimulus"":""img/red_lw/3.jpg"",""time"":168},{""stimulus"":""img/red_lw/4.jpg"",""time"":216},{""stimulus"":""img/red_lw/5.jpg"",""time"":265},{""stimulus"":""img/red_lw/6.jpg"",""time"":313},{""stimulus"":""img/red_lw/7.jpg"",""time"":361},{""stimulus"":""img/red_lw/8.jpg"",""time"":409},{""stimulus"":""img/red_lw/9.jpg"",""time"":458},{""stimulus"":""img/red_lw/10.jpg"",""time"":502},{""stimulus"":""img/red_lw/11.jpg"",""time"":569}]","[]"
"","","","choice","63ea4164c5b33a0d13129c84","bdp_lott","Mon Mar 27 2023 15:51:55 GMT-0400 (Eastern Daylight Time)","295052","green","red","image-keyboard-response","38","35374","0.0-5.0-1.17","","203","","img/red_lw/choose11.jpg","2","208","red","0.5","0.5","0.5","l","",""
"","","","","63ea4164c5b33a0d13129c84","bdp_lott","Mon Mar 27 2023 15:51:55 GMT-0400 (Eastern Daylight Time)","295052","green","red","animation","39","35985","0.0-5.0-2.17","","","","","","208","","","","","","[{""stimulus"":""img/red_ll/1.jpg"",""time"":53},{""stimulus"":""img/red_ll/2.jpg"",""time"":115},{""stimulus"":""img/red_ll/3.jpg"",""time"":163},{""stimulus"":""img/red_ll/4.jpg"",""time"":211},{""stimulus"":""img/red_ll/5.jpg"",""time"":259},{""stimulus"":""img/red_ll/6.jpg"",""time"":307},{""stimulus"":""img/red_ll/7.jpg"",""time"":355},{""stimulus"":""img/red_ll/8.jpg"",""time"":419},{""stimulus"":""img/red_ll/9.jpg"",""time"":453},{""stimulus"":""img/red_ll/10.jpg"",""time"":515},{""stimulus"":""img/red_ll/11.jpg"",""time"":562}]","[]"
"","","","choice","63ea4164c5b33a0d13129c84","bdp_lott","Mon Mar 27 2023 15:51:55 GMT-0400 (Eastern Daylight Time)","295052","green","red","image-keyboard-response","40","36721","0.0-5.0-1.18","","735","","img/red_ll/choose11.jpg","2","207","red","0.5","0.5","0.5","l","",""
"","","","","63ea4164c5b33a0d13129c84","bdp_lott","Mon Mar 27 2023 15:51:55 GMT-0400 (Eastern Daylight Time)","295052","green","red","animation","41","37328","0.0-5.0-2.18","","","","","","207","","","","","","[{""stimulus"":""img/red_ll/1.jpg"",""time"":65},{""stimulus"":""img/red_ll/2.jpg"",""time"":113},{""stimulus"":""img/red_ll/3.jpg"",""time"":161},{""stimulus"":""img/red_ll/4.jpg"",""time"":203},{""stimulus"":""img/red_ll/5.jpg"",""time"":256},{""stimulus"":""img/red_ll/6.jpg"",""time"":306},{""stimulus"":""img/red_ll/7.jpg"",""time"":368},{""stimulus"":""img/red_ll/8.jpg"",""time"":416},{""stimulus"":""img/red_ll/9.jpg"",""time"":464},{""stimulus"":""img/red_ll/10.jpg"",""time"":512},{""stimulus"":""img/red_ll/11.jpg"",""time"":560}]","[]"
"","","","choice","63ea4164c5b33a0d13129c84","bdp_lott","Mon Mar 27 2023 15:51:55 GMT-0400 (Eastern Daylight Time)","295052","green","red","image-keyboard-response","42","37425","0.0-5.0-1.19","","96","","img/red_ll/choose11.jpg","1","206","green","0.5","0.5","0.5","w","",""
"","","","","63ea4164c5b33a0d13129c84","bdp_lott","Mon Mar 27 2023 15:51:55 GMT-0400 (Eastern Daylight Time)","295052","green","red","animation","43","38034","0.0-5.0-2.19","","","","","","206","","","","","","[{""stimulus"":""img/green_wl/1.jpg"",""time"":65},{""stimulus"":""img/green_wl/2.jpg"",""time"":117},{""stimulus"":""img/green_wl/3.jpg"",""time"":161},{""stimulus"":""img/green_wl/4.jpg"",""time"":210},{""stimulus"":""img/green_wl/5.jpg"",""time"":256},{""stimulus"":""img/green_wl/6.jpg"",""time"":305},{""stimulus"":""img/green_wl/7.jpg"",""time"":369},{""stimulus"":""img/green_wl/8.jpg"",""time"":403},{""stimulus"":""img/green_wl/9.jpg"",""time"":465},{""stimulus"":""img/green_wl/10.jpg"",""time"":513},{""stimulus"":""img/green_wl/11.jpg"",""time"":561}]","[]"
"","","","choice","63ea4164c5b33a0d13129c84","bdp_lott","Mon Mar 27 2023 15:51:55 GMT-0400 (Eastern Daylight Time)","295052","green","red","image-keyboard-response","44","38478","0.0-5.0-1.20","","443","","img/green_wl/choose11.jpg","1","205","green","0.5","0.5","0.5","l","",""
"","","","","63ea4164c5b33a0d13129c84","bdp_lott","Mon Mar 27 2023 15:51:55 GMT-0400 (Eastern Daylight Time)","295052","green","red","animation","45","39089","0.0-5.0-2.20","","","","","","205","","","","","","[{""stimulus"":""img/green_ll/1.jpg"",""time"":52},{""stimulus"":""img/green_ll/2.jpg"",""time"":116},{""stimulus"":""img/green_ll/3.jpg"",""time"":153},{""stimulus"":""img/green_ll/4.jpg"",""time"":212},{""stimulus"":""img/green_ll/5.jpg"",""time"":260},{""stimulus"":""img/green_ll/6.jpg"",""time"":307},{""stimulus"":""img/green_ll/7.jpg"",""time"":355},{""stimulus"":""img/green_ll/8.jpg"",""time"":404},{""stimulus"":""img/green_ll/9.jpg"",""time"":452},{""stimulus"":""img/green_ll/10.jpg"",""time"":516},{""stimulus"":""img/green_ll/11.jpg"",""time"":562}]","[]"
"","","","choice","63ea4164c5b33a0d13129c84","bdp_lott","Mon Mar 27 2023 15:51:55 GMT-0400 (Eastern Daylight Time)","295052","green","red","image-keyboard-response","46","39373","0.0-5.0-1.21","","283","","img/green_ll/choose11.jpg","1","204","green","0.5","0.5","0.5","w","",""
"","","","","63ea4164c5b33a0d13129c84","bdp_lott","Mon Mar 27 2023 15:51:55 GMT-0400 (Eastern Daylight Time)","295052","green","red","animation","47","39985","0.0-5.0-2.21","","","","","","204","","","","","","[{""stimulus"":""img/green_wl/1.jpg"",""time"":53},{""stimulus"":""img/green_wl/2.jpg"",""time"":117},{""stimulus"":""img/green_wl/3.jpg"",""time"":165},{""stimulus"":""img/green_wl/4.jpg"",""time"":213},{""stimulus"":""img/green_wl/5.jpg"",""time"":261},{""stimulus"":""img/green_wl/6.jpg"",""time"":309},{""stimulus"":""img/green_wl/7.jpg"",""time"":357},{""stimulus"":""img/green_wl/8.jpg"",""time"":405},{""stimulus"":""img/green_wl/9.jpg"",""time"":454},{""stimulus"":""img/green_wl/10.jpg"",""time"":517},{""stimulus"":""img/green_wl/11.jpg"",""time"":565}]","[]"
"","","","choice","63ea4164c5b33a0d13129c84","bdp_lott","Mon Mar 27 2023 15:51:55 GMT-0400 (Eastern Daylight Time)","295052","green","red","image-keyboard-response","48","40382","0.0-5.0-1.22","","395","","img/green_wl/choose11.jpg","1","203","green","0.5","0.5","0.5","l","",""
"","","","","63ea4164c5b33a0d13129c84","bdp_lott","Mon Mar 27 2023 15:51:55 GMT-0400 (Eastern Daylight Time)","295052","green","red","animation","49","40995","0.0-5.0-2.22","","","","","","203","","","","","","[{""stimulus"":""img/green_ll/1.jpg"",""time"":51},{""stimulus"":""img/green_ll/2.jpg"",""time"":115},{""stimulus"":""img/green_ll/3.jpg"",""time"":163},{""stimulus"":""img/green_ll/4.jpg"",""time"":211},{""stimulus"":""img/green_ll/5.jpg"",""time"":257},{""stimulus"":""img/green_ll/6.jpg"",""time"":307},{""stimulus"":""img/green_ll/7.jpg"",""time"":355},{""stimulus"":""img/green_ll/8.jpg"",""time"":419},{""stimulus"":""img/green_ll/9.jpg"",""time"":451},{""stimulus"":""img/green_ll/10.jpg"",""time"":515},{""stimulus"":""img/green_ll/11.jpg"",""time"":562}]","[]"
"","","","choice","63ea4164c5b33a0d13129c84","bdp_lott","Mon Mar 27 2023 15:51:55 GMT-0400 (Eastern Daylight Time)","295052","green","red","image-keyboard-response","50","41177","0.0-5.0-1.23","","181","","img/green_ll/choose11.jpg","1","202","green","0.5","0.5","0.5","l","",""
"","","","","63ea4164c5b33a0d13129c84","bdp_lott","Mon Mar 27 2023 15:51:55 GMT-0400 (Eastern Daylight Time)","295052","green","red","animation","51","41794","0.0-5.0-2.23","","","","","","202","","","","","","[{""stimulus"":""img/green_ll/1.jpg"",""time"":56},{""stimulus"":""img/green_ll/2.jpg"",""time"":104},{""stimulus"":""img/green_ll/3.jpg"",""time"":152},{""stimulus"":""img/green_ll/4.jpg"",""time"":216},{""stimulus"":""img/green_ll/5.jpg"",""time"":261},{""stimulus"":""img/green_ll/6.jpg"",""time"":312},{""stimulus"":""img/green_ll/7.jpg"",""time"":360},{""stimulus"":""img/green_ll/8.jpg"",""time"":408},{""stimulus"":""img/green_ll/9.jpg"",""time"":455},{""stimulus"":""img/green_ll/10.jpg"",""time"":504},{""stimulus"":""img/green_ll/11.jpg"",""time"":552}]","[]"
"","","","choice","63ea4164c5b33a0d13129c84","bdp_lott","Mon Mar 27 2023 15:51:55 GMT-0400 (Eastern Daylight Time)","295052","green","red","image-keyboard-response","52","42079","0.0-5.0-1.24","","284","","img/green_ll/choose11.jpg","1","201","green","0.5","0.5","0.5","w","",""
"","","","","63ea4164c5b33a0d13129c84","bdp_lott","Mon Mar 27 2023 15:51:55 GMT-0400 (Eastern Daylight Time)","295052","green","red","animation","53","42690","0.0-5.0-2.24","","","","","","201","","","","","","[{""stimulus"":""img/green_wl/1.jpg"",""time"":51},{""stimulus"":""img/green_wl/2.jpg"",""time"":115},{""stimulus"":""img/green_wl/3.jpg"",""time"":161},{""stimulus"":""img/green_wl/4.jpg"",""time"":209},{""stimulus"":""img/green_wl/5.jpg"",""time"":261},{""stimulus"":""img/green_wl/6.jpg"",""time"":306},{""stimulus"":""img/green_wl/7.jpg"",""time"":355},{""stimulus"":""img/green_wl/8.jpg"",""time"":419},{""stimulus"":""img/green_wl/9.jpg"",""time"":451},{""stimulus"":""img/green_wl/10.jpg"",""time"":515},{""stimulus"":""img/green_wl/11.jpg"",""time"":562}]","[]"
"","","","choice","63ea4164c5b33a0d13129c84","bdp_lott","Mon Mar 27 2023 15:51:55 GMT-0400 (Eastern Daylight Time)","295052","green","red","image-keyboard-response","54","43134","0.0-5.0-1.25","","443","","img/green_wl/choose11.jpg","1","200","green","0.5","0.5","0.5","l","",""
"","","","","63ea4164c5b33a0d13129c84","bdp_lott","Mon Mar 27 2023 15:51:55 GMT-0400 (Eastern Daylight Time)","295052","green","red","animation","55","43745","0.0-5.0-2.25","","","","","","200","","","","","","[{""stimulus"":""img/green_ll/1.jpg"",""time"":52},{""stimulus"":""img/green_ll/2.jpg"",""time"":116},{""stimulus"":""img/green_ll/3.jpg"",""time"":163},{""stimulus"":""img/green_ll/4.jpg"",""time"":212},{""stimulus"":""img/green_ll/5.jpg"",""time"":260},{""stimulus"":""img/green_ll/6.jpg"",""time"":305},{""stimulus"":""img/green_ll/7.jpg"",""time"":356},{""stimulus"":""img/green_ll/8.jpg"",""time"":404},{""stimulus"":""img/green_ll/9.jpg"",""time"":469},{""stimulus"":""img/green_ll/10.jpg"",""time"":516},{""stimulus"":""img/green_ll/11.jpg"",""time"":564}]","[]"
"","","","choice","63ea4164c5b33a0d13129c84","bdp_lott","Mon Mar 27 2023 15:51:55 GMT-0400 (Eastern Daylight Time)","295052","green","red","image-keyboard-response","56","44195","0.0-5.0-1.26","","449","","img/green_ll/choose11.jpg","1","199","green","0.5","0.5","0.5","l","",""
"","","","","63ea4164c5b33a0d13129c84","bdp_lott","Mon Mar 27 2023 15:51:55 GMT-0400 (Eastern Daylight Time)","295052","green","red","animation","57","44802","0.0-5.0-2.26","","","","","","199","","","","","","[{""stimulus"":""img/green_ll/1.jpg"",""time"":63},{""stimulus"":""img/green_ll/2.jpg"",""time"":110},{""stimulus"":""img/green_ll/3.jpg"",""time"":157},{""stimulus"":""img/green_ll/4.jpg"",""time"":207},{""stimulus"":""img/green_ll/5.jpg"",""time"":255},{""stimulus"":""img/green_ll/6.jpg"",""time"":318},{""stimulus"":""img/green_ll/7.jpg"",""time"":370},{""stimulus"":""img/green_ll/8.jpg"",""time"":416},{""stimulus"":""img/green_ll/9.jpg"",""time"":462},{""stimulus"":""img/green_ll/10.jpg"",""time"":510},{""stimulus"":""img/green_ll/11.jpg"",""time"":559}]","[]"
"","","","choice","63ea4164c5b33a0d13129c84","bdp_lott","Mon Mar 27 2023 15:51:55 GMT-0400 (Eastern Daylight Time)","295052","green","red","image-keyboard-response","58","45178","0.0-5.0-1.27","","375","","img/green_ll/choose11.jpg","1","198","green","0.5","0.5","0.5","w","",""
"","","","","63ea4164c5b33a0d13129c84","bdp_lott","Mon Mar 27 2023 15:51:55 GMT-0400 (Eastern Daylight Time)","295052","green","red","animation","59","45794","0.0-5.0-2.27","","","","","","198","","","","","","[{""stimulus"":""img/green_wl/1.jpg"",""time"":54},{""stimulus"":""img/green_wl/2.jpg"",""time"":121},{""stimulus"":""img/green_wl/3.jpg"",""time"":151},{""stimulus"":""img/green_wl/4.jpg"",""time"":215},{""stimulus"":""img/green_wl/5.jpg"",""time"":260},{""stimulus"":""img/green_wl/6.jpg"",""time"":310},{""stimulus"":""img/green_wl/7.jpg"",""time"":361},{""stimulus"":""img/green_wl/8.jpg"",""time"":407},{""stimulus"":""img/green_wl/9.jpg"",""time"":455},{""stimulus"":""img/green_wl/10.jpg"",""time"":518},{""stimulus"":""img/green_wl/11.jpg"",""time"":551}]","[]"
"","","","choice","63ea4164c5b33a0d13129c84","bdp_lott","Mon Mar 27 2023 15:51:55 GMT-0400 (Eastern Daylight Time)","295052","green","red","image-keyboard-response","60","46054","0.0-5.0-1.28","","260","","img/green_wl/choose11.jpg","1","197","green","0.5","0.5","0.5","w","",""
"","","","","63ea4164c5b33a0d13129c84","bdp_lott","Mon Mar 27 2023 15:51:55 GMT-0400 (Eastern Daylight Time)","295052","green","red","animation","61","46673","0.0-5.0-2.28","","","","","","197","","","","","","[{""stimulus"":""img/green_wl/1.jpg"",""time"":58},{""stimulus"":""img/green_wl/2.jpg"",""time"":101},{""stimulus"":""img/green_wl/3.jpg"",""time"":156},{""stimulus"":""img/green_wl/4.jpg"",""time"":219},{""stimulus"":""img/green_wl/5.jpg"",""time"":267},{""stimulus"":""img/green_wl/6.jpg"",""time"":314},{""stimulus"":""img/green_wl/7.jpg"",""time"":364},{""stimulus"":""img/green_wl/8.jpg"",""time"":411},{""stimulus"":""img/green_wl/9.jpg"",""time"":458},{""stimulus"":""img/green_wl/10.jpg"",""time"":505},{""stimulus"":""img/green_wl/11.jpg"",""time"":556}]","[]"
"","","","choice","63ea4164c5b33a0d13129c84","bdp_lott","Mon Mar 27 2023 15:51:55 GMT-0400 (Eastern Daylight Time)","295052","green","red","image-keyboard-response","62","46898","0.0-5.0-1.29","","224","","img/green_wl/choose11.jpg","1","196","green","0.5","0.5","0.5","l","",""
"","","","","63ea4164c5b33a0d13129c84","bdp_lott","Mon Mar 27 2023 15:51:55 GMT-0400 (Eastern Daylight Time)","295052","green","red","animation","63","47505","0.0-5.0-2.29","","","","","","196","","","","","","[{""stimulus"":""img/green_ll/1.jpg"",""time"":63},{""stimulus"":""img/green_ll/2.jpg"",""time"":113},{""stimulus"":""img/green_ll/3.jpg"",""time"":160},{""stimulus"":""img/green_ll/4.jpg"",""time"":208},{""stimulus"":""img/green_ll/5.jpg"",""time"":256},{""stimulus"":""img/green_ll/6.jpg"",""time"":304},{""stimulus"":""img/green_ll/7.jpg"",""time"":367},{""stimulus"":""img/green_ll/8.jpg"",""time"":415},{""stimulus"":""img/green_ll/9.jpg"",""time"":462},{""stimulus"":""img/green_ll/10.jpg"",""time"":513},{""stimulus"":""img/green_ll/11.jpg"",""time"":559}]","[]"
"","","","choice","63ea4164c5b33a0d13129c84","bdp_lott","Mon Mar 27 2023 15:51:55 GMT-0400 (Eastern Daylight Time)","295052","green","red","image-keyboard-response","64","47765","0.0-5.0-1.30","","259","","img/green_ll/choose11.jpg","1","195","green","0.5","0.5","0.5","w","",""
"","","","","63ea4164c5b33a0d13129c84","bdp_lott","Mon Mar 27 2023 15:51:55 GMT-0400 (Eastern Daylight Time)","295052","green","red","animation","65","48369","0.0-5.0-2.30","","","","","","195","","","","","","[{""stimulus"":""img/green_wl/1.jpg"",""time"":61},{""stimulus"":""img/green_wl/2.jpg"",""time"":108},{""stimulus"":""img/green_wl/3.jpg"",""time"":156},{""stimulus"":""img/green_wl/4.jpg"",""time"":204},{""stimulus"":""img/green_wl/5.jpg"",""time"":254},{""stimulus"":""img/green_wl/6.jpg"",""time"":316},{""stimulus"":""img/green_wl/7.jpg"",""time"":364},{""stimulus"":""img/green_wl/8.jpg"",""time"":412},{""stimulus"":""img/green_wl/9.jpg"",""time"":462},{""stimulus"":""img/green_wl/10.jpg"",""time"":508},{""stimulus"":""img/green_wl/11.jpg"",""time"":556}]","[]"
"","","","choice","63ea4164c5b33a0d13129c84","bdp_lott","Mon Mar 27 2023 15:51:55 GMT-0400 (Eastern Daylight Time)","295052","green","red","image-keyboard-response","66","48463","0.0-5.0-1.31","","94","","img/green_wl/choose11.jpg","1","194","green","0.5","0.5","0.5","l","",""
"","","","","63ea4164c5b33a0d13129c84","bdp_lott","Mon Mar 27 2023 15:51:55 GMT-0400 (Eastern Daylight Time)","295052","green","red","animation","67","49074","0.0-5.0-2.31","","","","","","194","","","","","","[{""stimulus"":""img/green_ll/1.jpg"",""time"":67},{""stimulus"":""img/green_ll/2.jpg"",""time"":114},{""stimulus"":""img/green_ll/3.jpg"",""time"":163},{""stimulus"":""img/green_ll/4.jpg"",""time"":210},{""stimulus"":""img/green_ll/5.jpg"",""time"":258},{""stimulus"":""img/green_ll/6.jpg"",""time"":306},{""stimulus"":""img/green_ll/7.jpg"",""time"":355},{""stimulus"":""img/green_ll/8.jpg"",""time"":418},{""stimulus"":""img/green_ll/9.jpg"",""time"":467},{""stimulus"":""img/green_ll/10.jpg"",""time"":514},{""stimulus"":""img/green_ll/11.jpg"",""time"":564}]","[]"
"","","","choice","63ea4164c5b33a0d13129c84","bdp_lott","Mon Mar 27 2023 15:51:55 GMT-0400 (Eastern Daylight Time)","295052","green","red","image-keyboard-response","68","49267","0.0-5.0-1.32","","192","","img/green_ll/choose11.jpg","1","193","green","0.5","0.5","0.5","w","",""
"","","","","63ea4164c5b33a0d13129c84","bdp_lott","Mon Mar 27 2023 15:51:55 GMT-0400 (Eastern Daylight Time)","295052","green","red","animation","69","49872","0.0-5.0-2.32","","","","","","193","","","","","","[{""stimulus"":""img/green_wl/1.jpg"",""time"":61},{""stimulus"":""img/green_wl/2.jpg"",""time"":109},{""stimulus"":""img/green_wl/3.jpg"",""time"":159},{""stimulus"":""img/green_wl/4.jpg"",""time"":206},{""stimulus"":""img/green_wl/5.jpg"",""time"":254},{""stimulus"":""img/green_wl/6.jpg"",""time"":301},{""stimulus"":""img/green_wl/7.jpg"",""time"":366},{""stimulus"":""img/green_wl/8.jpg"",""time"":413},{""stimulus"":""img/green_wl/9.jpg"",""time"":461},{""stimulus"":""img/green_wl/10.jpg"",""time"":510},{""stimulus"":""img/green_wl/11.jpg"",""time"":559}]","[]"
"","","","choice","63ea4164c5b33a0d13129c84","bdp_lott","Mon Mar 27 2023 15:51:55 GMT-0400 (Eastern Daylight Time)","295052","green","red","image-keyboard-response","70","51421","0.0-5.0-1.33","","1548","","img/green_wl/choose11.jpg","1","192","green","0.5","0.5","0.5","w","",""
"","","","","63ea4164c5b33a0d13129c84","bdp_lott","Mon Mar 27 2023 15:51:55 GMT-0400 (Eastern Daylight Time)","295052","green","red","animation","71","52033","0.0-5.0-2.33","","","","","","192","","","","","","[{""stimulus"":""img/green_wl/1.jpg"",""time"":69},{""stimulus"":""img/green_wl/2.jpg"",""time"":116},{""stimulus"":""img/green_wl/3.jpg"",""time"":164},{""stimulus"":""img/green_wl/4.jpg"",""time"":211},{""stimulus"":""img/green_wl/5.jpg"",""time"":260},{""stimulus"":""img/green_wl/6.jpg"",""time"":307},{""stimulus"":""img/green_wl/7.jpg"",""time"":355},{""stimulus"":""img/green_wl/8.jpg"",""time"":405},{""stimulus"":""img/green_wl/9.jpg"",""time"":467},{""stimulus"":""img/green_wl/10.jpg"",""time"":516},{""stimulus"":""img/green_wl/11.jpg"",""time"":565}]","[]"
"","","","choice","63ea4164c5b33a0d13129c84","bdp_lott","Mon Mar 27 2023 15:51:55 GMT-0400 (Eastern Daylight Time)","295052","green","red","image-keyboard-response","72","52208","0.0-5.0-1.34","","174","","img/green_wl/choose11.jpg","1","191","green","0.5","0.5","0.5","w","",""
"","","","","63ea4164c5b33a0d13129c84","bdp_lott","Mon Mar 27 2023 15:51:55 GMT-0400 (Eastern Daylight Time)","295052","green","red","animation","73","52818","0.0-5.0-2.34","","","","","","191","","","","","","[{""stimulus"":""img/green_wl/1.jpg"",""time"":65},{""stimulus"":""img/green_wl/2.jpg"",""time"":113},{""stimulus"":""img/green_wl/3.jpg"",""time"":160},{""stimulus"":""img/green_wl/4.jpg"",""time"":210},{""stimulus"":""img/green_wl/5.jpg"",""time"":256},{""stimulus"":""img/green_wl/6.jpg"",""time"":304},{""stimulus"":""img/green_wl/7.jpg"",""time"":368},{""stimulus"":""img/green_wl/8.jpg"",""time"":418},{""stimulus"":""img/green_wl/9.jpg"",""time"":466},{""stimulus"":""img/green_wl/10.jpg"",""time"":512},{""stimulus"":""img/green_wl/11.jpg"",""time"":555}]","[]"
"","","","choice","63ea4164c5b33a0d13129c84","bdp_lott","Mon Mar 27 2023 15:51:55 GMT-0400 (Eastern Daylight Time)","295052","green","red","image-keyboard-response","74","52942","0.0-5.0-1.35","","123","","img/green_wl/choose11.jpg","1","190","green","0.5","0.5","0.5","w","",""
"","","","","63ea4164c5b33a0d13129c84","bdp_lott","Mon Mar 27 2023 15:51:55 GMT-0400 (Eastern Daylight Time)","295052","green","red","animation","75","53553","0.0-5.0-2.35","","","","","","190","","","","","","[{""stimulus"":""img/green_wl/1.jpg"",""time"":68},{""stimulus"":""img/green_wl/2.jpg"",""time"":115},{""stimulus"":""img/green_wl/3.jpg"",""time"":163},{""stimulus"":""img/green_wl/4.jpg"",""time"":212},{""stimulus"":""img/green_wl/5.jpg"",""time"":260},{""stimulus"":""img/green_wl/6.jpg"",""time"":307},{""stimulus"":""img/green_wl/7.jpg"",""time"":355},{""stimulus"":""img/green_wl/8.jpg"",""time"":420},{""stimulus"":""img/green_wl/9.jpg"",""time"":468},{""stimulus"":""img/green_wl/10.jpg"",""time"":515},{""stimulus"":""img/green_wl/11.jpg"",""time"":563}]","[]"
"","","","choice","63ea4164c5b33a0d13129c84","bdp_lott","Mon Mar 27 2023 15:51:55 GMT-0400 (Eastern Daylight Time)","295052","green","red","image-keyboard-response","76","53619","0.0-5.0-1.36","","65","","img/green_wl/choose11.jpg","1","189","green","0.5","0.5","0.5","w","",""
"","","","","63ea4164c5b33a0d13129c84","bdp_lott","Mon Mar 27 2023 15:51:55 GMT-0400 (Eastern Daylight Time)","295052","green","red","animation","77","54227","0.0-5.0-2.36","","","","","","189","","","","","","[{""stimulus"":""img/green_wl/1.jpg"",""time"":62},{""stimulus"":""img/green_wl/2.jpg"",""time"":110},{""stimulus"":""img/green_wl/3.jpg"",""time"":158},{""stimulus"":""img/green_wl/4.jpg"",""time"":208},{""stimulus"":""img/green_wl/5.jpg"",""time"":257},{""stimulus"":""img/green_wl/6.jpg"",""time"":319},{""stimulus"":""img/green_wl/7.jpg"",""time"":367},{""stimulus"":""img/green_wl/8.jpg"",""time"":412},{""stimulus"":""img/green_wl/9.jpg"",""time"":462},{""stimulus"":""img/green_wl/10.jpg"",""time"":510},{""stimulus"":""img/green_wl/11.jpg"",""time"":558}]","[]"
"","","","choice","63ea4164c5b33a0d13129c84","bdp_lott","Mon Mar 27 2023 15:51:55 GMT-0400 (Eastern Daylight Time)","295052","green","red","image-keyboard-response","78","54279","0.0-5.0-1.37","","52","","img/green_wl/choose11.jpg","1","188","green","0.5","0.5","0.5","l","",""
"","","","","63ea4164c5b33a0d13129c84","bdp_lott","Mon Mar 27 2023 15:51:55 GMT-0400 (Eastern Daylight Time)","295052","green","red","animation","79","54897","0.0-5.0-2.37","","","","","","188","","","","","","[{""stimulus"":""img/green_ll/1.jpg"",""time"":58},{""stimulus"":""img/green_ll/2.jpg"",""time"":106},{""stimulus"":""img/green_ll/3.jpg"",""time"":153},{""stimulus"":""img/green_ll/4.jpg"",""time"":216},{""stimulus"":""img/green_ll/5.jpg"",""time"":266},{""stimulus"":""img/green_ll/6.jpg"",""time"":314},{""stimulus"":""img/green_ll/7.jpg"",""time"":360},{""stimulus"":""img/green_ll/8.jpg"",""time"":409},{""stimulus"":""img/green_ll/9.jpg"",""time"":458},{""stimulus"":""img/green_ll/10.jpg"",""time"":505},{""stimulus"":""img/green_ll/11.jpg"",""time"":555}]","[]"
"","","","choice","63ea4164c5b33a0d13129c84","bdp_lott","Mon Mar 27 2023 15:51:55 GMT-0400 (Eastern Daylight Time)","295052","green","red","image-keyboard-response","80","55024","0.0-5.0-1.38","","127","","img/green_ll/choose11.jpg","1","187","green","0.5","0.5","0.5","w","",""
"","","","","63ea4164c5b33a0d13129c84","bdp_lott","Mon Mar 27 2023 15:51:55 GMT-0400 (Eastern Daylight Time)","295052","green","red","animation","81","55633","0.0-5.0-2.38","","","","","","187","","","","","","[{""stimulus"":""img/green_wl/1.jpg"",""time"":67},{""stimulus"":""img/green_wl/2.jpg"",""time"":113},{""stimulus"":""img/green_wl/3.jpg"",""time"":161},{""stimulus"":""img/green_wl/4.jpg"",""time"":209},{""stimulus"":""img/green_wl/5.jpg"",""time"":257},{""stimulus"":""img/green_wl/6.jpg"",""time"":306},{""stimulus"":""img/green_wl/7.jpg"",""time"":370},{""stimulus"":""img/green_wl/8.jpg"",""time"":403},{""stimulus"":""img/green_wl/9.jpg"",""time"":465},{""stimulus"":""img/green_wl/10.jpg"",""time"":513},{""stimulus"":""img/green_wl/11.jpg"",""time"":561}]","[]"
"","","","choice","63ea4164c5b33a0d13129c84","bdp_lott","Mon Mar 27 2023 15:51:55 GMT-0400 (Eastern Daylight Time)","295052","green","red","image-keyboard-response","82","55879","0.0-5.0-1.39","","246","","img/green_wl/choose11.jpg","1","186","green","0.5","0.5","0.5","l","",""
"","","","","63ea4164c5b33a0d13129c84","bdp_lott","Mon Mar 27 2023 15:51:55 GMT-0400 (Eastern Daylight Time)","295052","green","red","animation","83","56497","0.0-5.0-2.39","","","","","","186","","","","","","[{""stimulus"":""img/green_ll/1.jpg"",""time"":58},{""stimulus"":""img/green_ll/2.jpg"",""time"":108},{""stimulus"":""img/green_ll/3.jpg"",""time"":154},{""stimulus"":""img/green_ll/4.jpg"",""time"":218},{""stimulus"":""img/green_ll/5.jpg"",""time"":251},{""stimulus"":""img/green_ll/6.jpg"",""time"":313},{""stimulus"":""img/green_ll/7.jpg"",""time"":362},{""stimulus"":""img/green_ll/8.jpg"",""time"":410},{""stimulus"":""img/green_ll/9.jpg"",""time"":459},{""stimulus"":""img/green_ll/10.jpg"",""time"":506},{""stimulus"":""img/green_ll/11.jpg"",""time"":554}]","[]"
"","","","choice","63ea4164c5b33a0d13129c84","bdp_lott","Mon Mar 27 2023 15:51:55 GMT-0400 (Eastern Daylight Time)","295052","green","red","image-keyboard-response","84","56942","0.0-5.0-1.40","","443","","img/green_ll/choose11.jpg","1","185","green","0.5","0.5","0.5","w","",""
"","","","","63ea4164c5b33a0d13129c84","bdp_lott","Mon Mar 27 2023 15:51:55 GMT-0400 (Eastern Daylight Time)","295052","green","red","animation","85","57553","0.0-5.0-2.40","","","","","","185","","","","","","[{""stimulus"":""img/green_wl/1.jpg"",""time"":68},{""stimulus"":""img/green_wl/2.jpg"",""time"":115},{""stimulus"":""img/green_wl/3.jpg"",""time"":163},{""stimulus"":""img/green_wl/4.jpg"",""time"":211},{""stimulus"":""img/green_wl/5.jpg"",""time"":261},{""stimulus"":""img/green_wl/6.jpg"",""time"":308},{""stimulus"":""img/green_wl/7.jpg"",""time"":355},{""stimulus"":""img/green_wl/8.jpg"",""time"":418},{""stimulus"":""img/green_wl/9.jpg"",""time"":468},{""stimulus"":""img/green_wl/10.jpg"",""time"":515},{""stimulus"":""img/green_wl/11.jpg"",""time"":561}]","[]"
"","","","choice","63ea4164c5b33a0d13129c84","bdp_lott","Mon Mar 27 2023 15:51:55 GMT-0400 (Eastern Daylight Time)","295052","green","red","image-keyboard-response","86","57720","0.0-5.0-1.41","","166","","img/green_wl/choose11.jpg","1","184","green","0.5","0.5","0.5","w","",""
"","","","","63ea4164c5b33a0d13129c84","bdp_lott","Mon Mar 27 2023 15:51:55 GMT-0400 (Eastern Daylight Time)","295052","green","red","animation","87","58321","0.0-5.0-2.41","","","","","","184","","","","","","[{""stimulus"":""img/green_wl/1.jpg"",""time"":56},{""stimulus"":""img/green_wl/2.jpg"",""time"":106},{""stimulus"":""img/green_wl/3.jpg"",""time"":168},{""stimulus"":""img/green_wl/4.jpg"",""time"":216},{""stimulus"":""img/green_wl/5.jpg"",""time"":265},{""stimulus"":""img/green_wl/6.jpg"",""time"":312},{""stimulus"":""img/green_wl/7.jpg"",""time"":360},{""stimulus"":""img/green_wl/8.jpg"",""time"":408},{""stimulus"":""img/green_wl/9.jpg"",""time"":456},{""stimulus"":""img/green_wl/10.jpg"",""time"":504},{""stimulus"":""img/green_wl/11.jpg"",""time"":552}]","[]"
"","","","choice","63ea4164c5b33a0d13129c84","bdp_lott","Mon Mar 27 2023 15:51:55 GMT-0400 (Eastern Daylight Time)","295052","green","red","image-keyboard-response","88","58604","0.0-5.0-1.42","","281","","img/green_wl/choose11.jpg","1","183","green","0.5","0.5","0.5","l","",""
"","","","","63ea4164c5b33a0d13129c84","bdp_lott","Mon Mar 27 2023 15:51:55 GMT-0400 (Eastern Daylight Time)","295052","green","red","animation","89","59219","0.0-5.0-2.42","","","","","","183","","","","","","[{""stimulus"":""img/green_ll/1.jpg"",""time"":70},{""stimulus"":""img/green_ll/2.jpg"",""time"":115},{""stimulus"":""img/green_ll/3.jpg"",""time"":165},{""stimulus"":""img/green_ll/4.jpg"",""time"":215},{""stimulus"":""img/green_ll/5.jpg"",""time"":261},{""stimulus"":""img/green_ll/6.jpg"",""time"":309},{""stimulus"":""img/green_ll/7.jpg"",""time"":357},{""stimulus"":""img/green_ll/8.jpg"",""time"":403},{""stimulus"":""img/green_ll/9.jpg"",""time"":468},{""stimulus"":""img/green_ll/10.jpg"",""time"":517},{""stimulus"":""img/green_ll/11.jpg"",""time"":566}]","[]"
"","","","choice","63ea4164c5b33a0d13129c84","bdp_lott","Mon Mar 27 2023 15:51:55 GMT-0400 (Eastern Daylight Time)","295052","green","red","image-keyboard-response","90","59220","0.0-5.0-1.43","","0","","img/green_ll/choose11.jpg","1","182","green","0.5","0.5","0.5","l","",""
"","","","","63ea4164c5b33a0d13129c84","bdp_lott","Mon Mar 27 2023 15:51:55 GMT-0400 (Eastern Daylight Time)","295052","green","red","animation","91","59825","0.0-5.0-2.43","","","","","","182","","","","","","[{""stimulus"":""img/green_ll/1.jpg"",""time"":61},{""stimulus"":""img/green_ll/2.jpg"",""time"":108},{""stimulus"":""img/green_ll/3.jpg"",""time"":156},{""stimulus"":""img/green_ll/4.jpg"",""time"":204},{""stimulus"":""img/green_ll/5.jpg"",""time"":268},{""stimulus"":""img/green_ll/6.jpg"",""time"":317},{""stimulus"":""img/green_ll/7.jpg"",""time"":364},{""stimulus"":""img/green_ll/8.jpg"",""time"":412},{""stimulus"":""img/green_ll/9.jpg"",""time"":460},{""stimulus"":""img/green_ll/10.jpg"",""time"":508},{""stimulus"":""img/green_ll/11.jpg"",""time"":556}]","[]"
"","","","choice","63ea4164c5b33a0d13129c84","bdp_lott","Mon Mar 27 2023 15:51:55 GMT-0400 (Eastern Daylight Time)","295052","green","red","image-keyboard-response","92","59948","0.0-5.0-1.44","","121","","img/green_ll/choose11.jpg","1","181","green","0.5","0.5","0.5","w","",""
"","","","","63ea4164c5b33a0d13129c84","bdp_lott","Mon Mar 27 2023 15:51:55 GMT-0400 (Eastern Daylight Time)","295052","green","red","animation","93","60560","0.0-5.0-2.44","","","","","","181","","","","","","[{""stimulus"":""img/green_wl/1.jpg"",""time"":70},{""stimulus"":""img/green_wl/2.jpg"",""time"":117},{""stimulus"":""img/green_wl/3.jpg"",""time"":165},{""stimulus"":""img/green_wl/4.jpg"",""time"":212},{""stimulus"":""img/green_wl/5.jpg"",""time"":262},{""stimulus"":""img/green_wl/6.jpg"",""time"":310},{""stimulus"":""img/green_wl/7.jpg"",""time"":354},{""stimulus"":""img/green_wl/8.jpg"",""time"":405},{""stimulus"":""img/green_wl/9.jpg"",""time"":471},{""stimulus"":""img/green_wl/10.jpg"",""time"":501},{""stimulus"":""img/green_wl/11.jpg"",""time"":565}]","[]"
"","","","choice","63ea4164c5b33a0d13129c84","bdp_lott","Mon Mar 27 2023 15:51:55 GMT-0400 (Eastern Daylight Time)","295052","green","red","image-keyboard-response","94","60912","0.0-5.0-1.45","","350","","img/green_wl/choose11.jpg","1","180","green","0.5","0.5","0.5","w","",""
"","","","","63ea4164c5b33a0d13129c84","bdp_lott","Mon Mar 27 2023 15:51:55 GMT-0400 (Eastern Daylight Time)","295052","green","red","animation","95","61521","0.0-5.0-2.45","","","","","","180","","","","","","[{""stimulus"":""img/green_wl/1.jpg"",""time"":65},{""stimulus"":""img/green_wl/2.jpg"",""time"":113},{""stimulus"":""img/green_wl/3.jpg"",""time"":161},{""stimulus"":""img/green_wl/4.jpg"",""time"":209},{""stimulus"":""img/green_wl/5.jpg"",""time"":258},{""stimulus"":""img/green_wl/6.jpg"",""time"":307},{""stimulus"":""img/green_wl/7.jpg"",""time"":369},{""stimulus"":""img/green_wl/8.jpg"",""time"":417},{""stimulus"":""img/green_wl/9.jpg"",""time"":465},{""stimulus"":""img/green_wl/10.jpg"",""time"":513},{""stimulus"":""img/green_wl/11.jpg"",""time"":561}]","[]"
"","","","choice","63ea4164c5b33a0d13129c84","bdp_lott","Mon Mar 27 2023 15:51:55 GMT-0400 (Eastern Daylight Time)","295052","green","red","image-keyboard-response","96","61644","0.0-5.0-1.46","","122","","img/green_wl/choose11.jpg","1","179","green","0.5","0.5","0.5","l","",""
"","","","","63ea4164c5b33a0d13129c84","bdp_lott","Mon Mar 27 2023 15:51:55 GMT-0400 (Eastern Daylight Time)","295052","green","red","animation","97","62257","0.0-5.0-2.46","","","","","","179","","","","","","[{""stimulus"":""img/green_ll/1.jpg"",""time"":53},{""stimulus"":""img/green_ll/2.jpg"",""time"":116},{""stimulus"":""img/green_ll/3.jpg"",""time"":166},{""stimulus"":""img/green_ll/4.jpg"",""time"":212},{""stimulus"":""img/green_ll/5.jpg"",""time"":261},{""stimulus"":""img/green_ll/6.jpg"",""time"":308},{""stimulus"":""img/green_ll/7.jpg"",""time"":355},{""stimulus"":""img/green_ll/8.jpg"",""time"":405},{""stimulus"":""img/green_ll/9.jpg"",""time"":469},{""stimulus"":""img/green_ll/10.jpg"",""time"":517},{""stimulus"":""img/green_ll/11.jpg"",""time"":566}]","[]"
"","","","choice","63ea4164c5b33a0d13129c84","bdp_lott","Mon Mar 27 2023 15:51:55 GMT-0400 (Eastern Daylight Time)","295052","green","red","image-keyboard-response","98","62400","0.0-5.0-1.47","","142","","img/green_ll/choose11.jpg","1","178","green","0.5","0.5","0.5","l","",""
"","","","","63ea4164c5b33a0d13129c84","bdp_lott","Mon Mar 27 2023 15:51:55 GMT-0400 (Eastern Daylight Time)","295052","green","red","animation","99","63010","0.0-5.0-2.47","","","","","","178","","","","","","[{""stimulus"":""img/green_ll/1.jpg"",""time"":64},{""stimulus"":""img/green_ll/2.jpg"",""time"":112},{""stimulus"":""img/green_ll/3.jpg"",""time"":159},{""stimulus"":""img/green_ll/4.jpg"",""time"":209},{""stimulus"":""img/green_ll/5.jpg"",""time"":256},{""stimulus"":""img/green_ll/6.jpg"",""time"":304},{""stimulus"":""img/green_ll/7.jpg"",""time"":367},{""stimulus"":""img/green_ll/8.jpg"",""time"":417},{""stimulus"":""img/green_ll/9.jpg"",""time"":464},{""stimulus"":""img/green_ll/10.jpg"",""time"":512},{""stimulus"":""img/green_ll/11.jpg"",""time"":559}]","[]"
"","","","choice","63ea4164c5b33a0d13129c84","bdp_lott","Mon Mar 27 2023 15:51:55 GMT-0400 (Eastern Daylight Time)","295052","green","red","image-keyboard-response","100","63037","0.0-5.0-1.48","","26","","img/green_ll/choose11.jpg","1","177","green","0.5","0.5","0.5","w","",""
"","","","","63ea4164c5b33a0d13129c84","bdp_lott","Mon Mar 27 2023 15:51:55 GMT-0400 (Eastern Daylight Time)","295052","green","red","animation","101","63649","0.0-5.0-2.48","","","","","","177","","","","","","[{""stimulus"":""img/green_wl/1.jpg"",""time"":68},{""stimulus"":""img/green_wl/2.jpg"",""time"":117},{""stimulus"":""img/green_wl/3.jpg"",""time"":165},{""stimulus"":""img/green_wl/4.jpg"",""time"":210},{""stimulus"":""img/green_wl/5.jpg"",""time"":260},{""stimulus"":""img/green_wl/6.jpg"",""time"":308},{""stimulus"":""img/green_wl/7.jpg"",""time"":356},{""stimulus"":""img/green_wl/8.jpg"",""time"":404},{""stimulus"":""img/green_wl/9.jpg"",""time"":468},{""stimulus"":""img/green_wl/10.jpg"",""time"":515},{""stimulus"":""img/green_wl/11.jpg"",""time"":562}]","[]"
"","","","choice","63ea4164c5b33a0d13129c84","bdp_lott","Mon Mar 27 2023 15:51:55 GMT-0400 (Eastern Daylight Time)","295052","green","red","image-keyboard-response","102","63910","0.0-5.0-1.49","","260","","img/green_wl/choose11.jpg","1","176","green","0.5","0.5","0.5","l","",""
"","","","","63ea4164c5b33a0d13129c84","bdp_lott","Mon Mar 27 2023 15:51:55 GMT-0400 (Eastern Daylight Time)","295052","green","red","animation","103","64528","0.0-5.0-2.49","","","","","","176","","","","","","[{""stimulus"":""img/green_ll/1.jpg"",""time"":58},{""stimulus"":""img/green_ll/2.jpg"",""time"":109},{""stimulus"":""img/green_ll/3.jpg"",""time"":155},{""stimulus"":""img/green_ll/4.jpg"",""time"":203},{""stimulus"":""img/green_ll/5.jpg"",""time"":267},{""stimulus"":""img/green_ll/6.jpg"",""time"":315},{""stimulus"":""img/green_ll/7.jpg"",""time"":363},{""stimulus"":""img/green_ll/8.jpg"",""time"":411},{""stimulus"":""img/green_ll/9.jpg"",""time"":459},{""stimulus"":""img/green_ll/10.jpg"",""time"":507},{""stimulus"":""img/green_ll/11.jpg"",""time"":555}]","[]"
"","","","choice","63ea4164c5b33a0d13129c84","bdp_lott","Mon Mar 27 2023 15:51:55 GMT-0400 (Eastern Daylight Time)","295052","green","red","image-keyboard-response","104","64820","0.0-5.0-1.50","","291","","img/green_ll/choose11.jpg","1","175","green","0.5","0.5","0.5","l","",""
"","","","","63ea4164c5b33a0d13129c84","bdp_lott","Mon Mar 27 2023 15:51:55 GMT-0400 (Eastern Daylight Time)","295052","green","red","animation","105","65424","0.0-5.0-2.50","","","","","","175","","","","","","[{""stimulus"":""img/green_ll/1.jpg"",""time"":61},{""stimulus"":""img/green_ll/2.jpg"",""time"":109},{""stimulus"":""img/green_ll/3.jpg"",""time"":159},{""stimulus"":""img/green_ll/4.jpg"",""time"":205},{""stimulus"":""img/green_ll/5.jpg"",""time"":269},{""stimulus"":""img/green_ll/6.jpg"",""time"":317},{""stimulus"":""img/green_ll/7.jpg"",""time"":365},{""stimulus"":""img/green_ll/8.jpg"",""time"":413},{""stimulus"":""img/green_ll/9.jpg"",""time"":460},{""stimulus"":""img/green_ll/10.jpg"",""time"":509},{""stimulus"":""img/green_ll/11.jpg"",""time"":557}]","[]"
"","","","choice","63ea4164c5b33a0d13129c84","bdp_lott","Mon Mar 27 2023 15:51:55 GMT-0400 (Eastern Daylight Time)","295052","green","red","image-keyboard-response","106","65496","0.0-5.0-1.51","","71","","img/green_ll/choose11.jpg","1","174","green","0.5","0.5","0.5","l","",""
"","","","","63ea4164c5b33a0d13129c84","bdp_lott","Mon Mar 27 2023 15:51:55 GMT-0400 (Eastern Daylight Time)","295052","green","red","animation","107","66113","0.0-5.0-2.51","","","","","","174","","","","","","[{""stimulus"":""img/green_ll/1.jpg"",""time"":54},{""stimulus"":""img/green_ll/2.jpg"",""time"":106},{""stimulus"":""img/green_ll/3.jpg"",""time"":169},{""stimulus"":""img/green_ll/4.jpg"",""time"":217},{""stimulus"":""img/green_ll/5.jpg"",""time"":264},{""stimulus"":""img/green_ll/6.jpg"",""time"":314},{""stimulus"":""img/green_ll/7.jpg"",""time"":361},{""stimulus"":""img/green_ll/8.jpg"",""time"":409},{""stimulus"":""img/green_ll/9.jpg"",""time"":456},{""stimulus"":""img/green_ll/10.jpg"",""time"":506},{""stimulus"":""img/green_ll/11.jpg"",""time"":569}]","[]"
"","","","choice","63ea4164c5b33a0d13129c84","bdp_lott","Mon Mar 27 2023 15:51:55 GMT-0400 (Eastern Daylight Time)","295052","green","red","image-keyboard-response","108","66302","0.0-5.0-1.52","","187","","img/green_ll/choose11.jpg","1","173","green","0.5","0.5","0.5","l","",""
"","","","","63ea4164c5b33a0d13129c84","bdp_lott","Mon Mar 27 2023 15:51:55 GMT-0400 (Eastern Daylight Time)","295052","green","red","animation","109","66913","0.0-5.0-2.52","","","","","","173","","","","","","[{""stimulus"":""img/green_ll/1.jpg"",""time"":67},{""stimulus"":""img/green_ll/2.jpg"",""time"":117},{""stimulus"":""img/green_ll/3.jpg"",""time"":163},{""stimulus"":""img/green_ll/4.jpg"",""time"":211},{""stimulus"":""img/green_ll/5.jpg"",""time"":258},{""stimulus"":""img/green_ll/6.jpg"",""time"":308},{""stimulus"":""img/green_ll/7.jpg"",""time"":355},{""stimulus"":""img/green_ll/8.jpg"",""time"":419},{""stimulus"":""img/green_ll/9.jpg"",""time"":467},{""stimulus"":""img/green_ll/10.jpg"",""time"":517},{""stimulus"":""img/green_ll/11.jpg"",""time"":562}]","[]"
"","","","choice","63ea4164c5b33a0d13129c84","bdp_lott","Mon Mar 27 2023 15:51:55 GMT-0400 (Eastern Daylight Time)","295052","green","red","image-keyboard-response","110","67405","0.0-5.0-1.53","","491","","img/green_ll/choose11.jpg","1","172","green","0.5","0.5","0.5","w","",""
"","","","","63ea4164c5b33a0d13129c84","bdp_lott","Mon Mar 27 2023 15:51:55 GMT-0400 (Eastern Daylight Time)","295052","green","red","animation","111","68018","0.0-5.0-2.53","","","","","","172","","","","","","[{""stimulus"":""img/green_wl/1.jpg"",""time"":68},{""stimulus"":""img/green_wl/2.jpg"",""time"":116},{""stimulus"":""img/green_wl/3.jpg"",""time"":164},{""stimulus"":""img/green_wl/4.jpg"",""time"":213},{""stimulus"":""img/green_wl/5.jpg"",""time"":260},{""stimulus"":""img/green_wl/6.jpg"",""time"":308},{""stimulus"":""img/green_wl/7.jpg"",""time"":355},{""stimulus"":""img/green_wl/8.jpg"",""time"":405},{""stimulus"":""img/green_wl/9.jpg"",""time"":468},{""stimulus"":""img/green_wl/10.jpg"",""time"":516},{""stimulus"":""img/green_wl/11.jpg"",""time"":564}]","[]"
"","","","choice","63ea4164c5b33a0d13129c84","bdp_lott","Mon Mar 27 2023 15:51:55 GMT-0400 (Eastern Daylight Time)","295052","green","red","image-keyboard-response","112","68173","0.0-5.0-1.54","","154","","img/green_wl/choose11.jpg","1","171","green","0.5","0.5","0.5","l","",""
"","","","","63ea4164c5b33a0d13129c84","bdp_lott","Mon Mar 27 2023 15:51:55 GMT-0400 (Eastern Daylight Time)","295052","green","red","animation","113","68785","0.0-5.0-2.54","","","","","","171","","","","","","[{""stimulus"":""img/green_ll/1.jpg"",""time"":52},{""stimulus"":""img/green_ll/2.jpg"",""time"":116},{""stimulus"":""img/green_ll/3.jpg"",""time"":164},{""stimulus"":""img/green_ll/4.jpg"",""time"":212},{""stimulus"":""img/green_ll/5.jpg"",""time"":260},{""stimulus"":""img/green_ll/6.jpg"",""time"":306},{""stimulus"":""img/green_ll/7.jpg"",""time"":356},{""stimulus"":""img/green_ll/8.jpg"",""time"":404},{""stimulus"":""img/green_ll/9.jpg"",""time"":452},{""stimulus"":""img/green_ll/10.jpg"",""time"":516},{""stimulus"":""img/green_ll/11.jpg"",""time"":564}]","[]"
"","","","choice","63ea4164c5b33a0d13129c84","bdp_lott","Mon Mar 27 2023 15:51:55 GMT-0400 (Eastern Daylight Time)","295052","green","red","image-keyboard-response","114","68926","0.0-5.0-1.55","","140","","img/green_ll/choose11.jpg","1","170","green","0.5","0.5","0.5","l","",""
"","","","","63ea4164c5b33a0d13129c84","bdp_lott","Mon Mar 27 2023 15:51:55 GMT-0400 (Eastern Daylight Time)","295052","green","red","animation","115","69539","0.0-5.0-2.55","","","","","","170","","","","","","[{""stimulus"":""img/green_ll/1.jpg"",""time"":67},{""stimulus"":""img/green_ll/2.jpg"",""time"":115},{""stimulus"":""img/green_ll/3.jpg"",""time"":163},{""stimulus"":""img/green_ll/4.jpg"",""time"":205},{""stimulus"":""img/green_ll/5.jpg"",""time"":259},{""stimulus"":""img/green_ll/6.jpg"",""time"":307},{""stimulus"":""img/green_ll/7.jpg"",""time"":356},{""stimulus"":""img/green_ll/8.jpg"",""time"":403},{""stimulus"":""img/green_ll/9.jpg"",""time"":468},{""stimulus"":""img/green_ll/10.jpg"",""time"":515},{""stimulus"":""img/green_ll/11.jpg"",""time"":563}]","[]"
"","","","choice","63ea4164c5b33a0d13129c84","bdp_lott","Mon Mar 27 2023 15:51:55 GMT-0400 (Eastern Daylight Time)","295052","green","red","image-keyboard-response","116","69712","0.0-5.0-1.56","","172","","img/green_ll/choose11.jpg","1","169","green","0.5","0.5","0.5","w","",""
"","","","","63ea4164c5b33a0d13129c84","bdp_lott","Mon Mar 27 2023 15:51:55 GMT-0400 (Eastern Daylight Time)","295052","green","red","animation","117","70321","0.0-5.0-2.56","","","","","","169","","","","","","[{""stimulus"":""img/green_wl/1.jpg"",""time"":64},{""stimulus"":""img/green_wl/2.jpg"",""time"":112},{""stimulus"":""img/green_wl/3.jpg"",""time"":159},{""stimulus"":""img/green_wl/4.jpg"",""time"":208},{""stimulus"":""img/green_wl/5.jpg"",""time"":256},{""stimulus"":""img/green_wl/6.jpg"",""time"":304},{""stimulus"":""img/green_wl/7.jpg"",""time"":369},{""stimulus"":""img/green_wl/8.jpg"",""time"":416},{""stimulus"":""img/green_wl/9.jpg"",""time"":464},{""stimulus"":""img/green_wl/10.jpg"",""time"":512},{""stimulus"":""img/green_wl/11.jpg"",""time"":560}]","[]"
"","","","choice","63ea4164c5b33a0d13129c84","bdp_lott","Mon Mar 27 2023 15:51:55 GMT-0400 (Eastern Daylight Time)","295052","green","red","image-keyboard-response","118","70599","0.0-5.0-1.57","","277","","img/green_wl/choose11.jpg","1","168","green","0.5","0.5","0.5","l","",""
"","","","","63ea4164c5b33a0d13129c84","bdp_lott","Mon Mar 27 2023 15:51:55 GMT-0400 (Eastern Daylight Time)","295052","green","red","animation","119","71218","0.0-5.0-2.57","","","","","","168","","","","","","[{""stimulus"":""img/green_ll/1.jpg"",""time"":58},{""stimulus"":""img/green_ll/2.jpg"",""time"":108},{""stimulus"":""img/green_ll/3.jpg"",""time"":170},{""stimulus"":""img/green_ll/4.jpg"",""time"":216},{""stimulus"":""img/green_ll/5.jpg"",""time"":266},{""stimulus"":""img/green_ll/6.jpg"",""time"":314},{""stimulus"":""img/green_ll/7.jpg"",""time"":362},{""stimulus"":""img/green_ll/8.jpg"",""time"":411},{""stimulus"":""img/green_ll/9.jpg"",""time"":458},{""stimulus"":""img/green_ll/10.jpg"",""time"":505},{""stimulus"":""img/green_ll/11.jpg"",""time"":570}]","[]"
"","","","choice","63ea4164c5b33a0d13129c84","bdp_lott","Mon Mar 27 2023 15:51:55 GMT-0400 (Eastern Daylight Time)","295052","green","red","image-keyboard-response","120","71307","0.0-5.0-1.58","","87","","img/green_ll/choose11.jpg","1","167","green","0.5","0.5","0.5","l","",""
"","","","","63ea4164c5b33a0d13129c84","bdp_lott","Mon Mar 27 2023 15:51:55 GMT-0400 (Eastern Daylight Time)","295052","green","red","animation","121","71921","0.0-5.0-2.58","","","","","","167","","","","","","[{""stimulus"":""img/green_ll/1.jpg"",""time"":69},{""stimulus"":""img/green_ll/2.jpg"",""time"":117},{""stimulus"":""img/green_ll/3.jpg"",""time"":164},{""stimulus"":""img/green_ll/4.jpg"",""time"":213},{""stimulus"":""img/green_ll/5.jpg"",""time"":261},{""stimulus"":""img/green_ll/6.jpg"",""time"":311},{""stimulus"":""img/green_ll/7.jpg"",""time"":357},{""stimulus"":""img/green_ll/8.jpg"",""time"":405},{""stimulus"":""img/green_ll/9.jpg"",""time"":469},{""stimulus"":""img/green_ll/10.jpg"",""time"":517},{""stimulus"":""img/green_ll/11.jpg"",""time"":565}]","[]"
"","","","choice","63ea4164c5b33a0d13129c84","bdp_lott","Mon Mar 27 2023 15:51:55 GMT-0400 (Eastern Daylight Time)","295052","green","red","image-keyboard-response","122","72021","0.0-5.0-1.59","","99","","img/green_ll/choose11.jpg","1","166","green","0.5","0.5","0.5","w","",""
"","","","","63ea4164c5b33a0d13129c84","bdp_lott","Mon Mar 27 2023 15:51:55 GMT-0400 (Eastern Daylight Time)","295052","green","red","animation","123","72625","0.0-5.0-2.59","","","","","","166","","","","","","[{""stimulus"":""img/green_wl/1.jpg"",""time"":60},{""stimulus"":""img/green_wl/2.jpg"",""time"":108},{""stimulus"":""img/green_wl/3.jpg"",""time"":156},{""stimulus"":""img/green_wl/4.jpg"",""time"":204},{""stimulus"":""img/green_wl/5.jpg"",""time"":268},{""stimulus"":""img/green_wl/6.jpg"",""time"":317},{""stimulus"":""img/green_wl/7.jpg"",""time"":364},{""stimulus"":""img/green_wl/8.jpg"",""time"":412},{""stimulus"":""img/green_wl/9.jpg"",""time"":461},{""stimulus"":""img/green_wl/10.jpg"",""time"":508},{""stimulus"":""img/green_wl/11.jpg"",""time"":556}]","[]"
"","","","choice","63ea4164c5b33a0d13129c84","bdp_lott","Mon Mar 27 2023 15:51:55 GMT-0400 (Eastern Daylight Time)","295052","green","red","image-keyboard-response","124","72687","0.0-5.0-1.60","","61","","img/green_wl/choose11.jpg","1","165","green","0.5","0.5","0.5","l","",""
"","","","","63ea4164c5b33a0d13129c84","bdp_lott","Mon Mar 27 2023 15:51:55 GMT-0400 (Eastern Daylight Time)","295052","green","red","animation","125","73296","0.0-5.0-2.60","","","","","","165","","","","","","[{""stimulus"":""img/green_ll/1.jpg"",""time"":66},{""stimulus"":""img/green_ll/2.jpg"",""time"":115},{""stimulus"":""img/green_ll/3.jpg"",""time"":159},{""stimulus"":""img/green_ll/4.jpg"",""time"":207},{""stimulus"":""img/green_ll/5.jpg"",""time"":256},{""stimulus"":""img/green_ll/6.jpg"",""time"":307},{""stimulus"":""img/green_ll/7.jpg"",""time"":369},{""stimulus"":""img/green_ll/8.jpg"",""time"":418},{""stimulus"":""img/green_ll/9.jpg"",""time"":465},{""stimulus"":""img/green_ll/10.jpg"",""time"":515},{""stimulus"":""img/green_ll/11.jpg"",""time"":562}]","[]"
"","","","choice","63ea4164c5b33a0d13129c84","bdp_lott","Mon Mar 27 2023 15:51:55 GMT-0400 (Eastern Daylight Time)","295052","green","red","image-keyboard-response","126","73357","0.0-5.0-1.61","","60","","img/green_ll/choose11.jpg","1","164","green","0.5","0.5","0.5","w","",""
"","","","","63ea4164c5b33a0d13129c84","bdp_lott","Mon Mar 27 2023 15:51:55 GMT-0400 (Eastern Daylight Time)","295052","green","red","animation","127","73968","0.0-5.0-2.61","","","","","","164","","","","","","[{""stimulus"":""img/green_wl/1.jpg"",""time"":68},{""stimulus"":""img/green_wl/2.jpg"",""time"":116},{""stimulus"":""img/green_wl/3.jpg"",""time"":164},{""stimulus"":""img/green_wl/4.jpg"",""time"":213},{""stimulus"":""img/green_wl/5.jpg"",""time"":262},{""stimulus"":""img/green_wl/6.jpg"",""time"":308},{""stimulus"":""img/green_wl/7.jpg"",""time"":356},{""stimulus"":""img/green_wl/8.jpg"",""time"":403},{""stimulus"":""img/green_wl/9.jpg"",""time"":467},{""stimulus"":""img/green_wl/10.jpg"",""time"":515},{""stimulus"":""img/green_wl/11.jpg"",""time"":564}]","[]"
"","","","choice","63ea4164c5b33a0d13129c84","bdp_lott","Mon Mar 27 2023 15:51:55 GMT-0400 (Eastern Daylight Time)","295052","green","red","image-keyboard-response","128","74021","0.0-5.0-1.62","","52","","img/green_wl/choose11.jpg","1","163","green","0.5","0.5","0.5","w","",""
"","","","","63ea4164c5b33a0d13129c84","bdp_lott","Mon Mar 27 2023 15:51:55 GMT-0400 (Eastern Daylight Time)","295052","green","red","animation","129","74624","0.0-5.0-2.62","","","","","","163","","","","","","[{""stimulus"":""img/green_wl/1.jpg"",""time"":60},{""stimulus"":""img/green_wl/2.jpg"",""time"":108},{""stimulus"":""img/green_wl/3.jpg"",""time"":156},{""stimulus"":""img/green_wl/4.jpg"",""time"":204},{""stimulus"":""img/green_wl/5.jpg"",""time"":268},{""stimulus"":""img/green_wl/6.jpg"",""time"":316},{""stimulus"":""img/green_wl/7.jpg"",""time"":364},{""stimulus"":""img/green_wl/8.jpg"",""time"":411},{""stimulus"":""img/green_wl/9.jpg"",""time"":460},{""stimulus"":""img/green_wl/10.jpg"",""time"":508},{""stimulus"":""img/green_wl/11.jpg"",""time"":556}]","[]"
"","","","choice","63ea4164c5b33a0d13129c84","bdp_lott","Mon Mar 27 2023 15:51:55 GMT-0400 (Eastern Daylight Time)","295052","green","red","image-keyboard-response","130","74665","0.0-5.0-1.63","","38","","img/green_wl/choose11.jpg","1","162","green","0.5","0.5","0.5","l","",""
"","","","","63ea4164c5b33a0d13129c84","bdp_lott","Mon Mar 27 2023 15:51:55 GMT-0400 (Eastern Daylight Time)","295052","green","red","animation","131","75281","0.0-5.0-2.63","","","","","","162","","","","","","[{""stimulus"":""img/green_ll/1.jpg"",""time"":57},{""stimulus"":""img/green_ll/2.jpg"",""time"":104},{""stimulus"":""img/green_ll/3.jpg"",""time"":168},{""stimulus"":""img/green_ll/4.jpg"",""time"":216},{""stimulus"":""img/green_ll/5.jpg"",""time"":264},{""stimulus"":""img/green_ll/6.jpg"",""time"":312},{""stimulus"":""img/green_ll/7.jpg"",""time"":360},{""stimulus"":""img/green_ll/8.jpg"",""time"":408},{""stimulus"":""img/green_ll/9.jpg"",""time"":456},{""stimulus"":""img/green_ll/10.jpg"",""time"":504},{""stimulus"":""img/green_ll/11.jpg"",""time"":568}]","[]"
"","","","choice","63ea4164c5b33a0d13129c84","bdp_lott","Mon Mar 27 2023 15:51:55 GMT-0400 (Eastern Daylight Time)","295052","green","red","image-keyboard-response","132","75417","0.0-5.0-1.64","","135","","img/green_ll/choose11.jpg","1","161","green","0.5","0.5","0.5","l","",""
"","","","","63ea4164c5b33a0d13129c84","bdp_lott","Mon Mar 27 2023 15:51:55 GMT-0400 (Eastern Daylight Time)","295052","green","red","animation","133","76032","0.0-5.0-2.64","","","","","","161","","","","","","[{""stimulus"":""img/green_ll/1.jpg"",""time"":54},{""stimulus"":""img/green_ll/2.jpg"",""time"":103},{""stimulus"":""img/green_ll/3.jpg"",""time"":168},{""stimulus"":""img/green_ll/4.jpg"",""time"":212},{""stimulus"":""img/green_ll/5.jpg"",""time"":263},{""stimulus"":""img/green_ll/6.jpg"",""time"":311},{""stimulus"":""img/green_ll/7.jpg"",""time"":359},{""stimulus"":""img/green_ll/8.jpg"",""time"":407},{""stimulus"":""img/green_ll/9.jpg"",""time"":455},{""stimulus"":""img/green_ll/10.jpg"",""time"":502},{""stimulus"":""img/green_ll/11.jpg"",""time"":567}]","[]"
"","","","choice","63ea4164c5b33a0d13129c84","bdp_lott","Mon Mar 27 2023 15:51:55 GMT-0400 (Eastern Daylight Time)","295052","green","red","image-keyboard-response","134","76036","0.0-5.0-1.65","","3","","img/green_ll/choose11.jpg","1","160","green","0.5","0.5","0.5","w","",""
"","","","","63ea4164c5b33a0d13129c84","bdp_lott","Mon Mar 27 2023 15:51:55 GMT-0400 (Eastern Daylight Time)","295052","green","red","animation","135","76640","0.0-5.0-2.65","","","","","","160","","","","","","[{""stimulus"":""img/green_wl/1.jpg"",""time"":60},{""stimulus"":""img/green_wl/2.jpg"",""time"":107},{""stimulus"":""img/green_wl/3.jpg"",""time"":157},{""stimulus"":""img/green_wl/4.jpg"",""time"":203},{""stimulus"":""img/green_wl/5.jpg"",""time"":267},{""stimulus"":""img/green_wl/6.jpg"",""time"":315},{""stimulus"":""img/green_wl/7.jpg"",""time"":365},{""stimulus"":""img/green_wl/8.jpg"",""time"":412},{""stimulus"":""img/green_wl/9.jpg"",""time"":460},{""stimulus"":""img/green_wl/10.jpg"",""time"":507},{""stimulus"":""img/green_wl/11.jpg"",""time"":557}]","[]"
"","","","choice","63ea4164c5b33a0d13129c84","bdp_lott","Mon Mar 27 2023 15:51:55 GMT-0400 (Eastern Daylight Time)","295052","green","red","image-keyboard-response","136","76710","0.0-5.0-1.66","","68","","img/green_wl/choose11.jpg","1","159","green","0.5","0.5","0.5","w","",""
"","","","","63ea4164c5b33a0d13129c84","bdp_lott","Mon Mar 27 2023 15:51:55 GMT-0400 (Eastern Daylight Time)","295052","green","red","animation","137","77328","0.0-5.0-2.66","","","","","","159","","","","","","[{""stimulus"":""img/green_wl/1.jpg"",""time"":59},{""stimulus"":""img/green_wl/2.jpg"",""time"":108},{""stimulus"":""img/green_wl/3.jpg"",""time"":155},{""stimulus"":""img/green_wl/4.jpg"",""time"":219},{""stimulus"":""img/green_wl/5.jpg"",""time"":266},{""stimulus"":""img/green_wl/6.jpg"",""time"":302},{""stimulus"":""img/green_wl/7.jpg"",""time"":363},{""stimulus"":""img/green_wl/8.jpg"",""time"":411},{""stimulus"":""img/green_wl/9.jpg"",""time"":459},{""stimulus"":""img/green_wl/10.jpg"",""time"":507},{""stimulus"":""img/green_wl/11.jpg"",""time"":555}]","[]"
"","","","choice","63ea4164c5b33a0d13129c84","bdp_lott","Mon Mar 27 2023 15:51:55 GMT-0400 (Eastern Daylight Time)","295052","green","red","image-keyboard-response","138","77351","0.0-5.0-1.67","","21","","img/green_wl/choose11.jpg","1","158","green","0.5","0.5","0.5","w","",""
"","","","","63ea4164c5b33a0d13129c84","bdp_lott","Mon Mar 27 2023 15:51:55 GMT-0400 (Eastern Daylight Time)","295052","green","red","animation","139","77968","0.0-5.0-2.67","","","","","","158","","","","","","[{""stimulus"":""img/green_wl/1.jpg"",""time"":56},{""stimulus"":""img/green_wl/2.jpg"",""time"":106},{""stimulus"":""img/green_wl/3.jpg"",""time"":154},{""stimulus"":""img/green_wl/4.jpg"",""time"":218},{""stimulus"":""img/green_wl/5.jpg"",""time"":266},{""stimulus"":""img/green_wl/6.jpg"",""time"":313},{""stimulus"":""img/green_wl/7.jpg"",""time"":361},{""stimulus"":""img/green_wl/8.jpg"",""time"":409},{""stimulus"":""img/green_wl/9.jpg"",""time"":459},{""stimulus"":""img/green_wl/10.jpg"",""time"":506},{""stimulus"":""img/green_wl/11.jpg"",""time"":554}]","[]"
"","","","choice","63ea4164c5b33a0d13129c84","bdp_lott","Mon Mar 27 2023 15:51:55 GMT-0400 (Eastern Daylight Time)","295052","green","red","image-keyboard-response","140","77986","0.0-5.0-1.68","","16","","img/green_wl/choose11.jpg","1","157","green","0.5","0.5","0.5","l","",""
"","","","","63ea4164c5b33a0d13129c84","bdp_lott","Mon Mar 27 2023 15:51:55 GMT-0400 (Eastern Daylight Time)","295052","green","red","animation","141","78593","0.0-5.0-2.68","","","","","","157","","","","","","[{""stimulus"":""img/green_ll/1.jpg"",""time"":60},{""stimulus"":""img/green_ll/2.jpg"",""time"":110},{""stimulus"":""img/green_ll/3.jpg"",""time"":157},{""stimulus"":""img/green_ll/4.jpg"",""time"":201},{""stimulus"":""img/green_ll/5.jpg"",""time"":253},{""stimulus"":""img/green_ll/6.jpg"",""time"":318},{""stimulus"":""img/green_ll/7.jpg"",""time"":365},{""stimulus"":""img/green_ll/8.jpg"",""time"":415},{""stimulus"":""img/green_ll/9.jpg"",""time"":461},{""stimulus"":""img/green_ll/10.jpg"",""time"":509},{""stimulus"":""img/green_ll/11.jpg"",""time"":557}]","[]"
"","","","choice","63ea4164c5b33a0d13129c84","bdp_lott","Mon Mar 27 2023 15:51:55 GMT-0400 (Eastern Daylight Time)","295052","green","red","image-keyboard-response","142","78891","0.0-5.0-1.69","","296","","img/green_ll/choose11.jpg","1","156","green","0.5","0.5","0.5","l","",""
"","","","","63ea4164c5b33a0d13129c84","bdp_lott","Mon Mar 27 2023 15:51:55 GMT-0400 (Eastern Daylight Time)","295052","green","red","animation","143","79504","0.0-5.0-2.69","","","","","","156","","","","","","[{""stimulus"":""img/green_ll/1.jpg"",""time"":53},{""stimulus"":""img/green_ll/2.jpg"",""time"":119},{""stimulus"":""img/green_ll/3.jpg"",""time"":166},{""stimulus"":""img/green_ll/4.jpg"",""time"":214},{""stimulus"":""img/green_ll/5.jpg"",""time"":261},{""stimulus"":""img/green_ll/6.jpg"",""time"":311},{""stimulus"":""img/green_ll/7.jpg"",""time"":358},{""stimulus"":""img/green_ll/8.jpg"",""time"":406},{""stimulus"":""img/green_ll/9.jpg"",""time"":453},{""stimulus"":""img/green_ll/10.jpg"",""time"":519},{""stimulus"":""img/green_ll/11.jpg"",""time"":566}]","[]"
"","","","choice","63ea4164c5b33a0d13129c84","bdp_lott","Mon Mar 27 2023 15:51:55 GMT-0400 (Eastern Daylight Time)","295052","green","red","image-keyboard-response","144","79947","0.0-5.0-1.70","","441","","img/green_ll/choose11.jpg","1","155","green","0.5","0.5","0.5","l","",""
"","","","","63ea4164c5b33a0d13129c84","bdp_lott","Mon Mar 27 2023 15:51:55 GMT-0400 (Eastern Daylight Time)","295052","green","red","animation","145","80560","0.0-5.0-2.70","","","","","","155","","","","","","[{""stimulus"":""img/green_ll/1.jpg"",""time"":70},{""stimulus"":""img/green_ll/2.jpg"",""time"":117},{""stimulus"":""img/green_ll/3.jpg"",""time"":166},{""stimulus"":""img/green_ll/4.jpg"",""time"":213},{""stimulus"":""img/green_ll/5.jpg"",""time"":260},{""stimulus"":""img/green_ll/6.jpg"",""time"":310},{""stimulus"":""img/green_ll/7.jpg"",""time"":358},{""stimulus"":""img/green_ll/8.jpg"",""time"":405},{""stimulus"":""img/green_ll/9.jpg"",""time"":455},{""stimulus"":""img/green_ll/10.jpg"",""time"":518},{""stimulus"":""img/green_ll/11.jpg"",""time"":566}]","[]"
"","","","choice","63ea4164c5b33a0d13129c84","bdp_lott","Mon Mar 27 2023 15:51:55 GMT-0400 (Eastern Daylight Time)","295052","green","red","image-keyboard-response","146","80617","0.0-5.0-1.71","","56","","img/green_ll/choose11.jpg","1","154","green","0.5","0.5","0.5","l","",""
"","","","","63ea4164c5b33a0d13129c84","bdp_lott","Mon Mar 27 2023 15:51:55 GMT-0400 (Eastern Daylight Time)","295052","green","red","animation","147","81231","0.0-5.0-2.71","","","","","","154","","","","","","[{""stimulus"":""img/green_ll/1.jpg"",""time"":57},{""stimulus"":""img/green_ll/2.jpg"",""time"":104},{""stimulus"":""img/green_ll/3.jpg"",""time"":168},{""stimulus"":""img/green_ll/4.jpg"",""time"":216},{""stimulus"":""img/green_ll/5.jpg"",""time"":264},{""stimulus"":""img/green_ll/6.jpg"",""time"":311},{""stimulus"":""img/green_ll/7.jpg"",""time"":357},{""stimulus"":""img/green_ll/8.jpg"",""time"":410},{""stimulus"":""img/green_ll/9.jpg"",""time"":456},{""stimulus"":""img/green_ll/10.jpg"",""time"":504},{""stimulus"":""img/green_ll/11.jpg"",""time"":568}]","[]"
"","","","choice","63ea4164c5b33a0d13129c84","bdp_lott","Mon Mar 27 2023 15:51:55 GMT-0400 (Eastern Daylight Time)","295052","green","red","image-keyboard-response","148","81721","0.0-5.0-1.72","","489","","img/green_ll/choose11.jpg","1","153","green","0.5","0.5","0.5","w","",""
"","","","","63ea4164c5b33a0d13129c84","bdp_lott","Mon Mar 27 2023 15:51:55 GMT-0400 (Eastern Daylight Time)","295052","green","red","animation","149","82323","0.0-5.0-2.72","","","","","","153","","","","","","[{""stimulus"":""img/green_wl/1.jpg"",""time"":56},{""stimulus"":""img/green_wl/2.jpg"",""time"":104},{""stimulus"":""img/green_wl/3.jpg"",""time"":168},{""stimulus"":""img/green_wl/4.jpg"",""time"":216},{""stimulus"":""img/green_wl/5.jpg"",""time"":264},{""stimulus"":""img/green_wl/6.jpg"",""time"":312},{""stimulus"":""img/green_wl/7.jpg"",""time"":360},{""stimulus"":""img/green_wl/8.jpg"",""time"":408},{""stimulus"":""img/green_wl/9.jpg"",""time"":456},{""stimulus"":""img/green_wl/10.jpg"",""time"":503},{""stimulus"":""img/green_wl/11.jpg"",""time"":568}]","[]"
"","","","choice","63ea4164c5b33a0d13129c84","bdp_lott","Mon Mar 27 2023 15:51:55 GMT-0400 (Eastern Daylight Time)","295052","green","red","image-keyboard-response","150","82924","0.0-5.0-1.73","","600","","img/green_wl/choose11.jpg","1","152","green","0.5","0.5","0.5","l","",""
"","","","","63ea4164c5b33a0d13129c84","bdp_lott","Mon Mar 27 2023 15:51:55 GMT-0400 (Eastern Daylight Time)","295052","green","red","animation","151","83536","0.0-5.0-2.73","","","","","","152","","","","","","[{""stimulus"":""img/green_ll/1.jpg"",""time"":69},{""stimulus"":""img/green_ll/2.jpg"",""time"":101},{""stimulus"":""img/green_ll/3.jpg"",""time"":165},{""stimulus"":""img/green_ll/4.jpg"",""time"":213},{""stimulus"":""img/green_ll/5.jpg"",""time"":262},{""stimulus"":""img/green_ll/6.jpg"",""time"":309},{""stimulus"":""img/green_ll/7.jpg"",""time"":357},{""stimulus"":""img/green_ll/8.jpg"",""time"":405},{""stimulus"":""img/green_ll/9.jpg"",""time"":469},{""stimulus"":""img/green_ll/10.jpg"",""time"":516},{""stimulus"":""img/green_ll/11.jpg"",""time"":564}]","[]"
"","","","choice","63ea4164c5b33a0d13129c84","bdp_lott","Mon Mar 27 2023 15:51:55 GMT-0400 (Eastern Daylight Time)","295052","green","red","image-keyboard-response","152","83685","0.0-5.0-1.74","","148","","img/green_ll/choose11.jpg","1","151","green","0.5","0.5","0.5","l","",""
"","","","","63ea4164c5b33a0d13129c84","bdp_lott","Mon Mar 27 2023 15:51:55 GMT-0400 (Eastern Daylight Time)","295052","green","red","animation","153","84304","0.0-5.0-2.74","","","","","","151","","","","","","[{""stimulus"":""img/green_ll/1.jpg"",""time"":60},{""stimulus"":""img/green_ll/2.jpg"",""time"":109},{""stimulus"":""img/green_ll/3.jpg"",""time"":156},{""stimulus"":""img/green_ll/4.jpg"",""time"":220},{""stimulus"":""img/green_ll/5.jpg"",""time"":252},{""stimulus"":""img/green_ll/6.jpg"",""time"":317},{""stimulus"":""img/green_ll/7.jpg"",""time"":361},{""stimulus"":""img/green_ll/8.jpg"",""time"":411},{""stimulus"":""img/green_ll/9.jpg"",""time"":459},{""stimulus"":""img/green_ll/10.jpg"",""time"":509},{""stimulus"":""img/green_ll/11.jpg"",""time"":556}]","[]"
"","","","choice","63ea4164c5b33a0d13129c84","bdp_lott","Mon Mar 27 2023 15:51:55 GMT-0400 (Eastern Daylight Time)","295052","green","red","image-keyboard-response","154","84449","0.0-5.0-1.75","","144","","img/green_ll/choose11.jpg","1","150","green","0.5","0.5","0.5","l","",""
"","","","","63ea4164c5b33a0d13129c84","bdp_lott","Mon Mar 27 2023 15:51:55 GMT-0400 (Eastern Daylight Time)","295052","green","red","animation","155","85056","0.0-5.0-2.75","","","","","","150","","","","","","[{""stimulus"":""img/green_ll/1.jpg"",""time"":63},{""stimulus"":""img/green_ll/2.jpg"",""time"":111},{""stimulus"":""img/green_ll/3.jpg"",""time"":161},{""stimulus"":""img/green_ll/4.jpg"",""time"":208},{""stimulus"":""img/green_ll/5.jpg"",""time"":255},{""stimulus"":""img/green_ll/6.jpg"",""time"":303},{""stimulus"":""img/green_ll/7.jpg"",""time"":353},{""stimulus"":""img/green_ll/8.jpg"",""time"":416},{""stimulus"":""img/green_ll/9.jpg"",""time"":463},{""stimulus"":""img/green_ll/10.jpg"",""time"":512},{""stimulus"":""img/green_ll/11.jpg"",""time"":561}]","[]"
"","","","choice","63ea4164c5b33a0d13129c84","bdp_lott","Mon Mar 27 2023 15:51:55 GMT-0400 (Eastern Daylight Time)","295052","green","red","image-keyboard-response","156","85075","0.0-5.0-1.76","","18","","img/green_ll/choose11.jpg","1","149","green","0.5","0.1","0.5","l","",""
"","","","","63ea4164c5b33a0d13129c84","bdp_lott","Mon Mar 27 2023 15:51:55 GMT-0400 (Eastern Daylight Time)","295052","green","red","animation","157","85680","0.0-5.0-2.76","","","","","","149","","","","","","[{""stimulus"":""img/green_ll/1.jpg"",""time"":62},{""stimulus"":""img/green_ll/2.jpg"",""time"":110},{""stimulus"":""img/green_ll/3.jpg"",""time"":157},{""stimulus"":""img/green_ll/4.jpg"",""time"":211},{""stimulus"":""img/green_ll/5.jpg"",""time"":254},{""stimulus"":""img/green_ll/6.jpg"",""time"":318},{""stimulus"":""img/green_ll/7.jpg"",""time"":365},{""stimulus"":""img/green_ll/8.jpg"",""time"":413},{""stimulus"":""img/green_ll/9.jpg"",""time"":462},{""stimulus"":""img/green_ll/10.jpg"",""time"":510},{""stimulus"":""img/green_ll/11.jpg"",""time"":557}]","[]"
"","","","choice","63ea4164c5b33a0d13129c84","bdp_lott","Mon Mar 27 2023 15:51:55 GMT-0400 (Eastern Daylight Time)","295052","green","red","image-keyboard-response","158","86210","0.0-5.0-1.77","","529","","img/green_ll/choose11.jpg","1","148","green","0.5","0.1","0.5","l","",""
"","","","","63ea4164c5b33a0d13129c84","bdp_lott","Mon Mar 27 2023 15:51:55 GMT-0400 (Eastern Daylight Time)","295052","green","red","animation","159","86816","0.0-5.0-2.77","","","","","","148","","","","","","[{""stimulus"":""img/green_ll/1.jpg"",""time"":63},{""stimulus"":""img/green_ll/2.jpg"",""time"":111},{""stimulus"":""img/green_ll/3.jpg"",""time"":159},{""stimulus"":""img/green_ll/4.jpg"",""time"":206},{""stimulus"":""img/green_ll/5.jpg"",""time"":254},{""stimulus"":""img/green_ll/6.jpg"",""time"":320},{""stimulus"":""img/green_ll/7.jpg"",""time"":367},{""stimulus"":""img/green_ll/8.jpg"",""time"":415},{""stimulus"":""img/green_ll/9.jpg"",""time"":462},{""stimulus"":""img/green_ll/10.jpg"",""time"":510},{""stimulus"":""img/green_ll/11.jpg"",""time"":559}]","[]"
"","","","choice","63ea4164c5b33a0d13129c84","bdp_lott","Mon Mar 27 2023 15:51:55 GMT-0400 (Eastern Daylight Time)","295052","green","red","image-keyboard-response","160","86898","0.0-5.0-1.78","","81","","img/green_ll/choose11.jpg","1","147","green","0.5","0.1","0.5","l","",""
"","","","","63ea4164c5b33a0d13129c84","bdp_lott","Mon Mar 27 2023 15:51:55 GMT-0400 (Eastern Daylight Time)","295052","green","red","animation","161","87504","0.0-5.0-2.78","","","","","","147","","","","","","[{""stimulus"":""img/green_ll/1.jpg"",""time"":63},{""stimulus"":""img/green_ll/2.jpg"",""time"":112},{""stimulus"":""img/green_ll/3.jpg"",""time"":159},{""stimulus"":""img/green_ll/4.jpg"",""time"":207},{""stimulus"":""img/green_ll/5.jpg"",""time"":254},{""stimulus"":""img/green_ll/6.jpg"",""time"":318},{""stimulus"":""img/green_ll/7.jpg"",""time"":367},{""stimulus"":""img/green_ll/8.jpg"",""time"":415},{""stimulus"":""img/green_ll/9.jpg"",""time"":462},{""stimulus"":""img/green_ll/10.jpg"",""time"":512},{""stimulus"":""img/green_ll/11.jpg"",""time"":559}]","[]"
"","","","choice","63ea4164c5b33a0d13129c84","bdp_lott","Mon Mar 27 2023 15:51:55 GMT-0400 (Eastern Daylight Time)","295052","green","red","image-keyboard-response","162","87533","0.0-5.0-1.79","","28","","img/green_ll/choose11.jpg","1","146","green","0.5","0.1","0.5","l","",""
"","","","","63ea4164c5b33a0d13129c84","bdp_lott","Mon Mar 27 2023 15:51:55 GMT-0400 (Eastern Daylight Time)","295052","green","red","animation","163","88143","0.0-5.0-2.79","","","","","","146","","","","","","[{""stimulus"":""img/green_ll/1.jpg"",""time"":67},{""stimulus"":""img/green_ll/2.jpg"",""time"":116},{""stimulus"":""img/green_ll/3.jpg"",""time"":163},{""stimulus"":""img/green_ll/4.jpg"",""time"":211},{""stimulus"":""img/green_ll/5.jpg"",""time"":257},{""stimulus"":""img/green_ll/6.jpg"",""time"":307},{""stimulus"":""img/green_ll/7.jpg"",""time"":355},{""stimulus"":""img/green_ll/8.jpg"",""time"":403},{""stimulus"":""img/green_ll/9.jpg"",""time"":469},{""stimulus"":""img/green_ll/10.jpg"",""time"":514},{""stimulus"":""img/green_ll/11.jpg"",""time"":563}]","[]"
"","","","choice","63ea4164c5b33a0d13129c84","bdp_lott","Mon Mar 27 2023 15:51:55 GMT-0400 (Eastern Daylight Time)","295052","green","red","image-keyboard-response","164","88579","0.0-5.0-1.80","","435","","img/green_ll/choose11.jpg","1","145","green","0.5","0.1","0.5","l","",""
"","","","","63ea4164c5b33a0d13129c84","bdp_lott","Mon Mar 27 2023 15:51:55 GMT-0400 (Eastern Daylight Time)","295052","green","red","animation","165","89185","0.0-5.0-2.80","","","","","","145","","","","","","[{""stimulus"":""img/green_ll/1.jpg"",""time"":62},{""stimulus"":""img/green_ll/2.jpg"",""time"":109},{""stimulus"":""img/green_ll/3.jpg"",""time"":157},{""stimulus"":""img/green_ll/4.jpg"",""time"":206},{""stimulus"":""img/green_ll/5.jpg"",""time"":253},{""stimulus"":""img/green_ll/6.jpg"",""time"":317},{""stimulus"":""img/green_ll/7.jpg"",""time"":364},{""stimulus"":""img/green_ll/8.jpg"",""time"":415},{""stimulus"":""img/green_ll/9.jpg"",""time"":462},{""stimulus"":""img/green_ll/10.jpg"",""time"":509},{""stimulus"":""img/green_ll/11.jpg"",""time"":557}]","[]"
"","","","choice","63ea4164c5b33a0d13129c84","bdp_lott","Mon Mar 27 2023 15:51:55 GMT-0400 (Eastern Daylight Time)","295052","green","red","image-keyboard-response","166","89694","0.0-5.0-1.81","","508","","img/green_ll/choose11.jpg","1","144","green","0.5","0.1","0.5","l","",""
"","","","","63ea4164c5b33a0d13129c84","bdp_lott","Mon Mar 27 2023 15:51:55 GMT-0400 (Eastern Daylight Time)","295052","green","red","animation","167","90303","0.0-5.0-2.81","","","","","","144","","","","","","[{""stimulus"":""img/green_ll/1.jpg"",""time"":66},{""stimulus"":""img/green_ll/2.jpg"",""time"":112},{""stimulus"":""img/green_ll/3.jpg"",""time"":163},{""stimulus"":""img/green_ll/4.jpg"",""time"":210},{""stimulus"":""img/green_ll/5.jpg"",""time"":258},{""stimulus"":""img/green_ll/6.jpg"",""time"":315},{""stimulus"":""img/green_ll/7.jpg"",""time"":354},{""stimulus"":""img/green_ll/8.jpg"",""time"":418},{""stimulus"":""img/green_ll/9.jpg"",""time"":466},{""stimulus"":""img/green_ll/10.jpg"",""time"":512},{""stimulus"":""img/green_ll/11.jpg"",""time"":563}]","[]"
"","","","choice","63ea4164c5b33a0d13129c84","bdp_lott","Mon Mar 27 2023 15:51:55 GMT-0400 (Eastern Daylight Time)","295052","green","red","image-keyboard-response","168","90416","0.0-5.0-1.82","","112","","img/green_ll/choose11.jpg","1","143","green","0.5","0.1","0.5","l","",""
"","","","","63ea4164c5b33a0d13129c84","bdp_lott","Mon Mar 27 2023 15:51:55 GMT-0400 (Eastern Daylight Time)","295052","green","red","animation","169","91024","0.0-5.0-2.82","","","","","","143","","","","","","[{""stimulus"":""img/green_ll/1.jpg"",""time"":64},{""stimulus"":""img/green_ll/2.jpg"",""time"":111},{""stimulus"":""img/green_ll/3.jpg"",""time"":161},{""stimulus"":""img/green_ll/4.jpg"",""time"":208},{""stimulus"":""img/green_ll/5.jpg"",""time"":256},{""stimulus"":""img/green_ll/6.jpg"",""time"":304},{""stimulus"":""img/green_ll/7.jpg"",""time"":353},{""stimulus"":""img/green_ll/8.jpg"",""time"":418},{""stimulus"":""img/green_ll/9.jpg"",""time"":464},{""stimulus"":""img/green_ll/10.jpg"",""time"":512},{""stimulus"":""img/green_ll/11.jpg"",""time"":561}]","[]"
"","","","choice","63ea4164c5b33a0d13129c84","bdp_lott","Mon Mar 27 2023 15:51:55 GMT-0400 (Eastern Daylight Time)","295052","green","red","image-keyboard-response","170","91030","0.0-5.0-1.83","","5","","img/green_ll/choose11.jpg","1","142","green","0.5","0.1","0.5","l","",""
"","","","","63ea4164c5b33a0d13129c84","bdp_lott","Mon Mar 27 2023 15:51:55 GMT-0400 (Eastern Daylight Time)","295052","green","red","animation","171","91632","0.0-5.0-2.83","","","","","","142","","","","","","[{""stimulus"":""img/green_ll/1.jpg"",""time"":59},{""stimulus"":""img/green_ll/2.jpg"",""time"":107},{""stimulus"":""img/green_ll/3.jpg"",""time"":155},{""stimulus"":""img/green_ll/4.jpg"",""time"":202},{""stimulus"":""img/green_ll/5.jpg"",""time"":267},{""stimulus"":""img/green_ll/6.jpg"",""time"":314},{""stimulus"":""img/green_ll/7.jpg"",""time"":360},{""stimulus"":""img/green_ll/8.jpg"",""time"":410},{""stimulus"":""img/green_ll/9.jpg"",""time"":458},{""stimulus"":""img/green_ll/10.jpg"",""time"":506},{""stimulus"":""img/green_ll/11.jpg"",""time"":555}]","[]"
"","","","choice","63ea4164c5b33a0d13129c84","bdp_lott","Mon Mar 27 2023 15:51:55 GMT-0400 (Eastern Daylight Time)","295052","green","red","image-keyboard-response","172","92501","0.0-5.0-1.84","","868","","img/green_ll/choose11.jpg","1","141","green","0.5","0.1","0.5","l","",""
"","","","","63ea4164c5b33a0d13129c84","bdp_lott","Mon Mar 27 2023 15:51:55 GMT-0400 (Eastern Daylight Time)","295052","green","red","animation","173","93107","0.0-5.0-2.84","","","","","","141","","","","","","[{""stimulus"":""img/green_ll/1.jpg"",""time"":59},{""stimulus"":""img/green_ll/2.jpg"",""time"":108},{""stimulus"":""img/green_ll/3.jpg"",""time"":156},{""stimulus"":""img/green_ll/4.jpg"",""time"":219},{""stimulus"":""img/green_ll/5.jpg"",""time"":251},{""stimulus"":""img/green_ll/6.jpg"",""time"":316},{""stimulus"":""img/green_ll/7.jpg"",""time"":363},{""stimulus"":""img/green_ll/8.jpg"",""time"":411},{""stimulus"":""img/green_ll/9.jpg"",""time"":459},{""stimulus"":""img/green_ll/10.jpg"",""time"":509},{""stimulus"":""img/green_ll/11.jpg"",""time"":556}]","[]"
"","","","choice","63ea4164c5b33a0d13129c84","bdp_lott","Mon Mar 27 2023 15:51:55 GMT-0400 (Eastern Daylight Time)","295052","green","red","image-keyboard-response","174","93826","0.0-5.0-1.85","","718","","img/green_ll/choose11.jpg","1","140","green","0.5","0.1","0.5","l","",""
"","","","","63ea4164c5b33a0d13129c84","bdp_lott","Mon Mar 27 2023 15:51:55 GMT-0400 (Eastern Daylight Time)","295052","green","red","animation","175","94432","0.0-5.0-2.85","","","","","","140","","","","","","[{""stimulus"":""img/green_ll/1.jpg"",""time"":62},{""stimulus"":""img/green_ll/2.jpg"",""time"":110},{""stimulus"":""img/green_ll/3.jpg"",""time"":158},{""stimulus"":""img/green_ll/4.jpg"",""time"":205},{""stimulus"":""img/green_ll/5.jpg"",""time"":269},{""stimulus"":""img/green_ll/6.jpg"",""time"":301},{""stimulus"":""img/green_ll/7.jpg"",""time"":367},{""stimulus"":""img/green_ll/8.jpg"",""time"":413},{""stimulus"":""img/green_ll/9.jpg"",""time"":461},{""stimulus"":""img/green_ll/10.jpg"",""time"":510},{""stimulus"":""img/green_ll/11.jpg"",""time"":558}]","[]"
"","","","choice","63ea4164c5b33a0d13129c84","bdp_lott","Mon Mar 27 2023 15:51:55 GMT-0400 (Eastern Daylight Time)","295052","green","red","image-keyboard-response","176","94516","0.0-5.0-1.86","","83","","img/green_ll/choose11.jpg","1","139","green","0.5","0.1","0.5","l","",""
"","","","","63ea4164c5b33a0d13129c84","bdp_lott","Mon Mar 27 2023 15:51:55 GMT-0400 (Eastern Daylight Time)","295052","green","red","animation","177","95120","0.0-5.0-2.86","","","","","","139","","","","","","[{""stimulus"":""img/green_ll/1.jpg"",""time"":60},{""stimulus"":""img/green_ll/2.jpg"",""time"":108},{""stimulus"":""img/green_ll/3.jpg"",""time"":156},{""stimulus"":""img/green_ll/4.jpg"",""time"":204},{""stimulus"":""img/green_ll/5.jpg"",""time"":269},{""stimulus"":""img/green_ll/6.jpg"",""time"":316},{""stimulus"":""img/green_ll/7.jpg"",""time"":364},{""stimulus"":""img/green_ll/8.jpg"",""time"":412},{""stimulus"":""img/green_ll/9.jpg"",""time"":460},{""stimulus"":""img/green_ll/10.jpg"",""time"":508},{""stimulus"":""img/green_ll/11.jpg"",""time"":556}]","[]"
"","","","choice","63ea4164c5b33a0d13129c84","bdp_lott","Mon Mar 27 2023 15:51:55 GMT-0400 (Eastern Daylight Time)","295052","green","red","image-keyboard-response","178","95764","0.0-5.0-1.87","","642","","img/green_ll/choose11.jpg","1","138","green","0.5","0.1","0.5","w","",""
"","","","","63ea4164c5b33a0d13129c84","bdp_lott","Mon Mar 27 2023 15:51:55 GMT-0400 (Eastern Daylight Time)","295052","green","red","animation","179","96368","0.0-5.0-2.87","","","","","","138","","","","","","[{""stimulus"":""img/green_wl/1.jpg"",""time"":61},{""stimulus"":""img/green_wl/2.jpg"",""time"":108},{""stimulus"":""img/green_wl/3.jpg"",""time"":156},{""stimulus"":""img/green_wl/4.jpg"",""time"":206},{""stimulus"":""img/green_wl/5.jpg"",""time"":270},{""stimulus"":""img/green_wl/6.jpg"",""time"":316},{""stimulus"":""img/green_wl/7.jpg"",""time"":364},{""stimulus"":""img/green_wl/8.jpg"",""time"":413},{""stimulus"":""img/green_wl/9.jpg"",""time"":460},{""stimulus"":""img/green_wl/10.jpg"",""time"":508},{""stimulus"":""img/green_wl/11.jpg"",""time"":556}]","[]"
"","","","choice","63ea4164c5b33a0d13129c84","bdp_lott","Mon Mar 27 2023 15:51:55 GMT-0400 (Eastern Daylight Time)","295052","green","red","image-keyboard-response","180","96887","0.0-5.0-1.88","","518","","img/green_wl/choose11.jpg","1","137","green","0.5","0.1","0.5","w","",""
"","","","","63ea4164c5b33a0d13129c84","bdp_lott","Mon Mar 27 2023 15:51:55 GMT-0400 (Eastern Daylight Time)","295052","green","red","animation","181","97504","0.0-5.0-2.88","","","","","","137","","","","","","[{""stimulus"":""img/green_wl/1.jpg"",""time"":58},{""stimulus"":""img/green_wl/2.jpg"",""time"":107},{""stimulus"":""img/green_wl/3.jpg"",""time"":169},{""stimulus"":""img/green_wl/4.jpg"",""time"":201},{""stimulus"":""img/green_wl/5.jpg"",""time"":265},{""stimulus"":""img/green_wl/6.jpg"",""time"":307},{""stimulus"":""img/green_wl/7.jpg"",""time"":361},{""stimulus"":""img/green_wl/8.jpg"",""time"":409},{""stimulus"":""img/green_wl/9.jpg"",""time"":457},{""stimulus"":""img/green_wl/10.jpg"",""time"":505},{""stimulus"":""img/green_wl/11.jpg"",""time"":569}]","[]"
"","","","choice","63ea4164c5b33a0d13129c84","bdp_lott","Mon Mar 27 2023 15:51:55 GMT-0400 (Eastern Daylight Time)","295052","green","red","image-keyboard-response","182","97569","0.0-5.0-1.89","","65","","img/green_wl/choose11.jpg","1","136","green","0.5","0.1","0.5","l","",""
"","","","","63ea4164c5b33a0d13129c84","bdp_lott","Mon Mar 27 2023 15:51:55 GMT-0400 (Eastern Daylight Time)","295052","green","red","animation","183","98177","0.0-5.0-2.89","","","","","","136","","","","","","[{""stimulus"":""img/green_ll/1.jpg"",""time"":63},{""stimulus"":""img/green_ll/2.jpg"",""time"":111},{""stimulus"":""img/green_ll/3.jpg"",""time"":159},{""stimulus"":""img/green_ll/4.jpg"",""time"":208},{""stimulus"":""img/green_ll/5.jpg"",""time"":255},{""stimulus"":""img/green_ll/6.jpg"",""time"":319},{""stimulus"":""img/green_ll/7.jpg"",""time"":367},{""stimulus"":""img/green_ll/8.jpg"",""time"":416},{""stimulus"":""img/green_ll/9.jpg"",""time"":463},{""stimulus"":""img/green_ll/10.jpg"",""time"":511},{""stimulus"":""img/green_ll/11.jpg"",""time"":559}]","[]"
"","","","choice","63ea4164c5b33a0d13129c84","bdp_lott","Mon Mar 27 2023 15:51:55 GMT-0400 (Eastern Daylight Time)","295052","green","red","image-keyboard-response","184","98180","0.0-5.0-1.90","","2","","img/green_ll/choose11.jpg","1","135","green","0.5","0.1","0.5","w","",""
"","","","","63ea4164c5b33a0d13129c84","bdp_lott","Mon Mar 27 2023 15:51:55 GMT-0400 (Eastern Daylight Time)","295052","green","red","animation","185","98785","0.0-5.0-2.90","","","","","","135","","","","","","[{""stimulus"":""img/green_wl/1.jpg"",""time"":61},{""stimulus"":""img/green_wl/2.jpg"",""time"":108},{""stimulus"":""img/green_wl/3.jpg"",""time"":156},{""stimulus"":""img/green_wl/4.jpg"",""time"":205},{""stimulus"":""img/green_wl/5.jpg"",""time"":253},{""stimulus"":""img/green_wl/6.jpg"",""time"":316},{""stimulus"":""img/green_wl/7.jpg"",""time"":363},{""stimulus"":""img/green_wl/8.jpg"",""time"":413},{""stimulus"":""img/green_wl/9.jpg"",""time"":460},{""stimulus"":""img/green_wl/10.jpg"",""time"":508},{""stimulus"":""img/green_wl/11.jpg"",""time"":556}]","[]"
"","","","choice","63ea4164c5b33a0d13129c84","bdp_lott","Mon Mar 27 2023 15:51:55 GMT-0400 (Eastern Daylight Time)","295052","green","red","image-keyboard-response","186","98884","0.0-5.0-1.91","","98","","img/green_wl/choose11.jpg","1","134","green","0.5","0.1","0.5","l","",""
"","","","","63ea4164c5b33a0d13129c84","bdp_lott","Mon Mar 27 2023 15:51:55 GMT-0400 (Eastern Daylight Time)","295052","green","red","animation","187","99504","0.0-5.0-2.91","","","","","","134","","","","","","[{""stimulus"":""img/green_ll/1.jpg"",""time"":60},{""stimulus"":""img/green_ll/2.jpg"",""time"":110},{""stimulus"":""img/green_ll/3.jpg"",""time"":155},{""stimulus"":""img/green_ll/4.jpg"",""time"":218},{""stimulus"":""img/green_ll/5.jpg"",""time"":253},{""stimulus"":""img/green_ll/6.jpg"",""time"":317},{""stimulus"":""img/green_ll/7.jpg"",""time"":363},{""stimulus"":""img/green_ll/8.jpg"",""time"":411},{""stimulus"":""img/green_ll/9.jpg"",""time"":458},{""stimulus"":""img/green_ll/10.jpg"",""time"":508},{""stimulus"":""img/green_ll/11.jpg"",""time"":555}]","[]"
"","","","choice","63ea4164c5b33a0d13129c84","bdp_lott","Mon Mar 27 2023 15:51:55 GMT-0400 (Eastern Daylight Time)","295052","green","red","image-keyboard-response","188","99954","0.0-5.0-1.92","","449","","img/green_ll/choose11.jpg","1","133","green","0.5","0.1","0.5","w","",""
"","","","","63ea4164c5b33a0d13129c84","bdp_lott","Mon Mar 27 2023 15:51:55 GMT-0400 (Eastern Daylight Time)","295052","green","red","animation","189","100560","0.0-5.0-2.92","","","","","","133","","","","","","[{""stimulus"":""img/green_wl/1.jpg"",""time"":62},{""stimulus"":""img/green_wl/2.jpg"",""time"":110},{""stimulus"":""img/green_wl/3.jpg"",""time"":158},{""stimulus"":""img/green_wl/4.jpg"",""time"":206},{""stimulus"":""img/green_wl/5.jpg"",""time"":270},{""stimulus"":""img/green_wl/6.jpg"",""time"":320},{""stimulus"":""img/green_wl/7.jpg"",""time"":366},{""stimulus"":""img/green_wl/8.jpg"",""time"":414},{""stimulus"":""img/green_wl/9.jpg"",""time"":462},{""stimulus"":""img/green_wl/10.jpg"",""time"":510},{""stimulus"":""img/green_wl/11.jpg"",""time"":558}]","[]"
