"trial_type","trial_index","time_elapsed","internal_node_id","subject_id","task","startTime","totalTime","fairMachine","unfairMachine","view_history","rt","event","trial","time","trialtype","success","stimulus","key_press","roundsLeft","chosen","pFairMachWin","pUnfairMachWin","pTrialWin","outcome","animation_sequence","responses"
"pavlovia","0","8","0.0-0.0","5ba863a346de410001ecfb2a","bdp_lott","Sun Apr 02 2023 16:13:05 GMT-0400 (Eastern Daylight Time)","547377","green","red","","","","","","","","","","","","","","","","",""
"instructions","1","4878","0.0-1.0","5ba863a346de410001ecfb2a","bdp_lott","Sun Apr 02 2023 16:13:05 GMT-0400 (Eastern Daylight Time)","547377","green","red","[{""page_index"":0,""viewing_time"":4868}]","4869","","","","","","","","","","","","","","",""
"","","","","5ba863a346de410001ecfb2a","bdp_lott","Sun Apr 02 2023 16:13:05 GMT-0400 (Eastern Daylight Time)","547377","green","red","","","fullscreenenter","2","6847","fullscreenenter","","","","","","","","","","",""
"fullscreen","2","7821","0.0-2.0","5ba863a346de410001ecfb2a","bdp_lott","Sun Apr 02 2023 16:13:05 GMT-0400 (Eastern Daylight Time)","547377","green","red","","","","","","","true","","","","","","","","","",""
"instructions","3","10741","0.0-4.0","5ba863a346de410001ecfb2a","bdp_lott","Sun Apr 02 2023 16:13:05 GMT-0400 (Eastern Daylight Time)","547377","green","red","[{""page_index"":0,""viewing_time"":2918}]","2918","","","","","","","","","","","","","","",""
"image-keyboard-response","4","49788","0.0-5.0-1.0","5ba863a346de410001ecfb2a","bdp_lott","Sun Apr 02 2023 16:13:05 GMT-0400 (Eastern Daylight Time)","547377","green","red","","39043","","","","choice","","img/red_ll/initchoose11.jpg","1","225","green","0.5","0.5","0.5","l","",""
"animation","5","50396","0.0-5.0-2.0","5ba863a346de410001ecfb2a","bdp_lott","Sun Apr 02 2023 16:13:05 GMT-0400 (Eastern Daylight Time)","547377","green","red","","","","","","","","","","225","","","","","","[{""stimulus"":""img/green_ll/1.jpg"",""time"":67},{""stimulus"":""img/green_ll/2.jpg"",""time"":115},{""stimulus"":""img/green_ll/3.jpg"",""time"":151},{""stimulus"":""img/green_ll/4.jpg"",""time"":206},{""stimulus"":""img/green_ll/5.jpg"",""time"":251},{""stimulus"":""img/green_ll/6.jpg"",""time"":302},{""stimulus"":""img/green_ll/7.jpg"",""time"":363},{""stimulus"":""img/green_ll/8.jpg"",""time"":401},{""stimulus"":""img/green_ll/9.jpg"",""time"":452},{""stimulus"":""img/green_ll/10.jpg"",""time"":502},{""stimulus"":""img/green_ll/11.jpg"",""time"":551}]","[]"
"image-keyboard-response","6","51956","0.0-5.0-1.1","5ba863a346de410001ecfb2a","bdp_lott","Sun Apr 02 2023 16:13:05 GMT-0400 (Eastern Daylight Time)","547377","green","red","","1559","","","","choice","","img/green_ll/choose11.jpg","2","224","red","0.5","0.5","0.5","l","",""
"animation","7","52563","0.0-5.0-2.1","5ba863a346de410001ecfb2a","bdp_lott","Sun Apr 02 2023 16:13:05 GMT-0400 (Eastern Daylight Time)","547377","green","red","","","","","","","","","","224","","","","","","[{""stimulus"":""img/red_ll/1.jpg"",""time"":64},{""stimulus"":""img/red_ll/2.jpg"",""time"":102},{""stimulus"":""img/red_ll/3.jpg"",""time"":151},{""stimulus"":""img/red_ll/4.jpg"",""time"":201},{""stimulus"":""img/red_ll/5.jpg"",""time"":252},{""stimulus"":""img/red_ll/6.jpg"",""time"":302},{""stimulus"":""img/red_ll/7.jpg"",""time"":351},{""stimulus"":""img/red_ll/8.jpg"",""time"":402},{""stimulus"":""img/red_ll/9.jpg"",""time"":451},{""stimulus"":""img/red_ll/10.jpg"",""time"":514},{""stimulus"":""img/red_ll/11.jpg"",""time"":552}]","[]"
"image-keyboard-response","8","54243","0.0-5.0-1.2","5ba863a346de410001ecfb2a","bdp_lott","Sun Apr 02 2023 16:13:05 GMT-0400 (Eastern Daylight Time)","547377","green","red","","1679","","","","choice","","img/red_ll/choose11.jpg","1","223","green","0.5","0.5","0.5","w","",""
"animation","9","54844","0.0-5.0-2.2","5ba863a346de410001ecfb2a","bdp_lott","Sun Apr 02 2023 16:13:05 GMT-0400 (Eastern Daylight Time)","547377","green","red","","","","","","","","","","223","","","","","","[{""stimulus"":""img/green_wl/1.jpg"",""time"":64},{""stimulus"":""img/green_wl/2.jpg"",""time"":101},{""stimulus"":""img/green_wl/3.jpg"",""time"":151},{""stimulus"":""img/green_wl/4.jpg"",""time"":201},{""stimulus"":""img/green_wl/5.jpg"",""time"":265},{""stimulus"":""img/green_wl/6.jpg"",""time"":301},{""stimulus"":""img/green_wl/7.jpg"",""time"":351},{""stimulus"":""img/green_wl/8.jpg"",""time"":401},{""stimulus"":""img/green_wl/9.jpg"",""time"":451},{""stimulus"":""img/green_wl/10.jpg"",""time"":502},{""stimulus"":""img/green_wl/11.jpg"",""time"":559}]","[]"
"image-keyboard-response","10","55825","0.0-5.0-1.3","5ba863a346de410001ecfb2a","bdp_lott","Sun Apr 02 2023 16:13:05 GMT-0400 (Eastern Daylight Time)","547377","green","red","","980","","","","choice","","img/green_wl/choose11.jpg","1","222","green","0.5","0.5","0.5","w","",""
"animation","11","56426","0.0-5.0-2.3","5ba863a346de410001ecfb2a","bdp_lott","Sun Apr 02 2023 16:13:05 GMT-0400 (Eastern Daylight Time)","547377","green","red","","","","","","","","","","222","","","","","","[{""stimulus"":""img/green_wl/1.jpg"",""time"":52},{""stimulus"":""img/green_wl/2.jpg"",""time"":102},{""stimulus"":""img/green_wl/3.jpg"",""time"":151},{""stimulus"":""img/green_wl/4.jpg"",""time"":212},{""stimulus"":""img/green_wl/5.jpg"",""time"":258},{""stimulus"":""img/green_wl/6.jpg"",""time"":301},{""stimulus"":""img/green_wl/7.jpg"",""time"":352},{""stimulus"":""img/green_wl/8.jpg"",""time"":407},{""stimulus"":""img/green_wl/9.jpg"",""time"":457},{""stimulus"":""img/green_wl/10.jpg"",""time"":501},{""stimulus"":""img/green_wl/11.jpg"",""time"":551}]","[]"
"image-keyboard-response","12","61270","0.0-5.0-1.4","5ba863a346de410001ecfb2a","bdp_lott","Sun Apr 02 2023 16:13:05 GMT-0400 (Eastern Daylight Time)","547377","green","red","","4843","","","","choice","","img/green_wl/choose11.jpg","2","221","red","0.5","0.5","0.5","l","",""
"animation","13","61876","0.0-5.0-2.4","5ba863a346de410001ecfb2a","bdp_lott","Sun Apr 02 2023 16:13:05 GMT-0400 (Eastern Daylight Time)","547377","green","red","","","","","","","","","","221","","","","","","[{""stimulus"":""img/red_wl/1.jpg"",""time"":52},{""stimulus"":""img/red_wl/2.jpg"",""time"":113},{""stimulus"":""img/red_wl/3.jpg"",""time"":155},{""stimulus"":""img/red_wl/4.jpg"",""time"":206},{""stimulus"":""img/red_wl/5.jpg"",""time"":251},{""stimulus"":""img/red_wl/6.jpg"",""time"":312},{""stimulus"":""img/red_wl/7.jpg"",""time"":356},{""stimulus"":""img/red_wl/8.jpg"",""time"":406},{""stimulus"":""img/red_wl/9.jpg"",""time"":451},{""stimulus"":""img/red_wl/10.jpg"",""time"":513},{""stimulus"":""img/red_wl/11.jpg"",""time"":555}]","[]"
"image-keyboard-response","14","63045","0.0-5.0-1.5","5ba863a346de410001ecfb2a","bdp_lott","Sun Apr 02 2023 16:13:05 GMT-0400 (Eastern Daylight Time)","547377","green","red","","1169","","","","choice","","img/red_wl/choose11.jpg","1","220","green","0.5","0.5","0.5","w","",""
"animation","15","63646","0.0-5.0-2.5","5ba863a346de410001ecfb2a","bdp_lott","Sun Apr 02 2023 16:13:05 GMT-0400 (Eastern Daylight Time)","547377","green","red","","","","","","","","","","220","","","","","","[{""stimulus"":""img/green_wl/1.jpg"",""time"":59},{""stimulus"":""img/green_wl/2.jpg"",""time"":106},{""stimulus"":""img/green_wl/3.jpg"",""time"":150},{""stimulus"":""img/green_wl/4.jpg"",""time"":201},{""stimulus"":""img/green_wl/5.jpg"",""time"":251},{""stimulus"":""img/green_wl/6.jpg"",""time"":309},{""stimulus"":""img/green_wl/7.jpg"",""time"":350},{""stimulus"":""img/green_wl/8.jpg"",""time"":401},{""stimulus"":""img/green_wl/9.jpg"",""time"":450},{""stimulus"":""img/green_wl/10.jpg"",""time"":512},{""stimulus"":""img/green_wl/11.jpg"",""time"":559}]","[]"
"image-keyboard-response","16","64542","0.0-5.0-1.6","5ba863a346de410001ecfb2a","bdp_lott","Sun Apr 02 2023 16:13:05 GMT-0400 (Eastern Daylight Time)","547377","green","red","","895","","","","choice","","img/green_wl/choose11.jpg","1","219","green","0.5","0.5","0.5","l","",""
"animation","17","65155","0.0-5.0-2.6","5ba863a346de410001ecfb2a","bdp_lott","Sun Apr 02 2023 16:13:05 GMT-0400 (Eastern Daylight Time)","547377","green","red","","","","","","","","","","219","","","","","","[{""stimulus"":""img/green_ll/1.jpg"",""time"":56},{""stimulus"":""img/green_ll/2.jpg"",""time"":102},{""stimulus"":""img/green_ll/3.jpg"",""time"":164},{""stimulus"":""img/green_ll/4.jpg"",""time"":201},{""stimulus"":""img/green_ll/5.jpg"",""time"":256},{""stimulus"":""img/green_ll/6.jpg"",""time"":301},{""stimulus"":""img/green_ll/7.jpg"",""time"":350},{""stimulus"":""img/green_ll/8.jpg"",""time"":410},{""stimulus"":""img/green_ll/9.jpg"",""time"":450},{""stimulus"":""img/green_ll/10.jpg"",""time"":504},{""stimulus"":""img/green_ll/11.jpg"",""time"":551}]","[]"
"image-keyboard-response","18","66095","0.0-5.0-1.7","5ba863a346de410001ecfb2a","bdp_lott","Sun Apr 02 2023 16:13:05 GMT-0400 (Eastern Daylight Time)","547377","green","red","","939","","","","choice","","img/green_ll/choose11.jpg","2","218","red","0.5","0.5","0.5","w","",""
"animation","19","66696","0.0-5.0-2.7","5ba863a346de410001ecfb2a","bdp_lott","Sun Apr 02 2023 16:13:05 GMT-0400 (Eastern Daylight Time)","547377","green","red","","","","","","","","","","218","","","","","","[{""stimulus"":""img/red_lw/1.jpg"",""time"":58},{""stimulus"":""img/red_lw/2.jpg"",""time"":105},{""stimulus"":""img/red_lw/3.jpg"",""time"":166},{""stimulus"":""img/red_lw/4.jpg"",""time"":210},{""stimulus"":""img/red_lw/5.jpg"",""time"":260},{""stimulus"":""img/red_lw/6.jpg"",""time"":307},{""stimulus"":""img/red_lw/7.jpg"",""time"":351},{""stimulus"":""img/red_lw/8.jpg"",""time"":401},{""stimulus"":""img/red_lw/9.jpg"",""time"":460},{""stimulus"":""img/red_lw/10.jpg"",""time"":501},{""stimulus"":""img/red_lw/11.jpg"",""time"":552}]","[]"
"image-keyboard-response","20","67590","0.0-5.0-1.8","5ba863a346de410001ecfb2a","bdp_lott","Sun Apr 02 2023 16:13:05 GMT-0400 (Eastern Daylight Time)","547377","green","red","","892","","","","choice","","img/red_lw/choose11.jpg","1","217","green","0.5","0.5","0.5","w","",""
"animation","21","68202","0.0-5.0-2.8","5ba863a346de410001ecfb2a","bdp_lott","Sun Apr 02 2023 16:13:05 GMT-0400 (Eastern Daylight Time)","547377","green","red","","","","","","","","","","217","","","","","","[{""stimulus"":""img/green_ww/1.jpg"",""time"":51},{""stimulus"":""img/green_ww/2.jpg"",""time"":101},{""stimulus"":""img/green_ww/3.jpg"",""time"":151},{""stimulus"":""img/green_ww/4.jpg"",""time"":201},{""stimulus"":""img/green_ww/5.jpg"",""time"":251},{""stimulus"":""img/green_ww/6.jpg"",""time"":301},{""stimulus"":""img/green_ww/7.jpg"",""time"":351},{""stimulus"":""img/green_ww/8.jpg"",""time"":408},{""stimulus"":""img/green_ww/9.jpg"",""time"":455},{""stimulus"":""img/green_ww/10.jpg"",""time"":500},{""stimulus"":""img/green_ww/11.jpg"",""time"":551}]","[]"
"image-keyboard-response","22","68497","0.0-5.0-1.9","5ba863a346de410001ecfb2a","bdp_lott","Sun Apr 02 2023 16:13:05 GMT-0400 (Eastern Daylight Time)","547377","green","red","","294","","","","choice","","img/green_ww/choose11.jpg","1","216","green","0.5","0.5","0.5","l","",""
"animation","23","69102","0.0-5.0-2.9","5ba863a346de410001ecfb2a","bdp_lott","Sun Apr 02 2023 16:13:05 GMT-0400 (Eastern Daylight Time)","547377","green","red","","","","","","","","","","216","","","","","","[{""stimulus"":""img/green_lw/1.jpg"",""time"":51},{""stimulus"":""img/green_lw/2.jpg"",""time"":101},{""stimulus"":""img/green_lw/3.jpg"",""time"":150},{""stimulus"":""img/green_lw/4.jpg"",""time"":214},{""stimulus"":""img/green_lw/5.jpg"",""time"":255},{""stimulus"":""img/green_lw/6.jpg"",""time"":301},{""stimulus"":""img/green_lw/7.jpg"",""time"":351},{""stimulus"":""img/green_lw/8.jpg"",""time"":404},{""stimulus"":""img/green_lw/9.jpg"",""time"":452},{""stimulus"":""img/green_lw/10.jpg"",""time"":512},{""stimulus"":""img/green_lw/11.jpg"",""time"":554}]","[]"
"image-keyboard-response","24","69606","0.0-5.0-1.10","5ba863a346de410001ecfb2a","bdp_lott","Sun Apr 02 2023 16:13:05 GMT-0400 (Eastern Daylight Time)","547377","green","red","","503","","","","choice","","img/green_lw/choose11.jpg","1","215","green","0.5","0.5","0.5","w","",""
"animation","25","70207","0.0-5.0-2.10","5ba863a346de410001ecfb2a","bdp_lott","Sun Apr 02 2023 16:13:05 GMT-0400 (Eastern Daylight Time)","547377","green","red","","","","","","","","","","215","","","","","","[{""stimulus"":""img/green_ww/1.jpg"",""time"":51},{""stimulus"":""img/green_ww/2.jpg"",""time"":100},{""stimulus"":""img/green_ww/3.jpg"",""time"":165},{""stimulus"":""img/green_ww/4.jpg"",""time"":201},{""stimulus"":""img/green_ww/5.jpg"",""time"":251},{""stimulus"":""img/green_ww/6.jpg"",""time"":301},{""stimulus"":""img/green_ww/7.jpg"",""time"":366},{""stimulus"":""img/green_ww/8.jpg"",""time"":400},{""stimulus"":""img/green_ww/9.jpg"",""time"":458},{""stimulus"":""img/green_ww/10.jpg"",""time"":501},{""stimulus"":""img/green_ww/11.jpg"",""time"":551}]","[]"
"image-keyboard-response","26","70642","0.0-5.0-1.11","5ba863a346de410001ecfb2a","bdp_lott","Sun Apr 02 2023 16:13:05 GMT-0400 (Eastern Daylight Time)","547377","green","red","","434","","","","choice","","img/green_ww/choose11.jpg","2","214","red","0.5","0.5","0.5","w","",""
"animation","27","71242","0.0-5.0-2.11","5ba863a346de410001ecfb2a","bdp_lott","Sun Apr 02 2023 16:13:05 GMT-0400 (Eastern Daylight Time)","547377","green","red","","","","","","","","","","214","","","","","","[{""stimulus"":""img/red_ww/1.jpg"",""time"":51},{""stimulus"":""img/red_ww/2.jpg"",""time"":105},{""stimulus"":""img/red_ww/3.jpg"",""time"":152},{""stimulus"":""img/red_ww/4.jpg"",""time"":201},{""stimulus"":""img/red_ww/5.jpg"",""time"":251},{""stimulus"":""img/red_ww/6.jpg"",""time"":301},{""stimulus"":""img/red_ww/7.jpg"",""time"":359},{""stimulus"":""img/red_ww/8.jpg"",""time"":402},{""stimulus"":""img/red_ww/9.jpg"",""time"":452},{""stimulus"":""img/red_ww/10.jpg"",""time"":506},{""stimulus"":""img/red_ww/11.jpg"",""time"":552}]","[]"
"image-keyboard-response","28","71874","0.0-5.0-1.12","5ba863a346de410001ecfb2a","bdp_lott","Sun Apr 02 2023 16:13:05 GMT-0400 (Eastern Daylight Time)","547377","green","red","","631","","","","choice","","img/red_ww/choose11.jpg","2","213","red","0.5","0.5","0.5","l","",""
"animation","29","72475","0.0-5.0-2.12","5ba863a346de410001ecfb2a","bdp_lott","Sun Apr 02 2023 16:13:05 GMT-0400 (Eastern Daylight Time)","547377","green","red","","","","","","","","","","213","","","","","","[{""stimulus"":""img/red_wl/1.jpg"",""time"":52},{""stimulus"":""img/red_wl/2.jpg"",""time"":101},{""stimulus"":""img/red_wl/3.jpg"",""time"":159},{""stimulus"":""img/red_wl/4.jpg"",""time"":201},{""stimulus"":""img/red_wl/5.jpg"",""time"":266},{""stimulus"":""img/red_wl/6.jpg"",""time"":302},{""stimulus"":""img/red_wl/7.jpg"",""time"":351},{""stimulus"":""img/red_wl/8.jpg"",""time"":405},{""stimulus"":""img/red_wl/9.jpg"",""time"":452},{""stimulus"":""img/red_wl/10.jpg"",""time"":515},{""stimulus"":""img/red_wl/11.jpg"",""time"":562}]","[]"
"image-keyboard-response","30","72953","0.0-5.0-1.13","5ba863a346de410001ecfb2a","bdp_lott","Sun Apr 02 2023 16:13:05 GMT-0400 (Eastern Daylight Time)","547377","green","red","","477","","","","choice","","img/red_wl/choose11.jpg","2","212","red","0.5","0.5","0.5","w","",""
"animation","31","73554","0.0-5.0-2.13","5ba863a346de410001ecfb2a","bdp_lott","Sun Apr 02 2023 16:13:05 GMT-0400 (Eastern Daylight Time)","547377","green","red","","","","","","","","","","212","","","","","","[{""stimulus"":""img/red_ww/1.jpg"",""time"":53},{""stimulus"":""img/red_ww/2.jpg"",""time"":105},{""stimulus"":""img/red_ww/3.jpg"",""time"":151},{""stimulus"":""img/red_ww/4.jpg"",""time"":201},{""stimulus"":""img/red_ww/5.jpg"",""time"":251},{""stimulus"":""img/red_ww/6.jpg"",""time"":301},{""stimulus"":""img/red_ww/7.jpg"",""time"":350},{""stimulus"":""img/red_ww/8.jpg"",""time"":401},{""stimulus"":""img/red_ww/9.jpg"",""time"":451},{""stimulus"":""img/red_ww/10.jpg"",""time"":510},{""stimulus"":""img/red_ww/11.jpg"",""time"":551}]","[]"
"image-keyboard-response","32","73999","0.0-5.0-1.14","5ba863a346de410001ecfb2a","bdp_lott","Sun Apr 02 2023 16:13:05 GMT-0400 (Eastern Daylight Time)","547377","green","red","","444","","","","choice","","img/red_ww/choose11.jpg","1","211","green","0.5","0.5","0.5","w","",""
"animation","33","74601","0.0-5.0-2.14","5ba863a346de410001ecfb2a","bdp_lott","Sun Apr 02 2023 16:13:05 GMT-0400 (Eastern Daylight Time)","547377","green","red","","","","","","","","","","211","","","","","","[{""stimulus"":""img/green_ww/1.jpg"",""time"":51},{""stimulus"":""img/green_ww/2.jpg"",""time"":101},{""stimulus"":""img/green_ww/3.jpg"",""time"":151},{""stimulus"":""img/green_ww/4.jpg"",""time"":200},{""stimulus"":""img/green_ww/5.jpg"",""time"":252},{""stimulus"":""img/green_ww/6.jpg"",""time"":302},{""stimulus"":""img/green_ww/7.jpg"",""time"":351},{""stimulus"":""img/green_ww/8.jpg"",""time"":401},{""stimulus"":""img/green_ww/9.jpg"",""time"":461},{""stimulus"":""img/green_ww/10.jpg"",""time"":507},{""stimulus"":""img/green_ww/11.jpg"",""time"":551}]","[]"
"image-keyboard-response","34","75206","0.0-5.0-1.15","5ba863a346de410001ecfb2a","bdp_lott","Sun Apr 02 2023 16:13:05 GMT-0400 (Eastern Daylight Time)","547377","green","red","","605","","","","choice","","img/green_ww/choose11.jpg","1","210","green","0.5","0.5","0.5","w","",""
"animation","35","75813","0.0-5.0-2.15","5ba863a346de410001ecfb2a","bdp_lott","Sun Apr 02 2023 16:13:05 GMT-0400 (Eastern Daylight Time)","547377","green","red","","","","","","","","","","210","","","","","","[{""stimulus"":""img/green_ww/1.jpg"",""time"":51},{""stimulus"":""img/green_ww/2.jpg"",""time"":101},{""stimulus"":""img/green_ww/3.jpg"",""time"":151},{""stimulus"":""img/green_ww/4.jpg"",""time"":202},{""stimulus"":""img/green_ww/5.jpg"",""time"":252},{""stimulus"":""img/green_ww/6.jpg"",""time"":304},{""stimulus"":""img/green_ww/7.jpg"",""time"":352},{""stimulus"":""img/green_ww/8.jpg"",""time"":404},{""stimulus"":""img/green_ww/9.jpg"",""time"":457},{""stimulus"":""img/green_ww/10.jpg"",""time"":507},{""stimulus"":""img/green_ww/11.jpg"",""time"":552}]","[]"
"image-keyboard-response","36","76610","0.0-5.0-1.16","5ba863a346de410001ecfb2a","bdp_lott","Sun Apr 02 2023 16:13:05 GMT-0400 (Eastern Daylight Time)","547377","green","red","","796","","","","choice","","img/green_ww/choose11.jpg","2","209","red","0.5","0.5","0.5","l","",""
"animation","37","77211","0.0-5.0-2.16","5ba863a346de410001ecfb2a","bdp_lott","Sun Apr 02 2023 16:13:05 GMT-0400 (Eastern Daylight Time)","547377","green","red","","","","","","","","","","209","","","","","","[{""stimulus"":""img/red_wl/1.jpg"",""time"":52},{""stimulus"":""img/red_wl/2.jpg"",""time"":101},{""stimulus"":""img/red_wl/3.jpg"",""time"":152},{""stimulus"":""img/red_wl/4.jpg"",""time"":202},{""stimulus"":""img/red_wl/5.jpg"",""time"":252},{""stimulus"":""img/red_wl/6.jpg"",""time"":301},{""stimulus"":""img/red_wl/7.jpg"",""time"":351},{""stimulus"":""img/red_wl/8.jpg"",""time"":401},{""stimulus"":""img/red_wl/9.jpg"",""time"":452},{""stimulus"":""img/red_wl/10.jpg"",""time"":501},{""stimulus"":""img/red_wl/11.jpg"",""time"":552}]","[]"
"image-keyboard-response","38","77638","0.0-5.0-1.17","5ba863a346de410001ecfb2a","bdp_lott","Sun Apr 02 2023 16:13:05 GMT-0400 (Eastern Daylight Time)","547377","green","red","","426","","","","choice","","img/red_wl/choose11.jpg","1","208","green","0.5","0.5","0.5","w","",""
"animation","39","78239","0.0-5.0-2.17","5ba863a346de410001ecfb2a","bdp_lott","Sun Apr 02 2023 16:13:05 GMT-0400 (Eastern Daylight Time)","547377","green","red","","","","","","","","","","208","","","","","","[{""stimulus"":""img/green_wl/1.jpg"",""time"":50},{""stimulus"":""img/green_wl/2.jpg"",""time"":101},{""stimulus"":""img/green_wl/3.jpg"",""time"":153},{""stimulus"":""img/green_wl/4.jpg"",""time"":215},{""stimulus"":""img/green_wl/5.jpg"",""time"":251},{""stimulus"":""img/green_wl/6.jpg"",""time"":301},{""stimulus"":""img/green_wl/7.jpg"",""time"":353},{""stimulus"":""img/green_wl/8.jpg"",""time"":415},{""stimulus"":""img/green_wl/9.jpg"",""time"":451},{""stimulus"":""img/green_wl/10.jpg"",""time"":508},{""stimulus"":""img/green_wl/11.jpg"",""time"":554}]","[]"
"image-keyboard-response","40","89493","0.0-5.0-1.18","5ba863a346de410001ecfb2a","bdp_lott","Sun Apr 02 2023 16:13:05 GMT-0400 (Eastern Daylight Time)","547377","green","red","","11253","","","","choice","","img/green_wl/choose11.jpg","1","207","green","0.5","0.5","0.5","w","",""
"animation","41","90095","0.0-5.0-2.18","5ba863a346de410001ecfb2a","bdp_lott","Sun Apr 02 2023 16:13:05 GMT-0400 (Eastern Daylight Time)","547377","green","red","","","","","","","","","","207","","","","","","[{""stimulus"":""img/green_wl/1.jpg"",""time"":56},{""stimulus"":""img/green_wl/2.jpg"",""time"":103},{""stimulus"":""img/green_wl/3.jpg"",""time"":151},{""stimulus"":""img/green_wl/4.jpg"",""time"":200},{""stimulus"":""img/green_wl/5.jpg"",""time"":258},{""stimulus"":""img/green_wl/6.jpg"",""time"":301},{""stimulus"":""img/green_wl/7.jpg"",""time"":351},{""stimulus"":""img/green_wl/8.jpg"",""time"":400},{""stimulus"":""img/green_wl/9.jpg"",""time"":458},{""stimulus"":""img/green_wl/10.jpg"",""time"":505},{""stimulus"":""img/green_wl/11.jpg"",""time"":551}]","[]"
"image-keyboard-response","42","90793","0.0-5.0-1.19","5ba863a346de410001ecfb2a","bdp_lott","Sun Apr 02 2023 16:13:05 GMT-0400 (Eastern Daylight Time)","547377","green","red","","697","","","","choice","","img/green_wl/choose11.jpg","1","206","green","0.5","0.5","0.5","l","",""
"animation","43","91398","0.0-5.0-2.19","5ba863a346de410001ecfb2a","bdp_lott","Sun Apr 02 2023 16:13:05 GMT-0400 (Eastern Daylight Time)","547377","green","red","","","","","","","","","","206","","","","","","[{""stimulus"":""img/green_ll/1.jpg"",""time"":50},{""stimulus"":""img/green_ll/2.jpg"",""time"":101},{""stimulus"":""img/green_ll/3.jpg"",""time"":152},{""stimulus"":""img/green_ll/4.jpg"",""time"":201},{""stimulus"":""img/green_ll/5.jpg"",""time"":254},{""stimulus"":""img/green_ll/6.jpg"",""time"":301},{""stimulus"":""img/green_ll/7.jpg"",""time"":352},{""stimulus"":""img/green_ll/8.jpg"",""time"":402},{""stimulus"":""img/green_ll/9.jpg"",""time"":463},{""stimulus"":""img/green_ll/10.jpg"",""time"":501},{""stimulus"":""img/green_ll/11.jpg"",""time"":554}]","[]"
"image-keyboard-response","44","91958","0.0-5.0-1.20","5ba863a346de410001ecfb2a","bdp_lott","Sun Apr 02 2023 16:13:05 GMT-0400 (Eastern Daylight Time)","547377","green","red","","559","","","","choice","","img/green_ll/choose11.jpg","1","205","green","0.5","0.5","0.5","w","",""
"animation","45","92574","0.0-5.0-2.20","5ba863a346de410001ecfb2a","bdp_lott","Sun Apr 02 2023 16:13:05 GMT-0400 (Eastern Daylight Time)","547377","green","red","","","","","","","","","","205","","","","","","[{""stimulus"":""img/green_wl/1.jpg"",""time"":59},{""stimulus"":""img/green_wl/2.jpg"",""time"":106},{""stimulus"":""img/green_wl/3.jpg"",""time"":151},{""stimulus"":""img/green_wl/4.jpg"",""time"":213},{""stimulus"":""img/green_wl/5.jpg"",""time"":259},{""stimulus"":""img/green_wl/6.jpg"",""time"":301},{""stimulus"":""img/green_wl/7.jpg"",""time"":353},{""stimulus"":""img/green_wl/8.jpg"",""time"":415},{""stimulus"":""img/green_wl/9.jpg"",""time"":461},{""stimulus"":""img/green_wl/10.jpg"",""time"":501},{""stimulus"":""img/green_wl/11.jpg"",""time"":554}]","[]"
"image-keyboard-response","46","93421","0.0-5.0-1.21","5ba863a346de410001ecfb2a","bdp_lott","Sun Apr 02 2023 16:13:05 GMT-0400 (Eastern Daylight Time)","547377","green","red","","847","","","","choice","","img/green_wl/choose11.jpg","2","204","red","0.5","0.5","0.5","w","",""
"animation","47","94037","0.0-5.0-2.21","5ba863a346de410001ecfb2a","bdp_lott","Sun Apr 02 2023 16:13:05 GMT-0400 (Eastern Daylight Time)","547377","green","red","","","","","","","","","","204","","","","","","[{""stimulus"":""img/red_ww/1.jpg"",""time"":56},{""stimulus"":""img/red_ww/2.jpg"",""time"":102},{""stimulus"":""img/red_ww/3.jpg"",""time"":151},{""stimulus"":""img/red_ww/4.jpg"",""time"":210},{""stimulus"":""img/red_ww/5.jpg"",""time"":251},{""stimulus"":""img/red_ww/6.jpg"",""time"":305},{""stimulus"":""img/red_ww/7.jpg"",""time"":352},{""stimulus"":""img/red_ww/8.jpg"",""time"":401},{""stimulus"":""img/red_ww/9.jpg"",""time"":460},{""stimulus"":""img/red_ww/10.jpg"",""time"":507},{""stimulus"":""img/red_ww/11.jpg"",""time"":554}]","[]"
"image-keyboard-response","48","94620","0.0-5.0-1.22","5ba863a346de410001ecfb2a","bdp_lott","Sun Apr 02 2023 16:13:05 GMT-0400 (Eastern Daylight Time)","547377","green","red","","582","","","","choice","","img/red_ww/choose11.jpg","2","203","red","0.5","0.5","0.5","l","",""
"animation","49","95232","0.0-5.0-2.22","5ba863a346de410001ecfb2a","bdp_lott","Sun Apr 02 2023 16:13:05 GMT-0400 (Eastern Daylight Time)","547377","green","red","","","","","","","","","","203","","","","","","[{""stimulus"":""img/red_wl/1.jpg"",""time"":54},{""stimulus"":""img/red_wl/2.jpg"",""time"":115},{""stimulus"":""img/red_wl/3.jpg"",""time"":160},{""stimulus"":""img/red_wl/4.jpg"",""time"":210},{""stimulus"":""img/red_wl/5.jpg"",""time"":257},{""stimulus"":""img/red_wl/6.jpg"",""time"":301},{""stimulus"":""img/red_wl/7.jpg"",""time"":364},{""stimulus"":""img/red_wl/8.jpg"",""time"":411},{""stimulus"":""img/red_wl/9.jpg"",""time"":451},{""stimulus"":""img/red_wl/10.jpg"",""time"":504},{""stimulus"":""img/red_wl/11.jpg"",""time"":566}]","[]"
"image-keyboard-response","50","95664","0.0-5.0-1.23","5ba863a346de410001ecfb2a","bdp_lott","Sun Apr 02 2023 16:13:05 GMT-0400 (Eastern Daylight Time)","547377","green","red","","431","","","","choice","","img/red_wl/choose11.jpg","2","202","red","0.5","0.5","0.5","w","",""
"animation","51","96265","0.0-5.0-2.23","5ba863a346de410001ecfb2a","bdp_lott","Sun Apr 02 2023 16:13:05 GMT-0400 (Eastern Daylight Time)","547377","green","red","","","","","","","","","","202","","","","","","[{""stimulus"":""img/red_ww/1.jpg"",""time"":64},{""stimulus"":""img/red_ww/2.jpg"",""time"":101},{""stimulus"":""img/red_ww/3.jpg"",""time"":158},{""stimulus"":""img/red_ww/4.jpg"",""time"":204},{""stimulus"":""img/red_ww/5.jpg"",""time"":252},{""stimulus"":""img/red_ww/6.jpg"",""time"":301},{""stimulus"":""img/red_ww/7.jpg"",""time"":361},{""stimulus"":""img/red_ww/8.jpg"",""time"":401},{""stimulus"":""img/red_ww/9.jpg"",""time"":454},{""stimulus"":""img/red_ww/10.jpg"",""time"":516},{""stimulus"":""img/red_ww/11.jpg"",""time"":551}]","[]"
"image-keyboard-response","52","96933","0.0-5.0-1.24","5ba863a346de410001ecfb2a","bdp_lott","Sun Apr 02 2023 16:13:05 GMT-0400 (Eastern Daylight Time)","547377","green","red","","667","","","","choice","","img/red_ww/choose11.jpg","2","201","red","0.5","0.5","0.5","w","",""
"animation","53","97543","0.0-5.0-2.24","5ba863a346de410001ecfb2a","bdp_lott","Sun Apr 02 2023 16:13:05 GMT-0400 (Eastern Daylight Time)","547377","green","red","","","","","","","","","","201","","","","","","[{""stimulus"":""img/red_ww/1.jpg"",""time"":52},{""stimulus"":""img/red_ww/2.jpg"",""time"":112},{""stimulus"":""img/red_ww/3.jpg"",""time"":151},{""stimulus"":""img/red_ww/4.jpg"",""time"":201},{""stimulus"":""img/red_ww/5.jpg"",""time"":251},{""stimulus"":""img/red_ww/6.jpg"",""time"":312},{""stimulus"":""img/red_ww/7.jpg"",""time"":351},{""stimulus"":""img/red_ww/8.jpg"",""time"":401},{""stimulus"":""img/red_ww/9.jpg"",""time"":451},{""stimulus"":""img/red_ww/10.jpg"",""time"":501},{""stimulus"":""img/red_ww/11.jpg"",""time"":563}]","[]"
"image-keyboard-response","54","98267","0.0-5.0-1.25","5ba863a346de410001ecfb2a","bdp_lott","Sun Apr 02 2023 16:13:05 GMT-0400 (Eastern Daylight Time)","547377","green","red","","724","","","","choice","","img/red_ww/choose11.jpg","2","200","red","0.5","0.5","0.5","w","",""
"animation","55","98868","0.0-5.0-2.25","5ba863a346de410001ecfb2a","bdp_lott","Sun Apr 02 2023 16:13:05 GMT-0400 (Eastern Daylight Time)","547377","green","red","","","","","","","","","","200","","","","","","[{""stimulus"":""img/red_ww/1.jpg"",""time"":66},{""stimulus"":""img/red_ww/2.jpg"",""time"":112},{""stimulus"":""img/red_ww/3.jpg"",""time"":151},{""stimulus"":""img/red_ww/4.jpg"",""time"":201},{""stimulus"":""img/red_ww/5.jpg"",""time"":252},{""stimulus"":""img/red_ww/6.jpg"",""time"":302},{""stimulus"":""img/red_ww/7.jpg"",""time"":351},{""stimulus"":""img/red_ww/8.jpg"",""time"":401},{""stimulus"":""img/red_ww/9.jpg"",""time"":458},{""stimulus"":""img/red_ww/10.jpg"",""time"":506},{""stimulus"":""img/red_ww/11.jpg"",""time"":553}]","[]"
"image-keyboard-response","56","99380","0.0-5.0-1.26","5ba863a346de410001ecfb2a","bdp_lott","Sun Apr 02 2023 16:13:05 GMT-0400 (Eastern Daylight Time)","547377","green","red","","511","","","","choice","","img/red_ww/choose11.jpg","1","199","green","0.5","0.5","0.5","l","",""
"animation","57","99988","0.0-5.0-2.26","5ba863a346de410001ecfb2a","bdp_lott","Sun Apr 02 2023 16:13:05 GMT-0400 (Eastern Daylight Time)","547377","green","red","","","","","","","","","","199","","","","","","[{""stimulus"":""img/green_lw/1.jpg"",""time"":63},{""stimulus"":""img/green_lw/2.jpg"",""time"":101},{""stimulus"":""img/green_lw/3.jpg"",""time"":155},{""stimulus"":""img/green_lw/4.jpg"",""time"":202},{""stimulus"":""img/green_lw/5.jpg"",""time"":250},{""stimulus"":""img/green_lw/6.jpg"",""time"":300},{""stimulus"":""img/green_lw/7.jpg"",""time"":351},{""stimulus"":""img/green_lw/8.jpg"",""time"":400},{""stimulus"":""img/green_lw/9.jpg"",""time"":450},{""stimulus"":""img/green_lw/10.jpg"",""time"":500},{""stimulus"":""img/green_lw/11.jpg"",""time"":550}]","[]"
"image-keyboard-response","58","100575","0.0-5.0-1.27","5ba863a346de410001ecfb2a","bdp_lott","Sun Apr 02 2023 16:13:05 GMT-0400 (Eastern Daylight Time)","547377","green","red","","587","","","","choice","","img/green_lw/choose11.jpg","1","198","green","0.5","0.5","0.5","l","",""
"animation","59","101183","0.0-5.0-2.27","5ba863a346de410001ecfb2a","bdp_lott","Sun Apr 02 2023 16:13:05 GMT-0400 (Eastern Daylight Time)","547377","green","red","","","","","","","","","","198","","","","","","[{""stimulus"":""img/green_lw/1.jpg"",""time"":65},{""stimulus"":""img/green_lw/2.jpg"",""time"":102},{""stimulus"":""img/green_lw/3.jpg"",""time"":151},{""stimulus"":""img/green_lw/4.jpg"",""time"":204},{""stimulus"":""img/green_lw/5.jpg"",""time"":267},{""stimulus"":""img/green_lw/6.jpg"",""time"":301},{""stimulus"":""img/green_lw/7.jpg"",""time"":359},{""stimulus"":""img/green_lw/8.jpg"",""time"":405},{""stimulus"":""img/green_lw/9.jpg"",""time"":453},{""stimulus"":""img/green_lw/10.jpg"",""time"":515},{""stimulus"":""img/green_lw/11.jpg"",""time"":563}]","[]"
"image-keyboard-response","60","106093","0.0-5.0-1.28","5ba863a346de410001ecfb2a","bdp_lott","Sun Apr 02 2023 16:13:05 GMT-0400 (Eastern Daylight Time)","547377","green","red","","4909","","","","choice","","img/green_lw/choose11.jpg","2","197","red","0.5","0.5","0.5","l","",""
"animation","61","106694","0.0-5.0-2.28","5ba863a346de410001ecfb2a","bdp_lott","Sun Apr 02 2023 16:13:05 GMT-0400 (Eastern Daylight Time)","547377","green","red","","","","","","","","","","197","","","","","","[{""stimulus"":""img/red_ll/1.jpg"",""time"":63},{""stimulus"":""img/red_ll/2.jpg"",""time"":110},{""stimulus"":""img/red_ll/3.jpg"",""time"":151},{""stimulus"":""img/red_ll/4.jpg"",""time"":202},{""stimulus"":""img/red_ll/5.jpg"",""time"":250},{""stimulus"":""img/red_ll/6.jpg"",""time"":300},{""stimulus"":""img/red_ll/7.jpg"",""time"":358},{""stimulus"":""img/red_ll/8.jpg"",""time"":401},{""stimulus"":""img/red_ll/9.jpg"",""time"":451},{""stimulus"":""img/red_ll/10.jpg"",""time"":515},{""stimulus"":""img/red_ll/11.jpg"",""time"":561}]","[]"
"image-keyboard-response","62","107175","0.0-5.0-1.29","5ba863a346de410001ecfb2a","bdp_lott","Sun Apr 02 2023 16:13:05 GMT-0400 (Eastern Daylight Time)","547377","green","red","","480","","","","choice","","img/red_ll/choose11.jpg","2","196","red","0.5","0.5","0.5","l","",""
"animation","63","107790","0.0-5.0-2.29","5ba863a346de410001ecfb2a","bdp_lott","Sun Apr 02 2023 16:13:05 GMT-0400 (Eastern Daylight Time)","547377","green","red","","","","","","","","","","196","","","","","","[{""stimulus"":""img/red_ll/1.jpg"",""time"":51},{""stimulus"":""img/red_ll/2.jpg"",""time"":102},{""stimulus"":""img/red_ll/3.jpg"",""time"":159},{""stimulus"":""img/red_ll/4.jpg"",""time"":202},{""stimulus"":""img/red_ll/5.jpg"",""time"":251},{""stimulus"":""img/red_ll/6.jpg"",""time"":301},{""stimulus"":""img/red_ll/7.jpg"",""time"":351},{""stimulus"":""img/red_ll/8.jpg"",""time"":402},{""stimulus"":""img/red_ll/9.jpg"",""time"":451},{""stimulus"":""img/red_ll/10.jpg"",""time"":506},{""stimulus"":""img/red_ll/11.jpg"",""time"":552}]","[]"
"image-keyboard-response","64","108980","0.0-5.0-1.30","5ba863a346de410001ecfb2a","bdp_lott","Sun Apr 02 2023 16:13:05 GMT-0400 (Eastern Daylight Time)","547377","green","red","","1189","","","","choice","","img/red_ll/choose11.jpg","2","195","red","0.5","0.5","0.5","l","",""
"animation","65","109581","0.0-5.0-2.30","5ba863a346de410001ecfb2a","bdp_lott","Sun Apr 02 2023 16:13:05 GMT-0400 (Eastern Daylight Time)","547377","green","red","","","","","","","","","","195","","","","","","[{""stimulus"":""img/red_ll/1.jpg"",""time"":51},{""stimulus"":""img/red_ll/2.jpg"",""time"":102},{""stimulus"":""img/red_ll/3.jpg"",""time"":151},{""stimulus"":""img/red_ll/4.jpg"",""time"":201},{""stimulus"":""img/red_ll/5.jpg"",""time"":252},{""stimulus"":""img/red_ll/6.jpg"",""time"":301},{""stimulus"":""img/red_ll/7.jpg"",""time"":351},{""stimulus"":""img/red_ll/8.jpg"",""time"":401},{""stimulus"":""img/red_ll/9.jpg"",""time"":455},{""stimulus"":""img/red_ll/10.jpg"",""time"":501},{""stimulus"":""img/red_ll/11.jpg"",""time"":551}]","[]"
"image-keyboard-response","66","110098","0.0-5.0-1.31","5ba863a346de410001ecfb2a","bdp_lott","Sun Apr 02 2023 16:13:05 GMT-0400 (Eastern Daylight Time)","547377","green","red","","516","","","","choice","","img/red_ll/choose11.jpg","2","194","red","0.5","0.5","0.5","l","",""
"animation","67","110712","0.0-5.0-2.31","5ba863a346de410001ecfb2a","bdp_lott","Sun Apr 02 2023 16:13:05 GMT-0400 (Eastern Daylight Time)","547377","green","red","","","","","","","","","","194","","","","","","[{""stimulus"":""img/red_ll/1.jpg"",""time"":51},{""stimulus"":""img/red_ll/2.jpg"",""time"":101},{""stimulus"":""img/red_ll/3.jpg"",""time"":150},{""stimulus"":""img/red_ll/4.jpg"",""time"":201},{""stimulus"":""img/red_ll/5.jpg"",""time"":250},{""stimulus"":""img/red_ll/6.jpg"",""time"":301},{""stimulus"":""img/red_ll/7.jpg"",""time"":351},{""stimulus"":""img/red_ll/8.jpg"",""time"":401},{""stimulus"":""img/red_ll/9.jpg"",""time"":450},{""stimulus"":""img/red_ll/10.jpg"",""time"":504},{""stimulus"":""img/red_ll/11.jpg"",""time"":552}]","[]"
"image-keyboard-response","68","111099","0.0-5.0-1.32","5ba863a346de410001ecfb2a","bdp_lott","Sun Apr 02 2023 16:13:05 GMT-0400 (Eastern Daylight Time)","547377","green","red","","385","","","","choice","","img/red_ll/choose11.jpg","1","193","green","0.5","0.5","0.5","w","",""
"animation","69","111699","0.0-5.0-2.32","5ba863a346de410001ecfb2a","bdp_lott","Sun Apr 02 2023 16:13:05 GMT-0400 (Eastern Daylight Time)","547377","green","red","","","","","","","","","","193","","","","","","[{""stimulus"":""img/green_wl/1.jpg"",""time"":51},{""stimulus"":""img/green_wl/2.jpg"",""time"":111},{""stimulus"":""img/green_wl/3.jpg"",""time"":158},{""stimulus"":""img/green_wl/4.jpg"",""time"":205},{""stimulus"":""img/green_wl/5.jpg"",""time"":251},{""stimulus"":""img/green_wl/6.jpg"",""time"":300},{""stimulus"":""img/green_wl/7.jpg"",""time"":351},{""stimulus"":""img/green_wl/8.jpg"",""time"":400},{""stimulus"":""img/green_wl/9.jpg"",""time"":453},{""stimulus"":""img/green_wl/10.jpg"",""time"":501},{""stimulus"":""img/green_wl/11.jpg"",""time"":551}]","[]"
"image-keyboard-response","70","112866","0.0-5.0-1.33","5ba863a346de410001ecfb2a","bdp_lott","Sun Apr 02 2023 16:13:05 GMT-0400 (Eastern Daylight Time)","547377","green","red","","1165","","","","choice","","img/green_wl/choose11.jpg","1","192","green","0.5","0.5","0.5","l","",""
"animation","71","113476","0.0-5.0-2.33","5ba863a346de410001ecfb2a","bdp_lott","Sun Apr 02 2023 16:13:05 GMT-0400 (Eastern Daylight Time)","547377","green","red","","","","","","","","","","192","","","","","","[{""stimulus"":""img/green_ll/1.jpg"",""time"":52},{""stimulus"":""img/green_ll/2.jpg"",""time"":101},{""stimulus"":""img/green_ll/3.jpg"",""time"":151},{""stimulus"":""img/green_ll/4.jpg"",""time"":207},{""stimulus"":""img/green_ll/5.jpg"",""time"":251},{""stimulus"":""img/green_ll/6.jpg"",""time"":301},{""stimulus"":""img/green_ll/7.jpg"",""time"":351},{""stimulus"":""img/green_ll/8.jpg"",""time"":408},{""stimulus"":""img/green_ll/9.jpg"",""time"":454},{""stimulus"":""img/green_ll/10.jpg"",""time"":501},{""stimulus"":""img/green_ll/11.jpg"",""time"":563}]","[]"
"image-keyboard-response","72","113849","0.0-5.0-1.34","5ba863a346de410001ecfb2a","bdp_lott","Sun Apr 02 2023 16:13:05 GMT-0400 (Eastern Daylight Time)","547377","green","red","","372","","","","choice","","img/green_ll/choose11.jpg","1","191","green","0.5","0.5","0.5","w","",""
"animation","73","114455","0.0-5.0-2.34","5ba863a346de410001ecfb2a","bdp_lott","Sun Apr 02 2023 16:13:05 GMT-0400 (Eastern Daylight Time)","547377","green","red","","","","","","","","","","191","","","","","","[{""stimulus"":""img/green_wl/1.jpg"",""time"":51},{""stimulus"":""img/green_wl/2.jpg"",""time"":102},{""stimulus"":""img/green_wl/3.jpg"",""time"":153},{""stimulus"":""img/green_wl/4.jpg"",""time"":201},{""stimulus"":""img/green_wl/5.jpg"",""time"":251},{""stimulus"":""img/green_wl/6.jpg"",""time"":301},{""stimulus"":""img/green_wl/7.jpg"",""time"":356},{""stimulus"":""img/green_wl/8.jpg"",""time"":402},{""stimulus"":""img/green_wl/9.jpg"",""time"":452},{""stimulus"":""img/green_wl/10.jpg"",""time"":503},{""stimulus"":""img/green_wl/11.jpg"",""time"":550}]","[]"
"image-keyboard-response","74","115114","0.0-5.0-1.35","5ba863a346de410001ecfb2a","bdp_lott","Sun Apr 02 2023 16:13:05 GMT-0400 (Eastern Daylight Time)","547377","green","red","","659","","","","choice","","img/green_wl/choose11.jpg","1","190","green","0.5","0.5","0.5","w","",""
"animation","75","115715","0.0-5.0-2.35","5ba863a346de410001ecfb2a","bdp_lott","Sun Apr 02 2023 16:13:05 GMT-0400 (Eastern Daylight Time)","547377","green","red","","","","","","","","","","190","","","","","","[{""stimulus"":""img/green_wl/1.jpg"",""time"":64},{""stimulus"":""img/green_wl/2.jpg"",""time"":100},{""stimulus"":""img/green_wl/3.jpg"",""time"":151},{""stimulus"":""img/green_wl/4.jpg"",""time"":204},{""stimulus"":""img/green_wl/5.jpg"",""time"":251},{""stimulus"":""img/green_wl/6.jpg"",""time"":300},{""stimulus"":""img/green_wl/7.jpg"",""time"":360},{""stimulus"":""img/green_wl/8.jpg"",""time"":408},{""stimulus"":""img/green_wl/9.jpg"",""time"":454},{""stimulus"":""img/green_wl/10.jpg"",""time"":515},{""stimulus"":""img/green_wl/11.jpg"",""time"":561}]","[]"
"image-keyboard-response","76","116251","0.0-5.0-1.36","5ba863a346de410001ecfb2a","bdp_lott","Sun Apr 02 2023 16:13:05 GMT-0400 (Eastern Daylight Time)","547377","green","red","","535","","","","choice","","img/green_wl/choose11.jpg","1","189","green","0.5","0.5","0.5","w","",""
"animation","77","116853","0.0-5.0-2.36","5ba863a346de410001ecfb2a","bdp_lott","Sun Apr 02 2023 16:13:05 GMT-0400 (Eastern Daylight Time)","547377","green","red","","","","","","","","","","189","","","","","","[{""stimulus"":""img/green_wl/1.jpg"",""time"":61},{""stimulus"":""img/green_wl/2.jpg"",""time"":107},{""stimulus"":""img/green_wl/3.jpg"",""time"":151},{""stimulus"":""img/green_wl/4.jpg"",""time"":201},{""stimulus"":""img/green_wl/5.jpg"",""time"":251},{""stimulus"":""img/green_wl/6.jpg"",""time"":301},{""stimulus"":""img/green_wl/7.jpg"",""time"":351},{""stimulus"":""img/green_wl/8.jpg"",""time"":401},{""stimulus"":""img/green_wl/9.jpg"",""time"":451},{""stimulus"":""img/green_wl/10.jpg"",""time"":507},{""stimulus"":""img/green_wl/11.jpg"",""time"":550}]","[]"
"image-keyboard-response","78","117440","0.0-5.0-1.37","5ba863a346de410001ecfb2a","bdp_lott","Sun Apr 02 2023 16:13:05 GMT-0400 (Eastern Daylight Time)","547377","green","red","","586","","","","choice","","img/green_wl/choose11.jpg","1","188","green","0.5","0.5","0.5","l","",""
"animation","79","118040","0.0-5.0-2.37","5ba863a346de410001ecfb2a","bdp_lott","Sun Apr 02 2023 16:13:05 GMT-0400 (Eastern Daylight Time)","547377","green","red","","","","","","","","","","188","","","","","","[{""stimulus"":""img/green_ll/1.jpg"",""time"":63},{""stimulus"":""img/green_ll/2.jpg"",""time"":100},{""stimulus"":""img/green_ll/3.jpg"",""time"":156},{""stimulus"":""img/green_ll/4.jpg"",""time"":201},{""stimulus"":""img/green_ll/5.jpg"",""time"":251},{""stimulus"":""img/green_ll/6.jpg"",""time"":301},{""stimulus"":""img/green_ll/7.jpg"",""time"":350},{""stimulus"":""img/green_ll/8.jpg"",""time"":401},{""stimulus"":""img/green_ll/9.jpg"",""time"":452},{""stimulus"":""img/green_ll/10.jpg"",""time"":501},{""stimulus"":""img/green_ll/11.jpg"",""time"":550}]","[]"
"image-keyboard-response","80","118720","0.0-5.0-1.38","5ba863a346de410001ecfb2a","bdp_lott","Sun Apr 02 2023 16:13:05 GMT-0400 (Eastern Daylight Time)","547377","green","red","","679","","","","choice","","img/green_ll/choose11.jpg","2","187","red","0.5","0.5","0.5","l","",""
"animation","81","119332","0.0-5.0-2.38","5ba863a346de410001ecfb2a","bdp_lott","Sun Apr 02 2023 16:13:05 GMT-0400 (Eastern Daylight Time)","547377","green","red","","","","","","","","","","187","","","","","","[{""stimulus"":""img/red_ll/1.jpg"",""time"":51},{""stimulus"":""img/red_ll/2.jpg"",""time"":100},{""stimulus"":""img/red_ll/3.jpg"",""time"":163},{""stimulus"":""img/red_ll/4.jpg"",""time"":209},{""stimulus"":""img/red_ll/5.jpg"",""time"":251},{""stimulus"":""img/red_ll/6.jpg"",""time"":301},{""stimulus"":""img/red_ll/7.jpg"",""time"":350},{""stimulus"":""img/red_ll/8.jpg"",""time"":411},{""stimulus"":""img/red_ll/9.jpg"",""time"":451},{""stimulus"":""img/red_ll/10.jpg"",""time"":501},{""stimulus"":""img/red_ll/11.jpg"",""time"":551}]","[]"
"image-keyboard-response","82","119723","0.0-5.0-1.39","5ba863a346de410001ecfb2a","bdp_lott","Sun Apr 02 2023 16:13:05 GMT-0400 (Eastern Daylight Time)","547377","green","red","","390","","","","choice","","img/red_ll/choose11.jpg","2","186","red","0.5","0.5","0.5","l","",""
"animation","83","120327","0.0-5.0-2.39","5ba863a346de410001ecfb2a","bdp_lott","Sun Apr 02 2023 16:13:05 GMT-0400 (Eastern Daylight Time)","547377","green","red","","","","","","","","","","186","","","","","","[{""stimulus"":""img/red_ll/1.jpg"",""time"":57},{""stimulus"":""img/red_ll/2.jpg"",""time"":101},{""stimulus"":""img/red_ll/3.jpg"",""time"":150},{""stimulus"":""img/red_ll/4.jpg"",""time"":200},{""stimulus"":""img/red_ll/5.jpg"",""time"":255},{""stimulus"":""img/red_ll/6.jpg"",""time"":301},{""stimulus"":""img/red_ll/7.jpg"",""time"":350},{""stimulus"":""img/red_ll/8.jpg"",""time"":401},{""stimulus"":""img/red_ll/9.jpg"",""time"":451},{""stimulus"":""img/red_ll/10.jpg"",""time"":512},{""stimulus"":""img/red_ll/11.jpg"",""time"":550}]","[]"
"image-keyboard-response","84","120742","0.0-5.0-1.40","5ba863a346de410001ecfb2a","bdp_lott","Sun Apr 02 2023 16:13:05 GMT-0400 (Eastern Daylight Time)","547377","green","red","","414","","","","choice","","img/red_ll/choose11.jpg","2","185","red","0.5","0.5","0.5","l","",""
"animation","85","121353","0.0-5.0-2.40","5ba863a346de410001ecfb2a","bdp_lott","Sun Apr 02 2023 16:13:05 GMT-0400 (Eastern Daylight Time)","547377","green","red","","","","","","","","","","185","","","","","","[{""stimulus"":""img/red_ll/1.jpg"",""time"":52},{""stimulus"":""img/red_ll/2.jpg"",""time"":101},{""stimulus"":""img/red_ll/3.jpg"",""time"":151},{""stimulus"":""img/red_ll/4.jpg"",""time"":206},{""stimulus"":""img/red_ll/5.jpg"",""time"":251},{""stimulus"":""img/red_ll/6.jpg"",""time"":301},{""stimulus"":""img/red_ll/7.jpg"",""time"":352},{""stimulus"":""img/red_ll/8.jpg"",""time"":410},{""stimulus"":""img/red_ll/9.jpg"",""time"":451},{""stimulus"":""img/red_ll/10.jpg"",""time"":505},{""stimulus"":""img/red_ll/11.jpg"",""time"":552}]","[]"
"image-keyboard-response","86","121818","0.0-5.0-1.41","5ba863a346de410001ecfb2a","bdp_lott","Sun Apr 02 2023 16:13:05 GMT-0400 (Eastern Daylight Time)","547377","green","red","","463","","","","choice","","img/red_ll/choose11.jpg","2","184","red","0.5","0.5","0.5","w","",""
"animation","87","122425","0.0-5.0-2.41","5ba863a346de410001ecfb2a","bdp_lott","Sun Apr 02 2023 16:13:05 GMT-0400 (Eastern Daylight Time)","547377","green","red","","","","","","","","","","184","","","","","","[{""stimulus"":""img/red_lw/1.jpg"",""time"":50},{""stimulus"":""img/red_lw/2.jpg"",""time"":101},{""stimulus"":""img/red_lw/3.jpg"",""time"":150},{""stimulus"":""img/red_lw/4.jpg"",""time"":200},{""stimulus"":""img/red_lw/5.jpg"",""time"":251},{""stimulus"":""img/red_lw/6.jpg"",""time"":301},{""stimulus"":""img/red_lw/7.jpg"",""time"":351},{""stimulus"":""img/red_lw/8.jpg"",""time"":405},{""stimulus"":""img/red_lw/9.jpg"",""time"":451},{""stimulus"":""img/red_lw/10.jpg"",""time"":515},{""stimulus"":""img/red_lw/11.jpg"",""time"":551}]","[]"
"image-keyboard-response","88","122855","0.0-5.0-1.42","5ba863a346de410001ecfb2a","bdp_lott","Sun Apr 02 2023 16:13:05 GMT-0400 (Eastern Daylight Time)","547377","green","red","","429","","","","choice","","img/red_lw/choose11.jpg","2","183","red","0.5","0.5","0.5","w","",""
"animation","89","123456","0.0-5.0-2.42","5ba863a346de410001ecfb2a","bdp_lott","Sun Apr 02 2023 16:13:05 GMT-0400 (Eastern Daylight Time)","547377","green","red","","","","","","","","","","183","","","","","","[{""stimulus"":""img/red_lw/1.jpg"",""time"":51},{""stimulus"":""img/red_lw/2.jpg"",""time"":102},{""stimulus"":""img/red_lw/3.jpg"",""time"":152},{""stimulus"":""img/red_lw/4.jpg"",""time"":208},{""stimulus"":""img/red_lw/5.jpg"",""time"":251},{""stimulus"":""img/red_lw/6.jpg"",""time"":301},{""stimulus"":""img/red_lw/7.jpg"",""time"":351},{""stimulus"":""img/red_lw/8.jpg"",""time"":401},{""stimulus"":""img/red_lw/9.jpg"",""time"":455},{""stimulus"":""img/red_lw/10.jpg"",""time"":500},{""stimulus"":""img/red_lw/11.jpg"",""time"":563}]","[]"
"image-keyboard-response","90","124053","0.0-5.0-1.43","5ba863a346de410001ecfb2a","bdp_lott","Sun Apr 02 2023 16:13:05 GMT-0400 (Eastern Daylight Time)","547377","green","red","","597","","","","choice","","img/red_lw/choose11.jpg","2","182","red","0.5","0.5","0.5","l","",""
"animation","91","124665","0.0-5.0-2.43","5ba863a346de410001ecfb2a","bdp_lott","Sun Apr 02 2023 16:13:05 GMT-0400 (Eastern Daylight Time)","547377","green","red","","","","","","","","","","182","","","","","","[{""stimulus"":""img/red_ll/1.jpg"",""time"":52},{""stimulus"":""img/red_ll/2.jpg"",""time"":101},{""stimulus"":""img/red_ll/3.jpg"",""time"":151},{""stimulus"":""img/red_ll/4.jpg"",""time"":201},{""stimulus"":""img/red_ll/5.jpg"",""time"":251},{""stimulus"":""img/red_ll/6.jpg"",""time"":303},{""stimulus"":""img/red_ll/7.jpg"",""time"":352},{""stimulus"":""img/red_ll/8.jpg"",""time"":412},{""stimulus"":""img/red_ll/9.jpg"",""time"":458},{""stimulus"":""img/red_ll/10.jpg"",""time"":505},{""stimulus"":""img/red_ll/11.jpg"",""time"":566}]","[]"
"image-keyboard-response","92","125013","0.0-5.0-1.44","5ba863a346de410001ecfb2a","bdp_lott","Sun Apr 02 2023 16:13:05 GMT-0400 (Eastern Daylight Time)","547377","green","red","","347","","","","choice","","img/red_ll/choose11.jpg","2","181","red","0.5","0.5","0.5","l","",""
"animation","93","125614","0.0-5.0-2.44","5ba863a346de410001ecfb2a","bdp_lott","Sun Apr 02 2023 16:13:05 GMT-0400 (Eastern Daylight Time)","547377","green","red","","","","","","","","","","181","","","","","","[{""stimulus"":""img/red_ll/1.jpg"",""time"":52},{""stimulus"":""img/red_ll/2.jpg"",""time"":101},{""stimulus"":""img/red_ll/3.jpg"",""time"":165},{""stimulus"":""img/red_ll/4.jpg"",""time"":201},{""stimulus"":""img/red_ll/5.jpg"",""time"":252},{""stimulus"":""img/red_ll/6.jpg"",""time"":302},{""stimulus"":""img/red_ll/7.jpg"",""time"":352},{""stimulus"":""img/red_ll/8.jpg"",""time"":402},{""stimulus"":""img/red_ll/9.jpg"",""time"":452},{""stimulus"":""img/red_ll/10.jpg"",""time"":501},{""stimulus"":""img/red_ll/11.jpg"",""time"":551}]","[]"
"image-keyboard-response","94","125956","0.0-5.0-1.45","5ba863a346de410001ecfb2a","bdp_lott","Sun Apr 02 2023 16:13:05 GMT-0400 (Eastern Daylight Time)","547377","green","red","","341","","","","choice","","img/red_ll/choose11.jpg","2","180","red","0.5","0.5","0.5","l","",""
"animation","95","126556","0.0-5.0-2.45","5ba863a346de410001ecfb2a","bdp_lott","Sun Apr 02 2023 16:13:05 GMT-0400 (Eastern Daylight Time)","547377","green","red","","","","","","","","","","180","","","","","","[{""stimulus"":""img/red_ll/1.jpg"",""time"":59},{""stimulus"":""img/red_ll/2.jpg"",""time"":101},{""stimulus"":""img/red_ll/3.jpg"",""time"":151},{""stimulus"":""img/red_ll/4.jpg"",""time"":201},{""stimulus"":""img/red_ll/5.jpg"",""time"":252},{""stimulus"":""img/red_ll/6.jpg"",""time"":307},{""stimulus"":""img/red_ll/7.jpg"",""time"":353},{""stimulus"":""img/red_ll/8.jpg"",""time"":401},{""stimulus"":""img/red_ll/9.jpg"",""time"":451},{""stimulus"":""img/red_ll/10.jpg"",""time"":501},{""stimulus"":""img/red_ll/11.jpg"",""time"":551}]","[]"
"image-keyboard-response","96","127020","0.0-5.0-1.46","5ba863a346de410001ecfb2a","bdp_lott","Sun Apr 02 2023 16:13:05 GMT-0400 (Eastern Daylight Time)","547377","green","red","","463","","","","choice","","img/red_ll/choose11.jpg","2","179","red","0.5","0.5","0.5","w","",""
"animation","97","127630","0.0-5.0-2.46","5ba863a346de410001ecfb2a","bdp_lott","Sun Apr 02 2023 16:13:05 GMT-0400 (Eastern Daylight Time)","547377","green","red","","","","","","","","","","179","","","","","","[{""stimulus"":""img/red_lw/1.jpg"",""time"":51},{""stimulus"":""img/red_lw/2.jpg"",""time"":102},{""stimulus"":""img/red_lw/3.jpg"",""time"":161},{""stimulus"":""img/red_lw/4.jpg"",""time"":201},{""stimulus"":""img/red_lw/5.jpg"",""time"":254},{""stimulus"":""img/red_lw/6.jpg"",""time"":301},{""stimulus"":""img/red_lw/7.jpg"",""time"":352},{""stimulus"":""img/red_lw/8.jpg"",""time"":401},{""stimulus"":""img/red_lw/9.jpg"",""time"":455},{""stimulus"":""img/red_lw/10.jpg"",""time"":501},{""stimulus"":""img/red_lw/11.jpg"",""time"":551}]","[]"
"image-keyboard-response","98","128035","0.0-5.0-1.47","5ba863a346de410001ecfb2a","bdp_lott","Sun Apr 02 2023 16:13:05 GMT-0400 (Eastern Daylight Time)","547377","green","red","","404","","","","choice","","img/red_lw/choose11.jpg","1","178","green","0.5","0.5","0.5","l","",""
"animation","99","128636","0.0-5.0-2.47","5ba863a346de410001ecfb2a","bdp_lott","Sun Apr 02 2023 16:13:05 GMT-0400 (Eastern Daylight Time)","547377","green","red","","","","","","","","","","178","","","","","","[{""stimulus"":""img/green_lw/1.jpg"",""time"":51},{""stimulus"":""img/green_lw/2.jpg"",""time"":101},{""stimulus"":""img/green_lw/3.jpg"",""time"":152},{""stimulus"":""img/green_lw/4.jpg"",""time"":201},{""stimulus"":""img/green_lw/5.jpg"",""time"":263},{""stimulus"":""img/green_lw/6.jpg"",""time"":302},{""stimulus"":""img/green_lw/7.jpg"",""time"":352},{""stimulus"":""img/green_lw/8.jpg"",""time"":401},{""stimulus"":""img/green_lw/9.jpg"",""time"":465},{""stimulus"":""img/green_lw/10.jpg"",""time"":510},{""stimulus"":""img/green_lw/11.jpg"",""time"":558}]","[]"
"image-keyboard-response","100","129057","0.0-5.0-1.48","5ba863a346de410001ecfb2a","bdp_lott","Sun Apr 02 2023 16:13:05 GMT-0400 (Eastern Daylight Time)","547377","green","red","","420","","","","choice","","img/green_lw/choose11.jpg","1","177","green","0.5","0.5","0.5","l","",""
"animation","101","129660","0.0-5.0-2.48","5ba863a346de410001ecfb2a","bdp_lott","Sun Apr 02 2023 16:13:05 GMT-0400 (Eastern Daylight Time)","547377","green","red","","","","","","","","","","177","","","","","","[{""stimulus"":""img/green_lw/1.jpg"",""time"":51},{""stimulus"":""img/green_lw/2.jpg"",""time"":107},{""stimulus"":""img/green_lw/3.jpg"",""time"":150},{""stimulus"":""img/green_lw/4.jpg"",""time"":215},{""stimulus"":""img/green_lw/5.jpg"",""time"":261},{""stimulus"":""img/green_lw/6.jpg"",""time"":302},{""stimulus"":""img/green_lw/7.jpg"",""time"":351},{""stimulus"":""img/green_lw/8.jpg"",""time"":402},{""stimulus"":""img/green_lw/9.jpg"",""time"":451},{""stimulus"":""img/green_lw/10.jpg"",""time"":509},{""stimulus"":""img/green_lw/11.jpg"",""time"":551}]","[]"
"image-keyboard-response","102","130197","0.0-5.0-1.49","5ba863a346de410001ecfb2a","bdp_lott","Sun Apr 02 2023 16:13:05 GMT-0400 (Eastern Daylight Time)","547377","green","red","","536","","","","choice","","img/green_lw/choose11.jpg","1","176","green","0.5","0.5","0.5","w","",""
"animation","103","130798","0.0-5.0-2.49","5ba863a346de410001ecfb2a","bdp_lott","Sun Apr 02 2023 16:13:05 GMT-0400 (Eastern Daylight Time)","547377","green","red","","","","","","","","","","176","","","","","","[{""stimulus"":""img/green_ww/1.jpg"",""time"":51},{""stimulus"":""img/green_ww/2.jpg"",""time"":101},{""stimulus"":""img/green_ww/3.jpg"",""time"":162},{""stimulus"":""img/green_ww/4.jpg"",""time"":201},{""stimulus"":""img/green_ww/5.jpg"",""time"":251},{""stimulus"":""img/green_ww/6.jpg"",""time"":301},{""stimulus"":""img/green_ww/7.jpg"",""time"":356},{""stimulus"":""img/green_ww/8.jpg"",""time"":410},{""stimulus"":""img/green_ww/9.jpg"",""time"":455},{""stimulus"":""img/green_ww/10.jpg"",""time"":502},{""stimulus"":""img/green_ww/11.jpg"",""time"":551}]","[]"
"image-keyboard-response","104","131375","0.0-5.0-1.50","5ba863a346de410001ecfb2a","bdp_lott","Sun Apr 02 2023 16:13:05 GMT-0400 (Eastern Daylight Time)","547377","green","red","","577","","","","choice","","img/green_ww/choose11.jpg","1","175","green","0.5","0.5","0.5","l","",""
"animation","105","131976","0.0-5.0-2.50","5ba863a346de410001ecfb2a","bdp_lott","Sun Apr 02 2023 16:13:05 GMT-0400 (Eastern Daylight Time)","547377","green","red","","","","","","","","","","175","","","","","","[{""stimulus"":""img/green_lw/1.jpg"",""time"":51},{""stimulus"":""img/green_lw/2.jpg"",""time"":111},{""stimulus"":""img/green_lw/3.jpg"",""time"":151},{""stimulus"":""img/green_lw/4.jpg"",""time"":201},{""stimulus"":""img/green_lw/5.jpg"",""time"":252},{""stimulus"":""img/green_lw/6.jpg"",""time"":301},{""stimulus"":""img/green_lw/7.jpg"",""time"":351},{""stimulus"":""img/green_lw/8.jpg"",""time"":401},{""stimulus"":""img/green_lw/9.jpg"",""time"":451},{""stimulus"":""img/green_lw/10.jpg"",""time"":501},{""stimulus"":""img/green_lw/11.jpg"",""time"":564}]","[]"
"image-keyboard-response","106","132511","0.0-5.0-1.51","5ba863a346de410001ecfb2a","bdp_lott","Sun Apr 02 2023 16:13:05 GMT-0400 (Eastern Daylight Time)","547377","green","red","","534","","","","choice","","img/green_lw/choose11.jpg","1","174","green","0.5","0.5","0.5","l","",""
"animation","107","133112","0.0-5.0-2.51","5ba863a346de410001ecfb2a","bdp_lott","Sun Apr 02 2023 16:13:05 GMT-0400 (Eastern Daylight Time)","547377","green","red","","","","","","","","","","174","","","","","","[{""stimulus"":""img/green_lw/1.jpg"",""time"":64},{""stimulus"":""img/green_lw/2.jpg"",""time"":101},{""stimulus"":""img/green_lw/3.jpg"",""time"":152},{""stimulus"":""img/green_lw/4.jpg"",""time"":202},{""stimulus"":""img/green_lw/5.jpg"",""time"":252},{""stimulus"":""img/green_lw/6.jpg"",""time"":302},{""stimulus"":""img/green_lw/7.jpg"",""time"":352},{""stimulus"":""img/green_lw/8.jpg"",""time"":402},{""stimulus"":""img/green_lw/9.jpg"",""time"":451},{""stimulus"":""img/green_lw/10.jpg"",""time"":501},{""stimulus"":""img/green_lw/11.jpg"",""time"":552}]","[]"
"image-keyboard-response","108","133578","0.0-5.0-1.52","5ba863a346de410001ecfb2a","bdp_lott","Sun Apr 02 2023 16:13:05 GMT-0400 (Eastern Daylight Time)","547377","green","red","","465","","","","choice","","img/green_lw/choose11.jpg","2","173","red","0.5","0.5","0.5","l","",""
"animation","109","134178","0.0-5.0-2.52","5ba863a346de410001ecfb2a","bdp_lott","Sun Apr 02 2023 16:13:05 GMT-0400 (Eastern Daylight Time)","547377","green","red","","","","","","","","","","173","","","","","","[{""stimulus"":""img/red_ll/1.jpg"",""time"":51},{""stimulus"":""img/red_ll/2.jpg"",""time"":101},{""stimulus"":""img/red_ll/3.jpg"",""time"":151},{""stimulus"":""img/red_ll/4.jpg"",""time"":212},{""stimulus"":""img/red_ll/5.jpg"",""time"":252},{""stimulus"":""img/red_ll/6.jpg"",""time"":301},{""stimulus"":""img/red_ll/7.jpg"",""time"":351},{""stimulus"":""img/red_ll/8.jpg"",""time"":401},{""stimulus"":""img/red_ll/9.jpg"",""time"":461},{""stimulus"":""img/red_ll/10.jpg"",""time"":501},{""stimulus"":""img/red_ll/11.jpg"",""time"":551}]","[]"
"image-keyboard-response","110","134712","0.0-5.0-1.53","5ba863a346de410001ecfb2a","bdp_lott","Sun Apr 02 2023 16:13:05 GMT-0400 (Eastern Daylight Time)","547377","green","red","","533","","","","choice","","img/red_ll/choose11.jpg","2","172","red","0.5","0.5","0.5","l","",""
"animation","111","135313","0.0-5.0-2.53","5ba863a346de410001ecfb2a","bdp_lott","Sun Apr 02 2023 16:13:05 GMT-0400 (Eastern Daylight Time)","547377","green","red","","","","","","","","","","172","","","","","","[{""stimulus"":""img/red_ll/1.jpg"",""time"":52},{""stimulus"":""img/red_ll/2.jpg"",""time"":101},{""stimulus"":""img/red_ll/3.jpg"",""time"":160},{""stimulus"":""img/red_ll/4.jpg"",""time"":210},{""stimulus"":""img/red_ll/5.jpg"",""time"":251},{""stimulus"":""img/red_ll/6.jpg"",""time"":305},{""stimulus"":""img/red_ll/7.jpg"",""time"":351},{""stimulus"":""img/red_ll/8.jpg"",""time"":401},{""stimulus"":""img/red_ll/9.jpg"",""time"":459},{""stimulus"":""img/red_ll/10.jpg"",""time"":505},{""stimulus"":""img/red_ll/11.jpg"",""time"":551}]","[]"
"image-keyboard-response","112","135816","0.0-5.0-1.54","5ba863a346de410001ecfb2a","bdp_lott","Sun Apr 02 2023 16:13:05 GMT-0400 (Eastern Daylight Time)","547377","green","red","","502","","","","choice","","img/red_ll/choose11.jpg","2","171","red","0.5","0.5","0.5","l","",""
"animation","113","136421","0.0-5.0-2.54","5ba863a346de410001ecfb2a","bdp_lott","Sun Apr 02 2023 16:13:05 GMT-0400 (Eastern Daylight Time)","547377","green","red","","","","","","","","","","171","","","","","","[{""stimulus"":""img/red_ll/1.jpg"",""time"":51},{""stimulus"":""img/red_ll/2.jpg"",""time"":101},{""stimulus"":""img/red_ll/3.jpg"",""time"":161},{""stimulus"":""img/red_ll/4.jpg"",""time"":208},{""stimulus"":""img/red_ll/5.jpg"",""time"":251},{""stimulus"":""img/red_ll/6.jpg"",""time"":301},{""stimulus"":""img/red_ll/7.jpg"",""time"":351},{""stimulus"":""img/red_ll/8.jpg"",""time"":401},{""stimulus"":""img/red_ll/9.jpg"",""time"":451},{""stimulus"":""img/red_ll/10.jpg"",""time"":501},{""stimulus"":""img/red_ll/11.jpg"",""time"":551}]","[]"
"image-keyboard-response","114","137090","0.0-5.0-1.55","5ba863a346de410001ecfb2a","bdp_lott","Sun Apr 02 2023 16:13:05 GMT-0400 (Eastern Daylight Time)","547377","green","red","","669","","","","choice","","img/red_ll/choose11.jpg","1","170","green","0.5","0.5","0.5","l","",""
"animation","115","137690","0.0-5.0-2.55","5ba863a346de410001ecfb2a","bdp_lott","Sun Apr 02 2023 16:13:05 GMT-0400 (Eastern Daylight Time)","547377","green","red","","","","","","","","","","170","","","","","","[{""stimulus"":""img/green_ll/1.jpg"",""time"":51},{""stimulus"":""img/green_ll/2.jpg"",""time"":101},{""stimulus"":""img/green_ll/3.jpg"",""time"":151},{""stimulus"":""img/green_ll/4.jpg"",""time"":202},{""stimulus"":""img/green_ll/5.jpg"",""time"":260},{""stimulus"":""img/green_ll/6.jpg"",""time"":312},{""stimulus"":""img/green_ll/7.jpg"",""time"":351},{""stimulus"":""img/green_ll/8.jpg"",""time"":401},{""stimulus"":""img/green_ll/9.jpg"",""time"":451},{""stimulus"":""img/green_ll/10.jpg"",""time"":502},{""stimulus"":""img/green_ll/11.jpg"",""time"":551}]","[]"
"image-keyboard-response","116","138135","0.0-5.0-1.56","5ba863a346de410001ecfb2a","bdp_lott","Sun Apr 02 2023 16:13:05 GMT-0400 (Eastern Daylight Time)","547377","green","red","","444","","","","choice","","img/green_ll/choose11.jpg","1","169","green","0.5","0.5","0.5","l","",""
"animation","117","138744","0.0-5.0-2.56","5ba863a346de410001ecfb2a","bdp_lott","Sun Apr 02 2023 16:13:05 GMT-0400 (Eastern Daylight Time)","547377","green","red","","","","","","","","","","169","","","","","","[{""stimulus"":""img/green_ll/1.jpg"",""time"":52},{""stimulus"":""img/green_ll/2.jpg"",""time"":101},{""stimulus"":""img/green_ll/3.jpg"",""time"":161},{""stimulus"":""img/green_ll/4.jpg"",""time"":201},{""stimulus"":""img/green_ll/5.jpg"",""time"":253},{""stimulus"":""img/green_ll/6.jpg"",""time"":302},{""stimulus"":""img/green_ll/7.jpg"",""time"":351},{""stimulus"":""img/green_ll/8.jpg"",""time"":401},{""stimulus"":""img/green_ll/9.jpg"",""time"":451},{""stimulus"":""img/green_ll/10.jpg"",""time"":516},{""stimulus"":""img/green_ll/11.jpg"",""time"":551}]","[]"
"image-keyboard-response","118","139273","0.0-5.0-1.57","5ba863a346de410001ecfb2a","bdp_lott","Sun Apr 02 2023 16:13:05 GMT-0400 (Eastern Daylight Time)","547377","green","red","","528","","","","choice","","img/green_ll/choose11.jpg","1","168","green","0.5","0.5","0.5","l","",""
"animation","119","139875","0.0-5.0-2.57","5ba863a346de410001ecfb2a","bdp_lott","Sun Apr 02 2023 16:13:05 GMT-0400 (Eastern Daylight Time)","547377","green","red","","","","","","","","","","168","","","","","","[{""stimulus"":""img/green_ll/1.jpg"",""time"":52},{""stimulus"":""img/green_ll/2.jpg"",""time"":106},{""stimulus"":""img/green_ll/3.jpg"",""time"":152},{""stimulus"":""img/green_ll/4.jpg"",""time"":213},{""stimulus"":""img/green_ll/5.jpg"",""time"":251},{""stimulus"":""img/green_ll/6.jpg"",""time"":301},{""stimulus"":""img/green_ll/7.jpg"",""time"":351},{""stimulus"":""img/green_ll/8.jpg"",""time"":411},{""stimulus"":""img/green_ll/9.jpg"",""time"":461},{""stimulus"":""img/green_ll/10.jpg"",""time"":511},{""stimulus"":""img/green_ll/11.jpg"",""time"":556}]","[]"
"image-keyboard-response","120","140376","0.0-5.0-1.58","5ba863a346de410001ecfb2a","bdp_lott","Sun Apr 02 2023 16:13:05 GMT-0400 (Eastern Daylight Time)","547377","green","red","","500","","","","choice","","img/green_ll/choose11.jpg","1","167","green","0.5","0.5","0.5","w","",""
"animation","121","140980","0.0-5.0-2.58","5ba863a346de410001ecfb2a","bdp_lott","Sun Apr 02 2023 16:13:05 GMT-0400 (Eastern Daylight Time)","547377","green","red","","","","","","","","","","167","","","","","","[{""stimulus"":""img/green_wl/1.jpg"",""time"":51},{""stimulus"":""img/green_wl/2.jpg"",""time"":101},{""stimulus"":""img/green_wl/3.jpg"",""time"":152},{""stimulus"":""img/green_wl/4.jpg"",""time"":216},{""stimulus"":""img/green_wl/5.jpg"",""time"":262},{""stimulus"":""img/green_wl/6.jpg"",""time"":307},{""stimulus"":""img/green_wl/7.jpg"",""time"":355},{""stimulus"":""img/green_wl/8.jpg"",""time"":401},{""stimulus"":""img/green_wl/9.jpg"",""time"":451},{""stimulus"":""img/green_wl/10.jpg"",""time"":501},{""stimulus"":""img/green_wl/11.jpg"",""time"":551}]","[]"
"image-keyboard-response","122","141521","0.0-5.0-1.59","5ba863a346de410001ecfb2a","bdp_lott","Sun Apr 02 2023 16:13:05 GMT-0400 (Eastern Daylight Time)","547377","green","red","","540","","","","choice","","img/green_wl/choose11.jpg","2","166","red","0.5","0.5","0.5","l","",""
"animation","123","142123","0.0-5.0-2.59","5ba863a346de410001ecfb2a","bdp_lott","Sun Apr 02 2023 16:13:05 GMT-0400 (Eastern Daylight Time)","547377","green","red","","","","","","","","","","166","","","","","","[{""stimulus"":""img/red_wl/1.jpg"",""time"":52},{""stimulus"":""img/red_wl/2.jpg"",""time"":112},{""stimulus"":""img/red_wl/3.jpg"",""time"":150},{""stimulus"":""img/red_wl/4.jpg"",""time"":200},{""stimulus"":""img/red_wl/5.jpg"",""time"":253},{""stimulus"":""img/red_wl/6.jpg"",""time"":300},{""stimulus"":""img/red_wl/7.jpg"",""time"":351},{""stimulus"":""img/red_wl/8.jpg"",""time"":407},{""stimulus"":""img/red_wl/9.jpg"",""time"":454},{""stimulus"":""img/red_wl/10.jpg"",""time"":515},{""stimulus"":""img/red_wl/11.jpg"",""time"":551}]","[]"
"image-keyboard-response","124","142609","0.0-5.0-1.60","5ba863a346de410001ecfb2a","bdp_lott","Sun Apr 02 2023 16:13:05 GMT-0400 (Eastern Daylight Time)","547377","green","red","","485","","","","choice","","img/red_wl/choose11.jpg","2","165","red","0.5","0.5","0.5","l","",""
"animation","125","143210","0.0-5.0-2.60","5ba863a346de410001ecfb2a","bdp_lott","Sun Apr 02 2023 16:13:05 GMT-0400 (Eastern Daylight Time)","547377","green","red","","","","","","","","","","165","","","","","","[{""stimulus"":""img/red_wl/1.jpg"",""time"":52},{""stimulus"":""img/red_wl/2.jpg"",""time"":101},{""stimulus"":""img/red_wl/3.jpg"",""time"":151},{""stimulus"":""img/red_wl/4.jpg"",""time"":205},{""stimulus"":""img/red_wl/5.jpg"",""time"":252},{""stimulus"":""img/red_wl/6.jpg"",""time"":304},{""stimulus"":""img/red_wl/7.jpg"",""time"":351},{""stimulus"":""img/red_wl/8.jpg"",""time"":402},{""stimulus"":""img/red_wl/9.jpg"",""time"":450},{""stimulus"":""img/red_wl/10.jpg"",""time"":501},{""stimulus"":""img/red_wl/11.jpg"",""time"":562}]","[]"
"image-keyboard-response","126","143813","0.0-5.0-1.61","5ba863a346de410001ecfb2a","bdp_lott","Sun Apr 02 2023 16:13:05 GMT-0400 (Eastern Daylight Time)","547377","green","red","","602","","","","choice","","img/red_wl/choose11.jpg","2","164","red","0.5","0.5","0.5","w","",""
"animation","127","144413","0.0-5.0-2.61","5ba863a346de410001ecfb2a","bdp_lott","Sun Apr 02 2023 16:13:05 GMT-0400 (Eastern Daylight Time)","547377","green","red","","","","","","","","","","164","","","","","","[{""stimulus"":""img/red_ww/1.jpg"",""time"":51},{""stimulus"":""img/red_ww/2.jpg"",""time"":104},{""stimulus"":""img/red_ww/3.jpg"",""time"":152},{""stimulus"":""img/red_ww/4.jpg"",""time"":202},{""stimulus"":""img/red_ww/5.jpg"",""time"":251},{""stimulus"":""img/red_ww/6.jpg"",""time"":301},{""stimulus"":""img/red_ww/7.jpg"",""time"":351},{""stimulus"":""img/red_ww/8.jpg"",""time"":401},{""stimulus"":""img/red_ww/9.jpg"",""time"":451},{""stimulus"":""img/red_ww/10.jpg"",""time"":501},{""stimulus"":""img/red_ww/11.jpg"",""time"":551}]","[]"
"image-keyboard-response","128","144831","0.0-5.0-1.62","5ba863a346de410001ecfb2a","bdp_lott","Sun Apr 02 2023 16:13:05 GMT-0400 (Eastern Daylight Time)","547377","green","red","","417","","","","choice","","img/red_ww/choose11.jpg","2","163","red","0.5","0.5","0.5","l","",""
"animation","129","145433","0.0-5.0-2.62","5ba863a346de410001ecfb2a","bdp_lott","Sun Apr 02 2023 16:13:05 GMT-0400 (Eastern Daylight Time)","547377","green","red","","","","","","","","","","163","","","","","","[{""stimulus"":""img/red_wl/1.jpg"",""time"":65},{""stimulus"":""img/red_wl/2.jpg"",""time"":102},{""stimulus"":""img/red_wl/3.jpg"",""time"":151},{""stimulus"":""img/red_wl/4.jpg"",""time"":202},{""stimulus"":""img/red_wl/5.jpg"",""time"":252},{""stimulus"":""img/red_wl/6.jpg"",""time"":302},{""stimulus"":""img/red_wl/7.jpg"",""time"":352},{""stimulus"":""img/red_wl/8.jpg"",""time"":401},{""stimulus"":""img/red_wl/9.jpg"",""time"":453},{""stimulus"":""img/red_wl/10.jpg"",""time"":515},{""stimulus"":""img/red_wl/11.jpg"",""time"":558}]","[]"
"image-keyboard-response","130","145995","0.0-5.0-1.63","5ba863a346de410001ecfb2a","bdp_lott","Sun Apr 02 2023 16:13:05 GMT-0400 (Eastern Daylight Time)","547377","green","red","","562","","","","choice","","img/red_wl/choose11.jpg","1","162","green","0.5","0.5","0.5","l","",""
"animation","131","146604","0.0-5.0-2.63","5ba863a346de410001ecfb2a","bdp_lott","Sun Apr 02 2023 16:13:05 GMT-0400 (Eastern Daylight Time)","547377","green","red","","","","","","","","","","162","","","","","","[{""stimulus"":""img/green_ll/1.jpg"",""time"":52},{""stimulus"":""img/green_ll/2.jpg"",""time"":114},{""stimulus"":""img/green_ll/3.jpg"",""time"":161},{""stimulus"":""img/green_ll/4.jpg"",""time"":208},{""stimulus"":""img/green_ll/5.jpg"",""time"":255},{""stimulus"":""img/green_ll/6.jpg"",""time"":301},{""stimulus"":""img/green_ll/7.jpg"",""time"":364},{""stimulus"":""img/green_ll/8.jpg"",""time"":401},{""stimulus"":""img/green_ll/9.jpg"",""time"":451},{""stimulus"":""img/green_ll/10.jpg"",""time"":502},{""stimulus"":""img/green_ll/11.jpg"",""time"":564}]","[]"
"image-keyboard-response","132","146904","0.0-5.0-1.64","5ba863a346de410001ecfb2a","bdp_lott","Sun Apr 02 2023 16:13:05 GMT-0400 (Eastern Daylight Time)","547377","green","red","","299","","","","choice","","img/green_ll/choose11.jpg","1","161","green","0.5","0.5","0.5","w","",""
"animation","133","147504","0.0-5.0-2.64","5ba863a346de410001ecfb2a","bdp_lott","Sun Apr 02 2023 16:13:05 GMT-0400 (Eastern Daylight Time)","547377","green","red","","","","","","","","","","161","","","","","","[{""stimulus"":""img/green_wl/1.jpg"",""time"":56},{""stimulus"":""img/green_wl/2.jpg"",""time"":105},{""stimulus"":""img/green_wl/3.jpg"",""time"":152},{""stimulus"":""img/green_wl/4.jpg"",""time"":202},{""stimulus"":""img/green_wl/5.jpg"",""time"":256},{""stimulus"":""img/green_wl/6.jpg"",""time"":306},{""stimulus"":""img/green_wl/7.jpg"",""time"":351},{""stimulus"":""img/green_wl/8.jpg"",""time"":402},{""stimulus"":""img/green_wl/9.jpg"",""time"":463},{""stimulus"":""img/green_wl/10.jpg"",""time"":501},{""stimulus"":""img/green_wl/11.jpg"",""time"":551}]","[]"
"image-keyboard-response","134","147948","0.0-5.0-1.65","5ba863a346de410001ecfb2a","bdp_lott","Sun Apr 02 2023 16:13:05 GMT-0400 (Eastern Daylight Time)","547377","green","red","","443","","","","choice","","img/green_wl/choose11.jpg","1","160","green","0.5","0.5","0.5","l","",""
"animation","135","148549","0.0-5.0-2.65","5ba863a346de410001ecfb2a","bdp_lott","Sun Apr 02 2023 16:13:05 GMT-0400 (Eastern Daylight Time)","547377","green","red","","","","","","","","","","160","","","","","","[{""stimulus"":""img/green_ll/1.jpg"",""time"":52},{""stimulus"":""img/green_ll/2.jpg"",""time"":102},{""stimulus"":""img/green_ll/3.jpg"",""time"":161},{""stimulus"":""img/green_ll/4.jpg"",""time"":211},{""stimulus"":""img/green_ll/5.jpg"",""time"":258},{""stimulus"":""img/green_ll/6.jpg"",""time"":304},{""stimulus"":""img/green_ll/7.jpg"",""time"":351},{""stimulus"":""img/green_ll/8.jpg"",""time"":401},{""stimulus"":""img/green_ll/9.jpg"",""time"":454},{""stimulus"":""img/green_ll/10.jpg"",""time"":505},{""stimulus"":""img/green_ll/11.jpg"",""time"":552}]","[]"
"image-keyboard-response","136","149068","0.0-5.0-1.66","5ba863a346de410001ecfb2a","bdp_lott","Sun Apr 02 2023 16:13:05 GMT-0400 (Eastern Daylight Time)","547377","green","red","","518","","","","choice","","img/green_ll/choose11.jpg","1","159","green","0.5","0.5","0.5","w","",""
"animation","137","149674","0.0-5.0-2.66","5ba863a346de410001ecfb2a","bdp_lott","Sun Apr 02 2023 16:13:05 GMT-0400 (Eastern Daylight Time)","547377","green","red","","","","","","","","","","159","","","","","","[{""stimulus"":""img/green_wl/1.jpg"",""time"":51},{""stimulus"":""img/green_wl/2.jpg"",""time"":101},{""stimulus"":""img/green_wl/3.jpg"",""time"":151},{""stimulus"":""img/green_wl/4.jpg"",""time"":201},{""stimulus"":""img/green_wl/5.jpg"",""time"":255},{""stimulus"":""img/green_wl/6.jpg"",""time"":301},{""stimulus"":""img/green_wl/7.jpg"",""time"":351},{""stimulus"":""img/green_wl/8.jpg"",""time"":401},{""stimulus"":""img/green_wl/9.jpg"",""time"":451},{""stimulus"":""img/green_wl/10.jpg"",""time"":501},{""stimulus"":""img/green_wl/11.jpg"",""time"":564}]","[]"
"image-keyboard-response","138","150072","0.0-5.0-1.67","5ba863a346de410001ecfb2a","bdp_lott","Sun Apr 02 2023 16:13:05 GMT-0400 (Eastern Daylight Time)","547377","green","red","","397","","","","choice","","img/green_wl/choose11.jpg","2","158","red","0.5","0.5","0.5","l","",""
"animation","139","150673","0.0-5.0-2.67","5ba863a346de410001ecfb2a","bdp_lott","Sun Apr 02 2023 16:13:05 GMT-0400 (Eastern Daylight Time)","547377","green","red","","","","","","","","","","158","","","","","","[{""stimulus"":""img/red_wl/1.jpg"",""time"":53},{""stimulus"":""img/red_wl/2.jpg"",""time"":102},{""stimulus"":""img/red_wl/3.jpg"",""time"":151},{""stimulus"":""img/red_wl/4.jpg"",""time"":201},{""stimulus"":""img/red_wl/5.jpg"",""time"":252},{""stimulus"":""img/red_wl/6.jpg"",""time"":302},{""stimulus"":""img/red_wl/7.jpg"",""time"":351},{""stimulus"":""img/red_wl/8.jpg"",""time"":401},{""stimulus"":""img/red_wl/9.jpg"",""time"":451},{""stimulus"":""img/red_wl/10.jpg"",""time"":501},{""stimulus"":""img/red_wl/11.jpg"",""time"":551}]","[]"
"image-keyboard-response","140","174112","0.0-5.0-1.68","5ba863a346de410001ecfb2a","bdp_lott","Sun Apr 02 2023 16:13:05 GMT-0400 (Eastern Daylight Time)","547377","green","red","","23437","","","","choice","","img/red_wl/choose11.jpg","1","157","green","0.5","0.5","0.5","w","",""
"animation","141","174718","0.0-5.0-2.68","5ba863a346de410001ecfb2a","bdp_lott","Sun Apr 02 2023 16:13:05 GMT-0400 (Eastern Daylight Time)","547377","green","red","","","","","","","","","","157","","","","","","[{""stimulus"":""img/green_wl/1.jpg"",""time"":63},{""stimulus"":""img/green_wl/2.jpg"",""time"":105},{""stimulus"":""img/green_wl/3.jpg"",""time"":155},{""stimulus"":""img/green_wl/4.jpg"",""time"":202},{""stimulus"":""img/green_wl/5.jpg"",""time"":265},{""stimulus"":""img/green_wl/6.jpg"",""time"":301},{""stimulus"":""img/green_wl/7.jpg"",""time"":351},{""stimulus"":""img/green_wl/8.jpg"",""time"":404},{""stimulus"":""img/green_wl/9.jpg"",""time"":452},{""stimulus"":""img/green_wl/10.jpg"",""time"":513},{""stimulus"":""img/green_wl/11.jpg"",""time"":559}]","[]"
"image-keyboard-response","142","175108","0.0-5.0-1.69","5ba863a346de410001ecfb2a","bdp_lott","Sun Apr 02 2023 16:13:05 GMT-0400 (Eastern Daylight Time)","547377","green","red","","389","","","","choice","","img/green_wl/choose11.jpg","1","156","green","0.5","0.5","0.5","w","",""
"animation","143","175710","0.0-5.0-2.69","5ba863a346de410001ecfb2a","bdp_lott","Sun Apr 02 2023 16:13:05 GMT-0400 (Eastern Daylight Time)","547377","green","red","","","","","","","","","","156","","","","","","[{""stimulus"":""img/green_wl/1.jpg"",""time"":57},{""stimulus"":""img/green_wl/2.jpg"",""time"":103},{""stimulus"":""img/green_wl/3.jpg"",""time"":150},{""stimulus"":""img/green_wl/4.jpg"",""time"":201},{""stimulus"":""img/green_wl/5.jpg"",""time"":253},{""stimulus"":""img/green_wl/6.jpg"",""time"":306},{""stimulus"":""img/green_wl/7.jpg"",""time"":351},{""stimulus"":""img/green_wl/8.jpg"",""time"":401},{""stimulus"":""img/green_wl/9.jpg"",""time"":451},{""stimulus"":""img/green_wl/10.jpg"",""time"":508},{""stimulus"":""img/green_wl/11.jpg"",""time"":551}]","[]"
"image-keyboard-response","144","176099","0.0-5.0-1.70","5ba863a346de410001ecfb2a","bdp_lott","Sun Apr 02 2023 16:13:05 GMT-0400 (Eastern Daylight Time)","547377","green","red","","388","","","","choice","","img/green_wl/choose11.jpg","1","155","green","0.5","0.5","0.5","l","",""
"animation","145","176699","0.0-5.0-2.70","5ba863a346de410001ecfb2a","bdp_lott","Sun Apr 02 2023 16:13:05 GMT-0400 (Eastern Daylight Time)","547377","green","red","","","","","","","","","","155","","","","","","[{""stimulus"":""img/green_ll/1.jpg"",""time"":62},{""stimulus"":""img/green_ll/2.jpg"",""time"":109},{""stimulus"":""img/green_ll/3.jpg"",""time"":151},{""stimulus"":""img/green_ll/4.jpg"",""time"":201},{""stimulus"":""img/green_ll/5.jpg"",""time"":266},{""stimulus"":""img/green_ll/6.jpg"",""time"":313},{""stimulus"":""img/green_ll/7.jpg"",""time"":359},{""stimulus"":""img/green_ll/8.jpg"",""time"":406},{""stimulus"":""img/green_ll/9.jpg"",""time"":451},{""stimulus"":""img/green_ll/10.jpg"",""time"":515},{""stimulus"":""img/green_ll/11.jpg"",""time"":551}]","[]"
"image-keyboard-response","146","176898","0.0-5.0-1.71","5ba863a346de410001ecfb2a","bdp_lott","Sun Apr 02 2023 16:13:05 GMT-0400 (Eastern Daylight Time)","547377","green","red","","198","","","","choice","","img/green_ll/choose11.jpg","2","154","red","0.5","0.5","0.5","l","",""
"animation","147","177501","0.0-5.0-2.71","5ba863a346de410001ecfb2a","bdp_lott","Sun Apr 02 2023 16:13:05 GMT-0400 (Eastern Daylight Time)","547377","green","red","","","","","","","","","","154","","","","","","[{""stimulus"":""img/red_ll/1.jpg"",""time"":58},{""stimulus"":""img/red_ll/2.jpg"",""time"":104},{""stimulus"":""img/red_ll/3.jpg"",""time"":166},{""stimulus"":""img/red_ll/4.jpg"",""time"":200},{""stimulus"":""img/red_ll/5.jpg"",""time"":251},{""stimulus"":""img/red_ll/6.jpg"",""time"":302},{""stimulus"":""img/red_ll/7.jpg"",""time"":354},{""stimulus"":""img/red_ll/8.jpg"",""time"":401},{""stimulus"":""img/red_ll/9.jpg"",""time"":451},{""stimulus"":""img/red_ll/10.jpg"",""time"":501},{""stimulus"":""img/red_ll/11.jpg"",""time"":550}]","[]"
"image-keyboard-response","148","177787","0.0-5.0-1.72","5ba863a346de410001ecfb2a","bdp_lott","Sun Apr 02 2023 16:13:05 GMT-0400 (Eastern Daylight Time)","547377","green","red","","285","","","","choice","","img/red_ll/choose11.jpg","2","153","red","0.5","0.5","0.5","l","",""
"animation","149","178388","0.0-5.0-2.72","5ba863a346de410001ecfb2a","bdp_lott","Sun Apr 02 2023 16:13:05 GMT-0400 (Eastern Daylight Time)","547377","green","red","","","","","","","","","","153","","","","","","[{""stimulus"":""img/red_ll/1.jpg"",""time"":57},{""stimulus"":""img/red_ll/2.jpg"",""time"":103},{""stimulus"":""img/red_ll/3.jpg"",""time"":166},{""stimulus"":""img/red_ll/4.jpg"",""time"":201},{""stimulus"":""img/red_ll/5.jpg"",""time"":259},{""stimulus"":""img/red_ll/6.jpg"",""time"":305},{""stimulus"":""img/red_ll/7.jpg"",""time"":351},{""stimulus"":""img/red_ll/8.jpg"",""time"":413},{""stimulus"":""img/red_ll/9.jpg"",""time"":451},{""stimulus"":""img/red_ll/10.jpg"",""time"":506},{""stimulus"":""img/red_ll/11.jpg"",""time"":553}]","[]"
"image-keyboard-response","150","178808","0.0-5.0-1.73","5ba863a346de410001ecfb2a","bdp_lott","Sun Apr 02 2023 16:13:05 GMT-0400 (Eastern Daylight Time)","547377","green","red","","418","","","","choice","","img/red_ll/choose11.jpg","1","152","green","0.5","0.5","0.5","l","",""
"animation","151","179413","0.0-5.0-2.73","5ba863a346de410001ecfb2a","bdp_lott","Sun Apr 02 2023 16:13:05 GMT-0400 (Eastern Daylight Time)","547377","green","red","","","","","","","","","","152","","","","","","[{""stimulus"":""img/green_ll/1.jpg"",""time"":61},{""stimulus"":""img/green_ll/2.jpg"",""time"":101},{""stimulus"":""img/green_ll/3.jpg"",""time"":151},{""stimulus"":""img/green_ll/4.jpg"",""time"":201},{""stimulus"":""img/green_ll/5.jpg"",""time"":265},{""stimulus"":""img/green_ll/6.jpg"",""time"":302},{""stimulus"":""img/green_ll/7.jpg"",""time"":357},{""stimulus"":""img/green_ll/8.jpg"",""time"":403},{""stimulus"":""img/green_ll/9.jpg"",""time"":451},{""stimulus"":""img/green_ll/10.jpg"",""time"":512},{""stimulus"":""img/green_ll/11.jpg"",""time"":559}]","[]"
"image-keyboard-response","152","179845","0.0-5.0-1.74","5ba863a346de410001ecfb2a","bdp_lott","Sun Apr 02 2023 16:13:05 GMT-0400 (Eastern Daylight Time)","547377","green","red","","431","","","","choice","","img/green_ll/choose11.jpg","1","151","green","0.5","0.5","0.5","w","",""
"animation","153","180445","0.0-5.0-2.74","5ba863a346de410001ecfb2a","bdp_lott","Sun Apr 02 2023 16:13:05 GMT-0400 (Eastern Daylight Time)","547377","green","red","","","","","","","","","","151","","","","","","[{""stimulus"":""img/green_wl/1.jpg"",""time"":64},{""stimulus"":""img/green_wl/2.jpg"",""time"":111},{""stimulus"":""img/green_wl/3.jpg"",""time"":157},{""stimulus"":""img/green_wl/4.jpg"",""time"":203},{""stimulus"":""img/green_wl/5.jpg"",""time"":264},{""stimulus"":""img/green_wl/6.jpg"",""time"":310},{""stimulus"":""img/green_wl/7.jpg"",""time"":351},{""stimulus"":""img/green_wl/8.jpg"",""time"":402},{""stimulus"":""img/green_wl/9.jpg"",""time"":451},{""stimulus"":""img/green_wl/10.jpg"",""time"":501},{""stimulus"":""img/green_wl/11.jpg"",""time"":552}]","[]"
"image-keyboard-response","154","181154","0.0-5.0-1.75","5ba863a346de410001ecfb2a","bdp_lott","Sun Apr 02 2023 16:13:05 GMT-0400 (Eastern Daylight Time)","547377","green","red","","708","","","","choice","","img/green_wl/choose11.jpg","1","150","green","0.5","0.5","0.5","l","",""
"animation","155","181755","0.0-5.0-2.75","5ba863a346de410001ecfb2a","bdp_lott","Sun Apr 02 2023 16:13:05 GMT-0400 (Eastern Daylight Time)","547377","green","red","","","","","","","","","","150","","","","","","[{""stimulus"":""img/green_ll/1.jpg"",""time"":50},{""stimulus"":""img/green_ll/2.jpg"",""time"":100},{""stimulus"":""img/green_ll/3.jpg"",""time"":151},{""stimulus"":""img/green_ll/4.jpg"",""time"":201},{""stimulus"":""img/green_ll/5.jpg"",""time"":250},{""stimulus"":""img/green_ll/6.jpg"",""time"":300},{""stimulus"":""img/green_ll/7.jpg"",""time"":351},{""stimulus"":""img/green_ll/8.jpg"",""time"":405},{""stimulus"":""img/green_ll/9.jpg"",""time"":451},{""stimulus"":""img/green_ll/10.jpg"",""time"":505},{""stimulus"":""img/green_ll/11.jpg"",""time"":554}]","[]"
"image-keyboard-response","156","182413","0.0-5.0-1.76","5ba863a346de410001ecfb2a","bdp_lott","Sun Apr 02 2023 16:13:05 GMT-0400 (Eastern Daylight Time)","547377","green","red","","657","","","","choice","","img/green_ll/choose11.jpg","1","149","green","0.5","0.1","0.5","l","",""
"animation","157","183014","0.0-5.0-2.76","5ba863a346de410001ecfb2a","bdp_lott","Sun Apr 02 2023 16:13:05 GMT-0400 (Eastern Daylight Time)","547377","green","red","","","","","","","","","","149","","","","","","[{""stimulus"":""img/green_ll/1.jpg"",""time"":51},{""stimulus"":""img/green_ll/2.jpg"",""time"":101},{""stimulus"":""img/green_ll/3.jpg"",""time"":152},{""stimulus"":""img/green_ll/4.jpg"",""time"":201},{""stimulus"":""img/green_ll/5.jpg"",""time"":252},{""stimulus"":""img/green_ll/6.jpg"",""time"":300},{""stimulus"":""img/green_ll/7.jpg"",""time"":351},{""stimulus"":""img/green_ll/8.jpg"",""time"":406},{""stimulus"":""img/green_ll/9.jpg"",""time"":451},{""stimulus"":""img/green_ll/10.jpg"",""time"":516},{""stimulus"":""img/green_ll/11.jpg"",""time"":551}]","[]"
"image-keyboard-response","158","183507","0.0-5.0-1.77","5ba863a346de410001ecfb2a","bdp_lott","Sun Apr 02 2023 16:13:05 GMT-0400 (Eastern Daylight Time)","547377","green","red","","492","","","","choice","","img/green_ll/choose11.jpg","2","148","red","0.5","0.1","0.1","l","",""
"animation","159","184109","0.0-5.0-2.77","5ba863a346de410001ecfb2a","bdp_lott","Sun Apr 02 2023 16:13:05 GMT-0400 (Eastern Daylight Time)","547377","green","red","","","","","","","","","","148","","","","","","[{""stimulus"":""img/red_ll/1.jpg"",""time"":51},{""stimulus"":""img/red_ll/2.jpg"",""time"":100},{""stimulus"":""img/red_ll/3.jpg"",""time"":151},{""stimulus"":""img/red_ll/4.jpg"",""time"":201},{""stimulus"":""img/red_ll/5.jpg"",""time"":250},{""stimulus"":""img/red_ll/6.jpg"",""time"":301},{""stimulus"":""img/red_ll/7.jpg"",""time"":350},{""stimulus"":""img/red_ll/8.jpg"",""time"":400},{""stimulus"":""img/red_ll/9.jpg"",""time"":450},{""stimulus"":""img/red_ll/10.jpg"",""time"":500},{""stimulus"":""img/red_ll/11.jpg"",""time"":550}]","[]"
"image-keyboard-response","160","185041","0.0-5.0-1.78","5ba863a346de410001ecfb2a","bdp_lott","Sun Apr 02 2023 16:13:05 GMT-0400 (Eastern Daylight Time)","547377","green","red","","932","","","","choice","","img/red_ll/choose11.jpg","2","147","red","0.5","0.1","0.1","l","",""
"animation","161","185642","0.0-5.0-2.78","5ba863a346de410001ecfb2a","bdp_lott","Sun Apr 02 2023 16:13:05 GMT-0400 (Eastern Daylight Time)","547377","green","red","","","","","","","","","","147","","","","","","[{""stimulus"":""img/red_ll/1.jpg"",""time"":54},{""stimulus"":""img/red_ll/2.jpg"",""time"":101},{""stimulus"":""img/red_ll/3.jpg"",""time"":162},{""stimulus"":""img/red_ll/4.jpg"",""time"":209},{""stimulus"":""img/red_ll/5.jpg"",""time"":255},{""stimulus"":""img/red_ll/6.jpg"",""time"":302},{""stimulus"":""img/red_ll/7.jpg"",""time"":364},{""stimulus"":""img/red_ll/8.jpg"",""time"":401},{""stimulus"":""img/red_ll/9.jpg"",""time"":452},{""stimulus"":""img/red_ll/10.jpg"",""time"":505},{""stimulus"":""img/red_ll/11.jpg"",""time"":552}]","[]"
"image-keyboard-response","162","186184","0.0-5.0-1.79","5ba863a346de410001ecfb2a","bdp_lott","Sun Apr 02 2023 16:13:05 GMT-0400 (Eastern Daylight Time)","547377","green","red","","541","","","","choice","","img/red_ll/choose11.jpg","1","146","green","0.5","0.1","0.5","w","",""
"animation","163","186799","0.0-5.0-2.79","5ba863a346de410001ecfb2a","bdp_lott","Sun Apr 02 2023 16:13:05 GMT-0400 (Eastern Daylight Time)","547377","green","red","","","","","","","","","","146","","","","","","[{""stimulus"":""img/green_wl/1.jpg"",""time"":57},{""stimulus"":""img/green_wl/2.jpg"",""time"":103},{""stimulus"":""img/green_wl/3.jpg"",""time"":164},{""stimulus"":""img/green_wl/4.jpg"",""time"":211},{""stimulus"":""img/green_wl/5.jpg"",""time"":257},{""stimulus"":""img/green_wl/6.jpg"",""time"":306},{""stimulus"":""img/green_wl/7.jpg"",""time"":351},{""stimulus"":""img/green_wl/8.jpg"",""time"":413},{""stimulus"":""img/green_wl/9.jpg"",""time"":459},{""stimulus"":""img/green_wl/10.jpg"",""time"":506},{""stimulus"":""img/green_wl/11.jpg"",""time"":551}]","[]"
"image-keyboard-response","164","187373","0.0-5.0-1.80","5ba863a346de410001ecfb2a","bdp_lott","Sun Apr 02 2023 16:13:05 GMT-0400 (Eastern Daylight Time)","547377","green","red","","573","","","","choice","","img/green_wl/choose11.jpg","2","145","red","0.5","0.1","0.1","l","",""
"animation","165","187976","0.0-5.0-2.80","5ba863a346de410001ecfb2a","bdp_lott","Sun Apr 02 2023 16:13:05 GMT-0400 (Eastern Daylight Time)","547377","green","red","","","","","","","","","","145","","","","","","[{""stimulus"":""img/red_wl/1.jpg"",""time"":53},{""stimulus"":""img/red_wl/2.jpg"",""time"":107},{""stimulus"":""img/red_wl/3.jpg"",""time"":153},{""stimulus"":""img/red_wl/4.jpg"",""time"":216},{""stimulus"":""img/red_wl/5.jpg"",""time"":251},{""stimulus"":""img/red_wl/6.jpg"",""time"":301},{""stimulus"":""img/red_wl/7.jpg"",""time"":356},{""stimulus"":""img/red_wl/8.jpg"",""time"":401},{""stimulus"":""img/red_wl/9.jpg"",""time"":464},{""stimulus"":""img/red_wl/10.jpg"",""time"":501},{""stimulus"":""img/red_wl/11.jpg"",""time"":557}]","[]"
"image-keyboard-response","166","189226","0.0-5.0-1.81","5ba863a346de410001ecfb2a","bdp_lott","Sun Apr 02 2023 16:13:05 GMT-0400 (Eastern Daylight Time)","547377","green","red","","1249","","","","choice","","img/red_wl/choose11.jpg","1","144","green","0.5","0.1","0.5","w","",""
"animation","167","189827","0.0-5.0-2.81","5ba863a346de410001ecfb2a","bdp_lott","Sun Apr 02 2023 16:13:05 GMT-0400 (Eastern Daylight Time)","547377","green","red","","","","","","","","","","144","","","","","","[{""stimulus"":""img/green_wl/1.jpg"",""time"":51},{""stimulus"":""img/green_wl/2.jpg"",""time"":102},{""stimulus"":""img/green_wl/3.jpg"",""time"":161},{""stimulus"":""img/green_wl/4.jpg"",""time"":209},{""stimulus"":""img/green_wl/5.jpg"",""time"":256},{""stimulus"":""img/green_wl/6.jpg"",""time"":301},{""stimulus"":""img/green_wl/7.jpg"",""time"":352},{""stimulus"":""img/green_wl/8.jpg"",""time"":401},{""stimulus"":""img/green_wl/9.jpg"",""time"":458},{""stimulus"":""img/green_wl/10.jpg"",""time"":502},{""stimulus"":""img/green_wl/11.jpg"",""time"":552}]","[]"
"image-keyboard-response","168","190660","0.0-5.0-1.82","5ba863a346de410001ecfb2a","bdp_lott","Sun Apr 02 2023 16:13:05 GMT-0400 (Eastern Daylight Time)","547377","green","red","","832","","","","choice","","img/green_wl/choose11.jpg","1","143","green","0.5","0.1","0.5","w","",""
"animation","169","191261","0.0-5.0-2.82","5ba863a346de410001ecfb2a","bdp_lott","Sun Apr 02 2023 16:13:05 GMT-0400 (Eastern Daylight Time)","547377","green","red","","","","","","","","","","143","","","","","","[{""stimulus"":""img/green_wl/1.jpg"",""time"":51},{""stimulus"":""img/green_wl/2.jpg"",""time"":101},{""stimulus"":""img/green_wl/3.jpg"",""time"":151},{""stimulus"":""img/green_wl/4.jpg"",""time"":200},{""stimulus"":""img/green_wl/5.jpg"",""time"":251},{""stimulus"":""img/green_wl/6.jpg"",""time"":301},{""stimulus"":""img/green_wl/7.jpg"",""time"":351},{""stimulus"":""img/green_wl/8.jpg"",""time"":405},{""stimulus"":""img/green_wl/9.jpg"",""time"":451},{""stimulus"":""img/green_wl/10.jpg"",""time"":501},{""stimulus"":""img/green_wl/11.jpg"",""time"":550}]","[]"
"image-keyboard-response","170","191804","0.0-5.0-1.83","5ba863a346de410001ecfb2a","bdp_lott","Sun Apr 02 2023 16:13:05 GMT-0400 (Eastern Daylight Time)","547377","green","red","","542","","","","choice","","img/green_wl/choose11.jpg","1","142","green","0.5","0.1","0.5","w","",""
"animation","171","192406","0.0-5.0-2.83","5ba863a346de410001ecfb2a","bdp_lott","Sun Apr 02 2023 16:13:05 GMT-0400 (Eastern Daylight Time)","547377","green","red","","","","","","","","","","142","","","","","","[{""stimulus"":""img/green_wl/1.jpg"",""time"":65},{""stimulus"":""img/green_wl/2.jpg"",""time"":101},{""stimulus"":""img/green_wl/3.jpg"",""time"":158},{""stimulus"":""img/green_wl/4.jpg"",""time"":201},{""stimulus"":""img/green_wl/5.jpg"",""time"":251},{""stimulus"":""img/green_wl/6.jpg"",""time"":315},{""stimulus"":""img/green_wl/7.jpg"",""time"":362},{""stimulus"":""img/green_wl/8.jpg"",""time"":407},{""stimulus"":""img/green_wl/9.jpg"",""time"":454},{""stimulus"":""img/green_wl/10.jpg"",""time"":515},{""stimulus"":""img/green_wl/11.jpg"",""time"":562}]","[]"
"image-keyboard-response","172","194780","0.0-5.0-1.84","5ba863a346de410001ecfb2a","bdp_lott","Sun Apr 02 2023 16:13:05 GMT-0400 (Eastern Daylight Time)","547377","green","red","","2374","","","","choice","","img/green_wl/choose11.jpg","1","141","green","0.5","0.1","0.5","w","",""
"animation","173","195382","0.0-5.0-2.84","5ba863a346de410001ecfb2a","bdp_lott","Sun Apr 02 2023 16:13:05 GMT-0400 (Eastern Daylight Time)","547377","green","red","","","","","","","","","","141","","","","","","[{""stimulus"":""img/green_wl/1.jpg"",""time"":57},{""stimulus"":""img/green_wl/2.jpg"",""time"":102},{""stimulus"":""img/green_wl/3.jpg"",""time"":152},{""stimulus"":""img/green_wl/4.jpg"",""time"":213},{""stimulus"":""img/green_wl/5.jpg"",""time"":259},{""stimulus"":""img/green_wl/6.jpg"",""time"":305},{""stimulus"":""img/green_wl/7.jpg"",""time"":366},{""stimulus"":""img/green_wl/8.jpg"",""time"":401},{""stimulus"":""img/green_wl/9.jpg"",""time"":460},{""stimulus"":""img/green_wl/10.jpg"",""time"":506},{""stimulus"":""img/green_wl/11.jpg"",""time"":551}]","[]"
"image-keyboard-response","174","202005","0.0-5.0-1.85","5ba863a346de410001ecfb2a","bdp_lott","Sun Apr 02 2023 16:13:05 GMT-0400 (Eastern Daylight Time)","547377","green","red","","6623","","","","choice","","img/green_wl/choose11.jpg","2","140","red","0.5","0.1","0.1","l","",""
"animation","175","202608","0.0-5.0-2.85","5ba863a346de410001ecfb2a","bdp_lott","Sun Apr 02 2023 16:13:05 GMT-0400 (Eastern Daylight Time)","547377","green","red","","","","","","","","","","140","","","","","","[{""stimulus"":""img/red_wl/1.jpg"",""time"":51},{""stimulus"":""img/red_wl/2.jpg"",""time"":105},{""stimulus"":""img/red_wl/3.jpg"",""time"":152},{""stimulus"":""img/red_wl/4.jpg"",""time"":214},{""stimulus"":""img/red_wl/5.jpg"",""time"":260},{""stimulus"":""img/red_wl/6.jpg"",""time"":307},{""stimulus"":""img/red_wl/7.jpg"",""time"":352},{""stimulus"":""img/red_wl/8.jpg"",""time"":401},{""stimulus"":""img/red_wl/9.jpg"",""time"":463},{""stimulus"":""img/red_wl/10.jpg"",""time"":502},{""stimulus"":""img/red_wl/11.jpg"",""time"":556}]","[]"
"image-keyboard-response","176","203077","0.0-5.0-1.86","5ba863a346de410001ecfb2a","bdp_lott","Sun Apr 02 2023 16:13:05 GMT-0400 (Eastern Daylight Time)","547377","green","red","","468","","","","choice","","img/red_wl/choose11.jpg","2","139","red","0.5","0.1","0.1","l","",""
"animation","177","203678","0.0-5.0-2.86","5ba863a346de410001ecfb2a","bdp_lott","Sun Apr 02 2023 16:13:05 GMT-0400 (Eastern Daylight Time)","547377","green","red","","","","","","","","","","139","","","","","","[{""stimulus"":""img/red_wl/1.jpg"",""time"":58},{""stimulus"":""img/red_wl/2.jpg"",""time"":105},{""stimulus"":""img/red_wl/3.jpg"",""time"":151},{""stimulus"":""img/red_wl/4.jpg"",""time"":201},{""stimulus"":""img/red_wl/5.jpg"",""time"":261},{""stimulus"":""img/red_wl/6.jpg"",""time"":302},{""stimulus"":""img/red_wl/7.jpg"",""time"":354},{""stimulus"":""img/red_wl/8.jpg"",""time"":415},{""stimulus"":""img/red_wl/9.jpg"",""time"":462},{""stimulus"":""img/red_wl/10.jpg"",""time"":508},{""stimulus"":""img/red_wl/11.jpg"",""time"":554}]","[]"
"image-keyboard-response","178","203792","0.0-5.0-1.87","5ba863a346de410001ecfb2a","bdp_lott","Sun Apr 02 2023 16:13:05 GMT-0400 (Eastern Daylight Time)","547377","green","red","","113","","","","choice","","img/red_wl/choose11.jpg","2","138","red","0.5","0.1","0.1","l","",""
"animation","179","204405","0.0-5.0-2.87","5ba863a346de410001ecfb2a","bdp_lott","Sun Apr 02 2023 16:13:05 GMT-0400 (Eastern Daylight Time)","547377","green","red","","","","","","","","","","138","","","","","","[{""stimulus"":""img/red_wl/1.jpg"",""time"":56},{""stimulus"":""img/red_wl/2.jpg"",""time"":101},{""stimulus"":""img/red_wl/3.jpg"",""time"":163},{""stimulus"":""img/red_wl/4.jpg"",""time"":201},{""stimulus"":""img/red_wl/5.jpg"",""time"":251},{""stimulus"":""img/red_wl/6.jpg"",""time"":301},{""stimulus"":""img/red_wl/7.jpg"",""time"":351},{""stimulus"":""img/red_wl/8.jpg"",""time"":401},{""stimulus"":""img/red_wl/9.jpg"",""time"":451},{""stimulus"":""img/red_wl/10.jpg"",""time"":505},{""stimulus"":""img/red_wl/11.jpg"",""time"":551}]","[]"
"image-keyboard-response","180","206313","0.0-5.0-1.88","5ba863a346de410001ecfb2a","bdp_lott","Sun Apr 02 2023 16:13:05 GMT-0400 (Eastern Daylight Time)","547377","green","red","","1907","","","","choice","","img/red_wl/choose11.jpg","2","137","red","0.5","0.1","0.1","l","",""
"animation","181","206913","0.0-5.0-2.88","5ba863a346de410001ecfb2a","bdp_lott","Sun Apr 02 2023 16:13:05 GMT-0400 (Eastern Daylight Time)","547377","green","red","","","","","","","","","","137","","","","","","[{""stimulus"":""img/red_wl/1.jpg"",""time"":65},{""stimulus"":""img/red_wl/2.jpg"",""time"":101},{""stimulus"":""img/red_wl/3.jpg"",""time"":151},{""stimulus"":""img/red_wl/4.jpg"",""time"":204},{""stimulus"":""img/red_wl/5.jpg"",""time"":266},{""stimulus"":""img/red_wl/6.jpg"",""time"":313},{""stimulus"":""img/red_wl/7.jpg"",""time"":351},{""stimulus"":""img/red_wl/8.jpg"",""time"":401},{""stimulus"":""img/red_wl/9.jpg"",""time"":453},{""stimulus"":""img/red_wl/10.jpg"",""time"":501},{""stimulus"":""img/red_wl/11.jpg"",""time"":561}]","[]"
"image-keyboard-response","182","207268","0.0-5.0-1.89","5ba863a346de410001ecfb2a","bdp_lott","Sun Apr 02 2023 16:13:05 GMT-0400 (Eastern Daylight Time)","547377","green","red","","354","","","","choice","","img/red_wl/choose11.jpg","2","136","red","0.5","0.1","0.1","l","",""
"animation","183","207883","0.0-5.0-2.89","5ba863a346de410001ecfb2a","bdp_lott","Sun Apr 02 2023 16:13:05 GMT-0400 (Eastern Daylight Time)","547377","green","red","","","","","","","","","","136","","","","","","[{""stimulus"":""img/red_wl/1.jpg"",""time"":58},{""stimulus"":""img/red_wl/2.jpg"",""time"":101},{""stimulus"":""img/red_wl/3.jpg"",""time"":166},{""stimulus"":""img/red_wl/4.jpg"",""time"":201},{""stimulus"":""img/red_wl/5.jpg"",""time"":260},{""stimulus"":""img/red_wl/6.jpg"",""time"":307},{""stimulus"":""img/red_wl/7.jpg"",""time"":351},{""stimulus"":""img/red_wl/8.jpg"",""time"":401},{""stimulus"":""img/red_wl/9.jpg"",""time"":451},{""stimulus"":""img/red_wl/10.jpg"",""time"":501},{""stimulus"":""img/red_wl/11.jpg"",""time"":555}]","[]"
"image-keyboard-response","184","208067","0.0-5.0-1.90","5ba863a346de410001ecfb2a","bdp_lott","Sun Apr 02 2023 16:13:05 GMT-0400 (Eastern Daylight Time)","547377","green","red","","183","","","","choice","","img/red_wl/choose11.jpg","2","135","red","0.5","0.1","0.1","l","",""
"animation","185","208682","0.0-5.0-2.90","5ba863a346de410001ecfb2a","bdp_lott","Sun Apr 02 2023 16:13:05 GMT-0400 (Eastern Daylight Time)","547377","green","red","","","","","","","","","","135","","","","","","[{""stimulus"":""img/red_wl/1.jpg"",""time"":66},{""stimulus"":""img/red_wl/2.jpg"",""time"":101},{""stimulus"":""img/red_wl/3.jpg"",""time"":151},{""stimulus"":""img/red_wl/4.jpg"",""time"":201},{""stimulus"":""img/red_wl/5.jpg"",""time"":253},{""stimulus"":""img/red_wl/6.jpg"",""time"":315},{""stimulus"":""img/red_wl/7.jpg"",""time"":362},{""stimulus"":""img/red_wl/8.jpg"",""time"":410},{""stimulus"":""img/red_wl/9.jpg"",""time"":451},{""stimulus"":""img/red_wl/10.jpg"",""time"":501},{""stimulus"":""img/red_wl/11.jpg"",""time"":551}]","[]"
"image-keyboard-response","186","313472","0.0-5.0-1.91","5ba863a346de410001ecfb2a","bdp_lott","Sun Apr 02 2023 16:13:05 GMT-0400 (Eastern Daylight Time)","547377","green","red","","104789","","","","choice","","img/red_wl/choose11.jpg","1","134","green","0.5","0.1","0.5","w","",""
"animation","187","314075","0.0-5.0-2.91","5ba863a346de410001ecfb2a","bdp_lott","Sun Apr 02 2023 16:13:05 GMT-0400 (Eastern Daylight Time)","547377","green","red","","","","","","","","","","134","","","","","","[{""stimulus"":""img/green_wl/1.jpg"",""time"":58},{""stimulus"":""img/green_wl/2.jpg"",""time"":106},{""stimulus"":""img/green_wl/3.jpg"",""time"":153},{""stimulus"":""img/green_wl/4.jpg"",""time"":201},{""stimulus"":""img/green_wl/5.jpg"",""time"":251},{""stimulus"":""img/green_wl/6.jpg"",""time"":307},{""stimulus"":""img/green_wl/7.jpg"",""time"":351},{""stimulus"":""img/green_wl/8.jpg"",""time"":415},{""stimulus"":""img/green_wl/9.jpg"",""time"":461},{""stimulus"":""img/green_wl/10.jpg"",""time"":501},{""stimulus"":""img/green_wl/11.jpg"",""time"":551}]","[]"
"image-keyboard-response","188","314292","0.0-5.0-1.92","5ba863a346de410001ecfb2a","bdp_lott","Sun Apr 02 2023 16:13:05 GMT-0400 (Eastern Daylight Time)","547377","green","red","","217","","","","choice","","img/green_wl/choose11.jpg","1","133","green","0.5","0.1","0.5","l","",""
"animation","189","314902","0.0-5.0-2.92","5ba863a346de410001ecfb2a","bdp_lott","Sun Apr 02 2023 16:13:05 GMT-0400 (Eastern Daylight Time)","547377","green","red","","","","","","","","","","133","","","","","","[{""stimulus"":""img/green_ll/1.jpg"",""time"":58},{""stimulus"":""img/green_ll/2.jpg"",""time"":104},{""stimulus"":""img/green_ll/3.jpg"",""time"":152},{""stimulus"":""img/green_ll/4.jpg"",""time"":203},{""stimulus"":""img/green_ll/5.jpg"",""time"":253},{""stimulus"":""img/green_ll/6.jpg"",""time"":303},{""stimulus"":""img/green_ll/7.jpg"",""time"":353},{""stimulus"":""img/green_ll/8.jpg"",""time"":401},{""stimulus"":""img/green_ll/9.jpg"",""time"":451},{""stimulus"":""img/green_ll/10.jpg"",""time"":504},{""stimulus"":""img/green_ll/11.jpg"",""time"":551}]","[]"
"image-keyboard-response","190","315316","0.0-5.0-1.93","5ba863a346de410001ecfb2a","bdp_lott","Sun Apr 02 2023 16:13:05 GMT-0400 (Eastern Daylight Time)","547377","green","red","","413","","","","choice","","img/green_ll/choose11.jpg","1","132","green","0.5","0.1","0.5","w","",""
