"trial_type","trial_index","time_elapsed","internal_node_id","subject_id","task","startTime","totalTime","fairMachine","unfairMachine","view_history","rt","event","trial","time","trialtype","success","stimulus","key_press","roundsLeft","chosen","pFairMachWin","pUnfairMachWin","pTrialWin","outcome","animation_sequence","responses"
"pavlovia","0","2","0.0-0.0","6362c4beb39ee39d15890c5c","bdp_lott","Mon Mar 27 2023 23:00:40 GMT-0400 (GMT-04:00)","317133","green","red","","","","","","","","","","","","","","","","",""
"instructions","1","4324","0.0-1.0","6362c4beb39ee39d15890c5c","bdp_lott","Mon Mar 27 2023 23:00:40 GMT-0400 (GMT-04:00)","317133","green","red","[{""page_index"":0,""viewing_time"":4321}]","4321","","","","","","","","","","","","","","",""
"","","","","6362c4beb39ee39d15890c5c","bdp_lott","Mon Mar 27 2023 23:00:40 GMT-0400 (GMT-04:00)","317133","green","red","","","fullscreenenter","2","10041","fullscreenenter","","","","","","","","","","",""
"fullscreen","2","11023","0.0-2.0","6362c4beb39ee39d15890c5c","bdp_lott","Mon Mar 27 2023 23:00:40 GMT-0400 (GMT-04:00)","317133","green","red","","","","","","","true","","","","","","","","","",""
"instructions","3","47314","0.0-4.0","6362c4beb39ee39d15890c5c","bdp_lott","Mon Mar 27 2023 23:00:40 GMT-0400 (GMT-04:00)","317133","green","red","[{""page_index"":0,""viewing_time"":36291}]","36291","","","","","","","","","","","","","","",""
"image-keyboard-response","4","50051","0.0-5.0-1.0","6362c4beb39ee39d15890c5c","bdp_lott","Mon Mar 27 2023 23:00:40 GMT-0400 (GMT-04:00)","317133","green","red","","2735","","","","choice","","img/red_ll/initchoose11.jpg","2","225","red","0.5","0.5","0.5","l","",""
"animation","5","50652","0.0-5.0-2.0","6362c4beb39ee39d15890c5c","bdp_lott","Mon Mar 27 2023 23:00:40 GMT-0400 (GMT-04:00)","317133","green","red","","","","","","","","","","225","","","","","","[{""stimulus"":""img/red_ll/1.jpg"",""time"":52},{""stimulus"":""img/red_ll/2.jpg"",""time"":101},{""stimulus"":""img/red_ll/3.jpg"",""time"":151},{""stimulus"":""img/red_ll/4.jpg"",""time"":201},{""stimulus"":""img/red_ll/5.jpg"",""time"":252},{""stimulus"":""img/red_ll/6.jpg"",""time"":300},{""stimulus"":""img/red_ll/7.jpg"",""time"":350},{""stimulus"":""img/red_ll/8.jpg"",""time"":402},{""stimulus"":""img/red_ll/9.jpg"",""time"":451},{""stimulus"":""img/red_ll/10.jpg"",""time"":501},{""stimulus"":""img/red_ll/11.jpg"",""time"":551}]","[]"
"image-keyboard-response","6","55762","0.0-5.0-1.1","6362c4beb39ee39d15890c5c","bdp_lott","Mon Mar 27 2023 23:00:40 GMT-0400 (GMT-04:00)","317133","green","red","","5110","","","","choice","","img/red_ll/choose11.jpg","2","224","red","0.5","0.5","0.5","w","",""
"animation","7","56363","0.0-5.0-2.1","6362c4beb39ee39d15890c5c","bdp_lott","Mon Mar 27 2023 23:00:40 GMT-0400 (GMT-04:00)","317133","green","red","","","","","","","","","","224","","","","","","[{""stimulus"":""img/red_lw/1.jpg"",""time"":51},{""stimulus"":""img/red_lw/2.jpg"",""time"":100},{""stimulus"":""img/red_lw/3.jpg"",""time"":151},{""stimulus"":""img/red_lw/4.jpg"",""time"":201},{""stimulus"":""img/red_lw/5.jpg"",""time"":251},{""stimulus"":""img/red_lw/6.jpg"",""time"":301},{""stimulus"":""img/red_lw/7.jpg"",""time"":351},{""stimulus"":""img/red_lw/8.jpg"",""time"":401},{""stimulus"":""img/red_lw/9.jpg"",""time"":451},{""stimulus"":""img/red_lw/10.jpg"",""time"":500},{""stimulus"":""img/red_lw/11.jpg"",""time"":551}]","[]"
"image-keyboard-response","8","58447","0.0-5.0-1.2","6362c4beb39ee39d15890c5c","bdp_lott","Mon Mar 27 2023 23:00:40 GMT-0400 (GMT-04:00)","317133","green","red","","2083","","","","choice","","img/red_lw/choose11.jpg","2","223","red","0.5","0.5","0.5","w","",""
"animation","9","59049","0.0-5.0-2.2","6362c4beb39ee39d15890c5c","bdp_lott","Mon Mar 27 2023 23:00:40 GMT-0400 (GMT-04:00)","317133","green","red","","","","","","","","","","223","","","","","","[{""stimulus"":""img/red_lw/1.jpg"",""time"":51},{""stimulus"":""img/red_lw/2.jpg"",""time"":100},{""stimulus"":""img/red_lw/3.jpg"",""time"":151},{""stimulus"":""img/red_lw/4.jpg"",""time"":200},{""stimulus"":""img/red_lw/5.jpg"",""time"":252},{""stimulus"":""img/red_lw/6.jpg"",""time"":301},{""stimulus"":""img/red_lw/7.jpg"",""time"":350},{""stimulus"":""img/red_lw/8.jpg"",""time"":401},{""stimulus"":""img/red_lw/9.jpg"",""time"":451},{""stimulus"":""img/red_lw/10.jpg"",""time"":500},{""stimulus"":""img/red_lw/11.jpg"",""time"":551}]","[]"
"image-keyboard-response","10","60385","0.0-5.0-1.3","6362c4beb39ee39d15890c5c","bdp_lott","Mon Mar 27 2023 23:00:40 GMT-0400 (GMT-04:00)","317133","green","red","","1336","","","","choice","","img/red_lw/choose11.jpg","1","222","green","0.5","0.5","0.5","l","",""
"animation","11","60985","0.0-5.0-2.3","6362c4beb39ee39d15890c5c","bdp_lott","Mon Mar 27 2023 23:00:40 GMT-0400 (GMT-04:00)","317133","green","red","","","","","","","","","","222","","","","","","[{""stimulus"":""img/green_lw/1.jpg"",""time"":51},{""stimulus"":""img/green_lw/2.jpg"",""time"":101},{""stimulus"":""img/green_lw/3.jpg"",""time"":151},{""stimulus"":""img/green_lw/4.jpg"",""time"":201},{""stimulus"":""img/green_lw/5.jpg"",""time"":251},{""stimulus"":""img/green_lw/6.jpg"",""time"":301},{""stimulus"":""img/green_lw/7.jpg"",""time"":351},{""stimulus"":""img/green_lw/8.jpg"",""time"":402},{""stimulus"":""img/green_lw/9.jpg"",""time"":451},{""stimulus"":""img/green_lw/10.jpg"",""time"":501},{""stimulus"":""img/green_lw/11.jpg"",""time"":552}]","[]"
"image-keyboard-response","12","62548","0.0-5.0-1.4","6362c4beb39ee39d15890c5c","bdp_lott","Mon Mar 27 2023 23:00:40 GMT-0400 (GMT-04:00)","317133","green","red","","1562","","","","choice","","img/green_lw/choose11.jpg","2","221","red","0.5","0.5","0.5","l","",""
"animation","13","63149","0.0-5.0-2.4","6362c4beb39ee39d15890c5c","bdp_lott","Mon Mar 27 2023 23:00:40 GMT-0400 (GMT-04:00)","317133","green","red","","","","","","","","","","221","","","","","","[{""stimulus"":""img/red_ll/1.jpg"",""time"":51},{""stimulus"":""img/red_ll/2.jpg"",""time"":101},{""stimulus"":""img/red_ll/3.jpg"",""time"":151},{""stimulus"":""img/red_ll/4.jpg"",""time"":200},{""stimulus"":""img/red_ll/5.jpg"",""time"":251},{""stimulus"":""img/red_ll/6.jpg"",""time"":300},{""stimulus"":""img/red_ll/7.jpg"",""time"":351},{""stimulus"":""img/red_ll/8.jpg"",""time"":401},{""stimulus"":""img/red_ll/9.jpg"",""time"":453},{""stimulus"":""img/red_ll/10.jpg"",""time"":500},{""stimulus"":""img/red_ll/11.jpg"",""time"":550}]","[]"
"image-keyboard-response","14","64125","0.0-5.0-1.5","6362c4beb39ee39d15890c5c","bdp_lott","Mon Mar 27 2023 23:00:40 GMT-0400 (GMT-04:00)","317133","green","red","","976","","","","choice","","img/red_ll/choose11.jpg","1","220","green","0.5","0.5","0.5","l","",""
"animation","15","64726","0.0-5.0-2.5","6362c4beb39ee39d15890c5c","bdp_lott","Mon Mar 27 2023 23:00:40 GMT-0400 (GMT-04:00)","317133","green","red","","","","","","","","","","220","","","","","","[{""stimulus"":""img/green_ll/1.jpg"",""time"":50},{""stimulus"":""img/green_ll/2.jpg"",""time"":102},{""stimulus"":""img/green_ll/3.jpg"",""time"":151},{""stimulus"":""img/green_ll/4.jpg"",""time"":202},{""stimulus"":""img/green_ll/5.jpg"",""time"":252},{""stimulus"":""img/green_ll/6.jpg"",""time"":302},{""stimulus"":""img/green_ll/7.jpg"",""time"":351},{""stimulus"":""img/green_ll/8.jpg"",""time"":400},{""stimulus"":""img/green_ll/9.jpg"",""time"":452},{""stimulus"":""img/green_ll/10.jpg"",""time"":501},{""stimulus"":""img/green_ll/11.jpg"",""time"":551}]","[]"
"image-keyboard-response","16","65867","0.0-5.0-1.6","6362c4beb39ee39d15890c5c","bdp_lott","Mon Mar 27 2023 23:00:40 GMT-0400 (GMT-04:00)","317133","green","red","","1140","","","","choice","","img/green_ll/choose11.jpg","2","219","red","0.5","0.5","0.5","l","",""
"animation","17","66468","0.0-5.0-2.6","6362c4beb39ee39d15890c5c","bdp_lott","Mon Mar 27 2023 23:00:40 GMT-0400 (GMT-04:00)","317133","green","red","","","","","","","","","","219","","","","","","[{""stimulus"":""img/red_ll/1.jpg"",""time"":52},{""stimulus"":""img/red_ll/2.jpg"",""time"":102},{""stimulus"":""img/red_ll/3.jpg"",""time"":153},{""stimulus"":""img/red_ll/4.jpg"",""time"":201},{""stimulus"":""img/red_ll/5.jpg"",""time"":253},{""stimulus"":""img/red_ll/6.jpg"",""time"":302},{""stimulus"":""img/red_ll/7.jpg"",""time"":351},{""stimulus"":""img/red_ll/8.jpg"",""time"":402},{""stimulus"":""img/red_ll/9.jpg"",""time"":452},{""stimulus"":""img/red_ll/10.jpg"",""time"":502},{""stimulus"":""img/red_ll/11.jpg"",""time"":551}]","[]"
"image-keyboard-response","18","67244","0.0-5.0-1.7","6362c4beb39ee39d15890c5c","bdp_lott","Mon Mar 27 2023 23:00:40 GMT-0400 (GMT-04:00)","317133","green","red","","775","","","","choice","","img/red_ll/choose11.jpg","1","218","green","0.5","0.5","0.5","w","",""
"animation","19","67845","0.0-5.0-2.7","6362c4beb39ee39d15890c5c","bdp_lott","Mon Mar 27 2023 23:00:40 GMT-0400 (GMT-04:00)","317133","green","red","","","","","","","","","","218","","","","","","[{""stimulus"":""img/green_wl/1.jpg"",""time"":50},{""stimulus"":""img/green_wl/2.jpg"",""time"":101},{""stimulus"":""img/green_wl/3.jpg"",""time"":150},{""stimulus"":""img/green_wl/4.jpg"",""time"":201},{""stimulus"":""img/green_wl/5.jpg"",""time"":251},{""stimulus"":""img/green_wl/6.jpg"",""time"":300},{""stimulus"":""img/green_wl/7.jpg"",""time"":351},{""stimulus"":""img/green_wl/8.jpg"",""time"":401},{""stimulus"":""img/green_wl/9.jpg"",""time"":450},{""stimulus"":""img/green_wl/10.jpg"",""time"":501},{""stimulus"":""img/green_wl/11.jpg"",""time"":551}]","[]"
"image-keyboard-response","20","69681","0.0-5.0-1.8","6362c4beb39ee39d15890c5c","bdp_lott","Mon Mar 27 2023 23:00:40 GMT-0400 (GMT-04:00)","317133","green","red","","1836","","","","choice","","img/green_wl/choose11.jpg","1","217","green","0.5","0.5","0.5","l","",""
"animation","21","70282","0.0-5.0-2.8","6362c4beb39ee39d15890c5c","bdp_lott","Mon Mar 27 2023 23:00:40 GMT-0400 (GMT-04:00)","317133","green","red","","","","","","","","","","217","","","","","","[{""stimulus"":""img/green_ll/1.jpg"",""time"":51},{""stimulus"":""img/green_ll/2.jpg"",""time"":101},{""stimulus"":""img/green_ll/3.jpg"",""time"":152},{""stimulus"":""img/green_ll/4.jpg"",""time"":201},{""stimulus"":""img/green_ll/5.jpg"",""time"":251},{""stimulus"":""img/green_ll/6.jpg"",""time"":301},{""stimulus"":""img/green_ll/7.jpg"",""time"":352},{""stimulus"":""img/green_ll/8.jpg"",""time"":400},{""stimulus"":""img/green_ll/9.jpg"",""time"":451},{""stimulus"":""img/green_ll/10.jpg"",""time"":501},{""stimulus"":""img/green_ll/11.jpg"",""time"":551}]","[]"
"image-keyboard-response","22","71463","0.0-5.0-1.9","6362c4beb39ee39d15890c5c","bdp_lott","Mon Mar 27 2023 23:00:40 GMT-0400 (GMT-04:00)","317133","green","red","","1181","","","","choice","","img/green_ll/choose11.jpg","2","216","red","0.5","0.5","0.5","l","",""
"animation","23","72064","0.0-5.0-2.9","6362c4beb39ee39d15890c5c","bdp_lott","Mon Mar 27 2023 23:00:40 GMT-0400 (GMT-04:00)","317133","green","red","","","","","","","","","","216","","","","","","[{""stimulus"":""img/red_ll/1.jpg"",""time"":51},{""stimulus"":""img/red_ll/2.jpg"",""time"":101},{""stimulus"":""img/red_ll/3.jpg"",""time"":151},{""stimulus"":""img/red_ll/4.jpg"",""time"":201},{""stimulus"":""img/red_ll/5.jpg"",""time"":253},{""stimulus"":""img/red_ll/6.jpg"",""time"":303},{""stimulus"":""img/red_ll/7.jpg"",""time"":351},{""stimulus"":""img/red_ll/8.jpg"",""time"":402},{""stimulus"":""img/red_ll/9.jpg"",""time"":451},{""stimulus"":""img/red_ll/10.jpg"",""time"":502},{""stimulus"":""img/red_ll/11.jpg"",""time"":551}]","[]"
"image-keyboard-response","24","73166","0.0-5.0-1.10","6362c4beb39ee39d15890c5c","bdp_lott","Mon Mar 27 2023 23:00:40 GMT-0400 (GMT-04:00)","317133","green","red","","1102","","","","choice","","img/red_ll/choose11.jpg","2","215","red","0.5","0.5","0.5","w","",""
"animation","25","73767","0.0-5.0-2.10","6362c4beb39ee39d15890c5c","bdp_lott","Mon Mar 27 2023 23:00:40 GMT-0400 (GMT-04:00)","317133","green","red","","","","","","","","","","215","","","","","","[{""stimulus"":""img/red_lw/1.jpg"",""time"":52},{""stimulus"":""img/red_lw/2.jpg"",""time"":111},{""stimulus"":""img/red_lw/3.jpg"",""time"":152},{""stimulus"":""img/red_lw/4.jpg"",""time"":202},{""stimulus"":""img/red_lw/5.jpg"",""time"":252},{""stimulus"":""img/red_lw/6.jpg"",""time"":302},{""stimulus"":""img/red_lw/7.jpg"",""time"":351},{""stimulus"":""img/red_lw/8.jpg"",""time"":402},{""stimulus"":""img/red_lw/9.jpg"",""time"":452},{""stimulus"":""img/red_lw/10.jpg"",""time"":501},{""stimulus"":""img/red_lw/11.jpg"",""time"":551}]","[]"
"image-keyboard-response","26","74668","0.0-5.0-1.11","6362c4beb39ee39d15890c5c","bdp_lott","Mon Mar 27 2023 23:00:40 GMT-0400 (GMT-04:00)","317133","green","red","","900","","","","choice","","img/red_lw/choose11.jpg","1","214","green","0.5","0.5","0.5","w","",""
"animation","27","75270","0.0-5.0-2.11","6362c4beb39ee39d15890c5c","bdp_lott","Mon Mar 27 2023 23:00:40 GMT-0400 (GMT-04:00)","317133","green","red","","","","","","","","","","214","","","","","","[{""stimulus"":""img/green_ww/1.jpg"",""time"":50},{""stimulus"":""img/green_ww/2.jpg"",""time"":100},{""stimulus"":""img/green_ww/3.jpg"",""time"":151},{""stimulus"":""img/green_ww/4.jpg"",""time"":201},{""stimulus"":""img/green_ww/5.jpg"",""time"":251},{""stimulus"":""img/green_ww/6.jpg"",""time"":301},{""stimulus"":""img/green_ww/7.jpg"",""time"":351},{""stimulus"":""img/green_ww/8.jpg"",""time"":402},{""stimulus"":""img/green_ww/9.jpg"",""time"":451},{""stimulus"":""img/green_ww/10.jpg"",""time"":501},{""stimulus"":""img/green_ww/11.jpg"",""time"":551}]","[]"
"image-keyboard-response","28","76316","0.0-5.0-1.12","6362c4beb39ee39d15890c5c","bdp_lott","Mon Mar 27 2023 23:00:40 GMT-0400 (GMT-04:00)","317133","green","red","","1046","","","","choice","","img/green_ww/choose11.jpg","1","213","green","0.5","0.5","0.5","w","",""
"animation","29","76917","0.0-5.0-2.12","6362c4beb39ee39d15890c5c","bdp_lott","Mon Mar 27 2023 23:00:40 GMT-0400 (GMT-04:00)","317133","green","red","","","","","","","","","","213","","","","","","[{""stimulus"":""img/green_ww/1.jpg"",""time"":50},{""stimulus"":""img/green_ww/2.jpg"",""time"":101},{""stimulus"":""img/green_ww/3.jpg"",""time"":151},{""stimulus"":""img/green_ww/4.jpg"",""time"":202},{""stimulus"":""img/green_ww/5.jpg"",""time"":252},{""stimulus"":""img/green_ww/6.jpg"",""time"":302},{""stimulus"":""img/green_ww/7.jpg"",""time"":351},{""stimulus"":""img/green_ww/8.jpg"",""time"":401},{""stimulus"":""img/green_ww/9.jpg"",""time"":453},{""stimulus"":""img/green_ww/10.jpg"",""time"":501},{""stimulus"":""img/green_ww/11.jpg"",""time"":551}]","[]"
"image-keyboard-response","30","77748","0.0-5.0-1.13","6362c4beb39ee39d15890c5c","bdp_lott","Mon Mar 27 2023 23:00:40 GMT-0400 (GMT-04:00)","317133","green","red","","831","","","","choice","","img/green_ww/choose11.jpg","2","212","red","0.5","0.5","0.5","w","",""
"animation","31","78351","0.0-5.0-2.13","6362c4beb39ee39d15890c5c","bdp_lott","Mon Mar 27 2023 23:00:40 GMT-0400 (GMT-04:00)","317133","green","red","","","","","","","","","","212","","","","","","[{""stimulus"":""img/red_ww/1.jpg"",""time"":51},{""stimulus"":""img/red_ww/2.jpg"",""time"":102},{""stimulus"":""img/red_ww/3.jpg"",""time"":151},{""stimulus"":""img/red_ww/4.jpg"",""time"":201},{""stimulus"":""img/red_ww/5.jpg"",""time"":252},{""stimulus"":""img/red_ww/6.jpg"",""time"":301},{""stimulus"":""img/red_ww/7.jpg"",""time"":352},{""stimulus"":""img/red_ww/8.jpg"",""time"":403},{""stimulus"":""img/red_ww/9.jpg"",""time"":451},{""stimulus"":""img/red_ww/10.jpg"",""time"":502},{""stimulus"":""img/red_ww/11.jpg"",""time"":551}]","[]"
"image-keyboard-response","32","79137","0.0-5.0-1.14","6362c4beb39ee39d15890c5c","bdp_lott","Mon Mar 27 2023 23:00:40 GMT-0400 (GMT-04:00)","317133","green","red","","785","","","","choice","","img/red_ww/choose11.jpg","2","211","red","0.5","0.5","0.5","l","",""
"animation","33","79738","0.0-5.0-2.14","6362c4beb39ee39d15890c5c","bdp_lott","Mon Mar 27 2023 23:00:40 GMT-0400 (GMT-04:00)","317133","green","red","","","","","","","","","","211","","","","","","[{""stimulus"":""img/red_wl/1.jpg"",""time"":51},{""stimulus"":""img/red_wl/2.jpg"",""time"":101},{""stimulus"":""img/red_wl/3.jpg"",""time"":150},{""stimulus"":""img/red_wl/4.jpg"",""time"":201},{""stimulus"":""img/red_wl/5.jpg"",""time"":251},{""stimulus"":""img/red_wl/6.jpg"",""time"":301},{""stimulus"":""img/red_wl/7.jpg"",""time"":351},{""stimulus"":""img/red_wl/8.jpg"",""time"":401},{""stimulus"":""img/red_wl/9.jpg"",""time"":451},{""stimulus"":""img/red_wl/10.jpg"",""time"":501},{""stimulus"":""img/red_wl/11.jpg"",""time"":551}]","[]"
"image-keyboard-response","34","80245","0.0-5.0-1.15","6362c4beb39ee39d15890c5c","bdp_lott","Mon Mar 27 2023 23:00:40 GMT-0400 (GMT-04:00)","317133","green","red","","507","","","","choice","","img/red_wl/choose11.jpg","2","210","red","0.5","0.5","0.5","l","",""
"animation","35","80846","0.0-5.0-2.15","6362c4beb39ee39d15890c5c","bdp_lott","Mon Mar 27 2023 23:00:40 GMT-0400 (GMT-04:00)","317133","green","red","","","","","","","","","","210","","","","","","[{""stimulus"":""img/red_wl/1.jpg"",""time"":50},{""stimulus"":""img/red_wl/2.jpg"",""time"":102},{""stimulus"":""img/red_wl/3.jpg"",""time"":151},{""stimulus"":""img/red_wl/4.jpg"",""time"":201},{""stimulus"":""img/red_wl/5.jpg"",""time"":251},{""stimulus"":""img/red_wl/6.jpg"",""time"":301},{""stimulus"":""img/red_wl/7.jpg"",""time"":351},{""stimulus"":""img/red_wl/8.jpg"",""time"":401},{""stimulus"":""img/red_wl/9.jpg"",""time"":451},{""stimulus"":""img/red_wl/10.jpg"",""time"":501},{""stimulus"":""img/red_wl/11.jpg"",""time"":551}]","[]"
"image-keyboard-response","36","81335","0.0-5.0-1.16","6362c4beb39ee39d15890c5c","bdp_lott","Mon Mar 27 2023 23:00:40 GMT-0400 (GMT-04:00)","317133","green","red","","488","","","","choice","","img/red_wl/choose11.jpg","2","209","red","0.5","0.5","0.5","l","",""
"animation","37","81935","0.0-5.0-2.16","6362c4beb39ee39d15890c5c","bdp_lott","Mon Mar 27 2023 23:00:40 GMT-0400 (GMT-04:00)","317133","green","red","","","","","","","","","","209","","","","","","[{""stimulus"":""img/red_wl/1.jpg"",""time"":51},{""stimulus"":""img/red_wl/2.jpg"",""time"":102},{""stimulus"":""img/red_wl/3.jpg"",""time"":151},{""stimulus"":""img/red_wl/4.jpg"",""time"":201},{""stimulus"":""img/red_wl/5.jpg"",""time"":251},{""stimulus"":""img/red_wl/6.jpg"",""time"":301},{""stimulus"":""img/red_wl/7.jpg"",""time"":351},{""stimulus"":""img/red_wl/8.jpg"",""time"":401},{""stimulus"":""img/red_wl/9.jpg"",""time"":451},{""stimulus"":""img/red_wl/10.jpg"",""time"":501},{""stimulus"":""img/red_wl/11.jpg"",""time"":551}]","[]"
"image-keyboard-response","38","82300","0.0-5.0-1.17","6362c4beb39ee39d15890c5c","bdp_lott","Mon Mar 27 2023 23:00:40 GMT-0400 (GMT-04:00)","317133","green","red","","364","","","","choice","","img/red_wl/choose11.jpg","2","208","red","0.5","0.5","0.5","l","",""
"animation","39","82901","0.0-5.0-2.17","6362c4beb39ee39d15890c5c","bdp_lott","Mon Mar 27 2023 23:00:40 GMT-0400 (GMT-04:00)","317133","green","red","","","","","","","","","","208","","","","","","[{""stimulus"":""img/red_wl/1.jpg"",""time"":52},{""stimulus"":""img/red_wl/2.jpg"",""time"":101},{""stimulus"":""img/red_wl/3.jpg"",""time"":151},{""stimulus"":""img/red_wl/4.jpg"",""time"":202},{""stimulus"":""img/red_wl/5.jpg"",""time"":251},{""stimulus"":""img/red_wl/6.jpg"",""time"":306},{""stimulus"":""img/red_wl/7.jpg"",""time"":353},{""stimulus"":""img/red_wl/8.jpg"",""time"":401},{""stimulus"":""img/red_wl/9.jpg"",""time"":452},{""stimulus"":""img/red_wl/10.jpg"",""time"":501},{""stimulus"":""img/red_wl/11.jpg"",""time"":552}]","[]"
"image-keyboard-response","40","83220","0.0-5.0-1.18","6362c4beb39ee39d15890c5c","bdp_lott","Mon Mar 27 2023 23:00:40 GMT-0400 (GMT-04:00)","317133","green","red","","319","","","","choice","","img/red_wl/choose11.jpg","2","207","red","0.5","0.5","0.5","l","",""
"animation","41","83822","0.0-5.0-2.18","6362c4beb39ee39d15890c5c","bdp_lott","Mon Mar 27 2023 23:00:40 GMT-0400 (GMT-04:00)","317133","green","red","","","","","","","","","","207","","","","","","[{""stimulus"":""img/red_wl/1.jpg"",""time"":51},{""stimulus"":""img/red_wl/2.jpg"",""time"":101},{""stimulus"":""img/red_wl/3.jpg"",""time"":152},{""stimulus"":""img/red_wl/4.jpg"",""time"":202},{""stimulus"":""img/red_wl/5.jpg"",""time"":250},{""stimulus"":""img/red_wl/6.jpg"",""time"":302},{""stimulus"":""img/red_wl/7.jpg"",""time"":352},{""stimulus"":""img/red_wl/8.jpg"",""time"":403},{""stimulus"":""img/red_wl/9.jpg"",""time"":452},{""stimulus"":""img/red_wl/10.jpg"",""time"":502},{""stimulus"":""img/red_wl/11.jpg"",""time"":564}]","[]"
"image-keyboard-response","42","84163","0.0-5.0-1.19","6362c4beb39ee39d15890c5c","bdp_lott","Mon Mar 27 2023 23:00:40 GMT-0400 (GMT-04:00)","317133","green","red","","341","","","","choice","","img/red_wl/choose11.jpg","2","206","red","0.5","0.5","0.5","l","",""
"animation","43","84774","0.0-5.0-2.19","6362c4beb39ee39d15890c5c","bdp_lott","Mon Mar 27 2023 23:00:40 GMT-0400 (GMT-04:00)","317133","green","red","","","","","","","","","","206","","","","","","[{""stimulus"":""img/red_wl/1.jpg"",""time"":52},{""stimulus"":""img/red_wl/2.jpg"",""time"":101},{""stimulus"":""img/red_wl/3.jpg"",""time"":151},{""stimulus"":""img/red_wl/4.jpg"",""time"":201},{""stimulus"":""img/red_wl/5.jpg"",""time"":251},{""stimulus"":""img/red_wl/6.jpg"",""time"":302},{""stimulus"":""img/red_wl/7.jpg"",""time"":351},{""stimulus"":""img/red_wl/8.jpg"",""time"":402},{""stimulus"":""img/red_wl/9.jpg"",""time"":451},{""stimulus"":""img/red_wl/10.jpg"",""time"":502},{""stimulus"":""img/red_wl/11.jpg"",""time"":551}]","[]"
"image-keyboard-response","44","85313","0.0-5.0-1.20","6362c4beb39ee39d15890c5c","bdp_lott","Mon Mar 27 2023 23:00:40 GMT-0400 (GMT-04:00)","317133","green","red","","539","","","","choice","","img/red_wl/choose11.jpg","1","205","green","0.5","0.5","0.5","w","",""
"animation","45","85916","0.0-5.0-2.20","6362c4beb39ee39d15890c5c","bdp_lott","Mon Mar 27 2023 23:00:40 GMT-0400 (GMT-04:00)","317133","green","red","","","","","","","","","","205","","","","","","[{""stimulus"":""img/green_wl/1.jpg"",""time"":51},{""stimulus"":""img/green_wl/2.jpg"",""time"":101},{""stimulus"":""img/green_wl/3.jpg"",""time"":152},{""stimulus"":""img/green_wl/4.jpg"",""time"":202},{""stimulus"":""img/green_wl/5.jpg"",""time"":251},{""stimulus"":""img/green_wl/6.jpg"",""time"":302},{""stimulus"":""img/green_wl/7.jpg"",""time"":351},{""stimulus"":""img/green_wl/8.jpg"",""time"":402},{""stimulus"":""img/green_wl/9.jpg"",""time"":451},{""stimulus"":""img/green_wl/10.jpg"",""time"":501},{""stimulus"":""img/green_wl/11.jpg"",""time"":551}]","[]"
"image-keyboard-response","46","86350","0.0-5.0-1.21","6362c4beb39ee39d15890c5c","bdp_lott","Mon Mar 27 2023 23:00:40 GMT-0400 (GMT-04:00)","317133","green","red","","434","","","","choice","","img/green_wl/choose11.jpg","1","204","green","0.5","0.5","0.5","l","",""
"animation","47","86951","0.0-5.0-2.21","6362c4beb39ee39d15890c5c","bdp_lott","Mon Mar 27 2023 23:00:40 GMT-0400 (GMT-04:00)","317133","green","red","","","","","","","","","","204","","","","","","[{""stimulus"":""img/green_ll/1.jpg"",""time"":51},{""stimulus"":""img/green_ll/2.jpg"",""time"":100},{""stimulus"":""img/green_ll/3.jpg"",""time"":150},{""stimulus"":""img/green_ll/4.jpg"",""time"":200},{""stimulus"":""img/green_ll/5.jpg"",""time"":251},{""stimulus"":""img/green_ll/6.jpg"",""time"":300},{""stimulus"":""img/green_ll/7.jpg"",""time"":350},{""stimulus"":""img/green_ll/8.jpg"",""time"":401},{""stimulus"":""img/green_ll/9.jpg"",""time"":452},{""stimulus"":""img/green_ll/10.jpg"",""time"":501},{""stimulus"":""img/green_ll/11.jpg"",""time"":551}]","[]"
"image-keyboard-response","48","87318","0.0-5.0-1.22","6362c4beb39ee39d15890c5c","bdp_lott","Mon Mar 27 2023 23:00:40 GMT-0400 (GMT-04:00)","317133","green","red","","367","","","","choice","","img/green_ll/choose11.jpg","1","203","green","0.5","0.5","0.5","w","",""
"animation","49","87920","0.0-5.0-2.22","6362c4beb39ee39d15890c5c","bdp_lott","Mon Mar 27 2023 23:00:40 GMT-0400 (GMT-04:00)","317133","green","red","","","","","","","","","","203","","","","","","[{""stimulus"":""img/green_wl/1.jpg"",""time"":52},{""stimulus"":""img/green_wl/2.jpg"",""time"":100},{""stimulus"":""img/green_wl/3.jpg"",""time"":150},{""stimulus"":""img/green_wl/4.jpg"",""time"":201},{""stimulus"":""img/green_wl/5.jpg"",""time"":250},{""stimulus"":""img/green_wl/6.jpg"",""time"":301},{""stimulus"":""img/green_wl/7.jpg"",""time"":352},{""stimulus"":""img/green_wl/8.jpg"",""time"":402},{""stimulus"":""img/green_wl/9.jpg"",""time"":451},{""stimulus"":""img/green_wl/10.jpg"",""time"":500},{""stimulus"":""img/green_wl/11.jpg"",""time"":552}]","[]"
"image-keyboard-response","50","88199","0.0-5.0-1.23","6362c4beb39ee39d15890c5c","bdp_lott","Mon Mar 27 2023 23:00:40 GMT-0400 (GMT-04:00)","317133","green","red","","279","","","","choice","","img/green_wl/choose11.jpg","1","202","green","0.5","0.5","0.5","l","",""
"animation","51","88800","0.0-5.0-2.23","6362c4beb39ee39d15890c5c","bdp_lott","Mon Mar 27 2023 23:00:40 GMT-0400 (GMT-04:00)","317133","green","red","","","","","","","","","","202","","","","","","[{""stimulus"":""img/green_ll/1.jpg"",""time"":51},{""stimulus"":""img/green_ll/2.jpg"",""time"":100},{""stimulus"":""img/green_ll/3.jpg"",""time"":151},{""stimulus"":""img/green_ll/4.jpg"",""time"":202},{""stimulus"":""img/green_ll/5.jpg"",""time"":251},{""stimulus"":""img/green_ll/6.jpg"",""time"":301},{""stimulus"":""img/green_ll/7.jpg"",""time"":352},{""stimulus"":""img/green_ll/8.jpg"",""time"":401},{""stimulus"":""img/green_ll/9.jpg"",""time"":451},{""stimulus"":""img/green_ll/10.jpg"",""time"":501},{""stimulus"":""img/green_ll/11.jpg"",""time"":551}]","[]"
"image-keyboard-response","52","89182","0.0-5.0-1.24","6362c4beb39ee39d15890c5c","bdp_lott","Mon Mar 27 2023 23:00:40 GMT-0400 (GMT-04:00)","317133","green","red","","382","","","","choice","","img/green_ll/choose11.jpg","1","201","green","0.5","0.5","0.5","l","",""
"animation","53","89784","0.0-5.0-2.24","6362c4beb39ee39d15890c5c","bdp_lott","Mon Mar 27 2023 23:00:40 GMT-0400 (GMT-04:00)","317133","green","red","","","","","","","","","","201","","","","","","[{""stimulus"":""img/green_ll/1.jpg"",""time"":51},{""stimulus"":""img/green_ll/2.jpg"",""time"":101},{""stimulus"":""img/green_ll/3.jpg"",""time"":152},{""stimulus"":""img/green_ll/4.jpg"",""time"":201},{""stimulus"":""img/green_ll/5.jpg"",""time"":252},{""stimulus"":""img/green_ll/6.jpg"",""time"":303},{""stimulus"":""img/green_ll/7.jpg"",""time"":351},{""stimulus"":""img/green_ll/8.jpg"",""time"":401},{""stimulus"":""img/green_ll/9.jpg"",""time"":452},{""stimulus"":""img/green_ll/10.jpg"",""time"":502},{""stimulus"":""img/green_ll/11.jpg"",""time"":552}]","[]"
"image-keyboard-response","54","90119","0.0-5.0-1.25","6362c4beb39ee39d15890c5c","bdp_lott","Mon Mar 27 2023 23:00:40 GMT-0400 (GMT-04:00)","317133","green","red","","335","","","","choice","","img/green_ll/choose11.jpg","1","200","green","0.5","0.5","0.5","l","",""
"animation","55","90720","0.0-5.0-2.25","6362c4beb39ee39d15890c5c","bdp_lott","Mon Mar 27 2023 23:00:40 GMT-0400 (GMT-04:00)","317133","green","red","","","","","","","","","","200","","","","","","[{""stimulus"":""img/green_ll/1.jpg"",""time"":51},{""stimulus"":""img/green_ll/2.jpg"",""time"":101},{""stimulus"":""img/green_ll/3.jpg"",""time"":151},{""stimulus"":""img/green_ll/4.jpg"",""time"":201},{""stimulus"":""img/green_ll/5.jpg"",""time"":250},{""stimulus"":""img/green_ll/6.jpg"",""time"":301},{""stimulus"":""img/green_ll/7.jpg"",""time"":352},{""stimulus"":""img/green_ll/8.jpg"",""time"":401},{""stimulus"":""img/green_ll/9.jpg"",""time"":450},{""stimulus"":""img/green_ll/10.jpg"",""time"":501},{""stimulus"":""img/green_ll/11.jpg"",""time"":552}]","[]"
"image-keyboard-response","56","91013","0.0-5.0-1.26","6362c4beb39ee39d15890c5c","bdp_lott","Mon Mar 27 2023 23:00:40 GMT-0400 (GMT-04:00)","317133","green","red","","293","","","","choice","","img/green_ll/choose11.jpg","1","199","green","0.5","0.5","0.5","l","",""
"animation","57","91615","0.0-5.0-2.26","6362c4beb39ee39d15890c5c","bdp_lott","Mon Mar 27 2023 23:00:40 GMT-0400 (GMT-04:00)","317133","green","red","","","","","","","","","","199","","","","","","[{""stimulus"":""img/green_ll/1.jpg"",""time"":50},{""stimulus"":""img/green_ll/2.jpg"",""time"":100},{""stimulus"":""img/green_ll/3.jpg"",""time"":152},{""stimulus"":""img/green_ll/4.jpg"",""time"":202},{""stimulus"":""img/green_ll/5.jpg"",""time"":251},{""stimulus"":""img/green_ll/6.jpg"",""time"":300},{""stimulus"":""img/green_ll/7.jpg"",""time"":352},{""stimulus"":""img/green_ll/8.jpg"",""time"":400},{""stimulus"":""img/green_ll/9.jpg"",""time"":450},{""stimulus"":""img/green_ll/10.jpg"",""time"":501},{""stimulus"":""img/green_ll/11.jpg"",""time"":550}]","[]"
"image-keyboard-response","58","91882","0.0-5.0-1.27","6362c4beb39ee39d15890c5c","bdp_lott","Mon Mar 27 2023 23:00:40 GMT-0400 (GMT-04:00)","317133","green","red","","267","","","","choice","","img/green_ll/choose11.jpg","2","198","red","0.5","0.5","0.5","l","",""
"animation","59","92483","0.0-5.0-2.27","6362c4beb39ee39d15890c5c","bdp_lott","Mon Mar 27 2023 23:00:40 GMT-0400 (GMT-04:00)","317133","green","red","","","","","","","","","","198","","","","","","[{""stimulus"":""img/red_ll/1.jpg"",""time"":51},{""stimulus"":""img/red_ll/2.jpg"",""time"":100},{""stimulus"":""img/red_ll/3.jpg"",""time"":150},{""stimulus"":""img/red_ll/4.jpg"",""time"":201},{""stimulus"":""img/red_ll/5.jpg"",""time"":251},{""stimulus"":""img/red_ll/6.jpg"",""time"":301},{""stimulus"":""img/red_ll/7.jpg"",""time"":350},{""stimulus"":""img/red_ll/8.jpg"",""time"":401},{""stimulus"":""img/red_ll/9.jpg"",""time"":451},{""stimulus"":""img/red_ll/10.jpg"",""time"":500},{""stimulus"":""img/red_ll/11.jpg"",""time"":552}]","[]"
"image-keyboard-response","60","92837","0.0-5.0-1.28","6362c4beb39ee39d15890c5c","bdp_lott","Mon Mar 27 2023 23:00:40 GMT-0400 (GMT-04:00)","317133","green","red","","353","","","","choice","","img/red_ll/choose11.jpg","1","197","green","0.5","0.5","0.5","w","",""
"animation","61","93438","0.0-5.0-2.28","6362c4beb39ee39d15890c5c","bdp_lott","Mon Mar 27 2023 23:00:40 GMT-0400 (GMT-04:00)","317133","green","red","","","","","","","","","","197","","","","","","[{""stimulus"":""img/green_wl/1.jpg"",""time"":51},{""stimulus"":""img/green_wl/2.jpg"",""time"":101},{""stimulus"":""img/green_wl/3.jpg"",""time"":151},{""stimulus"":""img/green_wl/4.jpg"",""time"":201},{""stimulus"":""img/green_wl/5.jpg"",""time"":251},{""stimulus"":""img/green_wl/6.jpg"",""time"":301},{""stimulus"":""img/green_wl/7.jpg"",""time"":351},{""stimulus"":""img/green_wl/8.jpg"",""time"":402},{""stimulus"":""img/green_wl/9.jpg"",""time"":451},{""stimulus"":""img/green_wl/10.jpg"",""time"":502},{""stimulus"":""img/green_wl/11.jpg"",""time"":551}]","[]"
"image-keyboard-response","62","93905","0.0-5.0-1.29","6362c4beb39ee39d15890c5c","bdp_lott","Mon Mar 27 2023 23:00:40 GMT-0400 (GMT-04:00)","317133","green","red","","466","","","","choice","","img/green_wl/choose11.jpg","1","196","green","0.5","0.5","0.5","l","",""
"animation","63","94505","0.0-5.0-2.29","6362c4beb39ee39d15890c5c","bdp_lott","Mon Mar 27 2023 23:00:40 GMT-0400 (GMT-04:00)","317133","green","red","","","","","","","","","","196","","","","","","[{""stimulus"":""img/green_ll/1.jpg"",""time"":51},{""stimulus"":""img/green_ll/2.jpg"",""time"":101},{""stimulus"":""img/green_ll/3.jpg"",""time"":153},{""stimulus"":""img/green_ll/4.jpg"",""time"":202},{""stimulus"":""img/green_ll/5.jpg"",""time"":251},{""stimulus"":""img/green_ll/6.jpg"",""time"":301},{""stimulus"":""img/green_ll/7.jpg"",""time"":351},{""stimulus"":""img/green_ll/8.jpg"",""time"":401},{""stimulus"":""img/green_ll/9.jpg"",""time"":451},{""stimulus"":""img/green_ll/10.jpg"",""time"":500},{""stimulus"":""img/green_ll/11.jpg"",""time"":552}]","[]"
"image-keyboard-response","64","94864","0.0-5.0-1.30","6362c4beb39ee39d15890c5c","bdp_lott","Mon Mar 27 2023 23:00:40 GMT-0400 (GMT-04:00)","317133","green","red","","358","","","","choice","","img/green_ll/choose11.jpg","2","195","red","0.5","0.5","0.5","w","",""
"animation","65","95464","0.0-5.0-2.30","6362c4beb39ee39d15890c5c","bdp_lott","Mon Mar 27 2023 23:00:40 GMT-0400 (GMT-04:00)","317133","green","red","","","","","","","","","","195","","","","","","[{""stimulus"":""img/red_lw/1.jpg"",""time"":51},{""stimulus"":""img/red_lw/2.jpg"",""time"":101},{""stimulus"":""img/red_lw/3.jpg"",""time"":151},{""stimulus"":""img/red_lw/4.jpg"",""time"":202},{""stimulus"":""img/red_lw/5.jpg"",""time"":251},{""stimulus"":""img/red_lw/6.jpg"",""time"":300},{""stimulus"":""img/red_lw/7.jpg"",""time"":351},{""stimulus"":""img/red_lw/8.jpg"",""time"":401},{""stimulus"":""img/red_lw/9.jpg"",""time"":452},{""stimulus"":""img/red_lw/10.jpg"",""time"":500},{""stimulus"":""img/red_lw/11.jpg"",""time"":551}]","[]"
"image-keyboard-response","66","95796","0.0-5.0-1.31","6362c4beb39ee39d15890c5c","bdp_lott","Mon Mar 27 2023 23:00:40 GMT-0400 (GMT-04:00)","317133","green","red","","331","","","","choice","","img/red_lw/choose11.jpg","2","194","red","0.5","0.5","0.5","w","",""
"animation","67","96397","0.0-5.0-2.31","6362c4beb39ee39d15890c5c","bdp_lott","Mon Mar 27 2023 23:00:40 GMT-0400 (GMT-04:00)","317133","green","red","","","","","","","","","","194","","","","","","[{""stimulus"":""img/red_lw/1.jpg"",""time"":52},{""stimulus"":""img/red_lw/2.jpg"",""time"":102},{""stimulus"":""img/red_lw/3.jpg"",""time"":151},{""stimulus"":""img/red_lw/4.jpg"",""time"":202},{""stimulus"":""img/red_lw/5.jpg"",""time"":251},{""stimulus"":""img/red_lw/6.jpg"",""time"":302},{""stimulus"":""img/red_lw/7.jpg"",""time"":353},{""stimulus"":""img/red_lw/8.jpg"",""time"":402},{""stimulus"":""img/red_lw/9.jpg"",""time"":452},{""stimulus"":""img/red_lw/10.jpg"",""time"":501},{""stimulus"":""img/red_lw/11.jpg"",""time"":552}]","[]"
"image-keyboard-response","68","96690","0.0-5.0-1.32","6362c4beb39ee39d15890c5c","bdp_lott","Mon Mar 27 2023 23:00:40 GMT-0400 (GMT-04:00)","317133","green","red","","293","","","","choice","","img/red_lw/choose11.jpg","2","193","red","0.5","0.5","0.5","l","",""
"animation","69","97291","0.0-5.0-2.32","6362c4beb39ee39d15890c5c","bdp_lott","Mon Mar 27 2023 23:00:40 GMT-0400 (GMT-04:00)","317133","green","red","","","","","","","","","","193","","","","","","[{""stimulus"":""img/red_ll/1.jpg"",""time"":51},{""stimulus"":""img/red_ll/2.jpg"",""time"":101},{""stimulus"":""img/red_ll/3.jpg"",""time"":152},{""stimulus"":""img/red_ll/4.jpg"",""time"":201},{""stimulus"":""img/red_ll/5.jpg"",""time"":251},{""stimulus"":""img/red_ll/6.jpg"",""time"":301},{""stimulus"":""img/red_ll/7.jpg"",""time"":352},{""stimulus"":""img/red_ll/8.jpg"",""time"":401},{""stimulus"":""img/red_ll/9.jpg"",""time"":451},{""stimulus"":""img/red_ll/10.jpg"",""time"":502},{""stimulus"":""img/red_ll/11.jpg"",""time"":551}]","[]"
"image-keyboard-response","70","97609","0.0-5.0-1.33","6362c4beb39ee39d15890c5c","bdp_lott","Mon Mar 27 2023 23:00:40 GMT-0400 (GMT-04:00)","317133","green","red","","318","","","","choice","","img/red_ll/choose11.jpg","1","192","green","0.5","0.5","0.5","w","",""
"animation","71","98210","0.0-5.0-2.33","6362c4beb39ee39d15890c5c","bdp_lott","Mon Mar 27 2023 23:00:40 GMT-0400 (GMT-04:00)","317133","green","red","","","","","","","","","","192","","","","","","[{""stimulus"":""img/green_wl/1.jpg"",""time"":51},{""stimulus"":""img/green_wl/2.jpg"",""time"":102},{""stimulus"":""img/green_wl/3.jpg"",""time"":151},{""stimulus"":""img/green_wl/4.jpg"",""time"":201},{""stimulus"":""img/green_wl/5.jpg"",""time"":250},{""stimulus"":""img/green_wl/6.jpg"",""time"":302},{""stimulus"":""img/green_wl/7.jpg"",""time"":352},{""stimulus"":""img/green_wl/8.jpg"",""time"":401},{""stimulus"":""img/green_wl/9.jpg"",""time"":450},{""stimulus"":""img/green_wl/10.jpg"",""time"":503},{""stimulus"":""img/green_wl/11.jpg"",""time"":551}]","[]"
"image-keyboard-response","72","98563","0.0-5.0-1.34","6362c4beb39ee39d15890c5c","bdp_lott","Mon Mar 27 2023 23:00:40 GMT-0400 (GMT-04:00)","317133","green","red","","352","","","","choice","","img/green_wl/choose11.jpg","1","191","green","0.5","0.5","0.5","w","",""
"animation","73","99164","0.0-5.0-2.34","6362c4beb39ee39d15890c5c","bdp_lott","Mon Mar 27 2023 23:00:40 GMT-0400 (GMT-04:00)","317133","green","red","","","","","","","","","","191","","","","","","[{""stimulus"":""img/green_wl/1.jpg"",""time"":52},{""stimulus"":""img/green_wl/2.jpg"",""time"":102},{""stimulus"":""img/green_wl/3.jpg"",""time"":152},{""stimulus"":""img/green_wl/4.jpg"",""time"":201},{""stimulus"":""img/green_wl/5.jpg"",""time"":252},{""stimulus"":""img/green_wl/6.jpg"",""time"":302},{""stimulus"":""img/green_wl/7.jpg"",""time"":351},{""stimulus"":""img/green_wl/8.jpg"",""time"":401},{""stimulus"":""img/green_wl/9.jpg"",""time"":451},{""stimulus"":""img/green_wl/10.jpg"",""time"":502},{""stimulus"":""img/green_wl/11.jpg"",""time"":552}]","[]"
"image-keyboard-response","74","99547","0.0-5.0-1.35","6362c4beb39ee39d15890c5c","bdp_lott","Mon Mar 27 2023 23:00:40 GMT-0400 (GMT-04:00)","317133","green","red","","382","","","","choice","","img/green_wl/choose11.jpg","1","190","green","0.5","0.5","0.5","l","",""
"animation","75","100148","0.0-5.0-2.35","6362c4beb39ee39d15890c5c","bdp_lott","Mon Mar 27 2023 23:00:40 GMT-0400 (GMT-04:00)","317133","green","red","","","","","","","","","","190","","","","","","[{""stimulus"":""img/green_ll/1.jpg"",""time"":51},{""stimulus"":""img/green_ll/2.jpg"",""time"":101},{""stimulus"":""img/green_ll/3.jpg"",""time"":152},{""stimulus"":""img/green_ll/4.jpg"",""time"":202},{""stimulus"":""img/green_ll/5.jpg"",""time"":253},{""stimulus"":""img/green_ll/6.jpg"",""time"":301},{""stimulus"":""img/green_ll/7.jpg"",""time"":352},{""stimulus"":""img/green_ll/8.jpg"",""time"":401},{""stimulus"":""img/green_ll/9.jpg"",""time"":452},{""stimulus"":""img/green_ll/10.jpg"",""time"":501},{""stimulus"":""img/green_ll/11.jpg"",""time"":552}]","[]"
"image-keyboard-response","76","105003","0.0-5.0-1.36","6362c4beb39ee39d15890c5c","bdp_lott","Mon Mar 27 2023 23:00:40 GMT-0400 (GMT-04:00)","317133","green","red","","4854","","","","choice","","img/green_ll/choose11.jpg","2","189","red","0.5","0.5","0.5","w","",""
"animation","77","105604","0.0-5.0-2.36","6362c4beb39ee39d15890c5c","bdp_lott","Mon Mar 27 2023 23:00:40 GMT-0400 (GMT-04:00)","317133","green","red","","","","","","","","","","189","","","","","","[{""stimulus"":""img/red_lw/1.jpg"",""time"":51},{""stimulus"":""img/red_lw/2.jpg"",""time"":101},{""stimulus"":""img/red_lw/3.jpg"",""time"":151},{""stimulus"":""img/red_lw/4.jpg"",""time"":202},{""stimulus"":""img/red_lw/5.jpg"",""time"":252},{""stimulus"":""img/red_lw/6.jpg"",""time"":301},{""stimulus"":""img/red_lw/7.jpg"",""time"":351},{""stimulus"":""img/red_lw/8.jpg"",""time"":401},{""stimulus"":""img/red_lw/9.jpg"",""time"":452},{""stimulus"":""img/red_lw/10.jpg"",""time"":500},{""stimulus"":""img/red_lw/11.jpg"",""time"":552}]","[]"
"image-keyboard-response","78","107613","0.0-5.0-1.37","6362c4beb39ee39d15890c5c","bdp_lott","Mon Mar 27 2023 23:00:40 GMT-0400 (GMT-04:00)","317133","green","red","","2009","","","","choice","","img/red_lw/choose11.jpg","2","188","red","0.5","0.5","0.5","l","",""
"animation","79","108214","0.0-5.0-2.37","6362c4beb39ee39d15890c5c","bdp_lott","Mon Mar 27 2023 23:00:40 GMT-0400 (GMT-04:00)","317133","green","red","","","","","","","","","","188","","","","","","[{""stimulus"":""img/red_ll/1.jpg"",""time"":50},{""stimulus"":""img/red_ll/2.jpg"",""time"":100},{""stimulus"":""img/red_ll/3.jpg"",""time"":150},{""stimulus"":""img/red_ll/4.jpg"",""time"":200},{""stimulus"":""img/red_ll/5.jpg"",""time"":251},{""stimulus"":""img/red_ll/6.jpg"",""time"":300},{""stimulus"":""img/red_ll/7.jpg"",""time"":351},{""stimulus"":""img/red_ll/8.jpg"",""time"":401},{""stimulus"":""img/red_ll/9.jpg"",""time"":451},{""stimulus"":""img/red_ll/10.jpg"",""time"":500},{""stimulus"":""img/red_ll/11.jpg"",""time"":551}]","[]"
"image-keyboard-response","80","109082","0.0-5.0-1.38","6362c4beb39ee39d15890c5c","bdp_lott","Mon Mar 27 2023 23:00:40 GMT-0400 (GMT-04:00)","317133","green","red","","867","","","","choice","","img/red_ll/choose11.jpg","2","187","red","0.5","0.5","0.5","w","",""
"animation","81","109684","0.0-5.0-2.38","6362c4beb39ee39d15890c5c","bdp_lott","Mon Mar 27 2023 23:00:40 GMT-0400 (GMT-04:00)","317133","green","red","","","","","","","","","","187","","","","","","[{""stimulus"":""img/red_lw/1.jpg"",""time"":50},{""stimulus"":""img/red_lw/2.jpg"",""time"":102},{""stimulus"":""img/red_lw/3.jpg"",""time"":151},{""stimulus"":""img/red_lw/4.jpg"",""time"":200},{""stimulus"":""img/red_lw/5.jpg"",""time"":251},{""stimulus"":""img/red_lw/6.jpg"",""time"":301},{""stimulus"":""img/red_lw/7.jpg"",""time"":351},{""stimulus"":""img/red_lw/8.jpg"",""time"":400},{""stimulus"":""img/red_lw/9.jpg"",""time"":450},{""stimulus"":""img/red_lw/10.jpg"",""time"":500},{""stimulus"":""img/red_lw/11.jpg"",""time"":550}]","[]"
"image-keyboard-response","82","110839","0.0-5.0-1.39","6362c4beb39ee39d15890c5c","bdp_lott","Mon Mar 27 2023 23:00:40 GMT-0400 (GMT-04:00)","317133","green","red","","1155","","","","choice","","img/red_lw/choose11.jpg","2","186","red","0.5","0.5","0.5","l","",""
"animation","83","111440","0.0-5.0-2.39","6362c4beb39ee39d15890c5c","bdp_lott","Mon Mar 27 2023 23:00:40 GMT-0400 (GMT-04:00)","317133","green","red","","","","","","","","","","186","","","","","","[{""stimulus"":""img/red_ll/1.jpg"",""time"":52},{""stimulus"":""img/red_ll/2.jpg"",""time"":103},{""stimulus"":""img/red_ll/3.jpg"",""time"":152},{""stimulus"":""img/red_ll/4.jpg"",""time"":202},{""stimulus"":""img/red_ll/5.jpg"",""time"":252},{""stimulus"":""img/red_ll/6.jpg"",""time"":302},{""stimulus"":""img/red_ll/7.jpg"",""time"":352},{""stimulus"":""img/red_ll/8.jpg"",""time"":402},{""stimulus"":""img/red_ll/9.jpg"",""time"":451},{""stimulus"":""img/red_ll/10.jpg"",""time"":502},{""stimulus"":""img/red_ll/11.jpg"",""time"":552}]","[]"
"image-keyboard-response","84","111853","0.0-5.0-1.40","6362c4beb39ee39d15890c5c","bdp_lott","Mon Mar 27 2023 23:00:40 GMT-0400 (GMT-04:00)","317133","green","red","","412","","","","choice","","img/red_ll/choose11.jpg","2","185","red","0.5","0.5","0.5","w","",""
"animation","85","112454","0.0-5.0-2.40","6362c4beb39ee39d15890c5c","bdp_lott","Mon Mar 27 2023 23:00:40 GMT-0400 (GMT-04:00)","317133","green","red","","","","","","","","","","185","","","","","","[{""stimulus"":""img/red_lw/1.jpg"",""time"":52},{""stimulus"":""img/red_lw/2.jpg"",""time"":102},{""stimulus"":""img/red_lw/3.jpg"",""time"":150},{""stimulus"":""img/red_lw/4.jpg"",""time"":202},{""stimulus"":""img/red_lw/5.jpg"",""time"":251},{""stimulus"":""img/red_lw/6.jpg"",""time"":302},{""stimulus"":""img/red_lw/7.jpg"",""time"":351},{""stimulus"":""img/red_lw/8.jpg"",""time"":401},{""stimulus"":""img/red_lw/9.jpg"",""time"":451},{""stimulus"":""img/red_lw/10.jpg"",""time"":501},{""stimulus"":""img/red_lw/11.jpg"",""time"":552}]","[]"
"image-keyboard-response","86","113091","0.0-5.0-1.41","6362c4beb39ee39d15890c5c","bdp_lott","Mon Mar 27 2023 23:00:40 GMT-0400 (GMT-04:00)","317133","green","red","","637","","","","choice","","img/red_lw/choose11.jpg","2","184","red","0.5","0.5","0.5","l","",""
"animation","87","113693","0.0-5.0-2.41","6362c4beb39ee39d15890c5c","bdp_lott","Mon Mar 27 2023 23:00:40 GMT-0400 (GMT-04:00)","317133","green","red","","","","","","","","","","184","","","","","","[{""stimulus"":""img/red_ll/1.jpg"",""time"":51},{""stimulus"":""img/red_ll/2.jpg"",""time"":102},{""stimulus"":""img/red_ll/3.jpg"",""time"":150},{""stimulus"":""img/red_ll/4.jpg"",""time"":202},{""stimulus"":""img/red_ll/5.jpg"",""time"":251},{""stimulus"":""img/red_ll/6.jpg"",""time"":308},{""stimulus"":""img/red_ll/7.jpg"",""time"":352},{""stimulus"":""img/red_ll/8.jpg"",""time"":401},{""stimulus"":""img/red_ll/9.jpg"",""time"":451},{""stimulus"":""img/red_ll/10.jpg"",""time"":500},{""stimulus"":""img/red_ll/11.jpg"",""time"":552}]","[]"
"image-keyboard-response","88","114109","0.0-5.0-1.42","6362c4beb39ee39d15890c5c","bdp_lott","Mon Mar 27 2023 23:00:40 GMT-0400 (GMT-04:00)","317133","green","red","","416","","","","choice","","img/red_ll/choose11.jpg","2","183","red","0.5","0.5","0.5","l","",""
"animation","89","114710","0.0-5.0-2.42","6362c4beb39ee39d15890c5c","bdp_lott","Mon Mar 27 2023 23:00:40 GMT-0400 (GMT-04:00)","317133","green","red","","","","","","","","","","183","","","","","","[{""stimulus"":""img/red_ll/1.jpg"",""time"":50},{""stimulus"":""img/red_ll/2.jpg"",""time"":101},{""stimulus"":""img/red_ll/3.jpg"",""time"":150},{""stimulus"":""img/red_ll/4.jpg"",""time"":201},{""stimulus"":""img/red_ll/5.jpg"",""time"":252},{""stimulus"":""img/red_ll/6.jpg"",""time"":302},{""stimulus"":""img/red_ll/7.jpg"",""time"":352},{""stimulus"":""img/red_ll/8.jpg"",""time"":401},{""stimulus"":""img/red_ll/9.jpg"",""time"":452},{""stimulus"":""img/red_ll/10.jpg"",""time"":500},{""stimulus"":""img/red_ll/11.jpg"",""time"":550}]","[]"
"image-keyboard-response","90","116113","0.0-5.0-1.43","6362c4beb39ee39d15890c5c","bdp_lott","Mon Mar 27 2023 23:00:40 GMT-0400 (GMT-04:00)","317133","green","red","","1403","","","","choice","","img/red_ll/choose11.jpg","1","182","green","0.5","0.5","0.5","l","",""
"animation","91","116715","0.0-5.0-2.43","6362c4beb39ee39d15890c5c","bdp_lott","Mon Mar 27 2023 23:00:40 GMT-0400 (GMT-04:00)","317133","green","red","","","","","","","","","","182","","","","","","[{""stimulus"":""img/green_ll/1.jpg"",""time"":52},{""stimulus"":""img/green_ll/2.jpg"",""time"":101},{""stimulus"":""img/green_ll/3.jpg"",""time"":150},{""stimulus"":""img/green_ll/4.jpg"",""time"":200},{""stimulus"":""img/green_ll/5.jpg"",""time"":251},{""stimulus"":""img/green_ll/6.jpg"",""time"":301},{""stimulus"":""img/green_ll/7.jpg"",""time"":351},{""stimulus"":""img/green_ll/8.jpg"",""time"":402},{""stimulus"":""img/green_ll/9.jpg"",""time"":451},{""stimulus"":""img/green_ll/10.jpg"",""time"":502},{""stimulus"":""img/green_ll/11.jpg"",""time"":552}]","[]"
"image-keyboard-response","92","118043","0.0-5.0-1.44","6362c4beb39ee39d15890c5c","bdp_lott","Mon Mar 27 2023 23:00:40 GMT-0400 (GMT-04:00)","317133","green","red","","1328","","","","choice","","img/green_ll/choose11.jpg","1","181","green","0.5","0.5","0.5","w","",""
"animation","93","118644","0.0-5.0-2.44","6362c4beb39ee39d15890c5c","bdp_lott","Mon Mar 27 2023 23:00:40 GMT-0400 (GMT-04:00)","317133","green","red","","","","","","","","","","181","","","","","","[{""stimulus"":""img/green_wl/1.jpg"",""time"":53},{""stimulus"":""img/green_wl/2.jpg"",""time"":102},{""stimulus"":""img/green_wl/3.jpg"",""time"":151},{""stimulus"":""img/green_wl/4.jpg"",""time"":202},{""stimulus"":""img/green_wl/5.jpg"",""time"":252},{""stimulus"":""img/green_wl/6.jpg"",""time"":301},{""stimulus"":""img/green_wl/7.jpg"",""time"":366},{""stimulus"":""img/green_wl/8.jpg"",""time"":401},{""stimulus"":""img/green_wl/9.jpg"",""time"":452},{""stimulus"":""img/green_wl/10.jpg"",""time"":502},{""stimulus"":""img/green_wl/11.jpg"",""time"":551}]","[]"
"image-keyboard-response","94","119476","0.0-5.0-1.45","6362c4beb39ee39d15890c5c","bdp_lott","Mon Mar 27 2023 23:00:40 GMT-0400 (GMT-04:00)","317133","green","red","","832","","","","choice","","img/green_wl/choose11.jpg","1","180","green","0.5","0.5","0.5","l","",""
"animation","95","120077","0.0-5.0-2.45","6362c4beb39ee39d15890c5c","bdp_lott","Mon Mar 27 2023 23:00:40 GMT-0400 (GMT-04:00)","317133","green","red","","","","","","","","","","180","","","","","","[{""stimulus"":""img/green_ll/1.jpg"",""time"":52},{""stimulus"":""img/green_ll/2.jpg"",""time"":101},{""stimulus"":""img/green_ll/3.jpg"",""time"":152},{""stimulus"":""img/green_ll/4.jpg"",""time"":203},{""stimulus"":""img/green_ll/5.jpg"",""time"":253},{""stimulus"":""img/green_ll/6.jpg"",""time"":301},{""stimulus"":""img/green_ll/7.jpg"",""time"":353},{""stimulus"":""img/green_ll/8.jpg"",""time"":403},{""stimulus"":""img/green_ll/9.jpg"",""time"":451},{""stimulus"":""img/green_ll/10.jpg"",""time"":501},{""stimulus"":""img/green_ll/11.jpg"",""time"":552}]","[]"
"image-keyboard-response","96","120939","0.0-5.0-1.46","6362c4beb39ee39d15890c5c","bdp_lott","Mon Mar 27 2023 23:00:40 GMT-0400 (GMT-04:00)","317133","green","red","","860","","","","choice","","img/green_ll/choose11.jpg","1","179","green","0.5","0.5","0.5","l","",""
"animation","97","121539","0.0-5.0-2.46","6362c4beb39ee39d15890c5c","bdp_lott","Mon Mar 27 2023 23:00:40 GMT-0400 (GMT-04:00)","317133","green","red","","","","","","","","","","179","","","","","","[{""stimulus"":""img/green_ll/1.jpg"",""time"":50},{""stimulus"":""img/green_ll/2.jpg"",""time"":100},{""stimulus"":""img/green_ll/3.jpg"",""time"":150},{""stimulus"":""img/green_ll/4.jpg"",""time"":202},{""stimulus"":""img/green_ll/5.jpg"",""time"":252},{""stimulus"":""img/green_ll/6.jpg"",""time"":303},{""stimulus"":""img/green_ll/7.jpg"",""time"":351},{""stimulus"":""img/green_ll/8.jpg"",""time"":400},{""stimulus"":""img/green_ll/9.jpg"",""time"":450},{""stimulus"":""img/green_ll/10.jpg"",""time"":500},{""stimulus"":""img/green_ll/11.jpg"",""time"":552}]","[]"
"image-keyboard-response","98","122436","0.0-5.0-1.47","6362c4beb39ee39d15890c5c","bdp_lott","Mon Mar 27 2023 23:00:40 GMT-0400 (GMT-04:00)","317133","green","red","","897","","","","choice","","img/green_ll/choose11.jpg","1","178","green","0.5","0.5","0.5","l","",""
"animation","99","123038","0.0-5.0-2.47","6362c4beb39ee39d15890c5c","bdp_lott","Mon Mar 27 2023 23:00:40 GMT-0400 (GMT-04:00)","317133","green","red","","","","","","","","","","178","","","","","","[{""stimulus"":""img/green_ll/1.jpg"",""time"":52},{""stimulus"":""img/green_ll/2.jpg"",""time"":101},{""stimulus"":""img/green_ll/3.jpg"",""time"":151},{""stimulus"":""img/green_ll/4.jpg"",""time"":200},{""stimulus"":""img/green_ll/5.jpg"",""time"":251},{""stimulus"":""img/green_ll/6.jpg"",""time"":301},{""stimulus"":""img/green_ll/7.jpg"",""time"":352},{""stimulus"":""img/green_ll/8.jpg"",""time"":402},{""stimulus"":""img/green_ll/9.jpg"",""time"":451},{""stimulus"":""img/green_ll/10.jpg"",""time"":501},{""stimulus"":""img/green_ll/11.jpg"",""time"":552}]","[]"
"image-keyboard-response","100","123829","0.0-5.0-1.48","6362c4beb39ee39d15890c5c","bdp_lott","Mon Mar 27 2023 23:00:40 GMT-0400 (GMT-04:00)","317133","green","red","","790","","","","choice","","img/green_ll/choose11.jpg","1","177","green","0.5","0.5","0.5","l","",""
"animation","101","124430","0.0-5.0-2.48","6362c4beb39ee39d15890c5c","bdp_lott","Mon Mar 27 2023 23:00:40 GMT-0400 (GMT-04:00)","317133","green","red","","","","","","","","","","177","","","","","","[{""stimulus"":""img/green_ll/1.jpg"",""time"":50},{""stimulus"":""img/green_ll/2.jpg"",""time"":101},{""stimulus"":""img/green_ll/3.jpg"",""time"":151},{""stimulus"":""img/green_ll/4.jpg"",""time"":200},{""stimulus"":""img/green_ll/5.jpg"",""time"":250},{""stimulus"":""img/green_ll/6.jpg"",""time"":301},{""stimulus"":""img/green_ll/7.jpg"",""time"":352},{""stimulus"":""img/green_ll/8.jpg"",""time"":400},{""stimulus"":""img/green_ll/9.jpg"",""time"":451},{""stimulus"":""img/green_ll/10.jpg"",""time"":500},{""stimulus"":""img/green_ll/11.jpg"",""time"":550}]","[]"
"image-keyboard-response","102","125011","0.0-5.0-1.49","6362c4beb39ee39d15890c5c","bdp_lott","Mon Mar 27 2023 23:00:40 GMT-0400 (GMT-04:00)","317133","green","red","","580","","","","choice","","img/green_ll/choose11.jpg","2","176","red","0.5","0.5","0.5","w","",""
"animation","103","125612","0.0-5.0-2.49","6362c4beb39ee39d15890c5c","bdp_lott","Mon Mar 27 2023 23:00:40 GMT-0400 (GMT-04:00)","317133","green","red","","","","","","","","","","176","","","","","","[{""stimulus"":""img/red_lw/1.jpg"",""time"":51},{""stimulus"":""img/red_lw/2.jpg"",""time"":101},{""stimulus"":""img/red_lw/3.jpg"",""time"":152},{""stimulus"":""img/red_lw/4.jpg"",""time"":202},{""stimulus"":""img/red_lw/5.jpg"",""time"":251},{""stimulus"":""img/red_lw/6.jpg"",""time"":302},{""stimulus"":""img/red_lw/7.jpg"",""time"":352},{""stimulus"":""img/red_lw/8.jpg"",""time"":402},{""stimulus"":""img/red_lw/9.jpg"",""time"":451},{""stimulus"":""img/red_lw/10.jpg"",""time"":502},{""stimulus"":""img/red_lw/11.jpg"",""time"":552}]","[]"
"image-keyboard-response","104","126181","0.0-5.0-1.50","6362c4beb39ee39d15890c5c","bdp_lott","Mon Mar 27 2023 23:00:40 GMT-0400 (GMT-04:00)","317133","green","red","","569","","","","choice","","img/red_lw/choose11.jpg","2","175","red","0.5","0.5","0.5","w","",""
"animation","105","126783","0.0-5.0-2.50","6362c4beb39ee39d15890c5c","bdp_lott","Mon Mar 27 2023 23:00:40 GMT-0400 (GMT-04:00)","317133","green","red","","","","","","","","","","175","","","","","","[{""stimulus"":""img/red_lw/1.jpg"",""time"":52},{""stimulus"":""img/red_lw/2.jpg"",""time"":102},{""stimulus"":""img/red_lw/3.jpg"",""time"":151},{""stimulus"":""img/red_lw/4.jpg"",""time"":201},{""stimulus"":""img/red_lw/5.jpg"",""time"":251},{""stimulus"":""img/red_lw/6.jpg"",""time"":301},{""stimulus"":""img/red_lw/7.jpg"",""time"":351},{""stimulus"":""img/red_lw/8.jpg"",""time"":401},{""stimulus"":""img/red_lw/9.jpg"",""time"":451},{""stimulus"":""img/red_lw/10.jpg"",""time"":502},{""stimulus"":""img/red_lw/11.jpg"",""time"":552}]","[]"
"image-keyboard-response","106","127279","0.0-5.0-1.51","6362c4beb39ee39d15890c5c","bdp_lott","Mon Mar 27 2023 23:00:40 GMT-0400 (GMT-04:00)","317133","green","red","","496","","","","choice","","img/red_lw/choose11.jpg","2","174","red","0.5","0.5","0.5","l","",""
"animation","107","127879","0.0-5.0-2.51","6362c4beb39ee39d15890c5c","bdp_lott","Mon Mar 27 2023 23:00:40 GMT-0400 (GMT-04:00)","317133","green","red","","","","","","","","","","174","","","","","","[{""stimulus"":""img/red_ll/1.jpg"",""time"":51},{""stimulus"":""img/red_ll/2.jpg"",""time"":101},{""stimulus"":""img/red_ll/3.jpg"",""time"":152},{""stimulus"":""img/red_ll/4.jpg"",""time"":203},{""stimulus"":""img/red_ll/5.jpg"",""time"":250},{""stimulus"":""img/red_ll/6.jpg"",""time"":301},{""stimulus"":""img/red_ll/7.jpg"",""time"":352},{""stimulus"":""img/red_ll/8.jpg"",""time"":400},{""stimulus"":""img/red_ll/9.jpg"",""time"":452},{""stimulus"":""img/red_ll/10.jpg"",""time"":500},{""stimulus"":""img/red_ll/11.jpg"",""time"":551}]","[]"
"image-keyboard-response","108","128586","0.0-5.0-1.52","6362c4beb39ee39d15890c5c","bdp_lott","Mon Mar 27 2023 23:00:40 GMT-0400 (GMT-04:00)","317133","green","red","","706","","","","choice","","img/red_ll/choose11.jpg","2","173","red","0.5","0.5","0.5","w","",""
"animation","109","129187","0.0-5.0-2.52","6362c4beb39ee39d15890c5c","bdp_lott","Mon Mar 27 2023 23:00:40 GMT-0400 (GMT-04:00)","317133","green","red","","","","","","","","","","173","","","","","","[{""stimulus"":""img/red_lw/1.jpg"",""time"":53},{""stimulus"":""img/red_lw/2.jpg"",""time"":101},{""stimulus"":""img/red_lw/3.jpg"",""time"":153},{""stimulus"":""img/red_lw/4.jpg"",""time"":201},{""stimulus"":""img/red_lw/5.jpg"",""time"":253},{""stimulus"":""img/red_lw/6.jpg"",""time"":303},{""stimulus"":""img/red_lw/7.jpg"",""time"":353},{""stimulus"":""img/red_lw/8.jpg"",""time"":401},{""stimulus"":""img/red_lw/9.jpg"",""time"":451},{""stimulus"":""img/red_lw/10.jpg"",""time"":501},{""stimulus"":""img/red_lw/11.jpg"",""time"":551}]","[]"
"image-keyboard-response","110","129679","0.0-5.0-1.53","6362c4beb39ee39d15890c5c","bdp_lott","Mon Mar 27 2023 23:00:40 GMT-0400 (GMT-04:00)","317133","green","red","","491","","","","choice","","img/red_lw/choose11.jpg","2","172","red","0.5","0.5","0.5","w","",""
"animation","111","130280","0.0-5.0-2.53","6362c4beb39ee39d15890c5c","bdp_lott","Mon Mar 27 2023 23:00:40 GMT-0400 (GMT-04:00)","317133","green","red","","","","","","","","","","172","","","","","","[{""stimulus"":""img/red_lw/1.jpg"",""time"":51},{""stimulus"":""img/red_lw/2.jpg"",""time"":102},{""stimulus"":""img/red_lw/3.jpg"",""time"":151},{""stimulus"":""img/red_lw/4.jpg"",""time"":200},{""stimulus"":""img/red_lw/5.jpg"",""time"":250},{""stimulus"":""img/red_lw/6.jpg"",""time"":301},{""stimulus"":""img/red_lw/7.jpg"",""time"":352},{""stimulus"":""img/red_lw/8.jpg"",""time"":401},{""stimulus"":""img/red_lw/9.jpg"",""time"":451},{""stimulus"":""img/red_lw/10.jpg"",""time"":501},{""stimulus"":""img/red_lw/11.jpg"",""time"":550}]","[]"
"image-keyboard-response","112","130759","0.0-5.0-1.54","6362c4beb39ee39d15890c5c","bdp_lott","Mon Mar 27 2023 23:00:40 GMT-0400 (GMT-04:00)","317133","green","red","","478","","","","choice","","img/red_lw/choose11.jpg","2","171","red","0.5","0.5","0.5","w","",""
"animation","113","131360","0.0-5.0-2.54","6362c4beb39ee39d15890c5c","bdp_lott","Mon Mar 27 2023 23:00:40 GMT-0400 (GMT-04:00)","317133","green","red","","","","","","","","","","171","","","","","","[{""stimulus"":""img/red_lw/1.jpg"",""time"":51},{""stimulus"":""img/red_lw/2.jpg"",""time"":101},{""stimulus"":""img/red_lw/3.jpg"",""time"":153},{""stimulus"":""img/red_lw/4.jpg"",""time"":201},{""stimulus"":""img/red_lw/5.jpg"",""time"":251},{""stimulus"":""img/red_lw/6.jpg"",""time"":301},{""stimulus"":""img/red_lw/7.jpg"",""time"":352},{""stimulus"":""img/red_lw/8.jpg"",""time"":401},{""stimulus"":""img/red_lw/9.jpg"",""time"":452},{""stimulus"":""img/red_lw/10.jpg"",""time"":502},{""stimulus"":""img/red_lw/11.jpg"",""time"":551}]","[]"
"image-keyboard-response","114","131801","0.0-5.0-1.55","6362c4beb39ee39d15890c5c","bdp_lott","Mon Mar 27 2023 23:00:40 GMT-0400 (GMT-04:00)","317133","green","red","","441","","","","choice","","img/red_lw/choose11.jpg","2","170","red","0.5","0.5","0.5","w","",""
"animation","115","132403","0.0-5.0-2.55","6362c4beb39ee39d15890c5c","bdp_lott","Mon Mar 27 2023 23:00:40 GMT-0400 (GMT-04:00)","317133","green","red","","","","","","","","","","170","","","","","","[{""stimulus"":""img/red_lw/1.jpg"",""time"":51},{""stimulus"":""img/red_lw/2.jpg"",""time"":101},{""stimulus"":""img/red_lw/3.jpg"",""time"":152},{""stimulus"":""img/red_lw/4.jpg"",""time"":201},{""stimulus"":""img/red_lw/5.jpg"",""time"":250},{""stimulus"":""img/red_lw/6.jpg"",""time"":301},{""stimulus"":""img/red_lw/7.jpg"",""time"":350},{""stimulus"":""img/red_lw/8.jpg"",""time"":400},{""stimulus"":""img/red_lw/9.jpg"",""time"":451},{""stimulus"":""img/red_lw/10.jpg"",""time"":501},{""stimulus"":""img/red_lw/11.jpg"",""time"":551}]","[]"
"image-keyboard-response","116","132867","0.0-5.0-1.56","6362c4beb39ee39d15890c5c","bdp_lott","Mon Mar 27 2023 23:00:40 GMT-0400 (GMT-04:00)","317133","green","red","","464","","","","choice","","img/red_lw/choose11.jpg","2","169","red","0.5","0.5","0.5","l","",""
"animation","117","133468","0.0-5.0-2.56","6362c4beb39ee39d15890c5c","bdp_lott","Mon Mar 27 2023 23:00:40 GMT-0400 (GMT-04:00)","317133","green","red","","","","","","","","","","169","","","","","","[{""stimulus"":""img/red_ll/1.jpg"",""time"":51},{""stimulus"":""img/red_ll/2.jpg"",""time"":101},{""stimulus"":""img/red_ll/3.jpg"",""time"":151},{""stimulus"":""img/red_ll/4.jpg"",""time"":200},{""stimulus"":""img/red_ll/5.jpg"",""time"":251},{""stimulus"":""img/red_ll/6.jpg"",""time"":302},{""stimulus"":""img/red_ll/7.jpg"",""time"":351},{""stimulus"":""img/red_ll/8.jpg"",""time"":401},{""stimulus"":""img/red_ll/9.jpg"",""time"":451},{""stimulus"":""img/red_ll/10.jpg"",""time"":501},{""stimulus"":""img/red_ll/11.jpg"",""time"":551}]","[]"
"image-keyboard-response","118","133994","0.0-5.0-1.57","6362c4beb39ee39d15890c5c","bdp_lott","Mon Mar 27 2023 23:00:40 GMT-0400 (GMT-04:00)","317133","green","red","","525","","","","choice","","img/red_ll/choose11.jpg","2","168","red","0.5","0.5","0.5","w","",""
"animation","119","134597","0.0-5.0-2.57","6362c4beb39ee39d15890c5c","bdp_lott","Mon Mar 27 2023 23:00:40 GMT-0400 (GMT-04:00)","317133","green","red","","","","","","","","","","168","","","","","","[{""stimulus"":""img/red_lw/1.jpg"",""time"":51},{""stimulus"":""img/red_lw/2.jpg"",""time"":102},{""stimulus"":""img/red_lw/3.jpg"",""time"":151},{""stimulus"":""img/red_lw/4.jpg"",""time"":201},{""stimulus"":""img/red_lw/5.jpg"",""time"":251},{""stimulus"":""img/red_lw/6.jpg"",""time"":302},{""stimulus"":""img/red_lw/7.jpg"",""time"":351},{""stimulus"":""img/red_lw/8.jpg"",""time"":401},{""stimulus"":""img/red_lw/9.jpg"",""time"":452},{""stimulus"":""img/red_lw/10.jpg"",""time"":501},{""stimulus"":""img/red_lw/11.jpg"",""time"":551}]","[]"
"image-keyboard-response","120","135091","0.0-5.0-1.58","6362c4beb39ee39d15890c5c","bdp_lott","Mon Mar 27 2023 23:00:40 GMT-0400 (GMT-04:00)","317133","green","red","","494","","","","choice","","img/red_lw/choose11.jpg","2","167","red","0.5","0.5","0.5","w","",""
"animation","121","135693","0.0-5.0-2.58","6362c4beb39ee39d15890c5c","bdp_lott","Mon Mar 27 2023 23:00:40 GMT-0400 (GMT-04:00)","317133","green","red","","","","","","","","","","167","","","","","","[{""stimulus"":""img/red_lw/1.jpg"",""time"":51},{""stimulus"":""img/red_lw/2.jpg"",""time"":100},{""stimulus"":""img/red_lw/3.jpg"",""time"":151},{""stimulus"":""img/red_lw/4.jpg"",""time"":200},{""stimulus"":""img/red_lw/5.jpg"",""time"":250},{""stimulus"":""img/red_lw/6.jpg"",""time"":309},{""stimulus"":""img/red_lw/7.jpg"",""time"":351},{""stimulus"":""img/red_lw/8.jpg"",""time"":400},{""stimulus"":""img/red_lw/9.jpg"",""time"":450},{""stimulus"":""img/red_lw/10.jpg"",""time"":500},{""stimulus"":""img/red_lw/11.jpg"",""time"":551}]","[]"
"image-keyboard-response","122","136075","0.0-5.0-1.59","6362c4beb39ee39d15890c5c","bdp_lott","Mon Mar 27 2023 23:00:40 GMT-0400 (GMT-04:00)","317133","green","red","","382","","","","choice","","img/red_lw/choose11.jpg","2","166","red","0.5","0.5","0.5","w","",""
"animation","123","136676","0.0-5.0-2.59","6362c4beb39ee39d15890c5c","bdp_lott","Mon Mar 27 2023 23:00:40 GMT-0400 (GMT-04:00)","317133","green","red","","","","","","","","","","166","","","","","","[{""stimulus"":""img/red_lw/1.jpg"",""time"":52},{""stimulus"":""img/red_lw/2.jpg"",""time"":101},{""stimulus"":""img/red_lw/3.jpg"",""time"":151},{""stimulus"":""img/red_lw/4.jpg"",""time"":203},{""stimulus"":""img/red_lw/5.jpg"",""time"":250},{""stimulus"":""img/red_lw/6.jpg"",""time"":302},{""stimulus"":""img/red_lw/7.jpg"",""time"":351},{""stimulus"":""img/red_lw/8.jpg"",""time"":401},{""stimulus"":""img/red_lw/9.jpg"",""time"":451},{""stimulus"":""img/red_lw/10.jpg"",""time"":501},{""stimulus"":""img/red_lw/11.jpg"",""time"":551}]","[]"
"image-keyboard-response","124","137059","0.0-5.0-1.60","6362c4beb39ee39d15890c5c","bdp_lott","Mon Mar 27 2023 23:00:40 GMT-0400 (GMT-04:00)","317133","green","red","","382","","","","choice","","img/red_lw/choose11.jpg","2","165","red","0.5","0.5","0.5","l","",""
"animation","125","137660","0.0-5.0-2.60","6362c4beb39ee39d15890c5c","bdp_lott","Mon Mar 27 2023 23:00:40 GMT-0400 (GMT-04:00)","317133","green","red","","","","","","","","","","165","","","","","","[{""stimulus"":""img/red_ll/1.jpg"",""time"":50},{""stimulus"":""img/red_ll/2.jpg"",""time"":100},{""stimulus"":""img/red_ll/3.jpg"",""time"":151},{""stimulus"":""img/red_ll/4.jpg"",""time"":200},{""stimulus"":""img/red_ll/5.jpg"",""time"":250},{""stimulus"":""img/red_ll/6.jpg"",""time"":301},{""stimulus"":""img/red_ll/7.jpg"",""time"":351},{""stimulus"":""img/red_ll/8.jpg"",""time"":401},{""stimulus"":""img/red_ll/9.jpg"",""time"":451},{""stimulus"":""img/red_ll/10.jpg"",""time"":500},{""stimulus"":""img/red_ll/11.jpg"",""time"":550}]","[]"
"image-keyboard-response","126","138197","0.0-5.0-1.61","6362c4beb39ee39d15890c5c","bdp_lott","Mon Mar 27 2023 23:00:40 GMT-0400 (GMT-04:00)","317133","green","red","","537","","","","choice","","img/red_ll/choose11.jpg","2","164","red","0.5","0.5","0.5","l","",""
"animation","127","138798","0.0-5.0-2.61","6362c4beb39ee39d15890c5c","bdp_lott","Mon Mar 27 2023 23:00:40 GMT-0400 (GMT-04:00)","317133","green","red","","","","","","","","","","164","","","","","","[{""stimulus"":""img/red_ll/1.jpg"",""time"":50},{""stimulus"":""img/red_ll/2.jpg"",""time"":102},{""stimulus"":""img/red_ll/3.jpg"",""time"":151},{""stimulus"":""img/red_ll/4.jpg"",""time"":201},{""stimulus"":""img/red_ll/5.jpg"",""time"":251},{""stimulus"":""img/red_ll/6.jpg"",""time"":302},{""stimulus"":""img/red_ll/7.jpg"",""time"":350},{""stimulus"":""img/red_ll/8.jpg"",""time"":402},{""stimulus"":""img/red_ll/9.jpg"",""time"":452},{""stimulus"":""img/red_ll/10.jpg"",""time"":500},{""stimulus"":""img/red_ll/11.jpg"",""time"":551}]","[]"
"image-keyboard-response","128","139130","0.0-5.0-1.62","6362c4beb39ee39d15890c5c","bdp_lott","Mon Mar 27 2023 23:00:40 GMT-0400 (GMT-04:00)","317133","green","red","","331","","","","choice","","img/red_ll/choose11.jpg","2","163","red","0.5","0.5","0.5","w","",""
"animation","129","139731","0.0-5.0-2.62","6362c4beb39ee39d15890c5c","bdp_lott","Mon Mar 27 2023 23:00:40 GMT-0400 (GMT-04:00)","317133","green","red","","","","","","","","","","163","","","","","","[{""stimulus"":""img/red_lw/1.jpg"",""time"":51},{""stimulus"":""img/red_lw/2.jpg"",""time"":101},{""stimulus"":""img/red_lw/3.jpg"",""time"":151},{""stimulus"":""img/red_lw/4.jpg"",""time"":201},{""stimulus"":""img/red_lw/5.jpg"",""time"":252},{""stimulus"":""img/red_lw/6.jpg"",""time"":301},{""stimulus"":""img/red_lw/7.jpg"",""time"":351},{""stimulus"":""img/red_lw/8.jpg"",""time"":401},{""stimulus"":""img/red_lw/9.jpg"",""time"":450},{""stimulus"":""img/red_lw/10.jpg"",""time"":503},{""stimulus"":""img/red_lw/11.jpg"",""time"":551}]","[]"
"image-keyboard-response","130","140324","0.0-5.0-1.63","6362c4beb39ee39d15890c5c","bdp_lott","Mon Mar 27 2023 23:00:40 GMT-0400 (GMT-04:00)","317133","green","red","","592","","","","choice","","img/red_lw/choose11.jpg","2","162","red","0.5","0.5","0.5","l","",""
"animation","131","140926","0.0-5.0-2.63","6362c4beb39ee39d15890c5c","bdp_lott","Mon Mar 27 2023 23:00:40 GMT-0400 (GMT-04:00)","317133","green","red","","","","","","","","","","162","","","","","","[{""stimulus"":""img/red_ll/1.jpg"",""time"":51},{""stimulus"":""img/red_ll/2.jpg"",""time"":103},{""stimulus"":""img/red_ll/3.jpg"",""time"":152},{""stimulus"":""img/red_ll/4.jpg"",""time"":201},{""stimulus"":""img/red_ll/5.jpg"",""time"":252},{""stimulus"":""img/red_ll/6.jpg"",""time"":301},{""stimulus"":""img/red_ll/7.jpg"",""time"":352},{""stimulus"":""img/red_ll/8.jpg"",""time"":402},{""stimulus"":""img/red_ll/9.jpg"",""time"":451},{""stimulus"":""img/red_ll/10.jpg"",""time"":502},{""stimulus"":""img/red_ll/11.jpg"",""time"":552}]","[]"
"image-keyboard-response","132","141292","0.0-5.0-1.64","6362c4beb39ee39d15890c5c","bdp_lott","Mon Mar 27 2023 23:00:40 GMT-0400 (GMT-04:00)","317133","green","red","","366","","","","choice","","img/red_ll/choose11.jpg","2","161","red","0.5","0.5","0.5","w","",""
"animation","133","141894","0.0-5.0-2.64","6362c4beb39ee39d15890c5c","bdp_lott","Mon Mar 27 2023 23:00:40 GMT-0400 (GMT-04:00)","317133","green","red","","","","","","","","","","161","","","","","","[{""stimulus"":""img/red_lw/1.jpg"",""time"":52},{""stimulus"":""img/red_lw/2.jpg"",""time"":101},{""stimulus"":""img/red_lw/3.jpg"",""time"":152},{""stimulus"":""img/red_lw/4.jpg"",""time"":200},{""stimulus"":""img/red_lw/5.jpg"",""time"":251},{""stimulus"":""img/red_lw/6.jpg"",""time"":301},{""stimulus"":""img/red_lw/7.jpg"",""time"":352},{""stimulus"":""img/red_lw/8.jpg"",""time"":402},{""stimulus"":""img/red_lw/9.jpg"",""time"":452},{""stimulus"":""img/red_lw/10.jpg"",""time"":501},{""stimulus"":""img/red_lw/11.jpg"",""time"":552}]","[]"
"image-keyboard-response","134","142301","0.0-5.0-1.65","6362c4beb39ee39d15890c5c","bdp_lott","Mon Mar 27 2023 23:00:40 GMT-0400 (GMT-04:00)","317133","green","red","","407","","","","choice","","img/red_lw/choose11.jpg","2","160","red","0.5","0.5","0.5","w","",""
"animation","135","142902","0.0-5.0-2.65","6362c4beb39ee39d15890c5c","bdp_lott","Mon Mar 27 2023 23:00:40 GMT-0400 (GMT-04:00)","317133","green","red","","","","","","","","","","160","","","","","","[{""stimulus"":""img/red_lw/1.jpg"",""time"":50},{""stimulus"":""img/red_lw/2.jpg"",""time"":100},{""stimulus"":""img/red_lw/3.jpg"",""time"":151},{""stimulus"":""img/red_lw/4.jpg"",""time"":201},{""stimulus"":""img/red_lw/5.jpg"",""time"":251},{""stimulus"":""img/red_lw/6.jpg"",""time"":300},{""stimulus"":""img/red_lw/7.jpg"",""time"":351},{""stimulus"":""img/red_lw/8.jpg"",""time"":401},{""stimulus"":""img/red_lw/9.jpg"",""time"":451},{""stimulus"":""img/red_lw/10.jpg"",""time"":502},{""stimulus"":""img/red_lw/11.jpg"",""time"":550}]","[]"
"image-keyboard-response","136","143309","0.0-5.0-1.66","6362c4beb39ee39d15890c5c","bdp_lott","Mon Mar 27 2023 23:00:40 GMT-0400 (GMT-04:00)","317133","green","red","","407","","","","choice","","img/red_lw/choose11.jpg","2","159","red","0.5","0.5","0.5","l","",""
"animation","137","143910","0.0-5.0-2.66","6362c4beb39ee39d15890c5c","bdp_lott","Mon Mar 27 2023 23:00:40 GMT-0400 (GMT-04:00)","317133","green","red","","","","","","","","","","159","","","","","","[{""stimulus"":""img/red_ll/1.jpg"",""time"":53},{""stimulus"":""img/red_ll/2.jpg"",""time"":102},{""stimulus"":""img/red_ll/3.jpg"",""time"":152},{""stimulus"":""img/red_ll/4.jpg"",""time"":201},{""stimulus"":""img/red_ll/5.jpg"",""time"":252},{""stimulus"":""img/red_ll/6.jpg"",""time"":302},{""stimulus"":""img/red_ll/7.jpg"",""time"":352},{""stimulus"":""img/red_ll/8.jpg"",""time"":402},{""stimulus"":""img/red_ll/9.jpg"",""time"":452},{""stimulus"":""img/red_ll/10.jpg"",""time"":502},{""stimulus"":""img/red_ll/11.jpg"",""time"":552}]","[]"
"image-keyboard-response","138","144272","0.0-5.0-1.67","6362c4beb39ee39d15890c5c","bdp_lott","Mon Mar 27 2023 23:00:40 GMT-0400 (GMT-04:00)","317133","green","red","","361","","","","choice","","img/red_ll/choose11.jpg","2","158","red","0.5","0.5","0.5","l","",""
"animation","139","144875","0.0-5.0-2.67","6362c4beb39ee39d15890c5c","bdp_lott","Mon Mar 27 2023 23:00:40 GMT-0400 (GMT-04:00)","317133","green","red","","","","","","","","","","158","","","","","","[{""stimulus"":""img/red_ll/1.jpg"",""time"":50},{""stimulus"":""img/red_ll/2.jpg"",""time"":100},{""stimulus"":""img/red_ll/3.jpg"",""time"":150},{""stimulus"":""img/red_ll/4.jpg"",""time"":201},{""stimulus"":""img/red_ll/5.jpg"",""time"":252},{""stimulus"":""img/red_ll/6.jpg"",""time"":300},{""stimulus"":""img/red_ll/7.jpg"",""time"":351},{""stimulus"":""img/red_ll/8.jpg"",""time"":400},{""stimulus"":""img/red_ll/9.jpg"",""time"":451},{""stimulus"":""img/red_ll/10.jpg"",""time"":501},{""stimulus"":""img/red_ll/11.jpg"",""time"":551}]","[]"
"image-keyboard-response","140","145251","0.0-5.0-1.68","6362c4beb39ee39d15890c5c","bdp_lott","Mon Mar 27 2023 23:00:40 GMT-0400 (GMT-04:00)","317133","green","red","","376","","","","choice","","img/red_ll/choose11.jpg","2","157","red","0.5","0.5","0.5","l","",""
"animation","141","145852","0.0-5.0-2.68","6362c4beb39ee39d15890c5c","bdp_lott","Mon Mar 27 2023 23:00:40 GMT-0400 (GMT-04:00)","317133","green","red","","","","","","","","","","157","","","","","","[{""stimulus"":""img/red_ll/1.jpg"",""time"":51},{""stimulus"":""img/red_ll/2.jpg"",""time"":102},{""stimulus"":""img/red_ll/3.jpg"",""time"":150},{""stimulus"":""img/red_ll/4.jpg"",""time"":201},{""stimulus"":""img/red_ll/5.jpg"",""time"":251},{""stimulus"":""img/red_ll/6.jpg"",""time"":301},{""stimulus"":""img/red_ll/7.jpg"",""time"":350},{""stimulus"":""img/red_ll/8.jpg"",""time"":402},{""stimulus"":""img/red_ll/9.jpg"",""time"":450},{""stimulus"":""img/red_ll/10.jpg"",""time"":501},{""stimulus"":""img/red_ll/11.jpg"",""time"":550}]","[]"
"image-keyboard-response","142","146535","0.0-5.0-1.69","6362c4beb39ee39d15890c5c","bdp_lott","Mon Mar 27 2023 23:00:40 GMT-0400 (GMT-04:00)","317133","green","red","","683","","","","choice","","img/red_ll/choose11.jpg","2","156","red","0.5","0.5","0.5","l","",""
"animation","143","147136","0.0-5.0-2.69","6362c4beb39ee39d15890c5c","bdp_lott","Mon Mar 27 2023 23:00:40 GMT-0400 (GMT-04:00)","317133","green","red","","","","","","","","","","156","","","","","","[{""stimulus"":""img/red_ll/1.jpg"",""time"":50},{""stimulus"":""img/red_ll/2.jpg"",""time"":101},{""stimulus"":""img/red_ll/3.jpg"",""time"":151},{""stimulus"":""img/red_ll/4.jpg"",""time"":203},{""stimulus"":""img/red_ll/5.jpg"",""time"":251},{""stimulus"":""img/red_ll/6.jpg"",""time"":301},{""stimulus"":""img/red_ll/7.jpg"",""time"":351},{""stimulus"":""img/red_ll/8.jpg"",""time"":401},{""stimulus"":""img/red_ll/9.jpg"",""time"":451},{""stimulus"":""img/red_ll/10.jpg"",""time"":502},{""stimulus"":""img/red_ll/11.jpg"",""time"":553}]","[]"
"image-keyboard-response","144","147507","0.0-5.0-1.70","6362c4beb39ee39d15890c5c","bdp_lott","Mon Mar 27 2023 23:00:40 GMT-0400 (GMT-04:00)","317133","green","red","","371","","","","choice","","img/red_ll/choose11.jpg","1","155","green","0.5","0.5","0.5","w","",""
"animation","145","148108","0.0-5.0-2.70","6362c4beb39ee39d15890c5c","bdp_lott","Mon Mar 27 2023 23:00:40 GMT-0400 (GMT-04:00)","317133","green","red","","","","","","","","","","155","","","","","","[{""stimulus"":""img/green_wl/1.jpg"",""time"":52},{""stimulus"":""img/green_wl/2.jpg"",""time"":101},{""stimulus"":""img/green_wl/3.jpg"",""time"":152},{""stimulus"":""img/green_wl/4.jpg"",""time"":201},{""stimulus"":""img/green_wl/5.jpg"",""time"":251},{""stimulus"":""img/green_wl/6.jpg"",""time"":301},{""stimulus"":""img/green_wl/7.jpg"",""time"":351},{""stimulus"":""img/green_wl/8.jpg"",""time"":402},{""stimulus"":""img/green_wl/9.jpg"",""time"":452},{""stimulus"":""img/green_wl/10.jpg"",""time"":501},{""stimulus"":""img/green_wl/11.jpg"",""time"":551}]","[]"
"image-keyboard-response","146","148566","0.0-5.0-1.71","6362c4beb39ee39d15890c5c","bdp_lott","Mon Mar 27 2023 23:00:40 GMT-0400 (GMT-04:00)","317133","green","red","","458","","","","choice","","img/green_wl/choose11.jpg","1","154","green","0.5","0.5","0.5","w","",""
"animation","147","149167","0.0-5.0-2.71","6362c4beb39ee39d15890c5c","bdp_lott","Mon Mar 27 2023 23:00:40 GMT-0400 (GMT-04:00)","317133","green","red","","","","","","","","","","154","","","","","","[{""stimulus"":""img/green_wl/1.jpg"",""time"":51},{""stimulus"":""img/green_wl/2.jpg"",""time"":101},{""stimulus"":""img/green_wl/3.jpg"",""time"":151},{""stimulus"":""img/green_wl/4.jpg"",""time"":201},{""stimulus"":""img/green_wl/5.jpg"",""time"":250},{""stimulus"":""img/green_wl/6.jpg"",""time"":300},{""stimulus"":""img/green_wl/7.jpg"",""time"":350},{""stimulus"":""img/green_wl/8.jpg"",""time"":401},{""stimulus"":""img/green_wl/9.jpg"",""time"":452},{""stimulus"":""img/green_wl/10.jpg"",""time"":502},{""stimulus"":""img/green_wl/11.jpg"",""time"":550}]","[]"
"image-keyboard-response","148","149564","0.0-5.0-1.72","6362c4beb39ee39d15890c5c","bdp_lott","Mon Mar 27 2023 23:00:40 GMT-0400 (GMT-04:00)","317133","green","red","","397","","","","choice","","img/green_wl/choose11.jpg","1","153","green","0.5","0.5","0.5","l","",""
"animation","149","150167","0.0-5.0-2.72","6362c4beb39ee39d15890c5c","bdp_lott","Mon Mar 27 2023 23:00:40 GMT-0400 (GMT-04:00)","317133","green","red","","","","","","","","","","153","","","","","","[{""stimulus"":""img/green_ll/1.jpg"",""time"":51},{""stimulus"":""img/green_ll/2.jpg"",""time"":101},{""stimulus"":""img/green_ll/3.jpg"",""time"":152},{""stimulus"":""img/green_ll/4.jpg"",""time"":201},{""stimulus"":""img/green_ll/5.jpg"",""time"":253},{""stimulus"":""img/green_ll/6.jpg"",""time"":303},{""stimulus"":""img/green_ll/7.jpg"",""time"":351},{""stimulus"":""img/green_ll/8.jpg"",""time"":401},{""stimulus"":""img/green_ll/9.jpg"",""time"":452},{""stimulus"":""img/green_ll/10.jpg"",""time"":503},{""stimulus"":""img/green_ll/11.jpg"",""time"":552}]","[]"
"image-keyboard-response","150","150768","0.0-5.0-1.73","6362c4beb39ee39d15890c5c","bdp_lott","Mon Mar 27 2023 23:00:40 GMT-0400 (GMT-04:00)","317133","green","red","","601","","","","choice","","img/green_ll/choose11.jpg","1","152","green","0.5","0.5","0.5","l","",""
"animation","151","151369","0.0-5.0-2.73","6362c4beb39ee39d15890c5c","bdp_lott","Mon Mar 27 2023 23:00:40 GMT-0400 (GMT-04:00)","317133","green","red","","","","","","","","","","152","","","","","","[{""stimulus"":""img/green_ll/1.jpg"",""time"":51},{""stimulus"":""img/green_ll/2.jpg"",""time"":102},{""stimulus"":""img/green_ll/3.jpg"",""time"":152},{""stimulus"":""img/green_ll/4.jpg"",""time"":202},{""stimulus"":""img/green_ll/5.jpg"",""time"":251},{""stimulus"":""img/green_ll/6.jpg"",""time"":301},{""stimulus"":""img/green_ll/7.jpg"",""time"":352},{""stimulus"":""img/green_ll/8.jpg"",""time"":402},{""stimulus"":""img/green_ll/9.jpg"",""time"":452},{""stimulus"":""img/green_ll/10.jpg"",""time"":501},{""stimulus"":""img/green_ll/11.jpg"",""time"":553}]","[]"
"image-keyboard-response","152","151850","0.0-5.0-1.74","6362c4beb39ee39d15890c5c","bdp_lott","Mon Mar 27 2023 23:00:40 GMT-0400 (GMT-04:00)","317133","green","red","","481","","","","choice","","img/green_ll/choose11.jpg","1","151","green","0.5","0.5","0.5","l","",""
"animation","153","152451","0.0-5.0-2.74","6362c4beb39ee39d15890c5c","bdp_lott","Mon Mar 27 2023 23:00:40 GMT-0400 (GMT-04:00)","317133","green","red","","","","","","","","","","151","","","","","","[{""stimulus"":""img/green_ll/1.jpg"",""time"":51},{""stimulus"":""img/green_ll/2.jpg"",""time"":102},{""stimulus"":""img/green_ll/3.jpg"",""time"":151},{""stimulus"":""img/green_ll/4.jpg"",""time"":200},{""stimulus"":""img/green_ll/5.jpg"",""time"":253},{""stimulus"":""img/green_ll/6.jpg"",""time"":301},{""stimulus"":""img/green_ll/7.jpg"",""time"":350},{""stimulus"":""img/green_ll/8.jpg"",""time"":400},{""stimulus"":""img/green_ll/9.jpg"",""time"":450},{""stimulus"":""img/green_ll/10.jpg"",""time"":501},{""stimulus"":""img/green_ll/11.jpg"",""time"":551}]","[]"
"image-keyboard-response","154","152949","0.0-5.0-1.75","6362c4beb39ee39d15890c5c","bdp_lott","Mon Mar 27 2023 23:00:40 GMT-0400 (GMT-04:00)","317133","green","red","","498","","","","choice","","img/green_ll/choose11.jpg","1","150","green","0.5","0.5","0.5","w","",""
"animation","155","153551","0.0-5.0-2.75","6362c4beb39ee39d15890c5c","bdp_lott","Mon Mar 27 2023 23:00:40 GMT-0400 (GMT-04:00)","317133","green","red","","","","","","","","","","150","","","","","","[{""stimulus"":""img/green_wl/1.jpg"",""time"":53},{""stimulus"":""img/green_wl/2.jpg"",""time"":100},{""stimulus"":""img/green_wl/3.jpg"",""time"":152},{""stimulus"":""img/green_wl/4.jpg"",""time"":201},{""stimulus"":""img/green_wl/5.jpg"",""time"":253},{""stimulus"":""img/green_wl/6.jpg"",""time"":302},{""stimulus"":""img/green_wl/7.jpg"",""time"":352},{""stimulus"":""img/green_wl/8.jpg"",""time"":402},{""stimulus"":""img/green_wl/9.jpg"",""time"":451},{""stimulus"":""img/green_wl/10.jpg"",""time"":502},{""stimulus"":""img/green_wl/11.jpg"",""time"":552}]","[]"
"image-keyboard-response","156","154157","0.0-5.0-1.76","6362c4beb39ee39d15890c5c","bdp_lott","Mon Mar 27 2023 23:00:40 GMT-0400 (GMT-04:00)","317133","green","red","","606","","","","choice","","img/green_wl/choose11.jpg","1","149","green","0.5","0.1","0.5","w","",""
"animation","157","154758","0.0-5.0-2.76","6362c4beb39ee39d15890c5c","bdp_lott","Mon Mar 27 2023 23:00:40 GMT-0400 (GMT-04:00)","317133","green","red","","","","","","","","","","149","","","","","","[{""stimulus"":""img/green_wl/1.jpg"",""time"":52},{""stimulus"":""img/green_wl/2.jpg"",""time"":102},{""stimulus"":""img/green_wl/3.jpg"",""time"":152},{""stimulus"":""img/green_wl/4.jpg"",""time"":202},{""stimulus"":""img/green_wl/5.jpg"",""time"":251},{""stimulus"":""img/green_wl/6.jpg"",""time"":302},{""stimulus"":""img/green_wl/7.jpg"",""time"":352},{""stimulus"":""img/green_wl/8.jpg"",""time"":402},{""stimulus"":""img/green_wl/9.jpg"",""time"":451},{""stimulus"":""img/green_wl/10.jpg"",""time"":502},{""stimulus"":""img/green_wl/11.jpg"",""time"":551}]","[]"
"image-keyboard-response","158","155195","0.0-5.0-1.77","6362c4beb39ee39d15890c5c","bdp_lott","Mon Mar 27 2023 23:00:40 GMT-0400 (GMT-04:00)","317133","green","red","","437","","","","choice","","img/green_wl/choose11.jpg","1","148","green","0.5","0.1","0.5","w","",""
"animation","159","155796","0.0-5.0-2.77","6362c4beb39ee39d15890c5c","bdp_lott","Mon Mar 27 2023 23:00:40 GMT-0400 (GMT-04:00)","317133","green","red","","","","","","","","","","148","","","","","","[{""stimulus"":""img/green_wl/1.jpg"",""time"":52},{""stimulus"":""img/green_wl/2.jpg"",""time"":100},{""stimulus"":""img/green_wl/3.jpg"",""time"":151},{""stimulus"":""img/green_wl/4.jpg"",""time"":203},{""stimulus"":""img/green_wl/5.jpg"",""time"":251},{""stimulus"":""img/green_wl/6.jpg"",""time"":301},{""stimulus"":""img/green_wl/7.jpg"",""time"":351},{""stimulus"":""img/green_wl/8.jpg"",""time"":401},{""stimulus"":""img/green_wl/9.jpg"",""time"":451},{""stimulus"":""img/green_wl/10.jpg"",""time"":501},{""stimulus"":""img/green_wl/11.jpg"",""time"":551}]","[]"
"image-keyboard-response","160","156183","0.0-5.0-1.78","6362c4beb39ee39d15890c5c","bdp_lott","Mon Mar 27 2023 23:00:40 GMT-0400 (GMT-04:00)","317133","green","red","","386","","","","choice","","img/green_wl/choose11.jpg","1","147","green","0.5","0.1","0.5","w","",""
"animation","161","156785","0.0-5.0-2.78","6362c4beb39ee39d15890c5c","bdp_lott","Mon Mar 27 2023 23:00:40 GMT-0400 (GMT-04:00)","317133","green","red","","","","","","","","","","147","","","","","","[{""stimulus"":""img/green_wl/1.jpg"",""time"":52},{""stimulus"":""img/green_wl/2.jpg"",""time"":101},{""stimulus"":""img/green_wl/3.jpg"",""time"":153},{""stimulus"":""img/green_wl/4.jpg"",""time"":202},{""stimulus"":""img/green_wl/5.jpg"",""time"":252},{""stimulus"":""img/green_wl/6.jpg"",""time"":302},{""stimulus"":""img/green_wl/7.jpg"",""time"":351},{""stimulus"":""img/green_wl/8.jpg"",""time"":401},{""stimulus"":""img/green_wl/9.jpg"",""time"":452},{""stimulus"":""img/green_wl/10.jpg"",""time"":502},{""stimulus"":""img/green_wl/11.jpg"",""time"":552}]","[]"
"image-keyboard-response","162","157143","0.0-5.0-1.79","6362c4beb39ee39d15890c5c","bdp_lott","Mon Mar 27 2023 23:00:40 GMT-0400 (GMT-04:00)","317133","green","red","","357","","","","choice","","img/green_wl/choose11.jpg","1","146","green","0.5","0.1","0.5","w","",""
"animation","163","157744","0.0-5.0-2.79","6362c4beb39ee39d15890c5c","bdp_lott","Mon Mar 27 2023 23:00:40 GMT-0400 (GMT-04:00)","317133","green","red","","","","","","","","","","146","","","","","","[{""stimulus"":""img/green_wl/1.jpg"",""time"":51},{""stimulus"":""img/green_wl/2.jpg"",""time"":102},{""stimulus"":""img/green_wl/3.jpg"",""time"":150},{""stimulus"":""img/green_wl/4.jpg"",""time"":201},{""stimulus"":""img/green_wl/5.jpg"",""time"":250},{""stimulus"":""img/green_wl/6.jpg"",""time"":301},{""stimulus"":""img/green_wl/7.jpg"",""time"":351},{""stimulus"":""img/green_wl/8.jpg"",""time"":401},{""stimulus"":""img/green_wl/9.jpg"",""time"":451},{""stimulus"":""img/green_wl/10.jpg"",""time"":500},{""stimulus"":""img/green_wl/11.jpg"",""time"":551}]","[]"
"image-keyboard-response","164","158120","0.0-5.0-1.80","6362c4beb39ee39d15890c5c","bdp_lott","Mon Mar 27 2023 23:00:40 GMT-0400 (GMT-04:00)","317133","green","red","","376","","","","choice","","img/green_wl/choose11.jpg","1","145","green","0.5","0.1","0.5","w","",""
"animation","165","158722","0.0-5.0-2.80","6362c4beb39ee39d15890c5c","bdp_lott","Mon Mar 27 2023 23:00:40 GMT-0400 (GMT-04:00)","317133","green","red","","","","","","","","","","145","","","","","","[{""stimulus"":""img/green_wl/1.jpg"",""time"":51},{""stimulus"":""img/green_wl/2.jpg"",""time"":101},{""stimulus"":""img/green_wl/3.jpg"",""time"":152},{""stimulus"":""img/green_wl/4.jpg"",""time"":201},{""stimulus"":""img/green_wl/5.jpg"",""time"":252},{""stimulus"":""img/green_wl/6.jpg"",""time"":302},{""stimulus"":""img/green_wl/7.jpg"",""time"":352},{""stimulus"":""img/green_wl/8.jpg"",""time"":401},{""stimulus"":""img/green_wl/9.jpg"",""time"":452},{""stimulus"":""img/green_wl/10.jpg"",""time"":501},{""stimulus"":""img/green_wl/11.jpg"",""time"":552}]","[]"
"image-keyboard-response","166","159101","0.0-5.0-1.81","6362c4beb39ee39d15890c5c","bdp_lott","Mon Mar 27 2023 23:00:40 GMT-0400 (GMT-04:00)","317133","green","red","","379","","","","choice","","img/green_wl/choose11.jpg","1","144","green","0.5","0.1","0.5","w","",""
"animation","167","159703","0.0-5.0-2.81","6362c4beb39ee39d15890c5c","bdp_lott","Mon Mar 27 2023 23:00:40 GMT-0400 (GMT-04:00)","317133","green","red","","","","","","","","","","144","","","","","","[{""stimulus"":""img/green_wl/1.jpg"",""time"":51},{""stimulus"":""img/green_wl/2.jpg"",""time"":101},{""stimulus"":""img/green_wl/3.jpg"",""time"":152},{""stimulus"":""img/green_wl/4.jpg"",""time"":200},{""stimulus"":""img/green_wl/5.jpg"",""time"":251},{""stimulus"":""img/green_wl/6.jpg"",""time"":301},{""stimulus"":""img/green_wl/7.jpg"",""time"":352},{""stimulus"":""img/green_wl/8.jpg"",""time"":401},{""stimulus"":""img/green_wl/9.jpg"",""time"":452},{""stimulus"":""img/green_wl/10.jpg"",""time"":502},{""stimulus"":""img/green_wl/11.jpg"",""time"":551}]","[]"
"image-keyboard-response","168","160077","0.0-5.0-1.82","6362c4beb39ee39d15890c5c","bdp_lott","Mon Mar 27 2023 23:00:40 GMT-0400 (GMT-04:00)","317133","green","red","","374","","","","choice","","img/green_wl/choose11.jpg","1","143","green","0.5","0.1","0.5","w","",""
"animation","169","160678","0.0-5.0-2.82","6362c4beb39ee39d15890c5c","bdp_lott","Mon Mar 27 2023 23:00:40 GMT-0400 (GMT-04:00)","317133","green","red","","","","","","","","","","143","","","","","","[{""stimulus"":""img/green_wl/1.jpg"",""time"":53},{""stimulus"":""img/green_wl/2.jpg"",""time"":103},{""stimulus"":""img/green_wl/3.jpg"",""time"":152},{""stimulus"":""img/green_wl/4.jpg"",""time"":202},{""stimulus"":""img/green_wl/5.jpg"",""time"":252},{""stimulus"":""img/green_wl/6.jpg"",""time"":301},{""stimulus"":""img/green_wl/7.jpg"",""time"":351},{""stimulus"":""img/green_wl/8.jpg"",""time"":401},{""stimulus"":""img/green_wl/9.jpg"",""time"":452},{""stimulus"":""img/green_wl/10.jpg"",""time"":501},{""stimulus"":""img/green_wl/11.jpg"",""time"":551}]","[]"
"image-keyboard-response","170","161080","0.0-5.0-1.83","6362c4beb39ee39d15890c5c","bdp_lott","Mon Mar 27 2023 23:00:40 GMT-0400 (GMT-04:00)","317133","green","red","","401","","","","choice","","img/green_wl/choose11.jpg","1","142","green","0.5","0.1","0.5","w","",""
"animation","171","161681","0.0-5.0-2.83","6362c4beb39ee39d15890c5c","bdp_lott","Mon Mar 27 2023 23:00:40 GMT-0400 (GMT-04:00)","317133","green","red","","","","","","","","","","142","","","","","","[{""stimulus"":""img/green_wl/1.jpg"",""time"":51},{""stimulus"":""img/green_wl/2.jpg"",""time"":101},{""stimulus"":""img/green_wl/3.jpg"",""time"":151},{""stimulus"":""img/green_wl/4.jpg"",""time"":201},{""stimulus"":""img/green_wl/5.jpg"",""time"":251},{""stimulus"":""img/green_wl/6.jpg"",""time"":301},{""stimulus"":""img/green_wl/7.jpg"",""time"":351},{""stimulus"":""img/green_wl/8.jpg"",""time"":401},{""stimulus"":""img/green_wl/9.jpg"",""time"":452},{""stimulus"":""img/green_wl/10.jpg"",""time"":502},{""stimulus"":""img/green_wl/11.jpg"",""time"":551}]","[]"
"image-keyboard-response","172","162120","0.0-5.0-1.84","6362c4beb39ee39d15890c5c","bdp_lott","Mon Mar 27 2023 23:00:40 GMT-0400 (GMT-04:00)","317133","green","red","","439","","","","choice","","img/green_wl/choose11.jpg","1","141","green","0.5","0.1","0.5","w","",""
"animation","173","162721","0.0-5.0-2.84","6362c4beb39ee39d15890c5c","bdp_lott","Mon Mar 27 2023 23:00:40 GMT-0400 (GMT-04:00)","317133","green","red","","","","","","","","","","141","","","","","","[{""stimulus"":""img/green_wl/1.jpg"",""time"":51},{""stimulus"":""img/green_wl/2.jpg"",""time"":101},{""stimulus"":""img/green_wl/3.jpg"",""time"":152},{""stimulus"":""img/green_wl/4.jpg"",""time"":201},{""stimulus"":""img/green_wl/5.jpg"",""time"":251},{""stimulus"":""img/green_wl/6.jpg"",""time"":301},{""stimulus"":""img/green_wl/7.jpg"",""time"":351},{""stimulus"":""img/green_wl/8.jpg"",""time"":401},{""stimulus"":""img/green_wl/9.jpg"",""time"":451},{""stimulus"":""img/green_wl/10.jpg"",""time"":502},{""stimulus"":""img/green_wl/11.jpg"",""time"":552}]","[]"
"image-keyboard-response","174","163119","0.0-5.0-1.85","6362c4beb39ee39d15890c5c","bdp_lott","Mon Mar 27 2023 23:00:40 GMT-0400 (GMT-04:00)","317133","green","red","","397","","","","choice","","img/green_wl/choose11.jpg","1","140","green","0.5","0.1","0.5","l","",""
"animation","175","163720","0.0-5.0-2.85","6362c4beb39ee39d15890c5c","bdp_lott","Mon Mar 27 2023 23:00:40 GMT-0400 (GMT-04:00)","317133","green","red","","","","","","","","","","140","","","","","","[{""stimulus"":""img/green_ll/1.jpg"",""time"":51},{""stimulus"":""img/green_ll/2.jpg"",""time"":100},{""stimulus"":""img/green_ll/3.jpg"",""time"":151},{""stimulus"":""img/green_ll/4.jpg"",""time"":201},{""stimulus"":""img/green_ll/5.jpg"",""time"":252},{""stimulus"":""img/green_ll/6.jpg"",""time"":301},{""stimulus"":""img/green_ll/7.jpg"",""time"":351},{""stimulus"":""img/green_ll/8.jpg"",""time"":402},{""stimulus"":""img/green_ll/9.jpg"",""time"":452},{""stimulus"":""img/green_ll/10.jpg"",""time"":501},{""stimulus"":""img/green_ll/11.jpg"",""time"":552}]","[]"
"image-keyboard-response","176","164421","0.0-5.0-1.86","6362c4beb39ee39d15890c5c","bdp_lott","Mon Mar 27 2023 23:00:40 GMT-0400 (GMT-04:00)","317133","green","red","","701","","","","choice","","img/green_ll/choose11.jpg","1","139","green","0.5","0.1","0.5","w","",""
"animation","177","165022","0.0-5.0-2.86","6362c4beb39ee39d15890c5c","bdp_lott","Mon Mar 27 2023 23:00:40 GMT-0400 (GMT-04:00)","317133","green","red","","","","","","","","","","139","","","","","","[{""stimulus"":""img/green_wl/1.jpg"",""time"":51},{""stimulus"":""img/green_wl/2.jpg"",""time"":101},{""stimulus"":""img/green_wl/3.jpg"",""time"":151},{""stimulus"":""img/green_wl/4.jpg"",""time"":202},{""stimulus"":""img/green_wl/5.jpg"",""time"":251},{""stimulus"":""img/green_wl/6.jpg"",""time"":302},{""stimulus"":""img/green_wl/7.jpg"",""time"":351},{""stimulus"":""img/green_wl/8.jpg"",""time"":402},{""stimulus"":""img/green_wl/9.jpg"",""time"":452},{""stimulus"":""img/green_wl/10.jpg"",""time"":501},{""stimulus"":""img/green_wl/11.jpg"",""time"":552}]","[]"
"image-keyboard-response","178","165539","0.0-5.0-1.87","6362c4beb39ee39d15890c5c","bdp_lott","Mon Mar 27 2023 23:00:40 GMT-0400 (GMT-04:00)","317133","green","red","","517","","","","choice","","img/green_wl/choose11.jpg","1","138","green","0.5","0.1","0.5","l","",""
"animation","179","166141","0.0-5.0-2.87","6362c4beb39ee39d15890c5c","bdp_lott","Mon Mar 27 2023 23:00:40 GMT-0400 (GMT-04:00)","317133","green","red","","","","","","","","","","138","","","","","","[{""stimulus"":""img/green_ll/1.jpg"",""time"":50},{""stimulus"":""img/green_ll/2.jpg"",""time"":102},{""stimulus"":""img/green_ll/3.jpg"",""time"":151},{""stimulus"":""img/green_ll/4.jpg"",""time"":201},{""stimulus"":""img/green_ll/5.jpg"",""time"":250},{""stimulus"":""img/green_ll/6.jpg"",""time"":301},{""stimulus"":""img/green_ll/7.jpg"",""time"":352},{""stimulus"":""img/green_ll/8.jpg"",""time"":400},{""stimulus"":""img/green_ll/9.jpg"",""time"":452},{""stimulus"":""img/green_ll/10.jpg"",""time"":501},{""stimulus"":""img/green_ll/11.jpg"",""time"":551}]","[]"
"image-keyboard-response","180","166542","0.0-5.0-1.88","6362c4beb39ee39d15890c5c","bdp_lott","Mon Mar 27 2023 23:00:40 GMT-0400 (GMT-04:00)","317133","green","red","","401","","","","choice","","img/green_ll/choose11.jpg","1","137","green","0.5","0.1","0.5","l","",""
"animation","181","167143","0.0-5.0-2.88","6362c4beb39ee39d15890c5c","bdp_lott","Mon Mar 27 2023 23:00:40 GMT-0400 (GMT-04:00)","317133","green","red","","","","","","","","","","137","","","","","","[{""stimulus"":""img/green_ll/1.jpg"",""time"":51},{""stimulus"":""img/green_ll/2.jpg"",""time"":102},{""stimulus"":""img/green_ll/3.jpg"",""time"":151},{""stimulus"":""img/green_ll/4.jpg"",""time"":201},{""stimulus"":""img/green_ll/5.jpg"",""time"":251},{""stimulus"":""img/green_ll/6.jpg"",""time"":301},{""stimulus"":""img/green_ll/7.jpg"",""time"":354},{""stimulus"":""img/green_ll/8.jpg"",""time"":401},{""stimulus"":""img/green_ll/9.jpg"",""time"":451},{""stimulus"":""img/green_ll/10.jpg"",""time"":501},{""stimulus"":""img/green_ll/11.jpg"",""time"":551}]","[]"
"image-keyboard-response","182","167535","0.0-5.0-1.89","6362c4beb39ee39d15890c5c","bdp_lott","Mon Mar 27 2023 23:00:40 GMT-0400 (GMT-04:00)","317133","green","red","","391","","","","choice","","img/green_ll/choose11.jpg","1","136","green","0.5","0.1","0.5","w","",""
"animation","183","168138","0.0-5.0-2.89","6362c4beb39ee39d15890c5c","bdp_lott","Mon Mar 27 2023 23:00:40 GMT-0400 (GMT-04:00)","317133","green","red","","","","","","","","","","136","","","","","","[{""stimulus"":""img/green_wl/1.jpg"",""time"":50},{""stimulus"":""img/green_wl/2.jpg"",""time"":101},{""stimulus"":""img/green_wl/3.jpg"",""time"":150},{""stimulus"":""img/green_wl/4.jpg"",""time"":200},{""stimulus"":""img/green_wl/5.jpg"",""time"":252},{""stimulus"":""img/green_wl/6.jpg"",""time"":302},{""stimulus"":""img/green_wl/7.jpg"",""time"":350},{""stimulus"":""img/green_wl/8.jpg"",""time"":400},{""stimulus"":""img/green_wl/9.jpg"",""time"":451},{""stimulus"":""img/green_wl/10.jpg"",""time"":501},{""stimulus"":""img/green_wl/11.jpg"",""time"":550}]","[]"
"image-keyboard-response","184","168653","0.0-5.0-1.90","6362c4beb39ee39d15890c5c","bdp_lott","Mon Mar 27 2023 23:00:40 GMT-0400 (GMT-04:00)","317133","green","red","","515","","","","choice","","img/green_wl/choose11.jpg","1","135","green","0.5","0.1","0.5","l","",""
"animation","185","169254","0.0-5.0-2.90","6362c4beb39ee39d15890c5c","bdp_lott","Mon Mar 27 2023 23:00:40 GMT-0400 (GMT-04:00)","317133","green","red","","","","","","","","","","135","","","","","","[{""stimulus"":""img/green_ll/1.jpg"",""time"":51},{""stimulus"":""img/green_ll/2.jpg"",""time"":100},{""stimulus"":""img/green_ll/3.jpg"",""time"":151},{""stimulus"":""img/green_ll/4.jpg"",""time"":200},{""stimulus"":""img/green_ll/5.jpg"",""time"":250},{""stimulus"":""img/green_ll/6.jpg"",""time"":302},{""stimulus"":""img/green_ll/7.jpg"",""time"":351},{""stimulus"":""img/green_ll/8.jpg"",""time"":401},{""stimulus"":""img/green_ll/9.jpg"",""time"":450},{""stimulus"":""img/green_ll/10.jpg"",""time"":502},{""stimulus"":""img/green_ll/11.jpg"",""time"":551}]","[]"
"image-keyboard-response","186","169737","0.0-5.0-1.91","6362c4beb39ee39d15890c5c","bdp_lott","Mon Mar 27 2023 23:00:40 GMT-0400 (GMT-04:00)","317133","green","red","","482","","","","choice","","img/green_ll/choose11.jpg","1","134","green","0.5","0.1","0.5","l","",""
"animation","187","170339","0.0-5.0-2.91","6362c4beb39ee39d15890c5c","bdp_lott","Mon Mar 27 2023 23:00:40 GMT-0400 (GMT-04:00)","317133","green","red","","","","","","","","","","134","","","","","","[{""stimulus"":""img/green_ll/1.jpg"",""time"":51},{""stimulus"":""img/green_ll/2.jpg"",""time"":101},{""stimulus"":""img/green_ll/3.jpg"",""time"":151},{""stimulus"":""img/green_ll/4.jpg"",""time"":202},{""stimulus"":""img/green_ll/5.jpg"",""time"":252},{""stimulus"":""img/green_ll/6.jpg"",""time"":301},{""stimulus"":""img/green_ll/7.jpg"",""time"":351},{""stimulus"":""img/green_ll/8.jpg"",""time"":401},{""stimulus"":""img/green_ll/9.jpg"",""time"":451},{""stimulus"":""img/green_ll/10.jpg"",""time"":501},{""stimulus"":""img/green_ll/11.jpg"",""time"":551}]","[]"
"image-keyboard-response","188","170855","0.0-5.0-1.92","6362c4beb39ee39d15890c5c","bdp_lott","Mon Mar 27 2023 23:00:40 GMT-0400 (GMT-04:00)","317133","green","red","","516","","","","choice","","img/green_ll/choose11.jpg","1","133","green","0.5","0.1","0.5","l","",""
"animation","189","171456","0.0-5.0-2.92","6362c4beb39ee39d15890c5c","bdp_lott","Mon Mar 27 2023 23:00:40 GMT-0400 (GMT-04:00)","317133","green","red","","","","","","","","","","133","","","","","","[{""stimulus"":""img/green_ll/1.jpg"",""time"":51},{""stimulus"":""img/green_ll/2.jpg"",""time"":102},{""stimulus"":""img/green_ll/3.jpg"",""time"":150},{""stimulus"":""img/green_ll/4.jpg"",""time"":201},{""stimulus"":""img/green_ll/5.jpg"",""time"":251},{""stimulus"":""img/green_ll/6.jpg"",""time"":301},{""stimulus"":""img/green_ll/7.jpg"",""time"":351},{""stimulus"":""img/green_ll/8.jpg"",""time"":401},{""stimulus"":""img/green_ll/9.jpg"",""time"":452},{""stimulus"":""img/green_ll/10.jpg"",""time"":500},{""stimulus"":""img/green_ll/11.jpg"",""time"":551}]","[]"
"image-keyboard-response","190","172223","0.0-5.0-1.93","6362c4beb39ee39d15890c5c","bdp_lott","Mon Mar 27 2023 23:00:40 GMT-0400 (GMT-04:00)","317133","green","red","","767","","","","choice","","img/green_ll/choose11.jpg","1","132","green","0.5","0.1","0.5","l","",""
"animation","191","172825","0.0-5.0-2.93","6362c4beb39ee39d15890c5c","bdp_lott","Mon Mar 27 2023 23:00:40 GMT-0400 (GMT-04:00)","317133","green","red","","","","","","","","","","132","","","","","","[{""stimulus"":""img/green_ll/1.jpg"",""time"":51},{""stimulus"":""img/green_ll/2.jpg"",""time"":102},{""stimulus"":""img/green_ll/3.jpg"",""time"":152},{""stimulus"":""img/green_ll/4.jpg"",""time"":201},{""stimulus"":""img/green_ll/5.jpg"",""time"":253},{""stimulus"":""img/green_ll/6.jpg"",""time"":301},{""stimulus"":""img/green_ll/7.jpg"",""time"":352},{""stimulus"":""img/green_ll/8.jpg"",""time"":402},{""stimulus"":""img/green_ll/9.jpg"",""time"":451},{""stimulus"":""img/green_ll/10.jpg"",""time"":501},{""stimulus"":""img/green_ll/11.jpg"",""time"":552}]","[]"
"image-keyboard-response","192","173266","0.0-5.0-1.94","6362c4beb39ee39d15890c5c","bdp_lott","Mon Mar 27 2023 23:00:40 GMT-0400 (GMT-04:00)","317133","green","red","","441","","","","choice","","img/green_ll/choose11.jpg","2","131","red","0.5","0.1","0.1","l","",""
"animation","193","173867","0.0-5.0-2.94","6362c4beb39ee39d15890c5c","bdp_lott","Mon Mar 27 2023 23:00:40 GMT-0400 (GMT-04:00)","317133","green","red","","","","","","","","","","131","","","","","","[{""stimulus"":""img/red_ll/1.jpg"",""time"":51},{""stimulus"":""img/red_ll/2.jpg"",""time"":101},{""stimulus"":""img/red_ll/3.jpg"",""time"":150},{""stimulus"":""img/red_ll/4.jpg"",""time"":200},{""stimulus"":""img/red_ll/5.jpg"",""time"":252},{""stimulus"":""img/red_ll/6.jpg"",""time"":301},{""stimulus"":""img/red_ll/7.jpg"",""time"":351},{""stimulus"":""img/red_ll/8.jpg"",""time"":400},{""stimulus"":""img/red_ll/9.jpg"",""time"":453},{""stimulus"":""img/red_ll/10.jpg"",""time"":501},{""stimulus"":""img/red_ll/11.jpg"",""time"":551}]","[]"
"image-keyboard-response","194","174296","0.0-5.0-1.95","6362c4beb39ee39d15890c5c","bdp_lott","Mon Mar 27 2023 23:00:40 GMT-0400 (GMT-04:00)","317133","green","red","","427","","","","choice","","img/red_ll/choose11.jpg","2","130","red","0.5","0.1","0.1","l","",""
"animation","195","174896","0.0-5.0-2.95","6362c4beb39ee39d15890c5c","bdp_lott","Mon Mar 27 2023 23:00:40 GMT-0400 (GMT-04:00)","317133","green","red","","","","","","","","","","130","","","","","","[{""stimulus"":""img/red_ll/1.jpg"",""time"":52},{""stimulus"":""img/red_ll/2.jpg"",""time"":101},{""stimulus"":""img/red_ll/3.jpg"",""time"":150},{""stimulus"":""img/red_ll/4.jpg"",""time"":200},{""stimulus"":""img/red_ll/5.jpg"",""time"":251},{""stimulus"":""img/red_ll/6.jpg"",""time"":301},{""stimulus"":""img/red_ll/7.jpg"",""time"":351},{""stimulus"":""img/red_ll/8.jpg"",""time"":401},{""stimulus"":""img/red_ll/9.jpg"",""time"":451},{""stimulus"":""img/red_ll/10.jpg"",""time"":501},{""stimulus"":""img/red_ll/11.jpg"",""time"":551}]","[]"
