"trial_type","trial_index","time_elapsed","internal_node_id","subject_id","task","startTime","totalTime","fairMachine","unfairMachine","view_history","rt","event","trial","time","trialtype","success","stimulus","key_press","roundsLeft","chosen","pFairMachWin","pUnfairMachWin","pTrialWin","outcome","animation_sequence","responses"
"pavlovia","0","2","0.0-0.0","628dec55823f672331c68577","bdp_lott","Sat Mar 25 2023 23:42:13 GMT-0400 (Eastern Daylight Time)","231208","green","red","","","","","","","","","","","","","","","","",""
"instructions","1","1843","0.0-1.0","628dec55823f672331c68577","bdp_lott","Sat Mar 25 2023 23:42:13 GMT-0400 (Eastern Daylight Time)","231208","green","red","[{""page_index"":0,""viewing_time"":1841}]","1841","","","","","","","","","","","","","","",""
"","","","","628dec55823f672331c68577","bdp_lott","Sat Mar 25 2023 23:42:13 GMT-0400 (Eastern Daylight Time)","231208","green","red","","","fullscreenenter","2","3164","fullscreenenter","","","","","","","","","","",""
"fullscreen","2","4152","0.0-2.0","628dec55823f672331c68577","bdp_lott","Sat Mar 25 2023 23:42:13 GMT-0400 (Eastern Daylight Time)","231208","green","red","","","","","","","true","","","","","","","","","",""
"instructions","3","26570","0.0-4.0","628dec55823f672331c68577","bdp_lott","Sat Mar 25 2023 23:42:13 GMT-0400 (Eastern Daylight Time)","231208","green","red","[{""page_index"":0,""viewing_time"":22417}]","22417","","","","","","","","","","","","","","",""
"image-keyboard-response","4","27284","0.0-5.0-1.0","628dec55823f672331c68577","bdp_lott","Sat Mar 25 2023 23:42:13 GMT-0400 (Eastern Daylight Time)","231208","green","red","","713","","","","choice","","img/red_ll/initchoose11.jpg","1","225","green","0.5","0.5","0.5","w","",""
"animation","5","27888","0.0-5.0-2.0","628dec55823f672331c68577","bdp_lott","Sat Mar 25 2023 23:42:13 GMT-0400 (Eastern Daylight Time)","231208","green","red","","","","","","","","","","225","","","","","","[{""stimulus"":""img/green_wl/1.jpg"",""time"":51},{""stimulus"":""img/green_wl/2.jpg"",""time"":103},{""stimulus"":""img/green_wl/3.jpg"",""time"":151},{""stimulus"":""img/green_wl/4.jpg"",""time"":203},{""stimulus"":""img/green_wl/5.jpg"",""time"":251},{""stimulus"":""img/green_wl/6.jpg"",""time"":302},{""stimulus"":""img/green_wl/7.jpg"",""time"":350},{""stimulus"":""img/green_wl/8.jpg"",""time"":403},{""stimulus"":""img/green_wl/9.jpg"",""time"":450},{""stimulus"":""img/green_wl/10.jpg"",""time"":503},{""stimulus"":""img/green_wl/11.jpg"",""time"":551}]","[]"
"image-keyboard-response","6","28734","0.0-5.0-1.1","628dec55823f672331c68577","bdp_lott","Sat Mar 25 2023 23:42:13 GMT-0400 (Eastern Daylight Time)","231208","green","red","","846","","","","choice","","img/green_wl/choose11.jpg","1","224","green","0.5","0.5","0.5","w","",""
"animation","7","29336","0.0-5.0-2.1","628dec55823f672331c68577","bdp_lott","Sat Mar 25 2023 23:42:13 GMT-0400 (Eastern Daylight Time)","231208","green","red","","","","","","","","","","224","","","","","","[{""stimulus"":""img/green_wl/1.jpg"",""time"":54},{""stimulus"":""img/green_wl/2.jpg"",""time"":102},{""stimulus"":""img/green_wl/3.jpg"",""time"":154},{""stimulus"":""img/green_wl/4.jpg"",""time"":201},{""stimulus"":""img/green_wl/5.jpg"",""time"":254},{""stimulus"":""img/green_wl/6.jpg"",""time"":302},{""stimulus"":""img/green_wl/7.jpg"",""time"":354},{""stimulus"":""img/green_wl/8.jpg"",""time"":402},{""stimulus"":""img/green_wl/9.jpg"",""time"":453},{""stimulus"":""img/green_wl/10.jpg"",""time"":502},{""stimulus"":""img/green_wl/11.jpg"",""time"":554}]","[]"
"image-keyboard-response","8","29833","0.0-5.0-1.2","628dec55823f672331c68577","bdp_lott","Sat Mar 25 2023 23:42:13 GMT-0400 (Eastern Daylight Time)","231208","green","red","","497","","","","choice","","img/green_wl/choose11.jpg","1","223","green","0.5","0.5","0.5","w","",""
"animation","9","30436","0.0-5.0-2.2","628dec55823f672331c68577","bdp_lott","Sat Mar 25 2023 23:42:13 GMT-0400 (Eastern Daylight Time)","231208","green","red","","","","","","","","","","223","","","","","","[{""stimulus"":""img/green_wl/1.jpg"",""time"":51},{""stimulus"":""img/green_wl/2.jpg"",""time"":103},{""stimulus"":""img/green_wl/3.jpg"",""time"":151},{""stimulus"":""img/green_wl/4.jpg"",""time"":202},{""stimulus"":""img/green_wl/5.jpg"",""time"":251},{""stimulus"":""img/green_wl/6.jpg"",""time"":303},{""stimulus"":""img/green_wl/7.jpg"",""time"":351},{""stimulus"":""img/green_wl/8.jpg"",""time"":403},{""stimulus"":""img/green_wl/9.jpg"",""time"":450},{""stimulus"":""img/green_wl/10.jpg"",""time"":502},{""stimulus"":""img/green_wl/11.jpg"",""time"":551}]","[]"
"image-keyboard-response","10","30796","0.0-5.0-1.3","628dec55823f672331c68577","bdp_lott","Sat Mar 25 2023 23:42:13 GMT-0400 (Eastern Daylight Time)","231208","green","red","","360","","","","choice","","img/green_wl/choose11.jpg","1","222","green","0.5","0.5","0.5","l","",""
"animation","11","31400","0.0-5.0-2.3","628dec55823f672331c68577","bdp_lott","Sat Mar 25 2023 23:42:13 GMT-0400 (Eastern Daylight Time)","231208","green","red","","","","","","","","","","222","","","","","","[{""stimulus"":""img/green_ll/1.jpg"",""time"":52},{""stimulus"":""img/green_ll/2.jpg"",""time"":104},{""stimulus"":""img/green_ll/3.jpg"",""time"":151},{""stimulus"":""img/green_ll/4.jpg"",""time"":204},{""stimulus"":""img/green_ll/5.jpg"",""time"":252},{""stimulus"":""img/green_ll/6.jpg"",""time"":304},{""stimulus"":""img/green_ll/7.jpg"",""time"":352},{""stimulus"":""img/green_ll/8.jpg"",""time"":403},{""stimulus"":""img/green_ll/9.jpg"",""time"":451},{""stimulus"":""img/green_ll/10.jpg"",""time"":504},{""stimulus"":""img/green_ll/11.jpg"",""time"":551}]","[]"
"image-keyboard-response","12","32130","0.0-5.0-1.4","628dec55823f672331c68577","bdp_lott","Sat Mar 25 2023 23:42:13 GMT-0400 (Eastern Daylight Time)","231208","green","red","","730","","","","choice","","img/green_ll/choose11.jpg","1","221","green","0.5","0.5","0.5","w","",""
"animation","13","32731","0.0-5.0-2.4","628dec55823f672331c68577","bdp_lott","Sat Mar 25 2023 23:42:13 GMT-0400 (Eastern Daylight Time)","231208","green","red","","","","","","","","","","221","","","","","","[{""stimulus"":""img/green_wl/1.jpg"",""time"":53},{""stimulus"":""img/green_wl/2.jpg"",""time"":101},{""stimulus"":""img/green_wl/3.jpg"",""time"":153},{""stimulus"":""img/green_wl/4.jpg"",""time"":201},{""stimulus"":""img/green_wl/5.jpg"",""time"":253},{""stimulus"":""img/green_wl/6.jpg"",""time"":302},{""stimulus"":""img/green_wl/7.jpg"",""time"":354},{""stimulus"":""img/green_wl/8.jpg"",""time"":401},{""stimulus"":""img/green_wl/9.jpg"",""time"":454},{""stimulus"":""img/green_wl/10.jpg"",""time"":502},{""stimulus"":""img/green_wl/11.jpg"",""time"":553}]","[]"
"image-keyboard-response","14","33196","0.0-5.0-1.5","628dec55823f672331c68577","bdp_lott","Sat Mar 25 2023 23:42:13 GMT-0400 (Eastern Daylight Time)","231208","green","red","","464","","","","choice","","img/green_wl/choose11.jpg","1","220","green","0.5","0.5","0.5","w","",""
"animation","15","33799","0.0-5.0-2.5","628dec55823f672331c68577","bdp_lott","Sat Mar 25 2023 23:42:13 GMT-0400 (Eastern Daylight Time)","231208","green","red","","","","","","","","","","220","","","","","","[{""stimulus"":""img/green_wl/1.jpg"",""time"":51},{""stimulus"":""img/green_wl/2.jpg"",""time"":103},{""stimulus"":""img/green_wl/3.jpg"",""time"":151},{""stimulus"":""img/green_wl/4.jpg"",""time"":203},{""stimulus"":""img/green_wl/5.jpg"",""time"":251},{""stimulus"":""img/green_wl/6.jpg"",""time"":303},{""stimulus"":""img/green_wl/7.jpg"",""time"":352},{""stimulus"":""img/green_wl/8.jpg"",""time"":403},{""stimulus"":""img/green_wl/9.jpg"",""time"":451},{""stimulus"":""img/green_wl/10.jpg"",""time"":503},{""stimulus"":""img/green_wl/11.jpg"",""time"":552}]","[]"
"image-keyboard-response","16","34156","0.0-5.0-1.6","628dec55823f672331c68577","bdp_lott","Sat Mar 25 2023 23:42:13 GMT-0400 (Eastern Daylight Time)","231208","green","red","","356","","","","choice","","img/green_wl/choose11.jpg","1","219","green","0.5","0.5","0.5","w","",""
"animation","17","34760","0.0-5.0-2.6","628dec55823f672331c68577","bdp_lott","Sat Mar 25 2023 23:42:13 GMT-0400 (Eastern Daylight Time)","231208","green","red","","","","","","","","","","219","","","","","","[{""stimulus"":""img/green_wl/1.jpg"",""time"":52},{""stimulus"":""img/green_wl/2.jpg"",""time"":103},{""stimulus"":""img/green_wl/3.jpg"",""time"":152},{""stimulus"":""img/green_wl/4.jpg"",""time"":200},{""stimulus"":""img/green_wl/5.jpg"",""time"":252},{""stimulus"":""img/green_wl/6.jpg"",""time"":304},{""stimulus"":""img/green_wl/7.jpg"",""time"":352},{""stimulus"":""img/green_wl/8.jpg"",""time"":403},{""stimulus"":""img/green_wl/9.jpg"",""time"":452},{""stimulus"":""img/green_wl/10.jpg"",""time"":504},{""stimulus"":""img/green_wl/11.jpg"",""time"":552}]","[]"
"image-keyboard-response","18","35181","0.0-5.0-1.7","628dec55823f672331c68577","bdp_lott","Sat Mar 25 2023 23:42:13 GMT-0400 (Eastern Daylight Time)","231208","green","red","","421","","","","choice","","img/green_wl/choose11.jpg","1","218","green","0.5","0.5","0.5","w","",""
"animation","19","35783","0.0-5.0-2.7","628dec55823f672331c68577","bdp_lott","Sat Mar 25 2023 23:42:13 GMT-0400 (Eastern Daylight Time)","231208","green","red","","","","","","","","","","218","","","","","","[{""stimulus"":""img/green_wl/1.jpg"",""time"":50},{""stimulus"":""img/green_wl/2.jpg"",""time"":103},{""stimulus"":""img/green_wl/3.jpg"",""time"":151},{""stimulus"":""img/green_wl/4.jpg"",""time"":203},{""stimulus"":""img/green_wl/5.jpg"",""time"":251},{""stimulus"":""img/green_wl/6.jpg"",""time"":302},{""stimulus"":""img/green_wl/7.jpg"",""time"":351},{""stimulus"":""img/green_wl/8.jpg"",""time"":402},{""stimulus"":""img/green_wl/9.jpg"",""time"":451},{""stimulus"":""img/green_wl/10.jpg"",""time"":503},{""stimulus"":""img/green_wl/11.jpg"",""time"":551}]","[]"
"image-keyboard-response","20","36157","0.0-5.0-1.8","628dec55823f672331c68577","bdp_lott","Sat Mar 25 2023 23:42:13 GMT-0400 (Eastern Daylight Time)","231208","green","red","","373","","","","choice","","img/green_wl/choose11.jpg","1","217","green","0.5","0.5","0.5","w","",""
"animation","21","36759","0.0-5.0-2.8","628dec55823f672331c68577","bdp_lott","Sat Mar 25 2023 23:42:13 GMT-0400 (Eastern Daylight Time)","231208","green","red","","","","","","","","","","217","","","","","","[{""stimulus"":""img/green_wl/1.jpg"",""time"":51},{""stimulus"":""img/green_wl/2.jpg"",""time"":103},{""stimulus"":""img/green_wl/3.jpg"",""time"":155},{""stimulus"":""img/green_wl/4.jpg"",""time"":203},{""stimulus"":""img/green_wl/5.jpg"",""time"":255},{""stimulus"":""img/green_wl/6.jpg"",""time"":303},{""stimulus"":""img/green_wl/7.jpg"",""time"":351},{""stimulus"":""img/green_wl/8.jpg"",""time"":403},{""stimulus"":""img/green_wl/9.jpg"",""time"":451},{""stimulus"":""img/green_wl/10.jpg"",""time"":503},{""stimulus"":""img/green_wl/11.jpg"",""time"":551}]","[]"
"image-keyboard-response","22","37119","0.0-5.0-1.9","628dec55823f672331c68577","bdp_lott","Sat Mar 25 2023 23:42:13 GMT-0400 (Eastern Daylight Time)","231208","green","red","","360","","","","choice","","img/green_wl/choose11.jpg","1","216","green","0.5","0.5","0.5","w","",""
"animation","23","37719","0.0-5.0-2.9","628dec55823f672331c68577","bdp_lott","Sat Mar 25 2023 23:42:13 GMT-0400 (Eastern Daylight Time)","231208","green","red","","","","","","","","","","216","","","","","","[{""stimulus"":""img/green_wl/1.jpg"",""time"":53},{""stimulus"":""img/green_wl/2.jpg"",""time"":101},{""stimulus"":""img/green_wl/3.jpg"",""time"":153},{""stimulus"":""img/green_wl/4.jpg"",""time"":201},{""stimulus"":""img/green_wl/5.jpg"",""time"":253},{""stimulus"":""img/green_wl/6.jpg"",""time"":300},{""stimulus"":""img/green_wl/7.jpg"",""time"":352},{""stimulus"":""img/green_wl/8.jpg"",""time"":401},{""stimulus"":""img/green_wl/9.jpg"",""time"":453},{""stimulus"":""img/green_wl/10.jpg"",""time"":501},{""stimulus"":""img/green_wl/11.jpg"",""time"":552}]","[]"
"image-keyboard-response","24","38047","0.0-5.0-1.10","628dec55823f672331c68577","bdp_lott","Sat Mar 25 2023 23:42:13 GMT-0400 (Eastern Daylight Time)","231208","green","red","","326","","","","choice","","img/green_wl/choose11.jpg","1","215","green","0.5","0.5","0.5","w","",""
"animation","25","38648","0.0-5.0-2.10","628dec55823f672331c68577","bdp_lott","Sat Mar 25 2023 23:42:13 GMT-0400 (Eastern Daylight Time)","231208","green","red","","","","","","","","","","215","","","","","","[{""stimulus"":""img/green_wl/1.jpg"",""time"":53},{""stimulus"":""img/green_wl/2.jpg"",""time"":100},{""stimulus"":""img/green_wl/3.jpg"",""time"":153},{""stimulus"":""img/green_wl/4.jpg"",""time"":201},{""stimulus"":""img/green_wl/5.jpg"",""time"":253},{""stimulus"":""img/green_wl/6.jpg"",""time"":301},{""stimulus"":""img/green_wl/7.jpg"",""time"":353},{""stimulus"":""img/green_wl/8.jpg"",""time"":401},{""stimulus"":""img/green_wl/9.jpg"",""time"":452},{""stimulus"":""img/green_wl/10.jpg"",""time"":500},{""stimulus"":""img/green_wl/11.jpg"",""time"":553}]","[]"
"image-keyboard-response","26","39033","0.0-5.0-1.11","628dec55823f672331c68577","bdp_lott","Sat Mar 25 2023 23:42:13 GMT-0400 (Eastern Daylight Time)","231208","green","red","","385","","","","choice","","img/green_wl/choose11.jpg","1","214","green","0.5","0.5","0.5","w","",""
"animation","27","39636","0.0-5.0-2.11","628dec55823f672331c68577","bdp_lott","Sat Mar 25 2023 23:42:13 GMT-0400 (Eastern Daylight Time)","231208","green","red","","","","","","","","","","214","","","","","","[{""stimulus"":""img/green_wl/1.jpg"",""time"":51},{""stimulus"":""img/green_wl/2.jpg"",""time"":103},{""stimulus"":""img/green_wl/3.jpg"",""time"":155},{""stimulus"":""img/green_wl/4.jpg"",""time"":202},{""stimulus"":""img/green_wl/5.jpg"",""time"":254},{""stimulus"":""img/green_wl/6.jpg"",""time"":302},{""stimulus"":""img/green_wl/7.jpg"",""time"":351},{""stimulus"":""img/green_wl/8.jpg"",""time"":403},{""stimulus"":""img/green_wl/9.jpg"",""time"":451},{""stimulus"":""img/green_wl/10.jpg"",""time"":502},{""stimulus"":""img/green_wl/11.jpg"",""time"":555}]","[]"
"image-keyboard-response","28","39968","0.0-5.0-1.12","628dec55823f672331c68577","bdp_lott","Sat Mar 25 2023 23:42:13 GMT-0400 (Eastern Daylight Time)","231208","green","red","","332","","","","choice","","img/green_wl/choose11.jpg","1","213","green","0.5","0.5","0.5","w","",""
"animation","29","40572","0.0-5.0-2.12","628dec55823f672331c68577","bdp_lott","Sat Mar 25 2023 23:42:13 GMT-0400 (Eastern Daylight Time)","231208","green","red","","","","","","","","","","213","","","","","","[{""stimulus"":""img/green_wl/1.jpg"",""time"":50},{""stimulus"":""img/green_wl/2.jpg"",""time"":102},{""stimulus"":""img/green_wl/3.jpg"",""time"":151},{""stimulus"":""img/green_wl/4.jpg"",""time"":202},{""stimulus"":""img/green_wl/5.jpg"",""time"":250},{""stimulus"":""img/green_wl/6.jpg"",""time"":303},{""stimulus"":""img/green_wl/7.jpg"",""time"":351},{""stimulus"":""img/green_wl/8.jpg"",""time"":403},{""stimulus"":""img/green_wl/9.jpg"",""time"":451},{""stimulus"":""img/green_wl/10.jpg"",""time"":502},{""stimulus"":""img/green_wl/11.jpg"",""time"":550}]","[]"
"image-keyboard-response","30","40834","0.0-5.0-1.13","628dec55823f672331c68577","bdp_lott","Sat Mar 25 2023 23:42:13 GMT-0400 (Eastern Daylight Time)","231208","green","red","","262","","","","choice","","img/green_wl/choose11.jpg","1","212","green","0.5","0.5","0.5","l","",""
"animation","31","41435","0.0-5.0-2.13","628dec55823f672331c68577","bdp_lott","Sat Mar 25 2023 23:42:13 GMT-0400 (Eastern Daylight Time)","231208","green","red","","","","","","","","","","212","","","","","","[{""stimulus"":""img/green_ll/1.jpg"",""time"":53},{""stimulus"":""img/green_ll/2.jpg"",""time"":102},{""stimulus"":""img/green_ll/3.jpg"",""time"":154},{""stimulus"":""img/green_ll/4.jpg"",""time"":201},{""stimulus"":""img/green_ll/5.jpg"",""time"":254},{""stimulus"":""img/green_ll/6.jpg"",""time"":301},{""stimulus"":""img/green_ll/7.jpg"",""time"":354},{""stimulus"":""img/green_ll/8.jpg"",""time"":402},{""stimulus"":""img/green_ll/9.jpg"",""time"":453},{""stimulus"":""img/green_ll/10.jpg"",""time"":502},{""stimulus"":""img/green_ll/11.jpg"",""time"":554}]","[]"
"image-keyboard-response","32","42097","0.0-5.0-1.14","628dec55823f672331c68577","bdp_lott","Sat Mar 25 2023 23:42:13 GMT-0400 (Eastern Daylight Time)","231208","green","red","","661","","","","choice","","img/green_ll/choose11.jpg","1","211","green","0.5","0.5","0.5","l","",""
"animation","33","42699","0.0-5.0-2.14","628dec55823f672331c68577","bdp_lott","Sat Mar 25 2023 23:42:13 GMT-0400 (Eastern Daylight Time)","231208","green","red","","","","","","","","","","211","","","","","","[{""stimulus"":""img/green_ll/1.jpg"",""time"":51},{""stimulus"":""img/green_ll/2.jpg"",""time"":103},{""stimulus"":""img/green_ll/3.jpg"",""time"":150},{""stimulus"":""img/green_ll/4.jpg"",""time"":202},{""stimulus"":""img/green_ll/5.jpg"",""time"":250},{""stimulus"":""img/green_ll/6.jpg"",""time"":302},{""stimulus"":""img/green_ll/7.jpg"",""time"":351},{""stimulus"":""img/green_ll/8.jpg"",""time"":402},{""stimulus"":""img/green_ll/9.jpg"",""time"":451},{""stimulus"":""img/green_ll/10.jpg"",""time"":502},{""stimulus"":""img/green_ll/11.jpg"",""time"":551}]","[]"
"image-keyboard-response","34","43034","0.0-5.0-1.15","628dec55823f672331c68577","bdp_lott","Sat Mar 25 2023 23:42:13 GMT-0400 (Eastern Daylight Time)","231208","green","red","","335","","","","choice","","img/green_ll/choose11.jpg","1","210","green","0.5","0.5","0.5","w","",""
"animation","35","43635","0.0-5.0-2.15","628dec55823f672331c68577","bdp_lott","Sat Mar 25 2023 23:42:13 GMT-0400 (Eastern Daylight Time)","231208","green","red","","","","","","","","","","210","","","","","","[{""stimulus"":""img/green_wl/1.jpg"",""time"":53},{""stimulus"":""img/green_wl/2.jpg"",""time"":101},{""stimulus"":""img/green_wl/3.jpg"",""time"":153},{""stimulus"":""img/green_wl/4.jpg"",""time"":201},{""stimulus"":""img/green_wl/5.jpg"",""time"":254},{""stimulus"":""img/green_wl/6.jpg"",""time"":302},{""stimulus"":""img/green_wl/7.jpg"",""time"":354},{""stimulus"":""img/green_wl/8.jpg"",""time"":402},{""stimulus"":""img/green_wl/9.jpg"",""time"":454},{""stimulus"":""img/green_wl/10.jpg"",""time"":502},{""stimulus"":""img/green_wl/11.jpg"",""time"":553}]","[]"
"image-keyboard-response","36","44079","0.0-5.0-1.16","628dec55823f672331c68577","bdp_lott","Sat Mar 25 2023 23:42:13 GMT-0400 (Eastern Daylight Time)","231208","green","red","","444","","","","choice","","img/green_wl/choose11.jpg","1","209","green","0.5","0.5","0.5","l","",""
"animation","37","44680","0.0-5.0-2.16","628dec55823f672331c68577","bdp_lott","Sat Mar 25 2023 23:42:13 GMT-0400 (Eastern Daylight Time)","231208","green","red","","","","","","","","","","209","","","","","","[{""stimulus"":""img/green_ll/1.jpg"",""time"":53},{""stimulus"":""img/green_ll/2.jpg"",""time"":101},{""stimulus"":""img/green_ll/3.jpg"",""time"":152},{""stimulus"":""img/green_ll/4.jpg"",""time"":200},{""stimulus"":""img/green_ll/5.jpg"",""time"":252},{""stimulus"":""img/green_ll/6.jpg"",""time"":304},{""stimulus"":""img/green_ll/7.jpg"",""time"":353},{""stimulus"":""img/green_ll/8.jpg"",""time"":400},{""stimulus"":""img/green_ll/9.jpg"",""time"":453},{""stimulus"":""img/green_ll/10.jpg"",""time"":504},{""stimulus"":""img/green_ll/11.jpg"",""time"":553}]","[]"
"image-keyboard-response","38","45162","0.0-5.0-1.17","628dec55823f672331c68577","bdp_lott","Sat Mar 25 2023 23:42:13 GMT-0400 (Eastern Daylight Time)","231208","green","red","","482","","","","choice","","img/green_ll/choose11.jpg","1","208","green","0.5","0.5","0.5","w","",""
"animation","39","45764","0.0-5.0-2.17","628dec55823f672331c68577","bdp_lott","Sat Mar 25 2023 23:42:13 GMT-0400 (Eastern Daylight Time)","231208","green","red","","","","","","","","","","208","","","","","","[{""stimulus"":""img/green_wl/1.jpg"",""time"":54},{""stimulus"":""img/green_wl/2.jpg"",""time"":102},{""stimulus"":""img/green_wl/3.jpg"",""time"":154},{""stimulus"":""img/green_wl/4.jpg"",""time"":202},{""stimulus"":""img/green_wl/5.jpg"",""time"":253},{""stimulus"":""img/green_wl/6.jpg"",""time"":302},{""stimulus"":""img/green_wl/7.jpg"",""time"":354},{""stimulus"":""img/green_wl/8.jpg"",""time"":402},{""stimulus"":""img/green_wl/9.jpg"",""time"":454},{""stimulus"":""img/green_wl/10.jpg"",""time"":502},{""stimulus"":""img/green_wl/11.jpg"",""time"":553}]","[]"
"image-keyboard-response","40","46193","0.0-5.0-1.18","628dec55823f672331c68577","bdp_lott","Sat Mar 25 2023 23:42:13 GMT-0400 (Eastern Daylight Time)","231208","green","red","","429","","","","choice","","img/green_wl/choose11.jpg","1","207","green","0.5","0.5","0.5","w","",""
"animation","41","46795","0.0-5.0-2.18","628dec55823f672331c68577","bdp_lott","Sat Mar 25 2023 23:42:13 GMT-0400 (Eastern Daylight Time)","231208","green","red","","","","","","","","","","207","","","","","","[{""stimulus"":""img/green_wl/1.jpg"",""time"":51},{""stimulus"":""img/green_wl/2.jpg"",""time"":102},{""stimulus"":""img/green_wl/3.jpg"",""time"":151},{""stimulus"":""img/green_wl/4.jpg"",""time"":203},{""stimulus"":""img/green_wl/5.jpg"",""time"":251},{""stimulus"":""img/green_wl/6.jpg"",""time"":302},{""stimulus"":""img/green_wl/7.jpg"",""time"":351},{""stimulus"":""img/green_wl/8.jpg"",""time"":402},{""stimulus"":""img/green_wl/9.jpg"",""time"":450},{""stimulus"":""img/green_wl/10.jpg"",""time"":503},{""stimulus"":""img/green_wl/11.jpg"",""time"":551}]","[]"
"image-keyboard-response","42","47128","0.0-5.0-1.19","628dec55823f672331c68577","bdp_lott","Sat Mar 25 2023 23:42:13 GMT-0400 (Eastern Daylight Time)","231208","green","red","","332","","","","choice","","img/green_wl/choose11.jpg","1","206","green","0.5","0.5","0.5","l","",""
"animation","43","47731","0.0-5.0-2.19","628dec55823f672331c68577","bdp_lott","Sat Mar 25 2023 23:42:13 GMT-0400 (Eastern Daylight Time)","231208","green","red","","","","","","","","","","206","","","","","","[{""stimulus"":""img/green_ll/1.jpg"",""time"":52},{""stimulus"":""img/green_ll/2.jpg"",""time"":104},{""stimulus"":""img/green_ll/3.jpg"",""time"":152},{""stimulus"":""img/green_ll/4.jpg"",""time"":204},{""stimulus"":""img/green_ll/5.jpg"",""time"":251},{""stimulus"":""img/green_ll/6.jpg"",""time"":304},{""stimulus"":""img/green_ll/7.jpg"",""time"":351},{""stimulus"":""img/green_ll/8.jpg"",""time"":404},{""stimulus"":""img/green_ll/9.jpg"",""time"":452},{""stimulus"":""img/green_ll/10.jpg"",""time"":504},{""stimulus"":""img/green_ll/11.jpg"",""time"":552}]","[]"
"image-keyboard-response","44","48262","0.0-5.0-1.20","628dec55823f672331c68577","bdp_lott","Sat Mar 25 2023 23:42:13 GMT-0400 (Eastern Daylight Time)","231208","green","red","","531","","","","choice","","img/green_ll/choose11.jpg","2","205","red","0.5","0.5","0.5","w","",""
"animation","45","48863","0.0-5.0-2.20","628dec55823f672331c68577","bdp_lott","Sat Mar 25 2023 23:42:13 GMT-0400 (Eastern Daylight Time)","231208","green","red","","","","","","","","","","205","","","","","","[{""stimulus"":""img/red_lw/1.jpg"",""time"":53},{""stimulus"":""img/red_lw/2.jpg"",""time"":102},{""stimulus"":""img/red_lw/3.jpg"",""time"":154},{""stimulus"":""img/red_lw/4.jpg"",""time"":201},{""stimulus"":""img/red_lw/5.jpg"",""time"":253},{""stimulus"":""img/red_lw/6.jpg"",""time"":302},{""stimulus"":""img/red_lw/7.jpg"",""time"":353},{""stimulus"":""img/red_lw/8.jpg"",""time"":402},{""stimulus"":""img/red_lw/9.jpg"",""time"":454},{""stimulus"":""img/red_lw/10.jpg"",""time"":502},{""stimulus"":""img/red_lw/11.jpg"",""time"":553}]","[]"
"image-keyboard-response","46","49238","0.0-5.0-1.21","628dec55823f672331c68577","bdp_lott","Sat Mar 25 2023 23:42:13 GMT-0400 (Eastern Daylight Time)","231208","green","red","","374","","","","choice","","img/red_lw/choose11.jpg","2","204","red","0.5","0.5","0.5","l","",""
"animation","47","49840","0.0-5.0-2.21","628dec55823f672331c68577","bdp_lott","Sat Mar 25 2023 23:42:13 GMT-0400 (Eastern Daylight Time)","231208","green","red","","","","","","","","","","204","","","","","","[{""stimulus"":""img/red_ll/1.jpg"",""time"":53},{""stimulus"":""img/red_ll/2.jpg"",""time"":102},{""stimulus"":""img/red_ll/3.jpg"",""time"":153},{""stimulus"":""img/red_ll/4.jpg"",""time"":201},{""stimulus"":""img/red_ll/5.jpg"",""time"":253},{""stimulus"":""img/red_ll/6.jpg"",""time"":301},{""stimulus"":""img/red_ll/7.jpg"",""time"":354},{""stimulus"":""img/red_ll/8.jpg"",""time"":401},{""stimulus"":""img/red_ll/9.jpg"",""time"":454},{""stimulus"":""img/red_ll/10.jpg"",""time"":502},{""stimulus"":""img/red_ll/11.jpg"",""time"":554}]","[]"
"image-keyboard-response","48","50225","0.0-5.0-1.22","628dec55823f672331c68577","bdp_lott","Sat Mar 25 2023 23:42:13 GMT-0400 (Eastern Daylight Time)","231208","green","red","","385","","","","choice","","img/red_ll/choose11.jpg","2","203","red","0.5","0.5","0.5","l","",""
"animation","49","50827","0.0-5.0-2.22","628dec55823f672331c68577","bdp_lott","Sat Mar 25 2023 23:42:13 GMT-0400 (Eastern Daylight Time)","231208","green","red","","","","","","","","","","203","","","","","","[{""stimulus"":""img/red_ll/1.jpg"",""time"":54},{""stimulus"":""img/red_ll/2.jpg"",""time"":102},{""stimulus"":""img/red_ll/3.jpg"",""time"":154},{""stimulus"":""img/red_ll/4.jpg"",""time"":202},{""stimulus"":""img/red_ll/5.jpg"",""time"":254},{""stimulus"":""img/red_ll/6.jpg"",""time"":301},{""stimulus"":""img/red_ll/7.jpg"",""time"":354},{""stimulus"":""img/red_ll/8.jpg"",""time"":402},{""stimulus"":""img/red_ll/9.jpg"",""time"":454},{""stimulus"":""img/red_ll/10.jpg"",""time"":501},{""stimulus"":""img/red_ll/11.jpg"",""time"":554}]","[]"
"image-keyboard-response","50","51086","0.0-5.0-1.23","628dec55823f672331c68577","bdp_lott","Sat Mar 25 2023 23:42:13 GMT-0400 (Eastern Daylight Time)","231208","green","red","","259","","","","choice","","img/red_ll/choose11.jpg","2","202","red","0.5","0.5","0.5","w","",""
"animation","51","51688","0.0-5.0-2.23","628dec55823f672331c68577","bdp_lott","Sat Mar 25 2023 23:42:13 GMT-0400 (Eastern Daylight Time)","231208","green","red","","","","","","","","","","202","","","","","","[{""stimulus"":""img/red_lw/1.jpg"",""time"":50},{""stimulus"":""img/red_lw/2.jpg"",""time"":102},{""stimulus"":""img/red_lw/3.jpg"",""time"":154},{""stimulus"":""img/red_lw/4.jpg"",""time"":202},{""stimulus"":""img/red_lw/5.jpg"",""time"":253},{""stimulus"":""img/red_lw/6.jpg"",""time"":301},{""stimulus"":""img/red_lw/7.jpg"",""time"":354},{""stimulus"":""img/red_lw/8.jpg"",""time"":402},{""stimulus"":""img/red_lw/9.jpg"",""time"":454},{""stimulus"":""img/red_lw/10.jpg"",""time"":502},{""stimulus"":""img/red_lw/11.jpg"",""time"":554}]","[]"
"image-keyboard-response","52","52195","0.0-5.0-1.24","628dec55823f672331c68577","bdp_lott","Sat Mar 25 2023 23:42:13 GMT-0400 (Eastern Daylight Time)","231208","green","red","","507","","","","choice","","img/red_lw/choose11.jpg","2","201","red","0.5","0.5","0.5","w","",""
"animation","53","52800","0.0-5.0-2.24","628dec55823f672331c68577","bdp_lott","Sat Mar 25 2023 23:42:13 GMT-0400 (Eastern Daylight Time)","231208","green","red","","","","","","","","","","201","","","","","","[{""stimulus"":""img/red_lw/1.jpg"",""time"":52},{""stimulus"":""img/red_lw/2.jpg"",""time"":101},{""stimulus"":""img/red_lw/3.jpg"",""time"":153},{""stimulus"":""img/red_lw/4.jpg"",""time"":204},{""stimulus"":""img/red_lw/5.jpg"",""time"":252},{""stimulus"":""img/red_lw/6.jpg"",""time"":305},{""stimulus"":""img/red_lw/7.jpg"",""time"":353},{""stimulus"":""img/red_lw/8.jpg"",""time"":401},{""stimulus"":""img/red_lw/9.jpg"",""time"":453},{""stimulus"":""img/red_lw/10.jpg"",""time"":501},{""stimulus"":""img/red_lw/11.jpg"",""time"":553}]","[]"
"image-keyboard-response","54","53175","0.0-5.0-1.25","628dec55823f672331c68577","bdp_lott","Sat Mar 25 2023 23:42:13 GMT-0400 (Eastern Daylight Time)","231208","green","red","","375","","","","choice","","img/red_lw/choose11.jpg","2","200","red","0.5","0.5","0.5","l","",""
"animation","55","53779","0.0-5.0-2.25","628dec55823f672331c68577","bdp_lott","Sat Mar 25 2023 23:42:13 GMT-0400 (Eastern Daylight Time)","231208","green","red","","","","","","","","","","200","","","","","","[{""stimulus"":""img/red_ll/1.jpg"",""time"":53},{""stimulus"":""img/red_ll/2.jpg"",""time"":101},{""stimulus"":""img/red_ll/3.jpg"",""time"":153},{""stimulus"":""img/red_ll/4.jpg"",""time"":205},{""stimulus"":""img/red_ll/5.jpg"",""time"":252},{""stimulus"":""img/red_ll/6.jpg"",""time"":304},{""stimulus"":""img/red_ll/7.jpg"",""time"":353},{""stimulus"":""img/red_ll/8.jpg"",""time"":401},{""stimulus"":""img/red_ll/9.jpg"",""time"":452},{""stimulus"":""img/red_ll/10.jpg"",""time"":505},{""stimulus"":""img/red_ll/11.jpg"",""time"":552}]","[]"
"image-keyboard-response","56","54429","0.0-5.0-1.26","628dec55823f672331c68577","bdp_lott","Sat Mar 25 2023 23:42:13 GMT-0400 (Eastern Daylight Time)","231208","green","red","","650","","","","choice","","img/red_ll/choose11.jpg","2","199","red","0.5","0.5","0.5","l","",""
"animation","57","55032","0.0-5.0-2.26","628dec55823f672331c68577","bdp_lott","Sat Mar 25 2023 23:42:13 GMT-0400 (Eastern Daylight Time)","231208","green","red","","","","","","","","","","199","","","","","","[{""stimulus"":""img/red_ll/1.jpg"",""time"":50},{""stimulus"":""img/red_ll/2.jpg"",""time"":103},{""stimulus"":""img/red_ll/3.jpg"",""time"":151},{""stimulus"":""img/red_ll/4.jpg"",""time"":202},{""stimulus"":""img/red_ll/5.jpg"",""time"":250},{""stimulus"":""img/red_ll/6.jpg"",""time"":303},{""stimulus"":""img/red_ll/7.jpg"",""time"":350},{""stimulus"":""img/red_ll/8.jpg"",""time"":402},{""stimulus"":""img/red_ll/9.jpg"",""time"":450},{""stimulus"":""img/red_ll/10.jpg"",""time"":502},{""stimulus"":""img/red_ll/11.jpg"",""time"":551}]","[]"
"image-keyboard-response","58","55283","0.0-5.0-1.27","628dec55823f672331c68577","bdp_lott","Sat Mar 25 2023 23:42:13 GMT-0400 (Eastern Daylight Time)","231208","green","red","","251","","","","choice","","img/red_ll/choose11.jpg","1","198","green","0.5","0.5","0.5","l","",""
"animation","59","55883","0.0-5.0-2.27","628dec55823f672331c68577","bdp_lott","Sat Mar 25 2023 23:42:13 GMT-0400 (Eastern Daylight Time)","231208","green","red","","","","","","","","","","198","","","","","","[{""stimulus"":""img/green_ll/1.jpg"",""time"":53},{""stimulus"":""img/green_ll/2.jpg"",""time"":101},{""stimulus"":""img/green_ll/3.jpg"",""time"":153},{""stimulus"":""img/green_ll/4.jpg"",""time"":201},{""stimulus"":""img/green_ll/5.jpg"",""time"":253},{""stimulus"":""img/green_ll/6.jpg"",""time"":300},{""stimulus"":""img/green_ll/7.jpg"",""time"":353},{""stimulus"":""img/green_ll/8.jpg"",""time"":401},{""stimulus"":""img/green_ll/9.jpg"",""time"":453},{""stimulus"":""img/green_ll/10.jpg"",""time"":500},{""stimulus"":""img/green_ll/11.jpg"",""time"":553}]","[]"
"image-keyboard-response","60","56237","0.0-5.0-1.28","628dec55823f672331c68577","bdp_lott","Sat Mar 25 2023 23:42:13 GMT-0400 (Eastern Daylight Time)","231208","green","red","","354","","","","choice","","img/green_ll/choose11.jpg","1","197","green","0.5","0.5","0.5","w","",""
"animation","61","56840","0.0-5.0-2.28","628dec55823f672331c68577","bdp_lott","Sat Mar 25 2023 23:42:13 GMT-0400 (Eastern Daylight Time)","231208","green","red","","","","","","","","","","197","","","","","","[{""stimulus"":""img/green_wl/1.jpg"",""time"":51},{""stimulus"":""img/green_wl/2.jpg"",""time"":103},{""stimulus"":""img/green_wl/3.jpg"",""time"":150},{""stimulus"":""img/green_wl/4.jpg"",""time"":203},{""stimulus"":""img/green_wl/5.jpg"",""time"":250},{""stimulus"":""img/green_wl/6.jpg"",""time"":302},{""stimulus"":""img/green_wl/7.jpg"",""time"":350},{""stimulus"":""img/green_wl/8.jpg"",""time"":402},{""stimulus"":""img/green_wl/9.jpg"",""time"":451},{""stimulus"":""img/green_wl/10.jpg"",""time"":503},{""stimulus"":""img/green_wl/11.jpg"",""time"":551}]","[]"
"image-keyboard-response","62","57217","0.0-5.0-1.29","628dec55823f672331c68577","bdp_lott","Sat Mar 25 2023 23:42:13 GMT-0400 (Eastern Daylight Time)","231208","green","red","","377","","","","choice","","img/green_wl/choose11.jpg","1","196","green","0.5","0.5","0.5","l","",""
"animation","63","57819","0.0-5.0-2.29","628dec55823f672331c68577","bdp_lott","Sat Mar 25 2023 23:42:13 GMT-0400 (Eastern Daylight Time)","231208","green","red","","","","","","","","","","196","","","","","","[{""stimulus"":""img/green_ll/1.jpg"",""time"":55},{""stimulus"":""img/green_ll/2.jpg"",""time"":103},{""stimulus"":""img/green_ll/3.jpg"",""time"":151},{""stimulus"":""img/green_ll/4.jpg"",""time"":203},{""stimulus"":""img/green_ll/5.jpg"",""time"":255},{""stimulus"":""img/green_ll/6.jpg"",""time"":302},{""stimulus"":""img/green_ll/7.jpg"",""time"":354},{""stimulus"":""img/green_ll/8.jpg"",""time"":403},{""stimulus"":""img/green_ll/9.jpg"",""time"":455},{""stimulus"":""img/green_ll/10.jpg"",""time"":502},{""stimulus"":""img/green_ll/11.jpg"",""time"":551}]","[]"
"image-keyboard-response","64","58176","0.0-5.0-1.30","628dec55823f672331c68577","bdp_lott","Sat Mar 25 2023 23:42:13 GMT-0400 (Eastern Daylight Time)","231208","green","red","","356","","","","choice","","img/green_ll/choose11.jpg","1","195","green","0.5","0.5","0.5","l","",""
"animation","65","58780","0.0-5.0-2.30","628dec55823f672331c68577","bdp_lott","Sat Mar 25 2023 23:42:13 GMT-0400 (Eastern Daylight Time)","231208","green","red","","","","","","","","","","195","","","","","","[{""stimulus"":""img/green_ll/1.jpg"",""time"":52},{""stimulus"":""img/green_ll/2.jpg"",""time"":100},{""stimulus"":""img/green_ll/3.jpg"",""time"":151},{""stimulus"":""img/green_ll/4.jpg"",""time"":203},{""stimulus"":""img/green_ll/5.jpg"",""time"":252},{""stimulus"":""img/green_ll/6.jpg"",""time"":304},{""stimulus"":""img/green_ll/7.jpg"",""time"":352},{""stimulus"":""img/green_ll/8.jpg"",""time"":404},{""stimulus"":""img/green_ll/9.jpg"",""time"":451},{""stimulus"":""img/green_ll/10.jpg"",""time"":503},{""stimulus"":""img/green_ll/11.jpg"",""time"":552}]","[]"
"image-keyboard-response","66","59173","0.0-5.0-1.31","628dec55823f672331c68577","bdp_lott","Sat Mar 25 2023 23:42:13 GMT-0400 (Eastern Daylight Time)","231208","green","red","","393","","","","choice","","img/green_ll/choose11.jpg","1","194","green","0.5","0.5","0.5","l","",""
"animation","67","59776","0.0-5.0-2.31","628dec55823f672331c68577","bdp_lott","Sat Mar 25 2023 23:42:13 GMT-0400 (Eastern Daylight Time)","231208","green","red","","","","","","","","","","194","","","","","","[{""stimulus"":""img/green_ll/1.jpg"",""time"":51},{""stimulus"":""img/green_ll/2.jpg"",""time"":103},{""stimulus"":""img/green_ll/3.jpg"",""time"":151},{""stimulus"":""img/green_ll/4.jpg"",""time"":202},{""stimulus"":""img/green_ll/5.jpg"",""time"":251},{""stimulus"":""img/green_ll/6.jpg"",""time"":302},{""stimulus"":""img/green_ll/7.jpg"",""time"":354},{""stimulus"":""img/green_ll/8.jpg"",""time"":403},{""stimulus"":""img/green_ll/9.jpg"",""time"":451},{""stimulus"":""img/green_ll/10.jpg"",""time"":503},{""stimulus"":""img/green_ll/11.jpg"",""time"":551}]","[]"
"image-keyboard-response","68","60129","0.0-5.0-1.32","628dec55823f672331c68577","bdp_lott","Sat Mar 25 2023 23:42:13 GMT-0400 (Eastern Daylight Time)","231208","green","red","","353","","","","choice","","img/green_ll/choose11.jpg","2","193","red","0.5","0.5","0.5","l","",""
"animation","69","60731","0.0-5.0-2.32","628dec55823f672331c68577","bdp_lott","Sat Mar 25 2023 23:42:13 GMT-0400 (Eastern Daylight Time)","231208","green","red","","","","","","","","","","193","","","","","","[{""stimulus"":""img/red_ll/1.jpg"",""time"":51},{""stimulus"":""img/red_ll/2.jpg"",""time"":103},{""stimulus"":""img/red_ll/3.jpg"",""time"":154},{""stimulus"":""img/red_ll/4.jpg"",""time"":203},{""stimulus"":""img/red_ll/5.jpg"",""time"":255},{""stimulus"":""img/red_ll/6.jpg"",""time"":302},{""stimulus"":""img/red_ll/7.jpg"",""time"":355},{""stimulus"":""img/red_ll/8.jpg"",""time"":403},{""stimulus"":""img/red_ll/9.jpg"",""time"":451},{""stimulus"":""img/red_ll/10.jpg"",""time"":503},{""stimulus"":""img/red_ll/11.jpg"",""time"":551}]","[]"
"image-keyboard-response","70","61025","0.0-5.0-1.33","628dec55823f672331c68577","bdp_lott","Sat Mar 25 2023 23:42:13 GMT-0400 (Eastern Daylight Time)","231208","green","red","","293","","","","choice","","img/red_ll/choose11.jpg","2","192","red","0.5","0.5","0.5","l","",""
"animation","71","61628","0.0-5.0-2.33","628dec55823f672331c68577","bdp_lott","Sat Mar 25 2023 23:42:13 GMT-0400 (Eastern Daylight Time)","231208","green","red","","","","","","","","","","192","","","","","","[{""stimulus"":""img/red_ll/1.jpg"",""time"":51},{""stimulus"":""img/red_ll/2.jpg"",""time"":103},{""stimulus"":""img/red_ll/3.jpg"",""time"":154},{""stimulus"":""img/red_ll/4.jpg"",""time"":203},{""stimulus"":""img/red_ll/5.jpg"",""time"":251},{""stimulus"":""img/red_ll/6.jpg"",""time"":303},{""stimulus"":""img/red_ll/7.jpg"",""time"":351},{""stimulus"":""img/red_ll/8.jpg"",""time"":403},{""stimulus"":""img/red_ll/9.jpg"",""time"":451},{""stimulus"":""img/red_ll/10.jpg"",""time"":502},{""stimulus"":""img/red_ll/11.jpg"",""time"":555}]","[]"
"image-keyboard-response","72","61824","0.0-5.0-1.34","628dec55823f672331c68577","bdp_lott","Sat Mar 25 2023 23:42:13 GMT-0400 (Eastern Daylight Time)","231208","green","red","","196","","","","choice","","img/red_ll/choose11.jpg","2","191","red","0.5","0.5","0.5","w","",""
"animation","73","62427","0.0-5.0-2.34","628dec55823f672331c68577","bdp_lott","Sat Mar 25 2023 23:42:13 GMT-0400 (Eastern Daylight Time)","231208","green","red","","","","","","","","","","191","","","","","","[{""stimulus"":""img/red_lw/1.jpg"",""time"":52},{""stimulus"":""img/red_lw/2.jpg"",""time"":104},{""stimulus"":""img/red_lw/3.jpg"",""time"":151},{""stimulus"":""img/red_lw/4.jpg"",""time"":203},{""stimulus"":""img/red_lw/5.jpg"",""time"":251},{""stimulus"":""img/red_lw/6.jpg"",""time"":304},{""stimulus"":""img/red_lw/7.jpg"",""time"":351},{""stimulus"":""img/red_lw/8.jpg"",""time"":404},{""stimulus"":""img/red_lw/9.jpg"",""time"":451},{""stimulus"":""img/red_lw/10.jpg"",""time"":503},{""stimulus"":""img/red_lw/11.jpg"",""time"":552}]","[]"
"image-keyboard-response","74","62880","0.0-5.0-1.35","628dec55823f672331c68577","bdp_lott","Sat Mar 25 2023 23:42:13 GMT-0400 (Eastern Daylight Time)","231208","green","red","","452","","","","choice","","img/red_lw/choose11.jpg","1","190","green","0.5","0.5","0.5","w","",""
"animation","75","63483","0.0-5.0-2.35","628dec55823f672331c68577","bdp_lott","Sat Mar 25 2023 23:42:13 GMT-0400 (Eastern Daylight Time)","231208","green","red","","","","","","","","","","190","","","","","","[{""stimulus"":""img/green_ww/1.jpg"",""time"":52},{""stimulus"":""img/green_ww/2.jpg"",""time"":104},{""stimulus"":""img/green_ww/3.jpg"",""time"":152},{""stimulus"":""img/green_ww/4.jpg"",""time"":203},{""stimulus"":""img/green_ww/5.jpg"",""time"":252},{""stimulus"":""img/green_ww/6.jpg"",""time"":304},{""stimulus"":""img/green_ww/7.jpg"",""time"":352},{""stimulus"":""img/green_ww/8.jpg"",""time"":404},{""stimulus"":""img/green_ww/9.jpg"",""time"":452},{""stimulus"":""img/green_ww/10.jpg"",""time"":504},{""stimulus"":""img/green_ww/11.jpg"",""time"":552}]","[]"
"image-keyboard-response","76","63880","0.0-5.0-1.36","628dec55823f672331c68577","bdp_lott","Sat Mar 25 2023 23:42:13 GMT-0400 (Eastern Daylight Time)","231208","green","red","","396","","","","choice","","img/green_ww/choose11.jpg","1","189","green","0.5","0.5","0.5","l","",""
"animation","77","64483","0.0-5.0-2.36","628dec55823f672331c68577","bdp_lott","Sat Mar 25 2023 23:42:13 GMT-0400 (Eastern Daylight Time)","231208","green","red","","","","","","","","","","189","","","","","","[{""stimulus"":""img/green_lw/1.jpg"",""time"":52},{""stimulus"":""img/green_lw/2.jpg"",""time"":104},{""stimulus"":""img/green_lw/3.jpg"",""time"":152},{""stimulus"":""img/green_lw/4.jpg"",""time"":203},{""stimulus"":""img/green_lw/5.jpg"",""time"":252},{""stimulus"":""img/green_lw/6.jpg"",""time"":304},{""stimulus"":""img/green_lw/7.jpg"",""time"":351},{""stimulus"":""img/green_lw/8.jpg"",""time"":404},{""stimulus"":""img/green_lw/9.jpg"",""time"":452},{""stimulus"":""img/green_lw/10.jpg"",""time"":504},{""stimulus"":""img/green_lw/11.jpg"",""time"":552}]","[]"
"image-keyboard-response","78","64910","0.0-5.0-1.37","628dec55823f672331c68577","bdp_lott","Sat Mar 25 2023 23:42:13 GMT-0400 (Eastern Daylight Time)","231208","green","red","","427","","","","choice","","img/green_lw/choose11.jpg","2","188","red","0.5","0.5","0.5","l","",""
"animation","79","65511","0.0-5.0-2.37","628dec55823f672331c68577","bdp_lott","Sat Mar 25 2023 23:42:13 GMT-0400 (Eastern Daylight Time)","231208","green","red","","","","","","","","","","188","","","","","","[{""stimulus"":""img/red_ll/1.jpg"",""time"":53},{""stimulus"":""img/red_ll/2.jpg"",""time"":101},{""stimulus"":""img/red_ll/3.jpg"",""time"":154},{""stimulus"":""img/red_ll/4.jpg"",""time"":202},{""stimulus"":""img/red_ll/5.jpg"",""time"":253},{""stimulus"":""img/red_ll/6.jpg"",""time"":302},{""stimulus"":""img/red_ll/7.jpg"",""time"":354},{""stimulus"":""img/red_ll/8.jpg"",""time"":401},{""stimulus"":""img/red_ll/9.jpg"",""time"":454},{""stimulus"":""img/red_ll/10.jpg"",""time"":502},{""stimulus"":""img/red_ll/11.jpg"",""time"":553}]","[]"
"image-keyboard-response","80","65868","0.0-5.0-1.38","628dec55823f672331c68577","bdp_lott","Sat Mar 25 2023 23:42:13 GMT-0400 (Eastern Daylight Time)","231208","green","red","","357","","","","choice","","img/red_ll/choose11.jpg","1","187","green","0.5","0.5","0.5","l","",""
"animation","81","66472","0.0-5.0-2.38","628dec55823f672331c68577","bdp_lott","Sat Mar 25 2023 23:42:13 GMT-0400 (Eastern Daylight Time)","231208","green","red","","","","","","","","","","187","","","","","","[{""stimulus"":""img/green_ll/1.jpg"",""time"":52},{""stimulus"":""img/green_ll/2.jpg"",""time"":104},{""stimulus"":""img/green_ll/3.jpg"",""time"":151},{""stimulus"":""img/green_ll/4.jpg"",""time"":204},{""stimulus"":""img/green_ll/5.jpg"",""time"":251},{""stimulus"":""img/green_ll/6.jpg"",""time"":304},{""stimulus"":""img/green_ll/7.jpg"",""time"":352},{""stimulus"":""img/green_ll/8.jpg"",""time"":404},{""stimulus"":""img/green_ll/9.jpg"",""time"":451},{""stimulus"":""img/green_ll/10.jpg"",""time"":503},{""stimulus"":""img/green_ll/11.jpg"",""time"":552}]","[]"
"image-keyboard-response","82","66831","0.0-5.0-1.39","628dec55823f672331c68577","bdp_lott","Sat Mar 25 2023 23:42:13 GMT-0400 (Eastern Daylight Time)","231208","green","red","","359","","","","choice","","img/green_ll/choose11.jpg","2","186","red","0.5","0.5","0.5","l","",""
"animation","83","67435","0.0-5.0-2.39","628dec55823f672331c68577","bdp_lott","Sat Mar 25 2023 23:42:13 GMT-0400 (Eastern Daylight Time)","231208","green","red","","","","","","","","","","186","","","","","","[{""stimulus"":""img/red_ll/1.jpg"",""time"":51},{""stimulus"":""img/red_ll/2.jpg"",""time"":100},{""stimulus"":""img/red_ll/3.jpg"",""time"":151},{""stimulus"":""img/red_ll/4.jpg"",""time"":200},{""stimulus"":""img/red_ll/5.jpg"",""time"":252},{""stimulus"":""img/red_ll/6.jpg"",""time"":300},{""stimulus"":""img/red_ll/7.jpg"",""time"":351},{""stimulus"":""img/red_ll/8.jpg"",""time"":404},{""stimulus"":""img/red_ll/9.jpg"",""time"":451},{""stimulus"":""img/red_ll/10.jpg"",""time"":504},{""stimulus"":""img/red_ll/11.jpg"",""time"":551}]","[]"
"image-keyboard-response","84","67725","0.0-5.0-1.40","628dec55823f672331c68577","bdp_lott","Sat Mar 25 2023 23:42:13 GMT-0400 (Eastern Daylight Time)","231208","green","red","","290","","","","choice","","img/red_ll/choose11.jpg","1","185","green","0.5","0.5","0.5","w","",""
"animation","85","68328","0.0-5.0-2.40","628dec55823f672331c68577","bdp_lott","Sat Mar 25 2023 23:42:13 GMT-0400 (Eastern Daylight Time)","231208","green","red","","","","","","","","","","185","","","","","","[{""stimulus"":""img/green_wl/1.jpg"",""time"":51},{""stimulus"":""img/green_wl/2.jpg"",""time"":102},{""stimulus"":""img/green_wl/3.jpg"",""time"":155},{""stimulus"":""img/green_wl/4.jpg"",""time"":203},{""stimulus"":""img/green_wl/5.jpg"",""time"":251},{""stimulus"":""img/green_wl/6.jpg"",""time"":302},{""stimulus"":""img/green_wl/7.jpg"",""time"":355},{""stimulus"":""img/green_wl/8.jpg"",""time"":402},{""stimulus"":""img/green_wl/9.jpg"",""time"":451},{""stimulus"":""img/green_wl/10.jpg"",""time"":503},{""stimulus"":""img/green_wl/11.jpg"",""time"":554}]","[]"
"image-keyboard-response","86","68634","0.0-5.0-1.41","628dec55823f672331c68577","bdp_lott","Sat Mar 25 2023 23:42:13 GMT-0400 (Eastern Daylight Time)","231208","green","red","","306","","","","choice","","img/green_wl/choose11.jpg","2","184","red","0.5","0.5","0.5","w","",""
"animation","87","69235","0.0-5.0-2.41","628dec55823f672331c68577","bdp_lott","Sat Mar 25 2023 23:42:13 GMT-0400 (Eastern Daylight Time)","231208","green","red","","","","","","","","","","184","","","","","","[{""stimulus"":""img/red_ww/1.jpg"",""time"":54},{""stimulus"":""img/red_ww/2.jpg"",""time"":101},{""stimulus"":""img/red_ww/3.jpg"",""time"":153},{""stimulus"":""img/red_ww/4.jpg"",""time"":201},{""stimulus"":""img/red_ww/5.jpg"",""time"":253},{""stimulus"":""img/red_ww/6.jpg"",""time"":301},{""stimulus"":""img/red_ww/7.jpg"",""time"":354},{""stimulus"":""img/red_ww/8.jpg"",""time"":402},{""stimulus"":""img/red_ww/9.jpg"",""time"":453},{""stimulus"":""img/red_ww/10.jpg"",""time"":501},{""stimulus"":""img/red_ww/11.jpg"",""time"":554}]","[]"
"image-keyboard-response","88","69810","0.0-5.0-1.42","628dec55823f672331c68577","bdp_lott","Sat Mar 25 2023 23:42:13 GMT-0400 (Eastern Daylight Time)","231208","green","red","","575","","","","choice","","img/red_ww/choose11.jpg","1","183","green","0.5","0.5","0.5","l","",""
"animation","89","70412","0.0-5.0-2.42","628dec55823f672331c68577","bdp_lott","Sat Mar 25 2023 23:42:13 GMT-0400 (Eastern Daylight Time)","231208","green","red","","","","","","","","","","183","","","","","","[{""stimulus"":""img/green_lw/1.jpg"",""time"":54},{""stimulus"":""img/green_lw/2.jpg"",""time"":102},{""stimulus"":""img/green_lw/3.jpg"",""time"":154},{""stimulus"":""img/green_lw/4.jpg"",""time"":202},{""stimulus"":""img/green_lw/5.jpg"",""time"":250},{""stimulus"":""img/green_lw/6.jpg"",""time"":302},{""stimulus"":""img/green_lw/7.jpg"",""time"":354},{""stimulus"":""img/green_lw/8.jpg"",""time"":401},{""stimulus"":""img/green_lw/9.jpg"",""time"":454},{""stimulus"":""img/green_lw/10.jpg"",""time"":501},{""stimulus"":""img/green_lw/11.jpg"",""time"":554}]","[]"
"image-keyboard-response","90","70715","0.0-5.0-1.43","628dec55823f672331c68577","bdp_lott","Sat Mar 25 2023 23:42:13 GMT-0400 (Eastern Daylight Time)","231208","green","red","","303","","","","choice","","img/green_lw/choose11.jpg","2","182","red","0.5","0.5","0.5","l","",""
"animation","91","71315","0.0-5.0-2.43","628dec55823f672331c68577","bdp_lott","Sat Mar 25 2023 23:42:13 GMT-0400 (Eastern Daylight Time)","231208","green","red","","","","","","","","","","182","","","","","","[{""stimulus"":""img/red_ll/1.jpg"",""time"":52},{""stimulus"":""img/red_ll/2.jpg"",""time"":101},{""stimulus"":""img/red_ll/3.jpg"",""time"":152},{""stimulus"":""img/red_ll/4.jpg"",""time"":200},{""stimulus"":""img/red_ll/5.jpg"",""time"":252},{""stimulus"":""img/red_ll/6.jpg"",""time"":301},{""stimulus"":""img/red_ll/7.jpg"",""time"":352},{""stimulus"":""img/red_ll/8.jpg"",""time"":400},{""stimulus"":""img/red_ll/9.jpg"",""time"":453},{""stimulus"":""img/red_ll/10.jpg"",""time"":500},{""stimulus"":""img/red_ll/11.jpg"",""time"":552}]","[]"
"image-keyboard-response","92","71629","0.0-5.0-1.44","628dec55823f672331c68577","bdp_lott","Sat Mar 25 2023 23:42:13 GMT-0400 (Eastern Daylight Time)","231208","green","red","","314","","","","choice","","img/red_ll/choose11.jpg","1","181","green","0.5","0.5","0.5","w","",""
"animation","93","72231","0.0-5.0-2.44","628dec55823f672331c68577","bdp_lott","Sat Mar 25 2023 23:42:13 GMT-0400 (Eastern Daylight Time)","231208","green","red","","","","","","","","","","181","","","","","","[{""stimulus"":""img/green_wl/1.jpg"",""time"":51},{""stimulus"":""img/green_wl/2.jpg"",""time"":103},{""stimulus"":""img/green_wl/3.jpg"",""time"":151},{""stimulus"":""img/green_wl/4.jpg"",""time"":203},{""stimulus"":""img/green_wl/5.jpg"",""time"":250},{""stimulus"":""img/green_wl/6.jpg"",""time"":303},{""stimulus"":""img/green_wl/7.jpg"",""time"":351},{""stimulus"":""img/green_wl/8.jpg"",""time"":402},{""stimulus"":""img/green_wl/9.jpg"",""time"":451},{""stimulus"":""img/green_wl/10.jpg"",""time"":503},{""stimulus"":""img/green_wl/11.jpg"",""time"":550}]","[]"
"image-keyboard-response","94","72596","0.0-5.0-1.45","628dec55823f672331c68577","bdp_lott","Sat Mar 25 2023 23:42:13 GMT-0400 (Eastern Daylight Time)","231208","green","red","","365","","","","choice","","img/green_wl/choose11.jpg","2","180","red","0.5","0.5","0.5","l","",""
"animation","95","73199","0.0-5.0-2.45","628dec55823f672331c68577","bdp_lott","Sat Mar 25 2023 23:42:13 GMT-0400 (Eastern Daylight Time)","231208","green","red","","","","","","","","","","180","","","","","","[{""stimulus"":""img/red_wl/1.jpg"",""time"":52},{""stimulus"":""img/red_wl/2.jpg"",""time"":104},{""stimulus"":""img/red_wl/3.jpg"",""time"":152},{""stimulus"":""img/red_wl/4.jpg"",""time"":203},{""stimulus"":""img/red_wl/5.jpg"",""time"":252},{""stimulus"":""img/red_wl/6.jpg"",""time"":303},{""stimulus"":""img/red_wl/7.jpg"",""time"":352},{""stimulus"":""img/red_wl/8.jpg"",""time"":400},{""stimulus"":""img/red_wl/9.jpg"",""time"":451},{""stimulus"":""img/red_wl/10.jpg"",""time"":503},{""stimulus"":""img/red_wl/11.jpg"",""time"":551}]","[]"
"image-keyboard-response","96","73583","0.0-5.0-1.46","628dec55823f672331c68577","bdp_lott","Sat Mar 25 2023 23:42:13 GMT-0400 (Eastern Daylight Time)","231208","green","red","","383","","","","choice","","img/red_wl/choose11.jpg","1","179","green","0.5","0.5","0.5","w","",""
"animation","97","74183","0.0-5.0-2.46","628dec55823f672331c68577","bdp_lott","Sat Mar 25 2023 23:42:13 GMT-0400 (Eastern Daylight Time)","231208","green","red","","","","","","","","","","179","","","","","","[{""stimulus"":""img/green_wl/1.jpg"",""time"":53},{""stimulus"":""img/green_wl/2.jpg"",""time"":101},{""stimulus"":""img/green_wl/3.jpg"",""time"":152},{""stimulus"":""img/green_wl/4.jpg"",""time"":205},{""stimulus"":""img/green_wl/5.jpg"",""time"":253},{""stimulus"":""img/green_wl/6.jpg"",""time"":304},{""stimulus"":""img/green_wl/7.jpg"",""time"":353},{""stimulus"":""img/green_wl/8.jpg"",""time"":404},{""stimulus"":""img/green_wl/9.jpg"",""time"":453},{""stimulus"":""img/green_wl/10.jpg"",""time"":501},{""stimulus"":""img/green_wl/11.jpg"",""time"":553}]","[]"
"image-keyboard-response","98","74430","0.0-5.0-1.47","628dec55823f672331c68577","bdp_lott","Sat Mar 25 2023 23:42:13 GMT-0400 (Eastern Daylight Time)","231208","green","red","","246","","","","choice","","img/green_wl/choose11.jpg","2","178","red","0.5","0.5","0.5","l","",""
"animation","99","75031","0.0-5.0-2.47","628dec55823f672331c68577","bdp_lott","Sat Mar 25 2023 23:42:13 GMT-0400 (Eastern Daylight Time)","231208","green","red","","","","","","","","","","178","","","","","","[{""stimulus"":""img/red_wl/1.jpg"",""time"":52},{""stimulus"":""img/red_wl/2.jpg"",""time"":101},{""stimulus"":""img/red_wl/3.jpg"",""time"":153},{""stimulus"":""img/red_wl/4.jpg"",""time"":201},{""stimulus"":""img/red_wl/5.jpg"",""time"":253},{""stimulus"":""img/red_wl/6.jpg"",""time"":300},{""stimulus"":""img/red_wl/7.jpg"",""time"":353},{""stimulus"":""img/red_wl/8.jpg"",""time"":401},{""stimulus"":""img/red_wl/9.jpg"",""time"":452},{""stimulus"":""img/red_wl/10.jpg"",""time"":501},{""stimulus"":""img/red_wl/11.jpg"",""time"":553}]","[]"
"image-keyboard-response","100","75378","0.0-5.0-1.48","628dec55823f672331c68577","bdp_lott","Sat Mar 25 2023 23:42:13 GMT-0400 (Eastern Daylight Time)","231208","green","red","","346","","","","choice","","img/red_wl/choose11.jpg","1","177","green","0.5","0.5","0.5","w","",""
"animation","101","75979","0.0-5.0-2.48","628dec55823f672331c68577","bdp_lott","Sat Mar 25 2023 23:42:13 GMT-0400 (Eastern Daylight Time)","231208","green","red","","","","","","","","","","177","","","","","","[{""stimulus"":""img/green_wl/1.jpg"",""time"":54},{""stimulus"":""img/green_wl/2.jpg"",""time"":101},{""stimulus"":""img/green_wl/3.jpg"",""time"":154},{""stimulus"":""img/green_wl/4.jpg"",""time"":202},{""stimulus"":""img/green_wl/5.jpg"",""time"":254},{""stimulus"":""img/green_wl/6.jpg"",""time"":301},{""stimulus"":""img/green_wl/7.jpg"",""time"":354},{""stimulus"":""img/green_wl/8.jpg"",""time"":402},{""stimulus"":""img/green_wl/9.jpg"",""time"":453},{""stimulus"":""img/green_wl/10.jpg"",""time"":502},{""stimulus"":""img/green_wl/11.jpg"",""time"":553}]","[]"
"image-keyboard-response","102","76260","0.0-5.0-1.49","628dec55823f672331c68577","bdp_lott","Sat Mar 25 2023 23:42:13 GMT-0400 (Eastern Daylight Time)","231208","green","red","","280","","","","choice","","img/green_wl/choose11.jpg","1","176","green","0.5","0.5","0.5","l","",""
"animation","103","76863","0.0-5.0-2.49","628dec55823f672331c68577","bdp_lott","Sat Mar 25 2023 23:42:13 GMT-0400 (Eastern Daylight Time)","231208","green","red","","","","","","","","","","176","","","","","","[{""stimulus"":""img/green_ll/1.jpg"",""time"":52},{""stimulus"":""img/green_ll/2.jpg"",""time"":104},{""stimulus"":""img/green_ll/3.jpg"",""time"":152},{""stimulus"":""img/green_ll/4.jpg"",""time"":203},{""stimulus"":""img/green_ll/5.jpg"",""time"":252},{""stimulus"":""img/green_ll/6.jpg"",""time"":304},{""stimulus"":""img/green_ll/7.jpg"",""time"":352},{""stimulus"":""img/green_ll/8.jpg"",""time"":404},{""stimulus"":""img/green_ll/9.jpg"",""time"":451},{""stimulus"":""img/green_ll/10.jpg"",""time"":504},{""stimulus"":""img/green_ll/11.jpg"",""time"":552}]","[]"
"image-keyboard-response","104","77219","0.0-5.0-1.50","628dec55823f672331c68577","bdp_lott","Sat Mar 25 2023 23:42:13 GMT-0400 (Eastern Daylight Time)","231208","green","red","","356","","","","choice","","img/green_ll/choose11.jpg","1","175","green","0.5","0.5","0.5","l","",""
"animation","105","77823","0.0-5.0-2.50","628dec55823f672331c68577","bdp_lott","Sat Mar 25 2023 23:42:13 GMT-0400 (Eastern Daylight Time)","231208","green","red","","","","","","","","","","175","","","","","","[{""stimulus"":""img/green_ll/1.jpg"",""time"":52},{""stimulus"":""img/green_ll/2.jpg"",""time"":101},{""stimulus"":""img/green_ll/3.jpg"",""time"":153},{""stimulus"":""img/green_ll/4.jpg"",""time"":201},{""stimulus"":""img/green_ll/5.jpg"",""time"":253},{""stimulus"":""img/green_ll/6.jpg"",""time"":304},{""stimulus"":""img/green_ll/7.jpg"",""time"":352},{""stimulus"":""img/green_ll/8.jpg"",""time"":401},{""stimulus"":""img/green_ll/9.jpg"",""time"":453},{""stimulus"":""img/green_ll/10.jpg"",""time"":501},{""stimulus"":""img/green_ll/11.jpg"",""time"":553}]","[]"
"image-keyboard-response","106","78144","0.0-5.0-1.51","628dec55823f672331c68577","bdp_lott","Sat Mar 25 2023 23:42:13 GMT-0400 (Eastern Daylight Time)","231208","green","red","","321","","","","choice","","img/green_ll/choose11.jpg","1","174","green","0.5","0.5","0.5","w","",""
"animation","107","78747","0.0-5.0-2.51","628dec55823f672331c68577","bdp_lott","Sat Mar 25 2023 23:42:13 GMT-0400 (Eastern Daylight Time)","231208","green","red","","","","","","","","","","174","","","","","","[{""stimulus"":""img/green_wl/1.jpg"",""time"":51},{""stimulus"":""img/green_wl/2.jpg"",""time"":103},{""stimulus"":""img/green_wl/3.jpg"",""time"":151},{""stimulus"":""img/green_wl/4.jpg"",""time"":204},{""stimulus"":""img/green_wl/5.jpg"",""time"":252},{""stimulus"":""img/green_wl/6.jpg"",""time"":303},{""stimulus"":""img/green_wl/7.jpg"",""time"":351},{""stimulus"":""img/green_wl/8.jpg"",""time"":404},{""stimulus"":""img/green_wl/9.jpg"",""time"":452},{""stimulus"":""img/green_wl/10.jpg"",""time"":504},{""stimulus"":""img/green_wl/11.jpg"",""time"":551}]","[]"
"image-keyboard-response","108","79062","0.0-5.0-1.52","628dec55823f672331c68577","bdp_lott","Sat Mar 25 2023 23:42:13 GMT-0400 (Eastern Daylight Time)","231208","green","red","","314","","","","choice","","img/green_wl/choose11.jpg","1","173","green","0.5","0.5","0.5","w","",""
"animation","109","79663","0.0-5.0-2.52","628dec55823f672331c68577","bdp_lott","Sat Mar 25 2023 23:42:13 GMT-0400 (Eastern Daylight Time)","231208","green","red","","","","","","","","","","173","","","","","","[{""stimulus"":""img/green_wl/1.jpg"",""time"":53},{""stimulus"":""img/green_wl/2.jpg"",""time"":102},{""stimulus"":""img/green_wl/3.jpg"",""time"":154},{""stimulus"":""img/green_wl/4.jpg"",""time"":202},{""stimulus"":""img/green_wl/5.jpg"",""time"":254},{""stimulus"":""img/green_wl/6.jpg"",""time"":302},{""stimulus"":""img/green_wl/7.jpg"",""time"":354},{""stimulus"":""img/green_wl/8.jpg"",""time"":401},{""stimulus"":""img/green_wl/9.jpg"",""time"":453},{""stimulus"":""img/green_wl/10.jpg"",""time"":502},{""stimulus"":""img/green_wl/11.jpg"",""time"":553}]","[]"
"image-keyboard-response","110","80021","0.0-5.0-1.53","628dec55823f672331c68577","bdp_lott","Sat Mar 25 2023 23:42:13 GMT-0400 (Eastern Daylight Time)","231208","green","red","","357","","","","choice","","img/green_wl/choose11.jpg","1","172","green","0.5","0.5","0.5","l","",""
"animation","111","80624","0.0-5.0-2.53","628dec55823f672331c68577","bdp_lott","Sat Mar 25 2023 23:42:13 GMT-0400 (Eastern Daylight Time)","231208","green","red","","","","","","","","","","172","","","","","","[{""stimulus"":""img/green_ll/1.jpg"",""time"":51},{""stimulus"":""img/green_ll/2.jpg"",""time"":103},{""stimulus"":""img/green_ll/3.jpg"",""time"":151},{""stimulus"":""img/green_ll/4.jpg"",""time"":202},{""stimulus"":""img/green_ll/5.jpg"",""time"":251},{""stimulus"":""img/green_ll/6.jpg"",""time"":302},{""stimulus"":""img/green_ll/7.jpg"",""time"":351},{""stimulus"":""img/green_ll/8.jpg"",""time"":403},{""stimulus"":""img/green_ll/9.jpg"",""time"":455},{""stimulus"":""img/green_ll/10.jpg"",""time"":502},{""stimulus"":""img/green_ll/11.jpg"",""time"":551}]","[]"
"image-keyboard-response","112","80960","0.0-5.0-1.54","628dec55823f672331c68577","bdp_lott","Sat Mar 25 2023 23:42:13 GMT-0400 (Eastern Daylight Time)","231208","green","red","","336","","","","choice","","img/green_ll/choose11.jpg","1","171","green","0.5","0.5","0.5","w","",""
"animation","113","81560","0.0-5.0-2.54","628dec55823f672331c68577","bdp_lott","Sat Mar 25 2023 23:42:13 GMT-0400 (Eastern Daylight Time)","231208","green","red","","","","","","","","","","171","","","","","","[{""stimulus"":""img/green_wl/1.jpg"",""time"":52},{""stimulus"":""img/green_wl/2.jpg"",""time"":100},{""stimulus"":""img/green_wl/3.jpg"",""time"":151},{""stimulus"":""img/green_wl/4.jpg"",""time"":204},{""stimulus"":""img/green_wl/5.jpg"",""time"":251},{""stimulus"":""img/green_wl/6.jpg"",""time"":300},{""stimulus"":""img/green_wl/7.jpg"",""time"":351},{""stimulus"":""img/green_wl/8.jpg"",""time"":404},{""stimulus"":""img/green_wl/9.jpg"",""time"":452},{""stimulus"":""img/green_wl/10.jpg"",""time"":500},{""stimulus"":""img/green_wl/11.jpg"",""time"":552}]","[]"
"image-keyboard-response","114","81889","0.0-5.0-1.55","628dec55823f672331c68577","bdp_lott","Sat Mar 25 2023 23:42:13 GMT-0400 (Eastern Daylight Time)","231208","green","red","","329","","","","choice","","img/green_wl/choose11.jpg","1","170","green","0.5","0.5","0.5","l","",""
"animation","115","82491","0.0-5.0-2.55","628dec55823f672331c68577","bdp_lott","Sat Mar 25 2023 23:42:13 GMT-0400 (Eastern Daylight Time)","231208","green","red","","","","","","","","","","170","","","","","","[{""stimulus"":""img/green_ll/1.jpg"",""time"":54},{""stimulus"":""img/green_ll/2.jpg"",""time"":103},{""stimulus"":""img/green_ll/3.jpg"",""time"":155},{""stimulus"":""img/green_ll/4.jpg"",""time"":203},{""stimulus"":""img/green_ll/5.jpg"",""time"":255},{""stimulus"":""img/green_ll/6.jpg"",""time"":303},{""stimulus"":""img/green_ll/7.jpg"",""time"":351},{""stimulus"":""img/green_ll/8.jpg"",""time"":402},{""stimulus"":""img/green_ll/9.jpg"",""time"":451},{""stimulus"":""img/green_ll/10.jpg"",""time"":503},{""stimulus"":""img/green_ll/11.jpg"",""time"":555}]","[]"
"image-keyboard-response","116","82829","0.0-5.0-1.56","628dec55823f672331c68577","bdp_lott","Sat Mar 25 2023 23:42:13 GMT-0400 (Eastern Daylight Time)","231208","green","red","","337","","","","choice","","img/green_ll/choose11.jpg","1","169","green","0.5","0.5","0.5","l","",""
"animation","117","83432","0.0-5.0-2.56","628dec55823f672331c68577","bdp_lott","Sat Mar 25 2023 23:42:13 GMT-0400 (Eastern Daylight Time)","231208","green","red","","","","","","","","","","169","","","","","","[{""stimulus"":""img/green_ll/1.jpg"",""time"":51},{""stimulus"":""img/green_ll/2.jpg"",""time"":103},{""stimulus"":""img/green_ll/3.jpg"",""time"":151},{""stimulus"":""img/green_ll/4.jpg"",""time"":203},{""stimulus"":""img/green_ll/5.jpg"",""time"":251},{""stimulus"":""img/green_ll/6.jpg"",""time"":303},{""stimulus"":""img/green_ll/7.jpg"",""time"":355},{""stimulus"":""img/green_ll/8.jpg"",""time"":402},{""stimulus"":""img/green_ll/9.jpg"",""time"":454},{""stimulus"":""img/green_ll/10.jpg"",""time"":502},{""stimulus"":""img/green_ll/11.jpg"",""time"":551}]","[]"
"image-keyboard-response","118","83802","0.0-5.0-1.57","628dec55823f672331c68577","bdp_lott","Sat Mar 25 2023 23:42:13 GMT-0400 (Eastern Daylight Time)","231208","green","red","","370","","","","choice","","img/green_ll/choose11.jpg","1","168","green","0.5","0.5","0.5","l","",""
"animation","119","84404","0.0-5.0-2.57","628dec55823f672331c68577","bdp_lott","Sat Mar 25 2023 23:42:13 GMT-0400 (Eastern Daylight Time)","231208","green","red","","","","","","","","","","168","","","","","","[{""stimulus"":""img/green_ll/1.jpg"",""time"":52},{""stimulus"":""img/green_ll/2.jpg"",""time"":101},{""stimulus"":""img/green_ll/3.jpg"",""time"":153},{""stimulus"":""img/green_ll/4.jpg"",""time"":200},{""stimulus"":""img/green_ll/5.jpg"",""time"":252},{""stimulus"":""img/green_ll/6.jpg"",""time"":300},{""stimulus"":""img/green_ll/7.jpg"",""time"":353},{""stimulus"":""img/green_ll/8.jpg"",""time"":401},{""stimulus"":""img/green_ll/9.jpg"",""time"":453},{""stimulus"":""img/green_ll/10.jpg"",""time"":500},{""stimulus"":""img/green_ll/11.jpg"",""time"":553}]","[]"
"image-keyboard-response","120","84668","0.0-5.0-1.58","628dec55823f672331c68577","bdp_lott","Sat Mar 25 2023 23:42:13 GMT-0400 (Eastern Daylight Time)","231208","green","red","","264","","","","choice","","img/green_ll/choose11.jpg","1","167","green","0.5","0.5","0.5","l","",""
"animation","121","85271","0.0-5.0-2.58","628dec55823f672331c68577","bdp_lott","Sat Mar 25 2023 23:42:13 GMT-0400 (Eastern Daylight Time)","231208","green","red","","","","","","","","","","167","","","","","","[{""stimulus"":""img/green_ll/1.jpg"",""time"":51},{""stimulus"":""img/green_ll/2.jpg"",""time"":103},{""stimulus"":""img/green_ll/3.jpg"",""time"":152},{""stimulus"":""img/green_ll/4.jpg"",""time"":203},{""stimulus"":""img/green_ll/5.jpg"",""time"":251},{""stimulus"":""img/green_ll/6.jpg"",""time"":304},{""stimulus"":""img/green_ll/7.jpg"",""time"":351},{""stimulus"":""img/green_ll/8.jpg"",""time"":404},{""stimulus"":""img/green_ll/9.jpg"",""time"":452},{""stimulus"":""img/green_ll/10.jpg"",""time"":504},{""stimulus"":""img/green_ll/11.jpg"",""time"":552}]","[]"
"image-keyboard-response","122","85541","0.0-5.0-1.59","628dec55823f672331c68577","bdp_lott","Sat Mar 25 2023 23:42:13 GMT-0400 (Eastern Daylight Time)","231208","green","red","","269","","","","choice","","img/green_ll/choose11.jpg","1","166","green","0.5","0.5","0.5","l","",""
"animation","123","86143","0.0-5.0-2.59","628dec55823f672331c68577","bdp_lott","Sat Mar 25 2023 23:42:13 GMT-0400 (Eastern Daylight Time)","231208","green","red","","","","","","","","","","166","","","","","","[{""stimulus"":""img/green_ll/1.jpg"",""time"":51},{""stimulus"":""img/green_ll/2.jpg"",""time"":103},{""stimulus"":""img/green_ll/3.jpg"",""time"":150},{""stimulus"":""img/green_ll/4.jpg"",""time"":203},{""stimulus"":""img/green_ll/5.jpg"",""time"":251},{""stimulus"":""img/green_ll/6.jpg"",""time"":302},{""stimulus"":""img/green_ll/7.jpg"",""time"":351},{""stimulus"":""img/green_ll/8.jpg"",""time"":402},{""stimulus"":""img/green_ll/9.jpg"",""time"":450},{""stimulus"":""img/green_ll/10.jpg"",""time"":503},{""stimulus"":""img/green_ll/11.jpg"",""time"":550}]","[]"
"image-keyboard-response","124","86418","0.0-5.0-1.60","628dec55823f672331c68577","bdp_lott","Sat Mar 25 2023 23:42:13 GMT-0400 (Eastern Daylight Time)","231208","green","red","","274","","","","choice","","img/green_ll/choose11.jpg","2","165","red","0.5","0.5","0.5","l","",""
"animation","125","87020","0.0-5.0-2.60","628dec55823f672331c68577","bdp_lott","Sat Mar 25 2023 23:42:13 GMT-0400 (Eastern Daylight Time)","231208","green","red","","","","","","","","","","165","","","","","","[{""stimulus"":""img/red_ll/1.jpg"",""time"":53},{""stimulus"":""img/red_ll/2.jpg"",""time"":101},{""stimulus"":""img/red_ll/3.jpg"",""time"":153},{""stimulus"":""img/red_ll/4.jpg"",""time"":202},{""stimulus"":""img/red_ll/5.jpg"",""time"":254},{""stimulus"":""img/red_ll/6.jpg"",""time"":302},{""stimulus"":""img/red_ll/7.jpg"",""time"":353},{""stimulus"":""img/red_ll/8.jpg"",""time"":401},{""stimulus"":""img/red_ll/9.jpg"",""time"":454},{""stimulus"":""img/red_ll/10.jpg"",""time"":502},{""stimulus"":""img/red_ll/11.jpg"",""time"":554}]","[]"
"image-keyboard-response","126","87327","0.0-5.0-1.61","628dec55823f672331c68577","bdp_lott","Sat Mar 25 2023 23:42:13 GMT-0400 (Eastern Daylight Time)","231208","green","red","","307","","","","choice","","img/red_ll/choose11.jpg","2","164","red","0.5","0.5","0.5","w","",""
"animation","127","87927","0.0-5.0-2.61","628dec55823f672331c68577","bdp_lott","Sat Mar 25 2023 23:42:13 GMT-0400 (Eastern Daylight Time)","231208","green","red","","","","","","","","","","164","","","","","","[{""stimulus"":""img/red_lw/1.jpg"",""time"":52},{""stimulus"":""img/red_lw/2.jpg"",""time"":101},{""stimulus"":""img/red_lw/3.jpg"",""time"":153},{""stimulus"":""img/red_lw/4.jpg"",""time"":201},{""stimulus"":""img/red_lw/5.jpg"",""time"":253},{""stimulus"":""img/red_lw/6.jpg"",""time"":301},{""stimulus"":""img/red_lw/7.jpg"",""time"":353},{""stimulus"":""img/red_lw/8.jpg"",""time"":400},{""stimulus"":""img/red_lw/9.jpg"",""time"":453},{""stimulus"":""img/red_lw/10.jpg"",""time"":504},{""stimulus"":""img/red_lw/11.jpg"",""time"":552}]","[]"
"image-keyboard-response","128","88533","0.0-5.0-1.62","628dec55823f672331c68577","bdp_lott","Sat Mar 25 2023 23:42:13 GMT-0400 (Eastern Daylight Time)","231208","green","red","","605","","","","choice","","img/red_lw/choose11.jpg","1","163","green","0.5","0.5","0.5","l","",""
"animation","129","89135","0.0-5.0-2.62","628dec55823f672331c68577","bdp_lott","Sat Mar 25 2023 23:42:13 GMT-0400 (Eastern Daylight Time)","231208","green","red","","","","","","","","","","163","","","","","","[{""stimulus"":""img/green_lw/1.jpg"",""time"":51},{""stimulus"":""img/green_lw/2.jpg"",""time"":103},{""stimulus"":""img/green_lw/3.jpg"",""time"":151},{""stimulus"":""img/green_lw/4.jpg"",""time"":202},{""stimulus"":""img/green_lw/5.jpg"",""time"":255},{""stimulus"":""img/green_lw/6.jpg"",""time"":302},{""stimulus"":""img/green_lw/7.jpg"",""time"":354},{""stimulus"":""img/green_lw/8.jpg"",""time"":403},{""stimulus"":""img/green_lw/9.jpg"",""time"":451},{""stimulus"":""img/green_lw/10.jpg"",""time"":502},{""stimulus"":""img/green_lw/11.jpg"",""time"":551}]","[]"
"image-keyboard-response","130","89438","0.0-5.0-1.63","628dec55823f672331c68577","bdp_lott","Sat Mar 25 2023 23:42:13 GMT-0400 (Eastern Daylight Time)","231208","green","red","","302","","","","choice","","img/green_lw/choose11.jpg","2","162","red","0.5","0.5","0.5","l","",""
"animation","131","90040","0.0-5.0-2.63","628dec55823f672331c68577","bdp_lott","Sat Mar 25 2023 23:42:13 GMT-0400 (Eastern Daylight Time)","231208","green","red","","","","","","","","","","162","","","","","","[{""stimulus"":""img/red_ll/1.jpg"",""time"":53},{""stimulus"":""img/red_ll/2.jpg"",""time"":102},{""stimulus"":""img/red_ll/3.jpg"",""time"":154},{""stimulus"":""img/red_ll/4.jpg"",""time"":201},{""stimulus"":""img/red_ll/5.jpg"",""time"":253},{""stimulus"":""img/red_ll/6.jpg"",""time"":302},{""stimulus"":""img/red_ll/7.jpg"",""time"":353},{""stimulus"":""img/red_ll/8.jpg"",""time"":402},{""stimulus"":""img/red_ll/9.jpg"",""time"":453},{""stimulus"":""img/red_ll/10.jpg"",""time"":501},{""stimulus"":""img/red_ll/11.jpg"",""time"":553}]","[]"
"image-keyboard-response","132","90364","0.0-5.0-1.64","628dec55823f672331c68577","bdp_lott","Sat Mar 25 2023 23:42:13 GMT-0400 (Eastern Daylight Time)","231208","green","red","","324","","","","choice","","img/red_ll/choose11.jpg","1","161","green","0.5","0.5","0.5","w","",""
"animation","133","90967","0.0-5.0-2.64","628dec55823f672331c68577","bdp_lott","Sat Mar 25 2023 23:42:13 GMT-0400 (Eastern Daylight Time)","231208","green","red","","","","","","","","","","161","","","","","","[{""stimulus"":""img/green_wl/1.jpg"",""time"":51},{""stimulus"":""img/green_wl/2.jpg"",""time"":103},{""stimulus"":""img/green_wl/3.jpg"",""time"":152},{""stimulus"":""img/green_wl/4.jpg"",""time"":203},{""stimulus"":""img/green_wl/5.jpg"",""time"":252},{""stimulus"":""img/green_wl/6.jpg"",""time"":304},{""stimulus"":""img/green_wl/7.jpg"",""time"":351},{""stimulus"":""img/green_wl/8.jpg"",""time"":404},{""stimulus"":""img/green_wl/9.jpg"",""time"":451},{""stimulus"":""img/green_wl/10.jpg"",""time"":503},{""stimulus"":""img/green_wl/11.jpg"",""time"":552}]","[]"
"image-keyboard-response","134","91723","0.0-5.0-1.65","628dec55823f672331c68577","bdp_lott","Sat Mar 25 2023 23:42:13 GMT-0400 (Eastern Daylight Time)","231208","green","red","","755","","","","choice","","img/green_wl/choose11.jpg","2","160","red","0.5","0.5","0.5","l","",""
"animation","135","92327","0.0-5.0-2.65","628dec55823f672331c68577","bdp_lott","Sat Mar 25 2023 23:42:13 GMT-0400 (Eastern Daylight Time)","231208","green","red","","","","","","","","","","160","","","","","","[{""stimulus"":""img/red_wl/1.jpg"",""time"":52},{""stimulus"":""img/red_wl/2.jpg"",""time"":100},{""stimulus"":""img/red_wl/3.jpg"",""time"":152},{""stimulus"":""img/red_wl/4.jpg"",""time"":201},{""stimulus"":""img/red_wl/5.jpg"",""time"":253},{""stimulus"":""img/red_wl/6.jpg"",""time"":301},{""stimulus"":""img/red_wl/7.jpg"",""time"":352},{""stimulus"":""img/red_wl/8.jpg"",""time"":401},{""stimulus"":""img/red_wl/9.jpg"",""time"":453},{""stimulus"":""img/red_wl/10.jpg"",""time"":500},{""stimulus"":""img/red_wl/11.jpg"",""time"":553}]","[]"
"image-keyboard-response","136","92466","0.0-5.0-1.66","628dec55823f672331c68577","bdp_lott","Sat Mar 25 2023 23:42:13 GMT-0400 (Eastern Daylight Time)","231208","green","red","","138","","","","choice","","img/red_wl/choose11.jpg","1","159","green","0.5","0.5","0.5","l","",""
"animation","137","93068","0.0-5.0-2.66","628dec55823f672331c68577","bdp_lott","Sat Mar 25 2023 23:42:13 GMT-0400 (Eastern Daylight Time)","231208","green","red","","","","","","","","","","159","","","","","","[{""stimulus"":""img/green_ll/1.jpg"",""time"":53},{""stimulus"":""img/green_ll/2.jpg"",""time"":102},{""stimulus"":""img/green_ll/3.jpg"",""time"":154},{""stimulus"":""img/green_ll/4.jpg"",""time"":202},{""stimulus"":""img/green_ll/5.jpg"",""time"":254},{""stimulus"":""img/green_ll/6.jpg"",""time"":301},{""stimulus"":""img/green_ll/7.jpg"",""time"":353},{""stimulus"":""img/green_ll/8.jpg"",""time"":402},{""stimulus"":""img/green_ll/9.jpg"",""time"":454},{""stimulus"":""img/green_ll/10.jpg"",""time"":501},{""stimulus"":""img/green_ll/11.jpg"",""time"":554}]","[]"
"image-keyboard-response","138","93487","0.0-5.0-1.67","628dec55823f672331c68577","bdp_lott","Sat Mar 25 2023 23:42:13 GMT-0400 (Eastern Daylight Time)","231208","green","red","","419","","","","choice","","img/green_ll/choose11.jpg","2","158","red","0.5","0.5","0.5","w","",""
"animation","139","94088","0.0-5.0-2.67","628dec55823f672331c68577","bdp_lott","Sat Mar 25 2023 23:42:13 GMT-0400 (Eastern Daylight Time)","231208","green","red","","","","","","","","","","158","","","","","","[{""stimulus"":""img/red_lw/1.jpg"",""time"":51},{""stimulus"":""img/red_lw/2.jpg"",""time"":100},{""stimulus"":""img/red_lw/3.jpg"",""time"":152},{""stimulus"":""img/red_lw/4.jpg"",""time"":204},{""stimulus"":""img/red_lw/5.jpg"",""time"":252},{""stimulus"":""img/red_lw/6.jpg"",""time"":304},{""stimulus"":""img/red_lw/7.jpg"",""time"":351},{""stimulus"":""img/red_lw/8.jpg"",""time"":400},{""stimulus"":""img/red_lw/9.jpg"",""time"":452},{""stimulus"":""img/red_lw/10.jpg"",""time"":503},{""stimulus"":""img/red_lw/11.jpg"",""time"":552}]","[]"
"image-keyboard-response","140","94217","0.0-5.0-1.68","628dec55823f672331c68577","bdp_lott","Sat Mar 25 2023 23:42:13 GMT-0400 (Eastern Daylight Time)","231208","green","red","","129","","","","choice","","img/red_lw/choose11.jpg","1","157","green","0.5","0.5","0.5","w","",""
"animation","141","94820","0.0-5.0-2.68","628dec55823f672331c68577","bdp_lott","Sat Mar 25 2023 23:42:13 GMT-0400 (Eastern Daylight Time)","231208","green","red","","","","","","","","","","157","","","","","","[{""stimulus"":""img/green_ww/1.jpg"",""time"":51},{""stimulus"":""img/green_ww/2.jpg"",""time"":103},{""stimulus"":""img/green_ww/3.jpg"",""time"":151},{""stimulus"":""img/green_ww/4.jpg"",""time"":202},{""stimulus"":""img/green_ww/5.jpg"",""time"":254},{""stimulus"":""img/green_ww/6.jpg"",""time"":303},{""stimulus"":""img/green_ww/7.jpg"",""time"":355},{""stimulus"":""img/green_ww/8.jpg"",""time"":403},{""stimulus"":""img/green_ww/9.jpg"",""time"":455},{""stimulus"":""img/green_ww/10.jpg"",""time"":502},{""stimulus"":""img/green_ww/11.jpg"",""time"":551}]","[]"
"image-keyboard-response","142","95316","0.0-5.0-1.69","628dec55823f672331c68577","bdp_lott","Sat Mar 25 2023 23:42:13 GMT-0400 (Eastern Daylight Time)","231208","green","red","","496","","","","choice","","img/green_ww/choose11.jpg","2","156","red","0.5","0.5","0.5","l","",""
"animation","143","95920","0.0-5.0-2.69","628dec55823f672331c68577","bdp_lott","Sat Mar 25 2023 23:42:13 GMT-0400 (Eastern Daylight Time)","231208","green","red","","","","","","","","","","156","","","","","","[{""stimulus"":""img/red_wl/1.jpg"",""time"":51},{""stimulus"":""img/red_wl/2.jpg"",""time"":103},{""stimulus"":""img/red_wl/3.jpg"",""time"":150},{""stimulus"":""img/red_wl/4.jpg"",""time"":203},{""stimulus"":""img/red_wl/5.jpg"",""time"":250},{""stimulus"":""img/red_wl/6.jpg"",""time"":303},{""stimulus"":""img/red_wl/7.jpg"",""time"":351},{""stimulus"":""img/red_wl/8.jpg"",""time"":403},{""stimulus"":""img/red_wl/9.jpg"",""time"":450},{""stimulus"":""img/red_wl/10.jpg"",""time"":503},{""stimulus"":""img/red_wl/11.jpg"",""time"":550}]","[]"
"image-keyboard-response","144","96207","0.0-5.0-1.70","628dec55823f672331c68577","bdp_lott","Sat Mar 25 2023 23:42:13 GMT-0400 (Eastern Daylight Time)","231208","green","red","","287","","","","choice","","img/red_wl/choose11.jpg","1","155","green","0.5","0.5","0.5","l","",""
"animation","145","96812","0.0-5.0-2.70","628dec55823f672331c68577","bdp_lott","Sat Mar 25 2023 23:42:13 GMT-0400 (Eastern Daylight Time)","231208","green","red","","","","","","","","","","155","","","","","","[{""stimulus"":""img/green_ll/1.jpg"",""time"":53},{""stimulus"":""img/green_ll/2.jpg"",""time"":101},{""stimulus"":""img/green_ll/3.jpg"",""time"":153},{""stimulus"":""img/green_ll/4.jpg"",""time"":201},{""stimulus"":""img/green_ll/5.jpg"",""time"":252},{""stimulus"":""img/green_ll/6.jpg"",""time"":305},{""stimulus"":""img/green_ll/7.jpg"",""time"":352},{""stimulus"":""img/green_ll/8.jpg"",""time"":401},{""stimulus"":""img/green_ll/9.jpg"",""time"":453},{""stimulus"":""img/green_ll/10.jpg"",""time"":501},{""stimulus"":""img/green_ll/11.jpg"",""time"":552}]","[]"
"image-keyboard-response","146","97218","0.0-5.0-1.71","628dec55823f672331c68577","bdp_lott","Sat Mar 25 2023 23:42:13 GMT-0400 (Eastern Daylight Time)","231208","green","red","","406","","","","choice","","img/green_ll/choose11.jpg","1","154","green","0.5","0.5","0.5","l","",""
"animation","147","97819","0.0-5.0-2.71","628dec55823f672331c68577","bdp_lott","Sat Mar 25 2023 23:42:13 GMT-0400 (Eastern Daylight Time)","231208","green","red","","","","","","","","","","154","","","","","","[{""stimulus"":""img/green_ll/1.jpg"",""time"":53},{""stimulus"":""img/green_ll/2.jpg"",""time"":100},{""stimulus"":""img/green_ll/3.jpg"",""time"":152},{""stimulus"":""img/green_ll/4.jpg"",""time"":201},{""stimulus"":""img/green_ll/5.jpg"",""time"":253},{""stimulus"":""img/green_ll/6.jpg"",""time"":301},{""stimulus"":""img/green_ll/7.jpg"",""time"":353},{""stimulus"":""img/green_ll/8.jpg"",""time"":401},{""stimulus"":""img/green_ll/9.jpg"",""time"":453},{""stimulus"":""img/green_ll/10.jpg"",""time"":501},{""stimulus"":""img/green_ll/11.jpg"",""time"":552}]","[]"
"image-keyboard-response","148","98023","0.0-5.0-1.72","628dec55823f672331c68577","bdp_lott","Sat Mar 25 2023 23:42:13 GMT-0400 (Eastern Daylight Time)","231208","green","red","","203","","","","choice","","img/green_ll/choose11.jpg","2","153","red","0.5","0.5","0.5","w","",""
"animation","149","98628","0.0-5.0-2.72","628dec55823f672331c68577","bdp_lott","Sat Mar 25 2023 23:42:13 GMT-0400 (Eastern Daylight Time)","231208","green","red","","","","","","","","","","153","","","","","","[{""stimulus"":""img/red_lw/1.jpg"",""time"":52},{""stimulus"":""img/red_lw/2.jpg"",""time"":105},{""stimulus"":""img/red_lw/3.jpg"",""time"":152},{""stimulus"":""img/red_lw/4.jpg"",""time"":201},{""stimulus"":""img/red_lw/5.jpg"",""time"":252},{""stimulus"":""img/red_lw/6.jpg"",""time"":305},{""stimulus"":""img/red_lw/7.jpg"",""time"":353},{""stimulus"":""img/red_lw/8.jpg"",""time"":401},{""stimulus"":""img/red_lw/9.jpg"",""time"":452},{""stimulus"":""img/red_lw/10.jpg"",""time"":501},{""stimulus"":""img/red_lw/11.jpg"",""time"":552}]","[]"
"image-keyboard-response","150","99168","0.0-5.0-1.73","628dec55823f672331c68577","bdp_lott","Sat Mar 25 2023 23:42:13 GMT-0400 (Eastern Daylight Time)","231208","green","red","","540","","","","choice","","img/red_lw/choose11.jpg","1","152","green","0.5","0.5","0.5","w","",""
"animation","151","99772","0.0-5.0-2.73","628dec55823f672331c68577","bdp_lott","Sat Mar 25 2023 23:42:13 GMT-0400 (Eastern Daylight Time)","231208","green","red","","","","","","","","","","152","","","","","","[{""stimulus"":""img/green_ww/1.jpg"",""time"":50},{""stimulus"":""img/green_ww/2.jpg"",""time"":103},{""stimulus"":""img/green_ww/3.jpg"",""time"":151},{""stimulus"":""img/green_ww/4.jpg"",""time"":202},{""stimulus"":""img/green_ww/5.jpg"",""time"":250},{""stimulus"":""img/green_ww/6.jpg"",""time"":303},{""stimulus"":""img/green_ww/7.jpg"",""time"":350},{""stimulus"":""img/green_ww/8.jpg"",""time"":403},{""stimulus"":""img/green_ww/9.jpg"",""time"":451},{""stimulus"":""img/green_ww/10.jpg"",""time"":502},{""stimulus"":""img/green_ww/11.jpg"",""time"":551}]","[]"
"image-keyboard-response","152","99920","0.0-5.0-1.74","628dec55823f672331c68577","bdp_lott","Sat Mar 25 2023 23:42:13 GMT-0400 (Eastern Daylight Time)","231208","green","red","","148","","","","choice","","img/green_ww/choose11.jpg","2","151","red","0.5","0.5","0.5","l","",""
"animation","153","100524","0.0-5.0-2.74","628dec55823f672331c68577","bdp_lott","Sat Mar 25 2023 23:42:13 GMT-0400 (Eastern Daylight Time)","231208","green","red","","","","","","","","","","151","","","","","","[{""stimulus"":""img/red_wl/1.jpg"",""time"":52},{""stimulus"":""img/red_wl/2.jpg"",""time"":104},{""stimulus"":""img/red_wl/3.jpg"",""time"":151},{""stimulus"":""img/red_wl/4.jpg"",""time"":204},{""stimulus"":""img/red_wl/5.jpg"",""time"":251},{""stimulus"":""img/red_wl/6.jpg"",""time"":303},{""stimulus"":""img/red_wl/7.jpg"",""time"":351},{""stimulus"":""img/red_wl/8.jpg"",""time"":403},{""stimulus"":""img/red_wl/9.jpg"",""time"":452},{""stimulus"":""img/red_wl/10.jpg"",""time"":504},{""stimulus"":""img/red_wl/11.jpg"",""time"":551}]","[]"
"image-keyboard-response","154","100996","0.0-5.0-1.75","628dec55823f672331c68577","bdp_lott","Sat Mar 25 2023 23:42:13 GMT-0400 (Eastern Daylight Time)","231208","green","red","","472","","","","choice","","img/red_wl/choose11.jpg","1","150","green","0.5","0.5","0.5","w","",""
"animation","155","101600","0.0-5.0-2.75","628dec55823f672331c68577","bdp_lott","Sat Mar 25 2023 23:42:13 GMT-0400 (Eastern Daylight Time)","231208","green","red","","","","","","","","","","150","","","","","","[{""stimulus"":""img/green_wl/1.jpg"",""time"":52},{""stimulus"":""img/green_wl/2.jpg"",""time"":104},{""stimulus"":""img/green_wl/3.jpg"",""time"":151},{""stimulus"":""img/green_wl/4.jpg"",""time"":204},{""stimulus"":""img/green_wl/5.jpg"",""time"":252},{""stimulus"":""img/green_wl/6.jpg"",""time"":304},{""stimulus"":""img/green_wl/7.jpg"",""time"":352},{""stimulus"":""img/green_wl/8.jpg"",""time"":404},{""stimulus"":""img/green_wl/9.jpg"",""time"":452},{""stimulus"":""img/green_wl/10.jpg"",""time"":503},{""stimulus"":""img/green_wl/11.jpg"",""time"":552}]","[]"
"image-keyboard-response","156","102038","0.0-5.0-1.76","628dec55823f672331c68577","bdp_lott","Sat Mar 25 2023 23:42:13 GMT-0400 (Eastern Daylight Time)","231208","green","red","","438","","","","choice","","img/green_wl/choose11.jpg","2","149","red","0.5","0.1","0.1","l","",""
"animation","157","102640","0.0-5.0-2.76","628dec55823f672331c68577","bdp_lott","Sat Mar 25 2023 23:42:13 GMT-0400 (Eastern Daylight Time)","231208","green","red","","","","","","","","","","149","","","","","","[{""stimulus"":""img/red_wl/1.jpg"",""time"":54},{""stimulus"":""img/red_wl/2.jpg"",""time"":102},{""stimulus"":""img/red_wl/3.jpg"",""time"":153},{""stimulus"":""img/red_wl/4.jpg"",""time"":201},{""stimulus"":""img/red_wl/5.jpg"",""time"":254},{""stimulus"":""img/red_wl/6.jpg"",""time"":302},{""stimulus"":""img/red_wl/7.jpg"",""time"":350},{""stimulus"":""img/red_wl/8.jpg"",""time"":401},{""stimulus"":""img/red_wl/9.jpg"",""time"":454},{""stimulus"":""img/red_wl/10.jpg"",""time"":502},{""stimulus"":""img/red_wl/11.jpg"",""time"":554}]","[]"
"image-keyboard-response","158","102844","0.0-5.0-1.77","628dec55823f672331c68577","bdp_lott","Sat Mar 25 2023 23:42:13 GMT-0400 (Eastern Daylight Time)","231208","green","red","","204","","","","choice","","img/red_wl/choose11.jpg","1","148","green","0.5","0.1","0.5","l","",""
"animation","159","103448","0.0-5.0-2.77","628dec55823f672331c68577","bdp_lott","Sat Mar 25 2023 23:42:13 GMT-0400 (Eastern Daylight Time)","231208","green","red","","","","","","","","","","148","","","","","","[{""stimulus"":""img/green_ll/1.jpg"",""time"":51},{""stimulus"":""img/green_ll/2.jpg"",""time"":103},{""stimulus"":""img/green_ll/3.jpg"",""time"":152},{""stimulus"":""img/green_ll/4.jpg"",""time"":204},{""stimulus"":""img/green_ll/5.jpg"",""time"":251},{""stimulus"":""img/green_ll/6.jpg"",""time"":303},{""stimulus"":""img/green_ll/7.jpg"",""time"":352},{""stimulus"":""img/green_ll/8.jpg"",""time"":403},{""stimulus"":""img/green_ll/9.jpg"",""time"":451},{""stimulus"":""img/green_ll/10.jpg"",""time"":500},{""stimulus"":""img/green_ll/11.jpg"",""time"":552}]","[]"
"image-keyboard-response","160","104092","0.0-5.0-1.78","628dec55823f672331c68577","bdp_lott","Sat Mar 25 2023 23:42:13 GMT-0400 (Eastern Daylight Time)","231208","green","red","","644","","","","choice","","img/green_ll/choose11.jpg","2","147","red","0.5","0.1","0.1","l","",""
"animation","161","104695","0.0-5.0-2.78","628dec55823f672331c68577","bdp_lott","Sat Mar 25 2023 23:42:13 GMT-0400 (Eastern Daylight Time)","231208","green","red","","","","","","","","","","147","","","","","","[{""stimulus"":""img/red_ll/1.jpg"",""time"":52},{""stimulus"":""img/red_ll/2.jpg"",""time"":103},{""stimulus"":""img/red_ll/3.jpg"",""time"":152},{""stimulus"":""img/red_ll/4.jpg"",""time"":204},{""stimulus"":""img/red_ll/5.jpg"",""time"":252},{""stimulus"":""img/red_ll/6.jpg"",""time"":304},{""stimulus"":""img/red_ll/7.jpg"",""time"":352},{""stimulus"":""img/red_ll/8.jpg"",""time"":404},{""stimulus"":""img/red_ll/9.jpg"",""time"":452},{""stimulus"":""img/red_ll/10.jpg"",""time"":504},{""stimulus"":""img/red_ll/11.jpg"",""time"":551}]","[]"
"image-keyboard-response","162","104858","0.0-5.0-1.79","628dec55823f672331c68577","bdp_lott","Sat Mar 25 2023 23:42:13 GMT-0400 (Eastern Daylight Time)","231208","green","red","","162","","","","choice","","img/red_ll/choose11.jpg","1","146","green","0.5","0.1","0.5","w","",""
"animation","163","105459","0.0-5.0-2.79","628dec55823f672331c68577","bdp_lott","Sat Mar 25 2023 23:42:13 GMT-0400 (Eastern Daylight Time)","231208","green","red","","","","","","","","","","146","","","","","","[{""stimulus"":""img/green_wl/1.jpg"",""time"":50},{""stimulus"":""img/green_wl/2.jpg"",""time"":102},{""stimulus"":""img/green_wl/3.jpg"",""time"":154},{""stimulus"":""img/green_wl/4.jpg"",""time"":201},{""stimulus"":""img/green_wl/5.jpg"",""time"":254},{""stimulus"":""img/green_wl/6.jpg"",""time"":302},{""stimulus"":""img/green_wl/7.jpg"",""time"":350},{""stimulus"":""img/green_wl/8.jpg"",""time"":401},{""stimulus"":""img/green_wl/9.jpg"",""time"":454},{""stimulus"":""img/green_wl/10.jpg"",""time"":502},{""stimulus"":""img/green_wl/11.jpg"",""time"":553}]","[]"
"image-keyboard-response","164","105890","0.0-5.0-1.80","628dec55823f672331c68577","bdp_lott","Sat Mar 25 2023 23:42:13 GMT-0400 (Eastern Daylight Time)","231208","green","red","","431","","","","choice","","img/green_wl/choose11.jpg","1","145","green","0.5","0.1","0.5","w","",""
"animation","165","106492","0.0-5.0-2.80","628dec55823f672331c68577","bdp_lott","Sat Mar 25 2023 23:42:13 GMT-0400 (Eastern Daylight Time)","231208","green","red","","","","","","","","","","145","","","","","","[{""stimulus"":""img/green_wl/1.jpg"",""time"":54},{""stimulus"":""img/green_wl/2.jpg"",""time"":101},{""stimulus"":""img/green_wl/3.jpg"",""time"":154},{""stimulus"":""img/green_wl/4.jpg"",""time"":202},{""stimulus"":""img/green_wl/5.jpg"",""time"":254},{""stimulus"":""img/green_wl/6.jpg"",""time"":302},{""stimulus"":""img/green_wl/7.jpg"",""time"":354},{""stimulus"":""img/green_wl/8.jpg"",""time"":402},{""stimulus"":""img/green_wl/9.jpg"",""time"":454},{""stimulus"":""img/green_wl/10.jpg"",""time"":502},{""stimulus"":""img/green_wl/11.jpg"",""time"":554}]","[]"
"image-keyboard-response","166","106786","0.0-5.0-1.81","628dec55823f672331c68577","bdp_lott","Sat Mar 25 2023 23:42:13 GMT-0400 (Eastern Daylight Time)","231208","green","red","","294","","","","choice","","img/green_wl/choose11.jpg","1","144","green","0.5","0.1","0.5","w","",""
"animation","167","107387","0.0-5.0-2.81","628dec55823f672331c68577","bdp_lott","Sat Mar 25 2023 23:42:13 GMT-0400 (Eastern Daylight Time)","231208","green","red","","","","","","","","","","144","","","","","","[{""stimulus"":""img/green_wl/1.jpg"",""time"":53},{""stimulus"":""img/green_wl/2.jpg"",""time"":102},{""stimulus"":""img/green_wl/3.jpg"",""time"":154},{""stimulus"":""img/green_wl/4.jpg"",""time"":201},{""stimulus"":""img/green_wl/5.jpg"",""time"":253},{""stimulus"":""img/green_wl/6.jpg"",""time"":301},{""stimulus"":""img/green_wl/7.jpg"",""time"":354},{""stimulus"":""img/green_wl/8.jpg"",""time"":401},{""stimulus"":""img/green_wl/9.jpg"",""time"":454},{""stimulus"":""img/green_wl/10.jpg"",""time"":502},{""stimulus"":""img/green_wl/11.jpg"",""time"":553}]","[]"
"image-keyboard-response","168","107670","0.0-5.0-1.82","628dec55823f672331c68577","bdp_lott","Sat Mar 25 2023 23:42:13 GMT-0400 (Eastern Daylight Time)","231208","green","red","","283","","","","choice","","img/green_wl/choose11.jpg","1","143","green","0.5","0.1","0.5","w","",""
"animation","169","108271","0.0-5.0-2.82","628dec55823f672331c68577","bdp_lott","Sat Mar 25 2023 23:42:13 GMT-0400 (Eastern Daylight Time)","231208","green","red","","","","","","","","","","143","","","","","","[{""stimulus"":""img/green_wl/1.jpg"",""time"":54},{""stimulus"":""img/green_wl/2.jpg"",""time"":101},{""stimulus"":""img/green_wl/3.jpg"",""time"":150},{""stimulus"":""img/green_wl/4.jpg"",""time"":202},{""stimulus"":""img/green_wl/5.jpg"",""time"":254},{""stimulus"":""img/green_wl/6.jpg"",""time"":302},{""stimulus"":""img/green_wl/7.jpg"",""time"":354},{""stimulus"":""img/green_wl/8.jpg"",""time"":401},{""stimulus"":""img/green_wl/9.jpg"",""time"":454},{""stimulus"":""img/green_wl/10.jpg"",""time"":502},{""stimulus"":""img/green_wl/11.jpg"",""time"":550}]","[]"
"image-keyboard-response","170","108583","0.0-5.0-1.83","628dec55823f672331c68577","bdp_lott","Sat Mar 25 2023 23:42:13 GMT-0400 (Eastern Daylight Time)","231208","green","red","","311","","","","choice","","img/green_wl/choose11.jpg","1","142","green","0.5","0.1","0.5","w","",""
"animation","171","109184","0.0-5.0-2.83","628dec55823f672331c68577","bdp_lott","Sat Mar 25 2023 23:42:13 GMT-0400 (Eastern Daylight Time)","231208","green","red","","","","","","","","","","142","","","","","","[{""stimulus"":""img/green_wl/1.jpg"",""time"":53},{""stimulus"":""img/green_wl/2.jpg"",""time"":100},{""stimulus"":""img/green_wl/3.jpg"",""time"":152},{""stimulus"":""img/green_wl/4.jpg"",""time"":201},{""stimulus"":""img/green_wl/5.jpg"",""time"":252},{""stimulus"":""img/green_wl/6.jpg"",""time"":301},{""stimulus"":""img/green_wl/7.jpg"",""time"":353},{""stimulus"":""img/green_wl/8.jpg"",""time"":405},{""stimulus"":""img/green_wl/9.jpg"",""time"":453},{""stimulus"":""img/green_wl/10.jpg"",""time"":504},{""stimulus"":""img/green_wl/11.jpg"",""time"":553}]","[]"
"image-keyboard-response","172","109489","0.0-5.0-1.84","628dec55823f672331c68577","bdp_lott","Sat Mar 25 2023 23:42:13 GMT-0400 (Eastern Daylight Time)","231208","green","red","","305","","","","choice","","img/green_wl/choose11.jpg","1","141","green","0.5","0.1","0.5","l","",""
"animation","173","110091","0.0-5.0-2.84","628dec55823f672331c68577","bdp_lott","Sat Mar 25 2023 23:42:13 GMT-0400 (Eastern Daylight Time)","231208","green","red","","","","","","","","","","141","","","","","","[{""stimulus"":""img/green_ll/1.jpg"",""time"":54},{""stimulus"":""img/green_ll/2.jpg"",""time"":101},{""stimulus"":""img/green_ll/3.jpg"",""time"":150},{""stimulus"":""img/green_ll/4.jpg"",""time"":201},{""stimulus"":""img/green_ll/5.jpg"",""time"":250},{""stimulus"":""img/green_ll/6.jpg"",""time"":302},{""stimulus"":""img/green_ll/7.jpg"",""time"":350},{""stimulus"":""img/green_ll/8.jpg"",""time"":402},{""stimulus"":""img/green_ll/9.jpg"",""time"":450},{""stimulus"":""img/green_ll/10.jpg"",""time"":502},{""stimulus"":""img/green_ll/11.jpg"",""time"":550}]","[]"
"image-keyboard-response","174","110390","0.0-5.0-1.85","628dec55823f672331c68577","bdp_lott","Sat Mar 25 2023 23:42:13 GMT-0400 (Eastern Daylight Time)","231208","green","red","","299","","","","choice","","img/green_ll/choose11.jpg","1","140","green","0.5","0.1","0.5","l","",""
"animation","175","110992","0.0-5.0-2.85","628dec55823f672331c68577","bdp_lott","Sat Mar 25 2023 23:42:13 GMT-0400 (Eastern Daylight Time)","231208","green","red","","","","","","","","","","140","","","","","","[{""stimulus"":""img/green_ll/1.jpg"",""time"":52},{""stimulus"":""img/green_ll/2.jpg"",""time"":101},{""stimulus"":""img/green_ll/3.jpg"",""time"":152},{""stimulus"":""img/green_ll/4.jpg"",""time"":201},{""stimulus"":""img/green_ll/5.jpg"",""time"":253},{""stimulus"":""img/green_ll/6.jpg"",""time"":300},{""stimulus"":""img/green_ll/7.jpg"",""time"":352},{""stimulus"":""img/green_ll/8.jpg"",""time"":400},{""stimulus"":""img/green_ll/9.jpg"",""time"":453},{""stimulus"":""img/green_ll/10.jpg"",""time"":500},{""stimulus"":""img/green_ll/11.jpg"",""time"":552}]","[]"
"image-keyboard-response","176","111269","0.0-5.0-1.86","628dec55823f672331c68577","bdp_lott","Sat Mar 25 2023 23:42:13 GMT-0400 (Eastern Daylight Time)","231208","green","red","","277","","","","choice","","img/green_ll/choose11.jpg","2","139","red","0.5","0.1","0.1","l","",""
"animation","177","111871","0.0-5.0-2.86","628dec55823f672331c68577","bdp_lott","Sat Mar 25 2023 23:42:13 GMT-0400 (Eastern Daylight Time)","231208","green","red","","","","","","","","","","139","","","","","","[{""stimulus"":""img/red_ll/1.jpg"",""time"":51},{""stimulus"":""img/red_ll/2.jpg"",""time"":103},{""stimulus"":""img/red_ll/3.jpg"",""time"":155},{""stimulus"":""img/red_ll/4.jpg"",""time"":203},{""stimulus"":""img/red_ll/5.jpg"",""time"":251},{""stimulus"":""img/red_ll/6.jpg"",""time"":302},{""stimulus"":""img/red_ll/7.jpg"",""time"":351},{""stimulus"":""img/red_ll/8.jpg"",""time"":403},{""stimulus"":""img/red_ll/9.jpg"",""time"":455},{""stimulus"":""img/red_ll/10.jpg"",""time"":503},{""stimulus"":""img/red_ll/11.jpg"",""time"":555}]","[]"
"image-keyboard-response","178","112136","0.0-5.0-1.87","628dec55823f672331c68577","bdp_lott","Sat Mar 25 2023 23:42:13 GMT-0400 (Eastern Daylight Time)","231208","green","red","","265","","","","choice","","img/red_ll/choose11.jpg","1","138","green","0.5","0.1","0.5","l","",""
"animation","179","112740","0.0-5.0-2.87","628dec55823f672331c68577","bdp_lott","Sat Mar 25 2023 23:42:13 GMT-0400 (Eastern Daylight Time)","231208","green","red","","","","","","","","","","138","","","","","","[{""stimulus"":""img/green_ll/1.jpg"",""time"":51},{""stimulus"":""img/green_ll/2.jpg"",""time"":104},{""stimulus"":""img/green_ll/3.jpg"",""time"":151},{""stimulus"":""img/green_ll/4.jpg"",""time"":204},{""stimulus"":""img/green_ll/5.jpg"",""time"":252},{""stimulus"":""img/green_ll/6.jpg"",""time"":303},{""stimulus"":""img/green_ll/7.jpg"",""time"":352},{""stimulus"":""img/green_ll/8.jpg"",""time"":404},{""stimulus"":""img/green_ll/9.jpg"",""time"":452},{""stimulus"":""img/green_ll/10.jpg"",""time"":503},{""stimulus"":""img/green_ll/11.jpg"",""time"":552}]","[]"
"image-keyboard-response","180","113115","0.0-5.0-1.88","628dec55823f672331c68577","bdp_lott","Sat Mar 25 2023 23:42:13 GMT-0400 (Eastern Daylight Time)","231208","green","red","","375","","","","choice","","img/green_ll/choose11.jpg","2","137","red","0.5","0.1","0.1","l","",""
"animation","181","113720","0.0-5.0-2.88","628dec55823f672331c68577","bdp_lott","Sat Mar 25 2023 23:42:13 GMT-0400 (Eastern Daylight Time)","231208","green","red","","","","","","","","","","137","","","","","","[{""stimulus"":""img/red_ll/1.jpg"",""time"":53},{""stimulus"":""img/red_ll/2.jpg"",""time"":105},{""stimulus"":""img/red_ll/3.jpg"",""time"":153},{""stimulus"":""img/red_ll/4.jpg"",""time"":201},{""stimulus"":""img/red_ll/5.jpg"",""time"":252},{""stimulus"":""img/red_ll/6.jpg"",""time"":304},{""stimulus"":""img/red_ll/7.jpg"",""time"":353},{""stimulus"":""img/red_ll/8.jpg"",""time"":401},{""stimulus"":""img/red_ll/9.jpg"",""time"":453},{""stimulus"":""img/red_ll/10.jpg"",""time"":501},{""stimulus"":""img/red_ll/11.jpg"",""time"":553}]","[]"
"image-keyboard-response","182","113924","0.0-5.0-1.89","628dec55823f672331c68577","bdp_lott","Sat Mar 25 2023 23:42:13 GMT-0400 (Eastern Daylight Time)","231208","green","red","","204","","","","choice","","img/red_ll/choose11.jpg","1","136","green","0.5","0.1","0.5","l","",""
"animation","183","114527","0.0-5.0-2.89","628dec55823f672331c68577","bdp_lott","Sat Mar 25 2023 23:42:13 GMT-0400 (Eastern Daylight Time)","231208","green","red","","","","","","","","","","136","","","","","","[{""stimulus"":""img/green_ll/1.jpg"",""time"":52},{""stimulus"":""img/green_ll/2.jpg"",""time"":103},{""stimulus"":""img/green_ll/3.jpg"",""time"":152},{""stimulus"":""img/green_ll/4.jpg"",""time"":203},{""stimulus"":""img/green_ll/5.jpg"",""time"":252},{""stimulus"":""img/green_ll/6.jpg"",""time"":304},{""stimulus"":""img/green_ll/7.jpg"",""time"":352},{""stimulus"":""img/green_ll/8.jpg"",""time"":403},{""stimulus"":""img/green_ll/9.jpg"",""time"":451},{""stimulus"":""img/green_ll/10.jpg"",""time"":503},{""stimulus"":""img/green_ll/11.jpg"",""time"":552}]","[]"
"image-keyboard-response","184","114829","0.0-5.0-1.90","628dec55823f672331c68577","bdp_lott","Sat Mar 25 2023 23:42:13 GMT-0400 (Eastern Daylight Time)","231208","green","red","","302","","","","choice","","img/green_ll/choose11.jpg","2","135","red","0.5","0.1","0.1","l","",""
"animation","185","115431","0.0-5.0-2.90","628dec55823f672331c68577","bdp_lott","Sat Mar 25 2023 23:42:13 GMT-0400 (Eastern Daylight Time)","231208","green","red","","","","","","","","","","135","","","","","","[{""stimulus"":""img/red_ll/1.jpg"",""time"":54},{""stimulus"":""img/red_ll/2.jpg"",""time"":103},{""stimulus"":""img/red_ll/3.jpg"",""time"":151},{""stimulus"":""img/red_ll/4.jpg"",""time"":202},{""stimulus"":""img/red_ll/5.jpg"",""time"":251},{""stimulus"":""img/red_ll/6.jpg"",""time"":303},{""stimulus"":""img/red_ll/7.jpg"",""time"":351},{""stimulus"":""img/red_ll/8.jpg"",""time"":402},{""stimulus"":""img/red_ll/9.jpg"",""time"":455},{""stimulus"":""img/red_ll/10.jpg"",""time"":502},{""stimulus"":""img/red_ll/11.jpg"",""time"":554}]","[]"
"image-keyboard-response","186","115634","0.0-5.0-1.91","628dec55823f672331c68577","bdp_lott","Sat Mar 25 2023 23:42:13 GMT-0400 (Eastern Daylight Time)","231208","green","red","","202","","","","choice","","img/red_ll/choose11.jpg","1","134","green","0.5","0.1","0.5","w","",""
"animation","187","116235","0.0-5.0-2.91","628dec55823f672331c68577","bdp_lott","Sat Mar 25 2023 23:42:13 GMT-0400 (Eastern Daylight Time)","231208","green","red","","","","","","","","","","134","","","","","","[{""stimulus"":""img/green_wl/1.jpg"",""time"":53},{""stimulus"":""img/green_wl/2.jpg"",""time"":101},{""stimulus"":""img/green_wl/3.jpg"",""time"":153},{""stimulus"":""img/green_wl/4.jpg"",""time"":201},{""stimulus"":""img/green_wl/5.jpg"",""time"":253},{""stimulus"":""img/green_wl/6.jpg"",""time"":301},{""stimulus"":""img/green_wl/7.jpg"",""time"":354},{""stimulus"":""img/green_wl/8.jpg"",""time"":401},{""stimulus"":""img/green_wl/9.jpg"",""time"":453},{""stimulus"":""img/green_wl/10.jpg"",""time"":501},{""stimulus"":""img/green_wl/11.jpg"",""time"":553}]","[]"
"image-keyboard-response","188","116517","0.0-5.0-1.92","628dec55823f672331c68577","bdp_lott","Sat Mar 25 2023 23:42:13 GMT-0400 (Eastern Daylight Time)","231208","green","red","","281","","","","choice","","img/green_wl/choose11.jpg","2","133","red","0.5","0.1","0.1","l","",""
"animation","189","117119","0.0-5.0-2.92","628dec55823f672331c68577","bdp_lott","Sat Mar 25 2023 23:42:13 GMT-0400 (Eastern Daylight Time)","231208","green","red","","","","","","","","","","133","","","","","","[{""stimulus"":""img/red_wl/1.jpg"",""time"":51},{""stimulus"":""img/red_wl/2.jpg"",""time"":103},{""stimulus"":""img/red_wl/3.jpg"",""time"":155},{""stimulus"":""img/red_wl/4.jpg"",""time"":202},{""stimulus"":""img/red_wl/5.jpg"",""time"":251},{""stimulus"":""img/red_wl/6.jpg"",""time"":303},{""stimulus"":""img/red_wl/7.jpg"",""time"":351},{""stimulus"":""img/red_wl/8.jpg"",""time"":402},{""stimulus"":""img/red_wl/9.jpg"",""time"":454},{""stimulus"":""img/red_wl/10.jpg"",""time"":503},{""stimulus"":""img/red_wl/11.jpg"",""time"":551}]","[]"
"image-keyboard-response","190","117352","0.0-5.0-1.93","628dec55823f672331c68577","bdp_lott","Sat Mar 25 2023 23:42:13 GMT-0400 (Eastern Daylight Time)","231208","green","red","","232","","","","choice","","img/red_wl/choose11.jpg","1","132","green","0.5","0.1","0.5","w","",""
