"trial_type","trial_index","time_elapsed","internal_node_id","subject_id","task","startTime","totalTime","fairMachine","unfairMachine","view_history","rt","event","trial","time","trialtype","success","stimulus","key_press","roundsLeft","chosen","pFairMachWin","pUnfairMachWin","pTrialWin","outcome","animation_sequence","responses"
"pavlovia","0","5","0.0-0.0","63d71e67dd0fcccd3cc745b0","bdp_lott","Sat Mar 25 2023 17:54:11 GMT-0500 (Central Daylight Time)","343493","green","red","","","","","","","","","","","","","","","","",""
"instructions","1","22754","0.0-1.0","63d71e67dd0fcccd3cc745b0","bdp_lott","Sat Mar 25 2023 17:54:11 GMT-0500 (Central Daylight Time)","343493","green","red","[{""page_index"":0,""viewing_time"":22748}]","22748","","","","","","","","","","","","","","",""
"","","","","63d71e67dd0fcccd3cc745b0","bdp_lott","Sat Mar 25 2023 17:54:11 GMT-0500 (Central Daylight Time)","343493","green","red","","","fullscreenenter","2","28344","fullscreenenter","","","","","","","","","","",""
"fullscreen","2","29126","0.0-2.0","63d71e67dd0fcccd3cc745b0","bdp_lott","Sat Mar 25 2023 17:54:11 GMT-0500 (Central Daylight Time)","343493","green","red","","","","","","","true","","","","","","","","","",""
"instructions","3","98935","0.0-4.0","63d71e67dd0fcccd3cc745b0","bdp_lott","Sat Mar 25 2023 17:54:11 GMT-0500 (Central Daylight Time)","343493","green","red","[{""page_index"":0,""viewing_time"":69800}]","69801","","","","","","","","","","","","","","",""
"image-keyboard-response","4","100580","0.0-5.0-1.0","63d71e67dd0fcccd3cc745b0","bdp_lott","Sat Mar 25 2023 17:54:11 GMT-0500 (Central Daylight Time)","343493","green","red","","1639","","","","choice","","img/red_ll/initchoose11.jpg","2","225","red","0.5","0.5","0.5","l","",""
"animation","5","101190","0.0-5.0-2.0","63d71e67dd0fcccd3cc745b0","bdp_lott","Sat Mar 25 2023 17:54:11 GMT-0500 (Central Daylight Time)","343493","green","red","","","","","","","","","","225","","","","","","[{""stimulus"":""img/red_ll/1.jpg"",""time"":58},{""stimulus"":""img/red_ll/2.jpg"",""time"":109},{""stimulus"":""img/red_ll/3.jpg"",""time"":150},{""stimulus"":""img/red_ll/4.jpg"",""time"":208},{""stimulus"":""img/red_ll/5.jpg"",""time"":250},{""stimulus"":""img/red_ll/6.jpg"",""time"":301},{""stimulus"":""img/red_ll/7.jpg"",""time"":351},{""stimulus"":""img/red_ll/8.jpg"",""time"":401},{""stimulus"":""img/red_ll/9.jpg"",""time"":451},{""stimulus"":""img/red_ll/10.jpg"",""time"":502},{""stimulus"":""img/red_ll/11.jpg"",""time"":552}]","[]"
"image-keyboard-response","6","103556","0.0-5.0-1.1","63d71e67dd0fcccd3cc745b0","bdp_lott","Sat Mar 25 2023 17:54:11 GMT-0500 (Central Daylight Time)","343493","green","red","","2364","","","","choice","","img/red_ll/choose11.jpg","1","224","green","0.5","0.5","0.5","l","",""
"animation","7","104169","0.0-5.0-2.1","63d71e67dd0fcccd3cc745b0","bdp_lott","Sat Mar 25 2023 17:54:11 GMT-0500 (Central Daylight Time)","343493","green","red","","","","","","","","","","224","","","","","","[{""stimulus"":""img/green_ll/1.jpg"",""time"":65},{""stimulus"":""img/green_ll/2.jpg"",""time"":103},{""stimulus"":""img/green_ll/3.jpg"",""time"":152},{""stimulus"":""img/green_ll/4.jpg"",""time"":217},{""stimulus"":""img/green_ll/5.jpg"",""time"":267},{""stimulus"":""img/green_ll/6.jpg"",""time"":315},{""stimulus"":""img/green_ll/7.jpg"",""time"":362},{""stimulus"":""img/green_ll/8.jpg"",""time"":409},{""stimulus"":""img/green_ll/9.jpg"",""time"":456},{""stimulus"":""img/green_ll/10.jpg"",""time"":503},{""stimulus"":""img/green_ll/11.jpg"",""time"":565}]","[]"
"image-keyboard-response","8","105562","0.0-5.0-1.2","63d71e67dd0fcccd3cc745b0","bdp_lott","Sat Mar 25 2023 17:54:11 GMT-0500 (Central Daylight Time)","343493","green","red","","1391","","","","choice","","img/green_ll/choose11.jpg","1","223","green","0.5","0.5","0.5","w","",""
"animation","9","106173","0.0-5.0-2.2","63d71e67dd0fcccd3cc745b0","bdp_lott","Sat Mar 25 2023 17:54:11 GMT-0500 (Central Daylight Time)","343493","green","red","","","","","","","","","","223","","","","","","[{""stimulus"":""img/green_wl/1.jpg"",""time"":61},{""stimulus"":""img/green_wl/2.jpg"",""time"":102},{""stimulus"":""img/green_wl/3.jpg"",""time"":153},{""stimulus"":""img/green_wl/4.jpg"",""time"":201},{""stimulus"":""img/green_wl/5.jpg"",""time"":251},{""stimulus"":""img/green_wl/6.jpg"",""time"":312},{""stimulus"":""img/green_wl/7.jpg"",""time"":353},{""stimulus"":""img/green_wl/8.jpg"",""time"":411},{""stimulus"":""img/green_wl/9.jpg"",""time"":452},{""stimulus"":""img/green_wl/10.jpg"",""time"":512},{""stimulus"":""img/green_wl/11.jpg"",""time"":552}]","[]"
"image-keyboard-response","10","107829","0.0-5.0-1.3","63d71e67dd0fcccd3cc745b0","bdp_lott","Sat Mar 25 2023 17:54:11 GMT-0500 (Central Daylight Time)","343493","green","red","","1654","","","","choice","","img/green_wl/choose11.jpg","1","222","green","0.5","0.5","0.5","l","",""
"animation","11","108441","0.0-5.0-2.3","63d71e67dd0fcccd3cc745b0","bdp_lott","Sat Mar 25 2023 17:54:11 GMT-0500 (Central Daylight Time)","343493","green","red","","","","","","","","","","222","","","","","","[{""stimulus"":""img/green_ll/1.jpg"",""time"":58},{""stimulus"":""img/green_ll/2.jpg"",""time"":102},{""stimulus"":""img/green_ll/3.jpg"",""time"":160},{""stimulus"":""img/green_ll/4.jpg"",""time"":202},{""stimulus"":""img/green_ll/5.jpg"",""time"":261},{""stimulus"":""img/green_ll/6.jpg"",""time"":301},{""stimulus"":""img/green_ll/7.jpg"",""time"":351},{""stimulus"":""img/green_ll/8.jpg"",""time"":401},{""stimulus"":""img/green_ll/9.jpg"",""time"":451},{""stimulus"":""img/green_ll/10.jpg"",""time"":501},{""stimulus"":""img/green_ll/11.jpg"",""time"":551}]","[]"
"image-keyboard-response","12","109404","0.0-5.0-1.4","63d71e67dd0fcccd3cc745b0","bdp_lott","Sat Mar 25 2023 17:54:11 GMT-0500 (Central Daylight Time)","343493","green","red","","961","","","","choice","","img/green_ll/choose11.jpg","1","221","green","0.5","0.5","0.5","w","",""
"animation","13","110006","0.0-5.0-2.4","63d71e67dd0fcccd3cc745b0","bdp_lott","Sat Mar 25 2023 17:54:11 GMT-0500 (Central Daylight Time)","343493","green","red","","","","","","","","","","221","","","","","","[{""stimulus"":""img/green_wl/1.jpg"",""time"":67},{""stimulus"":""img/green_wl/2.jpg"",""time"":103},{""stimulus"":""img/green_wl/3.jpg"",""time"":153},{""stimulus"":""img/green_wl/4.jpg"",""time"":202},{""stimulus"":""img/green_wl/5.jpg"",""time"":252},{""stimulus"":""img/green_wl/6.jpg"",""time"":303},{""stimulus"":""img/green_wl/7.jpg"",""time"":352},{""stimulus"":""img/green_wl/8.jpg"",""time"":403},{""stimulus"":""img/green_wl/9.jpg"",""time"":452},{""stimulus"":""img/green_wl/10.jpg"",""time"":502},{""stimulus"":""img/green_wl/11.jpg"",""time"":553}]","[]"
"image-keyboard-response","14","110818","0.0-5.0-1.5","63d71e67dd0fcccd3cc745b0","bdp_lott","Sat Mar 25 2023 17:54:11 GMT-0500 (Central Daylight Time)","343493","green","red","","811","","","","choice","","img/green_wl/choose11.jpg","1","220","green","0.5","0.5","0.5","w","",""
"animation","15","111420","0.0-5.0-2.5","63d71e67dd0fcccd3cc745b0","bdp_lott","Sat Mar 25 2023 17:54:11 GMT-0500 (Central Daylight Time)","343493","green","red","","","","","","","","","","220","","","","","","[{""stimulus"":""img/green_wl/1.jpg"",""time"":53},{""stimulus"":""img/green_wl/2.jpg"",""time"":103},{""stimulus"":""img/green_wl/3.jpg"",""time"":155},{""stimulus"":""img/green_wl/4.jpg"",""time"":202},{""stimulus"":""img/green_wl/5.jpg"",""time"":251},{""stimulus"":""img/green_wl/6.jpg"",""time"":301},{""stimulus"":""img/green_wl/7.jpg"",""time"":351},{""stimulus"":""img/green_wl/8.jpg"",""time"":405},{""stimulus"":""img/green_wl/9.jpg"",""time"":452},{""stimulus"":""img/green_wl/10.jpg"",""time"":503},{""stimulus"":""img/green_wl/11.jpg"",""time"":552}]","[]"
"image-keyboard-response","16","111942","0.0-5.0-1.6","63d71e67dd0fcccd3cc745b0","bdp_lott","Sat Mar 25 2023 17:54:11 GMT-0500 (Central Daylight Time)","343493","green","red","","520","","","","choice","","img/green_wl/choose11.jpg","1","219","green","0.5","0.5","0.5","l","",""
"animation","17","112543","0.0-5.0-2.6","63d71e67dd0fcccd3cc745b0","bdp_lott","Sat Mar 25 2023 17:54:11 GMT-0500 (Central Daylight Time)","343493","green","red","","","","","","","","","","219","","","","","","[{""stimulus"":""img/green_ll/1.jpg"",""time"":63},{""stimulus"":""img/green_ll/2.jpg"",""time"":102},{""stimulus"":""img/green_ll/3.jpg"",""time"":151},{""stimulus"":""img/green_ll/4.jpg"",""time"":201},{""stimulus"":""img/green_ll/5.jpg"",""time"":252},{""stimulus"":""img/green_ll/6.jpg"",""time"":301},{""stimulus"":""img/green_ll/7.jpg"",""time"":352},{""stimulus"":""img/green_ll/8.jpg"",""time"":401},{""stimulus"":""img/green_ll/9.jpg"",""time"":451},{""stimulus"":""img/green_ll/10.jpg"",""time"":502},{""stimulus"":""img/green_ll/11.jpg"",""time"":552}]","[]"
"image-keyboard-response","18","113047","0.0-5.0-1.7","63d71e67dd0fcccd3cc745b0","bdp_lott","Sat Mar 25 2023 17:54:11 GMT-0500 (Central Daylight Time)","343493","green","red","","502","","","","choice","","img/green_ll/choose11.jpg","1","218","green","0.5","0.5","0.5","w","",""
"animation","19","113648","0.0-5.0-2.7","63d71e67dd0fcccd3cc745b0","bdp_lott","Sat Mar 25 2023 17:54:11 GMT-0500 (Central Daylight Time)","343493","green","red","","","","","","","","","","218","","","","","","[{""stimulus"":""img/green_wl/1.jpg"",""time"":59},{""stimulus"":""img/green_wl/2.jpg"",""time"":110},{""stimulus"":""img/green_wl/3.jpg"",""time"":152},{""stimulus"":""img/green_wl/4.jpg"",""time"":210},{""stimulus"":""img/green_wl/5.jpg"",""time"":262},{""stimulus"":""img/green_wl/6.jpg"",""time"":302},{""stimulus"":""img/green_wl/7.jpg"",""time"":352},{""stimulus"":""img/green_wl/8.jpg"",""time"":402},{""stimulus"":""img/green_wl/9.jpg"",""time"":452},{""stimulus"":""img/green_wl/10.jpg"",""time"":502},{""stimulus"":""img/green_wl/11.jpg"",""time"":551}]","[]"
"image-keyboard-response","20","114182","0.0-5.0-1.8","63d71e67dd0fcccd3cc745b0","bdp_lott","Sat Mar 25 2023 17:54:11 GMT-0500 (Central Daylight Time)","343493","green","red","","532","","","","choice","","img/green_wl/choose11.jpg","1","217","green","0.5","0.5","0.5","l","",""
"animation","21","114784","0.0-5.0-2.8","63d71e67dd0fcccd3cc745b0","bdp_lott","Sat Mar 25 2023 17:54:11 GMT-0500 (Central Daylight Time)","343493","green","red","","","","","","","","","","217","","","","","","[{""stimulus"":""img/green_ll/1.jpg"",""time"":58},{""stimulus"":""img/green_ll/2.jpg"",""time"":102},{""stimulus"":""img/green_ll/3.jpg"",""time"":151},{""stimulus"":""img/green_ll/4.jpg"",""time"":202},{""stimulus"":""img/green_ll/5.jpg"",""time"":253},{""stimulus"":""img/green_ll/6.jpg"",""time"":302},{""stimulus"":""img/green_ll/7.jpg"",""time"":352},{""stimulus"":""img/green_ll/8.jpg"",""time"":402},{""stimulus"":""img/green_ll/9.jpg"",""time"":452},{""stimulus"":""img/green_ll/10.jpg"",""time"":502},{""stimulus"":""img/green_ll/11.jpg"",""time"":552}]","[]"
"image-keyboard-response","22","115291","0.0-5.0-1.9","63d71e67dd0fcccd3cc745b0","bdp_lott","Sat Mar 25 2023 17:54:11 GMT-0500 (Central Daylight Time)","343493","green","red","","505","","","","choice","","img/green_ll/choose11.jpg","1","216","green","0.5","0.5","0.5","w","",""
"animation","23","115893","0.0-5.0-2.9","63d71e67dd0fcccd3cc745b0","bdp_lott","Sat Mar 25 2023 17:54:11 GMT-0500 (Central Daylight Time)","343493","green","red","","","","","","","","","","216","","","","","","[{""stimulus"":""img/green_wl/1.jpg"",""time"":64},{""stimulus"":""img/green_wl/2.jpg"",""time"":102},{""stimulus"":""img/green_wl/3.jpg"",""time"":150},{""stimulus"":""img/green_wl/4.jpg"",""time"":202},{""stimulus"":""img/green_wl/5.jpg"",""time"":251},{""stimulus"":""img/green_wl/6.jpg"",""time"":300},{""stimulus"":""img/green_wl/7.jpg"",""time"":351},{""stimulus"":""img/green_wl/8.jpg"",""time"":401},{""stimulus"":""img/green_wl/9.jpg"",""time"":465},{""stimulus"":""img/green_wl/10.jpg"",""time"":501},{""stimulus"":""img/green_wl/11.jpg"",""time"":552}]","[]"
"image-keyboard-response","24","116346","0.0-5.0-1.10","63d71e67dd0fcccd3cc745b0","bdp_lott","Sat Mar 25 2023 17:54:11 GMT-0500 (Central Daylight Time)","343493","green","red","","452","","","","choice","","img/green_wl/choose11.jpg","1","215","green","0.5","0.5","0.5","w","",""
"animation","25","116947","0.0-5.0-2.10","63d71e67dd0fcccd3cc745b0","bdp_lott","Sat Mar 25 2023 17:54:11 GMT-0500 (Central Daylight Time)","343493","green","red","","","","","","","","","","215","","","","","","[{""stimulus"":""img/green_wl/1.jpg"",""time"":60},{""stimulus"":""img/green_wl/2.jpg"",""time"":103},{""stimulus"":""img/green_wl/3.jpg"",""time"":151},{""stimulus"":""img/green_wl/4.jpg"",""time"":202},{""stimulus"":""img/green_wl/5.jpg"",""time"":252},{""stimulus"":""img/green_wl/6.jpg"",""time"":301},{""stimulus"":""img/green_wl/7.jpg"",""time"":352},{""stimulus"":""img/green_wl/8.jpg"",""time"":402},{""stimulus"":""img/green_wl/9.jpg"",""time"":452},{""stimulus"":""img/green_wl/10.jpg"",""time"":502},{""stimulus"":""img/green_wl/11.jpg"",""time"":552}]","[]"
"image-keyboard-response","26","117455","0.0-5.0-1.11","63d71e67dd0fcccd3cc745b0","bdp_lott","Sat Mar 25 2023 17:54:11 GMT-0500 (Central Daylight Time)","343493","green","red","","507","","","","choice","","img/green_wl/choose11.jpg","1","214","green","0.5","0.5","0.5","l","",""
"animation","27","118056","0.0-5.0-2.11","63d71e67dd0fcccd3cc745b0","bdp_lott","Sat Mar 25 2023 17:54:11 GMT-0500 (Central Daylight Time)","343493","green","red","","","","","","","","","","214","","","","","","[{""stimulus"":""img/green_ll/1.jpg"",""time"":51},{""stimulus"":""img/green_ll/2.jpg"",""time"":102},{""stimulus"":""img/green_ll/3.jpg"",""time"":151},{""stimulus"":""img/green_ll/4.jpg"",""time"":202},{""stimulus"":""img/green_ll/5.jpg"",""time"":251},{""stimulus"":""img/green_ll/6.jpg"",""time"":301},{""stimulus"":""img/green_ll/7.jpg"",""time"":351},{""stimulus"":""img/green_ll/8.jpg"",""time"":401},{""stimulus"":""img/green_ll/9.jpg"",""time"":451},{""stimulus"":""img/green_ll/10.jpg"",""time"":501},{""stimulus"":""img/green_ll/11.jpg"",""time"":551}]","[]"
"image-keyboard-response","28","118465","0.0-5.0-1.12","63d71e67dd0fcccd3cc745b0","bdp_lott","Sat Mar 25 2023 17:54:11 GMT-0500 (Central Daylight Time)","343493","green","red","","408","","","","choice","","img/green_ll/choose11.jpg","1","213","green","0.5","0.5","0.5","w","",""
"animation","29","119067","0.0-5.0-2.12","63d71e67dd0fcccd3cc745b0","bdp_lott","Sat Mar 25 2023 17:54:11 GMT-0500 (Central Daylight Time)","343493","green","red","","","","","","","","","","213","","","","","","[{""stimulus"":""img/green_wl/1.jpg"",""time"":56},{""stimulus"":""img/green_wl/2.jpg"",""time"":101},{""stimulus"":""img/green_wl/3.jpg"",""time"":157},{""stimulus"":""img/green_wl/4.jpg"",""time"":201},{""stimulus"":""img/green_wl/5.jpg"",""time"":257},{""stimulus"":""img/green_wl/6.jpg"",""time"":302},{""stimulus"":""img/green_wl/7.jpg"",""time"":352},{""stimulus"":""img/green_wl/8.jpg"",""time"":402},{""stimulus"":""img/green_wl/9.jpg"",""time"":450},{""stimulus"":""img/green_wl/10.jpg"",""time"":501},{""stimulus"":""img/green_wl/11.jpg"",""time"":550}]","[]"
"image-keyboard-response","30","119428","0.0-5.0-1.13","63d71e67dd0fcccd3cc745b0","bdp_lott","Sat Mar 25 2023 17:54:11 GMT-0500 (Central Daylight Time)","343493","green","red","","360","","","","choice","","img/green_wl/choose11.jpg","1","212","green","0.5","0.5","0.5","l","",""
"animation","31","120030","0.0-5.0-2.13","63d71e67dd0fcccd3cc745b0","bdp_lott","Sat Mar 25 2023 17:54:11 GMT-0500 (Central Daylight Time)","343493","green","red","","","","","","","","","","212","","","","","","[{""stimulus"":""img/green_ll/1.jpg"",""time"":60},{""stimulus"":""img/green_ll/2.jpg"",""time"":101},{""stimulus"":""img/green_ll/3.jpg"",""time"":151},{""stimulus"":""img/green_ll/4.jpg"",""time"":201},{""stimulus"":""img/green_ll/5.jpg"",""time"":251},{""stimulus"":""img/green_ll/6.jpg"",""time"":301},{""stimulus"":""img/green_ll/7.jpg"",""time"":352},{""stimulus"":""img/green_ll/8.jpg"",""time"":401},{""stimulus"":""img/green_ll/9.jpg"",""time"":451},{""stimulus"":""img/green_ll/10.jpg"",""time"":501},{""stimulus"":""img/green_ll/11.jpg"",""time"":551}]","[]"
"image-keyboard-response","32","120519","0.0-5.0-1.14","63d71e67dd0fcccd3cc745b0","bdp_lott","Sat Mar 25 2023 17:54:11 GMT-0500 (Central Daylight Time)","343493","green","red","","487","","","","choice","","img/green_ll/choose11.jpg","1","211","green","0.5","0.5","0.5","w","",""
"animation","33","121123","0.0-5.0-2.14","63d71e67dd0fcccd3cc745b0","bdp_lott","Sat Mar 25 2023 17:54:11 GMT-0500 (Central Daylight Time)","343493","green","red","","","","","","","","","","211","","","","","","[{""stimulus"":""img/green_wl/1.jpg"",""time"":53},{""stimulus"":""img/green_wl/2.jpg"",""time"":102},{""stimulus"":""img/green_wl/3.jpg"",""time"":151},{""stimulus"":""img/green_wl/4.jpg"",""time"":201},{""stimulus"":""img/green_wl/5.jpg"",""time"":255},{""stimulus"":""img/green_wl/6.jpg"",""time"":302},{""stimulus"":""img/green_wl/7.jpg"",""time"":351},{""stimulus"":""img/green_wl/8.jpg"",""time"":402},{""stimulus"":""img/green_wl/9.jpg"",""time"":452},{""stimulus"":""img/green_wl/10.jpg"",""time"":501},{""stimulus"":""img/green_wl/11.jpg"",""time"":552}]","[]"
"image-keyboard-response","34","121536","0.0-5.0-1.15","63d71e67dd0fcccd3cc745b0","bdp_lott","Sat Mar 25 2023 17:54:11 GMT-0500 (Central Daylight Time)","343493","green","red","","412","","","","choice","","img/green_wl/choose11.jpg","1","210","green","0.5","0.5","0.5","l","",""
"animation","35","122139","0.0-5.0-2.15","63d71e67dd0fcccd3cc745b0","bdp_lott","Sat Mar 25 2023 17:54:11 GMT-0500 (Central Daylight Time)","343493","green","red","","","","","","","","","","210","","","","","","[{""stimulus"":""img/green_ll/1.jpg"",""time"":52},{""stimulus"":""img/green_ll/2.jpg"",""time"":103},{""stimulus"":""img/green_ll/3.jpg"",""time"":153},{""stimulus"":""img/green_ll/4.jpg"",""time"":202},{""stimulus"":""img/green_ll/5.jpg"",""time"":252},{""stimulus"":""img/green_ll/6.jpg"",""time"":302},{""stimulus"":""img/green_ll/7.jpg"",""time"":351},{""stimulus"":""img/green_ll/8.jpg"",""time"":402},{""stimulus"":""img/green_ll/9.jpg"",""time"":452},{""stimulus"":""img/green_ll/10.jpg"",""time"":503},{""stimulus"":""img/green_ll/11.jpg"",""time"":552}]","[]"
"image-keyboard-response","36","122524","0.0-5.0-1.16","63d71e67dd0fcccd3cc745b0","bdp_lott","Sat Mar 25 2023 17:54:11 GMT-0500 (Central Daylight Time)","343493","green","red","","384","","","","choice","","img/green_ll/choose11.jpg","1","209","green","0.5","0.5","0.5","l","",""
"animation","37","123127","0.0-5.0-2.16","63d71e67dd0fcccd3cc745b0","bdp_lott","Sat Mar 25 2023 17:54:11 GMT-0500 (Central Daylight Time)","343493","green","red","","","","","","","","","","209","","","","","","[{""stimulus"":""img/green_ll/1.jpg"",""time"":64},{""stimulus"":""img/green_ll/2.jpg"",""time"":102},{""stimulus"":""img/green_ll/3.jpg"",""time"":153},{""stimulus"":""img/green_ll/4.jpg"",""time"":201},{""stimulus"":""img/green_ll/5.jpg"",""time"":265},{""stimulus"":""img/green_ll/6.jpg"",""time"":301},{""stimulus"":""img/green_ll/7.jpg"",""time"":353},{""stimulus"":""img/green_ll/8.jpg"",""time"":402},{""stimulus"":""img/green_ll/9.jpg"",""time"":452},{""stimulus"":""img/green_ll/10.jpg"",""time"":502},{""stimulus"":""img/green_ll/11.jpg"",""time"":552}]","[]"
"image-keyboard-response","38","123543","0.0-5.0-1.17","63d71e67dd0fcccd3cc745b0","bdp_lott","Sat Mar 25 2023 17:54:11 GMT-0500 (Central Daylight Time)","343493","green","red","","414","","","","choice","","img/green_ll/choose11.jpg","1","208","green","0.5","0.5","0.5","l","",""
"animation","39","124145","0.0-5.0-2.17","63d71e67dd0fcccd3cc745b0","bdp_lott","Sat Mar 25 2023 17:54:11 GMT-0500 (Central Daylight Time)","343493","green","red","","","","","","","","","","208","","","","","","[{""stimulus"":""img/green_ll/1.jpg"",""time"":63},{""stimulus"":""img/green_ll/2.jpg"",""time"":102},{""stimulus"":""img/green_ll/3.jpg"",""time"":152},{""stimulus"":""img/green_ll/4.jpg"",""time"":202},{""stimulus"":""img/green_ll/5.jpg"",""time"":251},{""stimulus"":""img/green_ll/6.jpg"",""time"":301},{""stimulus"":""img/green_ll/7.jpg"",""time"":364},{""stimulus"":""img/green_ll/8.jpg"",""time"":402},{""stimulus"":""img/green_ll/9.jpg"",""time"":452},{""stimulus"":""img/green_ll/10.jpg"",""time"":503},{""stimulus"":""img/green_ll/11.jpg"",""time"":552}]","[]"
"image-keyboard-response","40","124616","0.0-5.0-1.18","63d71e67dd0fcccd3cc745b0","bdp_lott","Sat Mar 25 2023 17:54:11 GMT-0500 (Central Daylight Time)","343493","green","red","","469","","","","choice","","img/green_ll/choose11.jpg","1","207","green","0.5","0.5","0.5","w","",""
"animation","41","125223","0.0-5.0-2.18","63d71e67dd0fcccd3cc745b0","bdp_lott","Sat Mar 25 2023 17:54:11 GMT-0500 (Central Daylight Time)","343493","green","red","","","","","","","","","","207","","","","","","[{""stimulus"":""img/green_wl/1.jpg"",""time"":57},{""stimulus"":""img/green_wl/2.jpg"",""time"":102},{""stimulus"":""img/green_wl/3.jpg"",""time"":158},{""stimulus"":""img/green_wl/4.jpg"",""time"":201},{""stimulus"":""img/green_wl/5.jpg"",""time"":253},{""stimulus"":""img/green_wl/6.jpg"",""time"":302},{""stimulus"":""img/green_wl/7.jpg"",""time"":352},{""stimulus"":""img/green_wl/8.jpg"",""time"":401},{""stimulus"":""img/green_wl/9.jpg"",""time"":451},{""stimulus"":""img/green_wl/10.jpg"",""time"":501},{""stimulus"":""img/green_wl/11.jpg"",""time"":551}]","[]"
"image-keyboard-response","42","125712","0.0-5.0-1.19","63d71e67dd0fcccd3cc745b0","bdp_lott","Sat Mar 25 2023 17:54:11 GMT-0500 (Central Daylight Time)","343493","green","red","","488","","","","choice","","img/green_wl/choose11.jpg","1","206","green","0.5","0.5","0.5","w","",""
"animation","43","126314","0.0-5.0-2.19","63d71e67dd0fcccd3cc745b0","bdp_lott","Sat Mar 25 2023 17:54:11 GMT-0500 (Central Daylight Time)","343493","green","red","","","","","","","","","","206","","","","","","[{""stimulus"":""img/green_wl/1.jpg"",""time"":60},{""stimulus"":""img/green_wl/2.jpg"",""time"":102},{""stimulus"":""img/green_wl/3.jpg"",""time"":152},{""stimulus"":""img/green_wl/4.jpg"",""time"":202},{""stimulus"":""img/green_wl/5.jpg"",""time"":252},{""stimulus"":""img/green_wl/6.jpg"",""time"":302},{""stimulus"":""img/green_wl/7.jpg"",""time"":352},{""stimulus"":""img/green_wl/8.jpg"",""time"":401},{""stimulus"":""img/green_wl/9.jpg"",""time"":451},{""stimulus"":""img/green_wl/10.jpg"",""time"":502},{""stimulus"":""img/green_wl/11.jpg"",""time"":552}]","[]"
"image-keyboard-response","44","126710","0.0-5.0-1.20","63d71e67dd0fcccd3cc745b0","bdp_lott","Sat Mar 25 2023 17:54:11 GMT-0500 (Central Daylight Time)","343493","green","red","","394","","","","choice","","img/green_wl/choose11.jpg","1","205","green","0.5","0.5","0.5","w","",""
"animation","45","127312","0.0-5.0-2.20","63d71e67dd0fcccd3cc745b0","bdp_lott","Sat Mar 25 2023 17:54:11 GMT-0500 (Central Daylight Time)","343493","green","red","","","","","","","","","","205","","","","","","[{""stimulus"":""img/green_wl/1.jpg"",""time"":62},{""stimulus"":""img/green_wl/2.jpg"",""time"":101},{""stimulus"":""img/green_wl/3.jpg"",""time"":152},{""stimulus"":""img/green_wl/4.jpg"",""time"":201},{""stimulus"":""img/green_wl/5.jpg"",""time"":252},{""stimulus"":""img/green_wl/6.jpg"",""time"":300},{""stimulus"":""img/green_wl/7.jpg"",""time"":351},{""stimulus"":""img/green_wl/8.jpg"",""time"":402},{""stimulus"":""img/green_wl/9.jpg"",""time"":451},{""stimulus"":""img/green_wl/10.jpg"",""time"":501},{""stimulus"":""img/green_wl/11.jpg"",""time"":552}]","[]"
"image-keyboard-response","46","127728","0.0-5.0-1.21","63d71e67dd0fcccd3cc745b0","bdp_lott","Sat Mar 25 2023 17:54:11 GMT-0500 (Central Daylight Time)","343493","green","red","","414","","","","choice","","img/green_wl/choose11.jpg","1","204","green","0.5","0.5","0.5","w","",""
"animation","47","128329","0.0-5.0-2.21","63d71e67dd0fcccd3cc745b0","bdp_lott","Sat Mar 25 2023 17:54:11 GMT-0500 (Central Daylight Time)","343493","green","red","","","","","","","","","","204","","","","","","[{""stimulus"":""img/green_wl/1.jpg"",""time"":61},{""stimulus"":""img/green_wl/2.jpg"",""time"":102},{""stimulus"":""img/green_wl/3.jpg"",""time"":152},{""stimulus"":""img/green_wl/4.jpg"",""time"":203},{""stimulus"":""img/green_wl/5.jpg"",""time"":251},{""stimulus"":""img/green_wl/6.jpg"",""time"":301},{""stimulus"":""img/green_wl/7.jpg"",""time"":352},{""stimulus"":""img/green_wl/8.jpg"",""time"":413},{""stimulus"":""img/green_wl/9.jpg"",""time"":463},{""stimulus"":""img/green_wl/10.jpg"",""time"":501},{""stimulus"":""img/green_wl/11.jpg"",""time"":563}]","[]"
"image-keyboard-response","48","128690","0.0-5.0-1.22","63d71e67dd0fcccd3cc745b0","bdp_lott","Sat Mar 25 2023 17:54:11 GMT-0500 (Central Daylight Time)","343493","green","red","","360","","","","choice","","img/green_wl/choose11.jpg","1","203","green","0.5","0.5","0.5","l","",""
"animation","49","129291","0.0-5.0-2.22","63d71e67dd0fcccd3cc745b0","bdp_lott","Sat Mar 25 2023 17:54:11 GMT-0500 (Central Daylight Time)","343493","green","red","","","","","","","","","","203","","","","","","[{""stimulus"":""img/green_ll/1.jpg"",""time"":65},{""stimulus"":""img/green_ll/2.jpg"",""time"":101},{""stimulus"":""img/green_ll/3.jpg"",""time"":152},{""stimulus"":""img/green_ll/4.jpg"",""time"":201},{""stimulus"":""img/green_ll/5.jpg"",""time"":251},{""stimulus"":""img/green_ll/6.jpg"",""time"":301},{""stimulus"":""img/green_ll/7.jpg"",""time"":351},{""stimulus"":""img/green_ll/8.jpg"",""time"":401},{""stimulus"":""img/green_ll/9.jpg"",""time"":451},{""stimulus"":""img/green_ll/10.jpg"",""time"":502},{""stimulus"":""img/green_ll/11.jpg"",""time"":551}]","[]"
"image-keyboard-response","50","129682","0.0-5.0-1.23","63d71e67dd0fcccd3cc745b0","bdp_lott","Sat Mar 25 2023 17:54:11 GMT-0500 (Central Daylight Time)","343493","green","red","","390","","","","choice","","img/green_ll/choose11.jpg","1","202","green","0.5","0.5","0.5","l","",""
"animation","51","130284","0.0-5.0-2.23","63d71e67dd0fcccd3cc745b0","bdp_lott","Sat Mar 25 2023 17:54:11 GMT-0500 (Central Daylight Time)","343493","green","red","","","","","","","","","","202","","","","","","[{""stimulus"":""img/green_ll/1.jpg"",""time"":56},{""stimulus"":""img/green_ll/2.jpg"",""time"":102},{""stimulus"":""img/green_ll/3.jpg"",""time"":151},{""stimulus"":""img/green_ll/4.jpg"",""time"":202},{""stimulus"":""img/green_ll/5.jpg"",""time"":253},{""stimulus"":""img/green_ll/6.jpg"",""time"":301},{""stimulus"":""img/green_ll/7.jpg"",""time"":352},{""stimulus"":""img/green_ll/8.jpg"",""time"":401},{""stimulus"":""img/green_ll/9.jpg"",""time"":452},{""stimulus"":""img/green_ll/10.jpg"",""time"":502},{""stimulus"":""img/green_ll/11.jpg"",""time"":552}]","[]"
"image-keyboard-response","52","130651","0.0-5.0-1.24","63d71e67dd0fcccd3cc745b0","bdp_lott","Sat Mar 25 2023 17:54:11 GMT-0500 (Central Daylight Time)","343493","green","red","","366","","","","choice","","img/green_ll/choose11.jpg","1","201","green","0.5","0.5","0.5","w","",""
"animation","53","131252","0.0-5.0-2.24","63d71e67dd0fcccd3cc745b0","bdp_lott","Sat Mar 25 2023 17:54:11 GMT-0500 (Central Daylight Time)","343493","green","red","","","","","","","","","","201","","","","","","[{""stimulus"":""img/green_wl/1.jpg"",""time"":53},{""stimulus"":""img/green_wl/2.jpg"",""time"":101},{""stimulus"":""img/green_wl/3.jpg"",""time"":155},{""stimulus"":""img/green_wl/4.jpg"",""time"":201},{""stimulus"":""img/green_wl/5.jpg"",""time"":251},{""stimulus"":""img/green_wl/6.jpg"",""time"":302},{""stimulus"":""img/green_wl/7.jpg"",""time"":351},{""stimulus"":""img/green_wl/8.jpg"",""time"":402},{""stimulus"":""img/green_wl/9.jpg"",""time"":452},{""stimulus"":""img/green_wl/10.jpg"",""time"":502},{""stimulus"":""img/green_wl/11.jpg"",""time"":551}]","[]"
"image-keyboard-response","54","131681","0.0-5.0-1.25","63d71e67dd0fcccd3cc745b0","bdp_lott","Sat Mar 25 2023 17:54:11 GMT-0500 (Central Daylight Time)","343493","green","red","","426","","","","choice","","img/green_wl/choose11.jpg","1","200","green","0.5","0.5","0.5","w","",""
"animation","55","132282","0.0-5.0-2.25","63d71e67dd0fcccd3cc745b0","bdp_lott","Sat Mar 25 2023 17:54:11 GMT-0500 (Central Daylight Time)","343493","green","red","","","","","","","","","","200","","","","","","[{""stimulus"":""img/green_wl/1.jpg"",""time"":59},{""stimulus"":""img/green_wl/2.jpg"",""time"":110},{""stimulus"":""img/green_wl/3.jpg"",""time"":152},{""stimulus"":""img/green_wl/4.jpg"",""time"":202},{""stimulus"":""img/green_wl/5.jpg"",""time"":252},{""stimulus"":""img/green_wl/6.jpg"",""time"":310},{""stimulus"":""img/green_wl/7.jpg"",""time"":352},{""stimulus"":""img/green_wl/8.jpg"",""time"":410},{""stimulus"":""img/green_wl/9.jpg"",""time"":460},{""stimulus"":""img/green_wl/10.jpg"",""time"":503},{""stimulus"":""img/green_wl/11.jpg"",""time"":552}]","[]"
"image-keyboard-response","56","132715","0.0-5.0-1.26","63d71e67dd0fcccd3cc745b0","bdp_lott","Sat Mar 25 2023 17:54:11 GMT-0500 (Central Daylight Time)","343493","green","red","","431","","","","choice","","img/green_wl/choose11.jpg","1","199","green","0.5","0.5","0.5","l","",""
"animation","57","133323","0.0-5.0-2.26","63d71e67dd0fcccd3cc745b0","bdp_lott","Sat Mar 25 2023 17:54:11 GMT-0500 (Central Daylight Time)","343493","green","red","","","","","","","","","","199","","","","","","[{""stimulus"":""img/green_ll/1.jpg"",""time"":58},{""stimulus"":""img/green_ll/2.jpg"",""time"":109},{""stimulus"":""img/green_ll/3.jpg"",""time"":151},{""stimulus"":""img/green_ll/4.jpg"",""time"":201},{""stimulus"":""img/green_ll/5.jpg"",""time"":252},{""stimulus"":""img/green_ll/6.jpg"",""time"":302},{""stimulus"":""img/green_ll/7.jpg"",""time"":353},{""stimulus"":""img/green_ll/8.jpg"",""time"":402},{""stimulus"":""img/green_ll/9.jpg"",""time"":452},{""stimulus"":""img/green_ll/10.jpg"",""time"":502},{""stimulus"":""img/green_ll/11.jpg"",""time"":559}]","[]"
"image-keyboard-response","58","133685","0.0-5.0-1.27","63d71e67dd0fcccd3cc745b0","bdp_lott","Sat Mar 25 2023 17:54:11 GMT-0500 (Central Daylight Time)","343493","green","red","","361","","","","choice","","img/green_ll/choose11.jpg","1","198","green","0.5","0.5","0.5","l","",""
"animation","59","134286","0.0-5.0-2.27","63d71e67dd0fcccd3cc745b0","bdp_lott","Sat Mar 25 2023 17:54:11 GMT-0500 (Central Daylight Time)","343493","green","red","","","","","","","","","","198","","","","","","[{""stimulus"":""img/green_ll/1.jpg"",""time"":53},{""stimulus"":""img/green_ll/2.jpg"",""time"":101},{""stimulus"":""img/green_ll/3.jpg"",""time"":151},{""stimulus"":""img/green_ll/4.jpg"",""time"":202},{""stimulus"":""img/green_ll/5.jpg"",""time"":252},{""stimulus"":""img/green_ll/6.jpg"",""time"":302},{""stimulus"":""img/green_ll/7.jpg"",""time"":352},{""stimulus"":""img/green_ll/8.jpg"",""time"":401},{""stimulus"":""img/green_ll/9.jpg"",""time"":453},{""stimulus"":""img/green_ll/10.jpg"",""time"":502},{""stimulus"":""img/green_ll/11.jpg"",""time"":551}]","[]"
"image-keyboard-response","60","134654","0.0-5.0-1.28","63d71e67dd0fcccd3cc745b0","bdp_lott","Sat Mar 25 2023 17:54:11 GMT-0500 (Central Daylight Time)","343493","green","red","","366","","","","choice","","img/green_ll/choose11.jpg","1","197","green","0.5","0.5","0.5","l","",""
"animation","61","135255","0.0-5.0-2.28","63d71e67dd0fcccd3cc745b0","bdp_lott","Sat Mar 25 2023 17:54:11 GMT-0500 (Central Daylight Time)","343493","green","red","","","","","","","","","","197","","","","","","[{""stimulus"":""img/green_ll/1.jpg"",""time"":68},{""stimulus"":""img/green_ll/2.jpg"",""time"":104},{""stimulus"":""img/green_ll/3.jpg"",""time"":152},{""stimulus"":""img/green_ll/4.jpg"",""time"":203},{""stimulus"":""img/green_ll/5.jpg"",""time"":252},{""stimulus"":""img/green_ll/6.jpg"",""time"":302},{""stimulus"":""img/green_ll/7.jpg"",""time"":353},{""stimulus"":""img/green_ll/8.jpg"",""time"":402},{""stimulus"":""img/green_ll/9.jpg"",""time"":453},{""stimulus"":""img/green_ll/10.jpg"",""time"":503},{""stimulus"":""img/green_ll/11.jpg"",""time"":552}]","[]"
"image-keyboard-response","62","135620","0.0-5.0-1.29","63d71e67dd0fcccd3cc745b0","bdp_lott","Sat Mar 25 2023 17:54:11 GMT-0500 (Central Daylight Time)","343493","green","red","","364","","","","choice","","img/green_ll/choose11.jpg","1","196","green","0.5","0.5","0.5","l","",""
"animation","63","136223","0.0-5.0-2.29","63d71e67dd0fcccd3cc745b0","bdp_lott","Sat Mar 25 2023 17:54:11 GMT-0500 (Central Daylight Time)","343493","green","red","","","","","","","","","","196","","","","","","[{""stimulus"":""img/green_ll/1.jpg"",""time"":51},{""stimulus"":""img/green_ll/2.jpg"",""time"":103},{""stimulus"":""img/green_ll/3.jpg"",""time"":152},{""stimulus"":""img/green_ll/4.jpg"",""time"":202},{""stimulus"":""img/green_ll/5.jpg"",""time"":251},{""stimulus"":""img/green_ll/6.jpg"",""time"":301},{""stimulus"":""img/green_ll/7.jpg"",""time"":354},{""stimulus"":""img/green_ll/8.jpg"",""time"":401},{""stimulus"":""img/green_ll/9.jpg"",""time"":452},{""stimulus"":""img/green_ll/10.jpg"",""time"":501},{""stimulus"":""img/green_ll/11.jpg"",""time"":551}]","[]"
"image-keyboard-response","64","136569","0.0-5.0-1.30","63d71e67dd0fcccd3cc745b0","bdp_lott","Sat Mar 25 2023 17:54:11 GMT-0500 (Central Daylight Time)","343493","green","red","","345","","","","choice","","img/green_ll/choose11.jpg","1","195","green","0.5","0.5","0.5","w","",""
"animation","65","137171","0.0-5.0-2.30","63d71e67dd0fcccd3cc745b0","bdp_lott","Sat Mar 25 2023 17:54:11 GMT-0500 (Central Daylight Time)","343493","green","red","","","","","","","","","","195","","","","","","[{""stimulus"":""img/green_wl/1.jpg"",""time"":52},{""stimulus"":""img/green_wl/2.jpg"",""time"":103},{""stimulus"":""img/green_wl/3.jpg"",""time"":152},{""stimulus"":""img/green_wl/4.jpg"",""time"":202},{""stimulus"":""img/green_wl/5.jpg"",""time"":252},{""stimulus"":""img/green_wl/6.jpg"",""time"":302},{""stimulus"":""img/green_wl/7.jpg"",""time"":351},{""stimulus"":""img/green_wl/8.jpg"",""time"":402},{""stimulus"":""img/green_wl/9.jpg"",""time"":452},{""stimulus"":""img/green_wl/10.jpg"",""time"":503},{""stimulus"":""img/green_wl/11.jpg"",""time"":554}]","[]"
"image-keyboard-response","66","137536","0.0-5.0-1.31","63d71e67dd0fcccd3cc745b0","bdp_lott","Sat Mar 25 2023 17:54:11 GMT-0500 (Central Daylight Time)","343493","green","red","","362","","","","choice","","img/green_wl/choose11.jpg","1","194","green","0.5","0.5","0.5","l","",""
"animation","67","138138","0.0-5.0-2.31","63d71e67dd0fcccd3cc745b0","bdp_lott","Sat Mar 25 2023 17:54:11 GMT-0500 (Central Daylight Time)","343493","green","red","","","","","","","","","","194","","","","","","[{""stimulus"":""img/green_ll/1.jpg"",""time"":52},{""stimulus"":""img/green_ll/2.jpg"",""time"":101},{""stimulus"":""img/green_ll/3.jpg"",""time"":151},{""stimulus"":""img/green_ll/4.jpg"",""time"":202},{""stimulus"":""img/green_ll/5.jpg"",""time"":251},{""stimulus"":""img/green_ll/6.jpg"",""time"":302},{""stimulus"":""img/green_ll/7.jpg"",""time"":353},{""stimulus"":""img/green_ll/8.jpg"",""time"":401},{""stimulus"":""img/green_ll/9.jpg"",""time"":451},{""stimulus"":""img/green_ll/10.jpg"",""time"":502},{""stimulus"":""img/green_ll/11.jpg"",""time"":551}]","[]"
"image-keyboard-response","68","138462","0.0-5.0-1.32","63d71e67dd0fcccd3cc745b0","bdp_lott","Sat Mar 25 2023 17:54:11 GMT-0500 (Central Daylight Time)","343493","green","red","","323","","","","choice","","img/green_ll/choose11.jpg","1","193","green","0.5","0.5","0.5","l","",""
"animation","69","139065","0.0-5.0-2.32","63d71e67dd0fcccd3cc745b0","bdp_lott","Sat Mar 25 2023 17:54:11 GMT-0500 (Central Daylight Time)","343493","green","red","","","","","","","","","","193","","","","","","[{""stimulus"":""img/green_ll/1.jpg"",""time"":60},{""stimulus"":""img/green_ll/2.jpg"",""time"":103},{""stimulus"":""img/green_ll/3.jpg"",""time"":152},{""stimulus"":""img/green_ll/4.jpg"",""time"":201},{""stimulus"":""img/green_ll/5.jpg"",""time"":261},{""stimulus"":""img/green_ll/6.jpg"",""time"":311},{""stimulus"":""img/green_ll/7.jpg"",""time"":361},{""stimulus"":""img/green_ll/8.jpg"",""time"":401},{""stimulus"":""img/green_ll/9.jpg"",""time"":452},{""stimulus"":""img/green_ll/10.jpg"",""time"":501},{""stimulus"":""img/green_ll/11.jpg"",""time"":551}]","[]"
"image-keyboard-response","70","139408","0.0-5.0-1.33","63d71e67dd0fcccd3cc745b0","bdp_lott","Sat Mar 25 2023 17:54:11 GMT-0500 (Central Daylight Time)","343493","green","red","","342","","","","choice","","img/green_ll/choose11.jpg","1","192","green","0.5","0.5","0.5","l","",""
"animation","71","140023","0.0-5.0-2.33","63d71e67dd0fcccd3cc745b0","bdp_lott","Sat Mar 25 2023 17:54:11 GMT-0500 (Central Daylight Time)","343493","green","red","","","","","","","","","","192","","","","","","[{""stimulus"":""img/green_ll/1.jpg"",""time"":65},{""stimulus"":""img/green_ll/2.jpg"",""time"":102},{""stimulus"":""img/green_ll/3.jpg"",""time"":166},{""stimulus"":""img/green_ll/4.jpg"",""time"":201},{""stimulus"":""img/green_ll/5.jpg"",""time"":251},{""stimulus"":""img/green_ll/6.jpg"",""time"":303},{""stimulus"":""img/green_ll/7.jpg"",""time"":351},{""stimulus"":""img/green_ll/8.jpg"",""time"":403},{""stimulus"":""img/green_ll/9.jpg"",""time"":452},{""stimulus"":""img/green_ll/10.jpg"",""time"":503},{""stimulus"":""img/green_ll/11.jpg"",""time"":551}]","[]"
"image-keyboard-response","72","140372","0.0-5.0-1.34","63d71e67dd0fcccd3cc745b0","bdp_lott","Sat Mar 25 2023 17:54:11 GMT-0500 (Central Daylight Time)","343493","green","red","","347","","","","choice","","img/green_ll/choose11.jpg","1","191","green","0.5","0.5","0.5","l","",""
"animation","73","140974","0.0-5.0-2.34","63d71e67dd0fcccd3cc745b0","bdp_lott","Sat Mar 25 2023 17:54:11 GMT-0500 (Central Daylight Time)","343493","green","red","","","","","","","","","","191","","","","","","[{""stimulus"":""img/green_ll/1.jpg"",""time"":53},{""stimulus"":""img/green_ll/2.jpg"",""time"":102},{""stimulus"":""img/green_ll/3.jpg"",""time"":152},{""stimulus"":""img/green_ll/4.jpg"",""time"":202},{""stimulus"":""img/green_ll/5.jpg"",""time"":251},{""stimulus"":""img/green_ll/6.jpg"",""time"":301},{""stimulus"":""img/green_ll/7.jpg"",""time"":352},{""stimulus"":""img/green_ll/8.jpg"",""time"":402},{""stimulus"":""img/green_ll/9.jpg"",""time"":451},{""stimulus"":""img/green_ll/10.jpg"",""time"":502},{""stimulus"":""img/green_ll/11.jpg"",""time"":552}]","[]"
"image-keyboard-response","74","141338","0.0-5.0-1.35","63d71e67dd0fcccd3cc745b0","bdp_lott","Sat Mar 25 2023 17:54:11 GMT-0500 (Central Daylight Time)","343493","green","red","","363","","","","choice","","img/green_ll/choose11.jpg","1","190","green","0.5","0.5","0.5","w","",""
"animation","75","141940","0.0-5.0-2.35","63d71e67dd0fcccd3cc745b0","bdp_lott","Sat Mar 25 2023 17:54:11 GMT-0500 (Central Daylight Time)","343493","green","red","","","","","","","","","","190","","","","","","[{""stimulus"":""img/green_wl/1.jpg"",""time"":52},{""stimulus"":""img/green_wl/2.jpg"",""time"":102},{""stimulus"":""img/green_wl/3.jpg"",""time"":152},{""stimulus"":""img/green_wl/4.jpg"",""time"":202},{""stimulus"":""img/green_wl/5.jpg"",""time"":252},{""stimulus"":""img/green_wl/6.jpg"",""time"":302},{""stimulus"":""img/green_wl/7.jpg"",""time"":352},{""stimulus"":""img/green_wl/8.jpg"",""time"":402},{""stimulus"":""img/green_wl/9.jpg"",""time"":452},{""stimulus"":""img/green_wl/10.jpg"",""time"":502},{""stimulus"":""img/green_wl/11.jpg"",""time"":552}]","[]"
"image-keyboard-response","76","142331","0.0-5.0-1.36","63d71e67dd0fcccd3cc745b0","bdp_lott","Sat Mar 25 2023 17:54:11 GMT-0500 (Central Daylight Time)","343493","green","red","","389","","","","choice","","img/green_wl/choose11.jpg","1","189","green","0.5","0.5","0.5","l","",""
"animation","77","142933","0.0-5.0-2.36","63d71e67dd0fcccd3cc745b0","bdp_lott","Sat Mar 25 2023 17:54:11 GMT-0500 (Central Daylight Time)","343493","green","red","","","","","","","","","","189","","","","","","[{""stimulus"":""img/green_ll/1.jpg"",""time"":58},{""stimulus"":""img/green_ll/2.jpg"",""time"":101},{""stimulus"":""img/green_ll/3.jpg"",""time"":151},{""stimulus"":""img/green_ll/4.jpg"",""time"":200},{""stimulus"":""img/green_ll/5.jpg"",""time"":251},{""stimulus"":""img/green_ll/6.jpg"",""time"":301},{""stimulus"":""img/green_ll/7.jpg"",""time"":351},{""stimulus"":""img/green_ll/8.jpg"",""time"":401},{""stimulus"":""img/green_ll/9.jpg"",""time"":451},{""stimulus"":""img/green_ll/10.jpg"",""time"":501},{""stimulus"":""img/green_ll/11.jpg"",""time"":551}]","[]"
"image-keyboard-response","78","143158","0.0-5.0-1.37","63d71e67dd0fcccd3cc745b0","bdp_lott","Sat Mar 25 2023 17:54:11 GMT-0500 (Central Daylight Time)","343493","green","red","","225","","","","choice","","img/green_ll/choose11.jpg","1","188","green","0.5","0.5","0.5","l","",""
"animation","79","143760","0.0-5.0-2.37","63d71e67dd0fcccd3cc745b0","bdp_lott","Sat Mar 25 2023 17:54:11 GMT-0500 (Central Daylight Time)","343493","green","red","","","","","","","","","","188","","","","","","[{""stimulus"":""img/green_ll/1.jpg"",""time"":64},{""stimulus"":""img/green_ll/2.jpg"",""time"":102},{""stimulus"":""img/green_ll/3.jpg"",""time"":151},{""stimulus"":""img/green_ll/4.jpg"",""time"":201},{""stimulus"":""img/green_ll/5.jpg"",""time"":252},{""stimulus"":""img/green_ll/6.jpg"",""time"":315},{""stimulus"":""img/green_ll/7.jpg"",""time"":352},{""stimulus"":""img/green_ll/8.jpg"",""time"":419},{""stimulus"":""img/green_ll/9.jpg"",""time"":450},{""stimulus"":""img/green_ll/10.jpg"",""time"":501},{""stimulus"":""img/green_ll/11.jpg"",""time"":550}]","[]"
"image-keyboard-response","80","144050","0.0-5.0-1.38","63d71e67dd0fcccd3cc745b0","bdp_lott","Sat Mar 25 2023 17:54:11 GMT-0500 (Central Daylight Time)","343493","green","red","","289","","","","choice","","img/green_ll/choose11.jpg","1","187","green","0.5","0.5","0.5","l","",""
"animation","81","144652","0.0-5.0-2.38","63d71e67dd0fcccd3cc745b0","bdp_lott","Sat Mar 25 2023 17:54:11 GMT-0500 (Central Daylight Time)","343493","green","red","","","","","","","","","","187","","","","","","[{""stimulus"":""img/green_ll/1.jpg"",""time"":56},{""stimulus"":""img/green_ll/2.jpg"",""time"":103},{""stimulus"":""img/green_ll/3.jpg"",""time"":152},{""stimulus"":""img/green_ll/4.jpg"",""time"":202},{""stimulus"":""img/green_ll/5.jpg"",""time"":252},{""stimulus"":""img/green_ll/6.jpg"",""time"":303},{""stimulus"":""img/green_ll/7.jpg"",""time"":352},{""stimulus"":""img/green_ll/8.jpg"",""time"":401},{""stimulus"":""img/green_ll/9.jpg"",""time"":451},{""stimulus"":""img/green_ll/10.jpg"",""time"":502},{""stimulus"":""img/green_ll/11.jpg"",""time"":552}]","[]"
"image-keyboard-response","82","145035","0.0-5.0-1.39","63d71e67dd0fcccd3cc745b0","bdp_lott","Sat Mar 25 2023 17:54:11 GMT-0500 (Central Daylight Time)","343493","green","red","","381","","","","choice","","img/green_ll/choose11.jpg","1","186","green","0.5","0.5","0.5","l","",""
"animation","83","145636","0.0-5.0-2.39","63d71e67dd0fcccd3cc745b0","bdp_lott","Sat Mar 25 2023 17:54:11 GMT-0500 (Central Daylight Time)","343493","green","red","","","","","","","","","","186","","","","","","[{""stimulus"":""img/green_ll/1.jpg"",""time"":55},{""stimulus"":""img/green_ll/2.jpg"",""time"":102},{""stimulus"":""img/green_ll/3.jpg"",""time"":151},{""stimulus"":""img/green_ll/4.jpg"",""time"":202},{""stimulus"":""img/green_ll/5.jpg"",""time"":252},{""stimulus"":""img/green_ll/6.jpg"",""time"":302},{""stimulus"":""img/green_ll/7.jpg"",""time"":351},{""stimulus"":""img/green_ll/8.jpg"",""time"":402},{""stimulus"":""img/green_ll/9.jpg"",""time"":452},{""stimulus"":""img/green_ll/10.jpg"",""time"":506},{""stimulus"":""img/green_ll/11.jpg"",""time"":551}]","[]"
"image-keyboard-response","84","145986","0.0-5.0-1.40","63d71e67dd0fcccd3cc745b0","bdp_lott","Sat Mar 25 2023 17:54:11 GMT-0500 (Central Daylight Time)","343493","green","red","","348","","","","choice","","img/green_ll/choose11.jpg","1","185","green","0.5","0.5","0.5","w","",""
"animation","85","146590","0.0-5.0-2.40","63d71e67dd0fcccd3cc745b0","bdp_lott","Sat Mar 25 2023 17:54:11 GMT-0500 (Central Daylight Time)","343493","green","red","","","","","","","","","","185","","","","","","[{""stimulus"":""img/green_wl/1.jpg"",""time"":53},{""stimulus"":""img/green_wl/2.jpg"",""time"":102},{""stimulus"":""img/green_wl/3.jpg"",""time"":152},{""stimulus"":""img/green_wl/4.jpg"",""time"":201},{""stimulus"":""img/green_wl/5.jpg"",""time"":251},{""stimulus"":""img/green_wl/6.jpg"",""time"":301},{""stimulus"":""img/green_wl/7.jpg"",""time"":351},{""stimulus"":""img/green_wl/8.jpg"",""time"":401},{""stimulus"":""img/green_wl/9.jpg"",""time"":452},{""stimulus"":""img/green_wl/10.jpg"",""time"":502},{""stimulus"":""img/green_wl/11.jpg"",""time"":551}]","[]"
"image-keyboard-response","86","146952","0.0-5.0-1.41","63d71e67dd0fcccd3cc745b0","bdp_lott","Sat Mar 25 2023 17:54:11 GMT-0500 (Central Daylight Time)","343493","green","red","","358","","","","choice","","img/green_wl/choose11.jpg","1","184","green","0.5","0.5","0.5","l","",""
"animation","87","147553","0.0-5.0-2.41","63d71e67dd0fcccd3cc745b0","bdp_lott","Sat Mar 25 2023 17:54:11 GMT-0500 (Central Daylight Time)","343493","green","red","","","","","","","","","","184","","","","","","[{""stimulus"":""img/green_ll/1.jpg"",""time"":54},{""stimulus"":""img/green_ll/2.jpg"",""time"":102},{""stimulus"":""img/green_ll/3.jpg"",""time"":151},{""stimulus"":""img/green_ll/4.jpg"",""time"":202},{""stimulus"":""img/green_ll/5.jpg"",""time"":252},{""stimulus"":""img/green_ll/6.jpg"",""time"":302},{""stimulus"":""img/green_ll/7.jpg"",""time"":352},{""stimulus"":""img/green_ll/8.jpg"",""time"":402},{""stimulus"":""img/green_ll/9.jpg"",""time"":452},{""stimulus"":""img/green_ll/10.jpg"",""time"":502},{""stimulus"":""img/green_ll/11.jpg"",""time"":552}]","[]"
"image-keyboard-response","88","147841","0.0-5.0-1.42","63d71e67dd0fcccd3cc745b0","bdp_lott","Sat Mar 25 2023 17:54:11 GMT-0500 (Central Daylight Time)","343493","green","red","","287","","","","choice","","img/green_ll/choose11.jpg","1","183","green","0.5","0.5","0.5","w","",""
"animation","89","148442","0.0-5.0-2.42","63d71e67dd0fcccd3cc745b0","bdp_lott","Sat Mar 25 2023 17:54:11 GMT-0500 (Central Daylight Time)","343493","green","red","","","","","","","","","","183","","","","","","[{""stimulus"":""img/green_wl/1.jpg"",""time"":65},{""stimulus"":""img/green_wl/2.jpg"",""time"":102},{""stimulus"":""img/green_wl/3.jpg"",""time"":153},{""stimulus"":""img/green_wl/4.jpg"",""time"":202},{""stimulus"":""img/green_wl/5.jpg"",""time"":252},{""stimulus"":""img/green_wl/6.jpg"",""time"":301},{""stimulus"":""img/green_wl/7.jpg"",""time"":351},{""stimulus"":""img/green_wl/8.jpg"",""time"":402},{""stimulus"":""img/green_wl/9.jpg"",""time"":452},{""stimulus"":""img/green_wl/10.jpg"",""time"":503},{""stimulus"":""img/green_wl/11.jpg"",""time"":552}]","[]"
"image-keyboard-response","90","148796","0.0-5.0-1.43","63d71e67dd0fcccd3cc745b0","bdp_lott","Sat Mar 25 2023 17:54:11 GMT-0500 (Central Daylight Time)","343493","green","red","","353","","","","choice","","img/green_wl/choose11.jpg","1","182","green","0.5","0.5","0.5","w","",""
"animation","91","149398","0.0-5.0-2.43","63d71e67dd0fcccd3cc745b0","bdp_lott","Sat Mar 25 2023 17:54:11 GMT-0500 (Central Daylight Time)","343493","green","red","","","","","","","","","","182","","","","","","[{""stimulus"":""img/green_wl/1.jpg"",""time"":59},{""stimulus"":""img/green_wl/2.jpg"",""time"":103},{""stimulus"":""img/green_wl/3.jpg"",""time"":151},{""stimulus"":""img/green_wl/4.jpg"",""time"":203},{""stimulus"":""img/green_wl/5.jpg"",""time"":260},{""stimulus"":""img/green_wl/6.jpg"",""time"":303},{""stimulus"":""img/green_wl/7.jpg"",""time"":352},{""stimulus"":""img/green_wl/8.jpg"",""time"":402},{""stimulus"":""img/green_wl/9.jpg"",""time"":451},{""stimulus"":""img/green_wl/10.jpg"",""time"":503},{""stimulus"":""img/green_wl/11.jpg"",""time"":552}]","[]"
"image-keyboard-response","92","149736","0.0-5.0-1.44","63d71e67dd0fcccd3cc745b0","bdp_lott","Sat Mar 25 2023 17:54:11 GMT-0500 (Central Daylight Time)","343493","green","red","","337","","","","choice","","img/green_wl/choose11.jpg","1","181","green","0.5","0.5","0.5","w","",""
"animation","93","150340","0.0-5.0-2.44","63d71e67dd0fcccd3cc745b0","bdp_lott","Sat Mar 25 2023 17:54:11 GMT-0500 (Central Daylight Time)","343493","green","red","","","","","","","","","","181","","","","","","[{""stimulus"":""img/green_wl/1.jpg"",""time"":53},{""stimulus"":""img/green_wl/2.jpg"",""time"":101},{""stimulus"":""img/green_wl/3.jpg"",""time"":152},{""stimulus"":""img/green_wl/4.jpg"",""time"":201},{""stimulus"":""img/green_wl/5.jpg"",""time"":251},{""stimulus"":""img/green_wl/6.jpg"",""time"":301},{""stimulus"":""img/green_wl/7.jpg"",""time"":354},{""stimulus"":""img/green_wl/8.jpg"",""time"":401},{""stimulus"":""img/green_wl/9.jpg"",""time"":451},{""stimulus"":""img/green_wl/10.jpg"",""time"":501},{""stimulus"":""img/green_wl/11.jpg"",""time"":551}]","[]"
"image-keyboard-response","94","150658","0.0-5.0-1.45","63d71e67dd0fcccd3cc745b0","bdp_lott","Sat Mar 25 2023 17:54:11 GMT-0500 (Central Daylight Time)","343493","green","red","","317","","","","choice","","img/green_wl/choose11.jpg","1","180","green","0.5","0.5","0.5","w","",""
"animation","95","151260","0.0-5.0-2.45","63d71e67dd0fcccd3cc745b0","bdp_lott","Sat Mar 25 2023 17:54:11 GMT-0500 (Central Daylight Time)","343493","green","red","","","","","","","","","","180","","","","","","[{""stimulus"":""img/green_wl/1.jpg"",""time"":64},{""stimulus"":""img/green_wl/2.jpg"",""time"":101},{""stimulus"":""img/green_wl/3.jpg"",""time"":151},{""stimulus"":""img/green_wl/4.jpg"",""time"":202},{""stimulus"":""img/green_wl/5.jpg"",""time"":252},{""stimulus"":""img/green_wl/6.jpg"",""time"":302},{""stimulus"":""img/green_wl/7.jpg"",""time"":351},{""stimulus"":""img/green_wl/8.jpg"",""time"":415},{""stimulus"":""img/green_wl/9.jpg"",""time"":465},{""stimulus"":""img/green_wl/10.jpg"",""time"":502},{""stimulus"":""img/green_wl/11.jpg"",""time"":564}]","[]"
"image-keyboard-response","96","151642","0.0-5.0-1.46","63d71e67dd0fcccd3cc745b0","bdp_lott","Sat Mar 25 2023 17:54:11 GMT-0500 (Central Daylight Time)","343493","green","red","","380","","","","choice","","img/green_wl/choose11.jpg","1","179","green","0.5","0.5","0.5","l","",""
"animation","97","152244","0.0-5.0-2.46","63d71e67dd0fcccd3cc745b0","bdp_lott","Sat Mar 25 2023 17:54:11 GMT-0500 (Central Daylight Time)","343493","green","red","","","","","","","","","","179","","","","","","[{""stimulus"":""img/green_ll/1.jpg"",""time"":63},{""stimulus"":""img/green_ll/2.jpg"",""time"":102},{""stimulus"":""img/green_ll/3.jpg"",""time"":152},{""stimulus"":""img/green_ll/4.jpg"",""time"":202},{""stimulus"":""img/green_ll/5.jpg"",""time"":252},{""stimulus"":""img/green_ll/6.jpg"",""time"":301},{""stimulus"":""img/green_ll/7.jpg"",""time"":352},{""stimulus"":""img/green_ll/8.jpg"",""time"":402},{""stimulus"":""img/green_ll/9.jpg"",""time"":451},{""stimulus"":""img/green_ll/10.jpg"",""time"":501},{""stimulus"":""img/green_ll/11.jpg"",""time"":551}]","[]"
"image-keyboard-response","98","152672","0.0-5.0-1.47","63d71e67dd0fcccd3cc745b0","bdp_lott","Sat Mar 25 2023 17:54:11 GMT-0500 (Central Daylight Time)","343493","green","red","","426","","","","choice","","img/green_ll/choose11.jpg","1","178","green","0.5","0.5","0.5","w","",""
"animation","99","153273","0.0-5.0-2.47","63d71e67dd0fcccd3cc745b0","bdp_lott","Sat Mar 25 2023 17:54:11 GMT-0500 (Central Daylight Time)","343493","green","red","","","","","","","","","","178","","","","","","[{""stimulus"":""img/green_wl/1.jpg"",""time"":51},{""stimulus"":""img/green_wl/2.jpg"",""time"":102},{""stimulus"":""img/green_wl/3.jpg"",""time"":152},{""stimulus"":""img/green_wl/4.jpg"",""time"":202},{""stimulus"":""img/green_wl/5.jpg"",""time"":252},{""stimulus"":""img/green_wl/6.jpg"",""time"":302},{""stimulus"":""img/green_wl/7.jpg"",""time"":352},{""stimulus"":""img/green_wl/8.jpg"",""time"":402},{""stimulus"":""img/green_wl/9.jpg"",""time"":452},{""stimulus"":""img/green_wl/10.jpg"",""time"":502},{""stimulus"":""img/green_wl/11.jpg"",""time"":552}]","[]"
"image-keyboard-response","100","153672","0.0-5.0-1.48","63d71e67dd0fcccd3cc745b0","bdp_lott","Sat Mar 25 2023 17:54:11 GMT-0500 (Central Daylight Time)","343493","green","red","","397","","","","choice","","img/green_wl/choose11.jpg","1","177","green","0.5","0.5","0.5","w","",""
"animation","101","154273","0.0-5.0-2.48","63d71e67dd0fcccd3cc745b0","bdp_lott","Sat Mar 25 2023 17:54:11 GMT-0500 (Central Daylight Time)","343493","green","red","","","","","","","","","","177","","","","","","[{""stimulus"":""img/green_wl/1.jpg"",""time"":52},{""stimulus"":""img/green_wl/2.jpg"",""time"":101},{""stimulus"":""img/green_wl/3.jpg"",""time"":152},{""stimulus"":""img/green_wl/4.jpg"",""time"":202},{""stimulus"":""img/green_wl/5.jpg"",""time"":252},{""stimulus"":""img/green_wl/6.jpg"",""time"":302},{""stimulus"":""img/green_wl/7.jpg"",""time"":352},{""stimulus"":""img/green_wl/8.jpg"",""time"":402},{""stimulus"":""img/green_wl/9.jpg"",""time"":451},{""stimulus"":""img/green_wl/10.jpg"",""time"":503},{""stimulus"":""img/green_wl/11.jpg"",""time"":552}]","[]"
"image-keyboard-response","102","154649","0.0-5.0-1.49","63d71e67dd0fcccd3cc745b0","bdp_lott","Sat Mar 25 2023 17:54:11 GMT-0500 (Central Daylight Time)","343493","green","red","","376","","","","choice","","img/green_wl/choose11.jpg","1","176","green","0.5","0.5","0.5","w","",""
"animation","103","155251","0.0-5.0-2.49","63d71e67dd0fcccd3cc745b0","bdp_lott","Sat Mar 25 2023 17:54:11 GMT-0500 (Central Daylight Time)","343493","green","red","","","","","","","","","","176","","","","","","[{""stimulus"":""img/green_wl/1.jpg"",""time"":56},{""stimulus"":""img/green_wl/2.jpg"",""time"":101},{""stimulus"":""img/green_wl/3.jpg"",""time"":152},{""stimulus"":""img/green_wl/4.jpg"",""time"":201},{""stimulus"":""img/green_wl/5.jpg"",""time"":251},{""stimulus"":""img/green_wl/6.jpg"",""time"":301},{""stimulus"":""img/green_wl/7.jpg"",""time"":351},{""stimulus"":""img/green_wl/8.jpg"",""time"":402},{""stimulus"":""img/green_wl/9.jpg"",""time"":451},{""stimulus"":""img/green_wl/10.jpg"",""time"":502},{""stimulus"":""img/green_wl/11.jpg"",""time"":552}]","[]"
"image-keyboard-response","104","155676","0.0-5.0-1.50","63d71e67dd0fcccd3cc745b0","bdp_lott","Sat Mar 25 2023 17:54:11 GMT-0500 (Central Daylight Time)","343493","green","red","","422","","","","choice","","img/green_wl/choose11.jpg","1","175","green","0.5","0.5","0.5","l","",""
"animation","105","156279","0.0-5.0-2.50","63d71e67dd0fcccd3cc745b0","bdp_lott","Sat Mar 25 2023 17:54:11 GMT-0500 (Central Daylight Time)","343493","green","red","","","","","","","","","","175","","","","","","[{""stimulus"":""img/green_ll/1.jpg"",""time"":53},{""stimulus"":""img/green_ll/2.jpg"",""time"":113},{""stimulus"":""img/green_ll/3.jpg"",""time"":152},{""stimulus"":""img/green_ll/4.jpg"",""time"":201},{""stimulus"":""img/green_ll/5.jpg"",""time"":251},{""stimulus"":""img/green_ll/6.jpg"",""time"":302},{""stimulus"":""img/green_ll/7.jpg"",""time"":352},{""stimulus"":""img/green_ll/8.jpg"",""time"":401},{""stimulus"":""img/green_ll/9.jpg"",""time"":451},{""stimulus"":""img/green_ll/10.jpg"",""time"":501},{""stimulus"":""img/green_ll/11.jpg"",""time"":564}]","[]"
"image-keyboard-response","106","156705","0.0-5.0-1.51","63d71e67dd0fcccd3cc745b0","bdp_lott","Sat Mar 25 2023 17:54:11 GMT-0500 (Central Daylight Time)","343493","green","red","","424","","","","choice","","img/green_ll/choose11.jpg","1","174","green","0.5","0.5","0.5","l","",""
"animation","107","157306","0.0-5.0-2.51","63d71e67dd0fcccd3cc745b0","bdp_lott","Sat Mar 25 2023 17:54:11 GMT-0500 (Central Daylight Time)","343493","green","red","","","","","","","","","","174","","","","","","[{""stimulus"":""img/green_ll/1.jpg"",""time"":51},{""stimulus"":""img/green_ll/2.jpg"",""time"":101},{""stimulus"":""img/green_ll/3.jpg"",""time"":167},{""stimulus"":""img/green_ll/4.jpg"",""time"":201},{""stimulus"":""img/green_ll/5.jpg"",""time"":267},{""stimulus"":""img/green_ll/6.jpg"",""time"":302},{""stimulus"":""img/green_ll/7.jpg"",""time"":352},{""stimulus"":""img/green_ll/8.jpg"",""time"":401},{""stimulus"":""img/green_ll/9.jpg"",""time"":451},{""stimulus"":""img/green_ll/10.jpg"",""time"":501},{""stimulus"":""img/green_ll/11.jpg"",""time"":567}]","[]"
"image-keyboard-response","108","157700","0.0-5.0-1.52","63d71e67dd0fcccd3cc745b0","bdp_lott","Sat Mar 25 2023 17:54:11 GMT-0500 (Central Daylight Time)","343493","green","red","","393","","","","choice","","img/green_ll/choose11.jpg","1","173","green","0.5","0.5","0.5","l","",""
"animation","109","158301","0.0-5.0-2.52","63d71e67dd0fcccd3cc745b0","bdp_lott","Sat Mar 25 2023 17:54:11 GMT-0500 (Central Daylight Time)","343493","green","red","","","","","","","","","","173","","","","","","[{""stimulus"":""img/green_ll/1.jpg"",""time"":53},{""stimulus"":""img/green_ll/2.jpg"",""time"":100},{""stimulus"":""img/green_ll/3.jpg"",""time"":150},{""stimulus"":""img/green_ll/4.jpg"",""time"":200},{""stimulus"":""img/green_ll/5.jpg"",""time"":250},{""stimulus"":""img/green_ll/6.jpg"",""time"":301},{""stimulus"":""img/green_ll/7.jpg"",""time"":351},{""stimulus"":""img/green_ll/8.jpg"",""time"":401},{""stimulus"":""img/green_ll/9.jpg"",""time"":450},{""stimulus"":""img/green_ll/10.jpg"",""time"":501},{""stimulus"":""img/green_ll/11.jpg"",""time"":550}]","[]"
"image-keyboard-response","110","158695","0.0-5.0-1.53","63d71e67dd0fcccd3cc745b0","bdp_lott","Sat Mar 25 2023 17:54:11 GMT-0500 (Central Daylight Time)","343493","green","red","","393","","","","choice","","img/green_ll/choose11.jpg","1","172","green","0.5","0.5","0.5","w","",""
"animation","111","159304","0.0-5.0-2.53","63d71e67dd0fcccd3cc745b0","bdp_lott","Sat Mar 25 2023 17:54:11 GMT-0500 (Central Daylight Time)","343493","green","red","","","","","","","","","","172","","","","","","[{""stimulus"":""img/green_wl/1.jpg"",""time"":51},{""stimulus"":""img/green_wl/2.jpg"",""time"":111},{""stimulus"":""img/green_wl/3.jpg"",""time"":161},{""stimulus"":""img/green_wl/4.jpg"",""time"":202},{""stimulus"":""img/green_wl/5.jpg"",""time"":259},{""stimulus"":""img/green_wl/6.jpg"",""time"":308},{""stimulus"":""img/green_wl/7.jpg"",""time"":359},{""stimulus"":""img/green_wl/8.jpg"",""time"":408},{""stimulus"":""img/green_wl/9.jpg"",""time"":459},{""stimulus"":""img/green_wl/10.jpg"",""time"":508},{""stimulus"":""img/green_wl/11.jpg"",""time"":559}]","[]"
"image-keyboard-response","112","159737","0.0-5.0-1.54","63d71e67dd0fcccd3cc745b0","bdp_lott","Sat Mar 25 2023 17:54:11 GMT-0500 (Central Daylight Time)","343493","green","red","","432","","","","choice","","img/green_wl/choose11.jpg","1","171","green","0.5","0.5","0.5","w","",""
"animation","113","160339","0.0-5.0-2.54","63d71e67dd0fcccd3cc745b0","bdp_lott","Sat Mar 25 2023 17:54:11 GMT-0500 (Central Daylight Time)","343493","green","red","","","","","","","","","","171","","","","","","[{""stimulus"":""img/green_wl/1.jpg"",""time"":58},{""stimulus"":""img/green_wl/2.jpg"",""time"":101},{""stimulus"":""img/green_wl/3.jpg"",""time"":152},{""stimulus"":""img/green_wl/4.jpg"",""time"":202},{""stimulus"":""img/green_wl/5.jpg"",""time"":251},{""stimulus"":""img/green_wl/6.jpg"",""time"":301},{""stimulus"":""img/green_wl/7.jpg"",""time"":351},{""stimulus"":""img/green_wl/8.jpg"",""time"":401},{""stimulus"":""img/green_wl/9.jpg"",""time"":459},{""stimulus"":""img/green_wl/10.jpg"",""time"":500},{""stimulus"":""img/green_wl/11.jpg"",""time"":550}]","[]"
"image-keyboard-response","114","160673","0.0-5.0-1.55","63d71e67dd0fcccd3cc745b0","bdp_lott","Sat Mar 25 2023 17:54:11 GMT-0500 (Central Daylight Time)","343493","green","red","","333","","","","choice","","img/green_wl/choose11.jpg","1","170","green","0.5","0.5","0.5","w","",""
"animation","115","161275","0.0-5.0-2.55","63d71e67dd0fcccd3cc745b0","bdp_lott","Sat Mar 25 2023 17:54:11 GMT-0500 (Central Daylight Time)","343493","green","red","","","","","","","","","","170","","","","","","[{""stimulus"":""img/green_wl/1.jpg"",""time"":59},{""stimulus"":""img/green_wl/2.jpg"",""time"":107},{""stimulus"":""img/green_wl/3.jpg"",""time"":157},{""stimulus"":""img/green_wl/4.jpg"",""time"":202},{""stimulus"":""img/green_wl/5.jpg"",""time"":252},{""stimulus"":""img/green_wl/6.jpg"",""time"":302},{""stimulus"":""img/green_wl/7.jpg"",""time"":352},{""stimulus"":""img/green_wl/8.jpg"",""time"":401},{""stimulus"":""img/green_wl/9.jpg"",""time"":452},{""stimulus"":""img/green_wl/10.jpg"",""time"":502},{""stimulus"":""img/green_wl/11.jpg"",""time"":552}]","[]"
"image-keyboard-response","116","161588","0.0-5.0-1.56","63d71e67dd0fcccd3cc745b0","bdp_lott","Sat Mar 25 2023 17:54:11 GMT-0500 (Central Daylight Time)","343493","green","red","","313","","","","choice","","img/green_wl/choose11.jpg","1","169","green","0.5","0.5","0.5","w","",""
"animation","117","162189","0.0-5.0-2.56","63d71e67dd0fcccd3cc745b0","bdp_lott","Sat Mar 25 2023 17:54:11 GMT-0500 (Central Daylight Time)","343493","green","red","","","","","","","","","","169","","","","","","[{""stimulus"":""img/green_wl/1.jpg"",""time"":58},{""stimulus"":""img/green_wl/2.jpg"",""time"":102},{""stimulus"":""img/green_wl/3.jpg"",""time"":152},{""stimulus"":""img/green_wl/4.jpg"",""time"":202},{""stimulus"":""img/green_wl/5.jpg"",""time"":252},{""stimulus"":""img/green_wl/6.jpg"",""time"":302},{""stimulus"":""img/green_wl/7.jpg"",""time"":352},{""stimulus"":""img/green_wl/8.jpg"",""time"":402},{""stimulus"":""img/green_wl/9.jpg"",""time"":453},{""stimulus"":""img/green_wl/10.jpg"",""time"":502},{""stimulus"":""img/green_wl/11.jpg"",""time"":552}]","[]"
"image-keyboard-response","118","162536","0.0-5.0-1.57","63d71e67dd0fcccd3cc745b0","bdp_lott","Sat Mar 25 2023 17:54:11 GMT-0500 (Central Daylight Time)","343493","green","red","","346","","","","choice","","img/green_wl/choose11.jpg","1","168","green","0.5","0.5","0.5","w","",""
"animation","119","163137","0.0-5.0-2.57","63d71e67dd0fcccd3cc745b0","bdp_lott","Sat Mar 25 2023 17:54:11 GMT-0500 (Central Daylight Time)","343493","green","red","","","","","","","","","","168","","","","","","[{""stimulus"":""img/green_wl/1.jpg"",""time"":59},{""stimulus"":""img/green_wl/2.jpg"",""time"":102},{""stimulus"":""img/green_wl/3.jpg"",""time"":150},{""stimulus"":""img/green_wl/4.jpg"",""time"":201},{""stimulus"":""img/green_wl/5.jpg"",""time"":251},{""stimulus"":""img/green_wl/6.jpg"",""time"":302},{""stimulus"":""img/green_wl/7.jpg"",""time"":351},{""stimulus"":""img/green_wl/8.jpg"",""time"":401},{""stimulus"":""img/green_wl/9.jpg"",""time"":452},{""stimulus"":""img/green_wl/10.jpg"",""time"":501},{""stimulus"":""img/green_wl/11.jpg"",""time"":551}]","[]"
"image-keyboard-response","120","163485","0.0-5.0-1.58","63d71e67dd0fcccd3cc745b0","bdp_lott","Sat Mar 25 2023 17:54:11 GMT-0500 (Central Daylight Time)","343493","green","red","","347","","","","choice","","img/green_wl/choose11.jpg","1","167","green","0.5","0.5","0.5","l","",""
"animation","121","164087","0.0-5.0-2.58","63d71e67dd0fcccd3cc745b0","bdp_lott","Sat Mar 25 2023 17:54:11 GMT-0500 (Central Daylight Time)","343493","green","red","","","","","","","","","","167","","","","","","[{""stimulus"":""img/green_ll/1.jpg"",""time"":60},{""stimulus"":""img/green_ll/2.jpg"",""time"":111},{""stimulus"":""img/green_ll/3.jpg"",""time"":151},{""stimulus"":""img/green_ll/4.jpg"",""time"":211},{""stimulus"":""img/green_ll/5.jpg"",""time"":261},{""stimulus"":""img/green_ll/6.jpg"",""time"":302},{""stimulus"":""img/green_ll/7.jpg"",""time"":352},{""stimulus"":""img/green_ll/8.jpg"",""time"":402},{""stimulus"":""img/green_ll/9.jpg"",""time"":461},{""stimulus"":""img/green_ll/10.jpg"",""time"":502},{""stimulus"":""img/green_ll/11.jpg"",""time"":552}]","[]"
"image-keyboard-response","122","164456","0.0-5.0-1.59","63d71e67dd0fcccd3cc745b0","bdp_lott","Sat Mar 25 2023 17:54:11 GMT-0500 (Central Daylight Time)","343493","green","red","","368","","","","choice","","img/green_ll/choose11.jpg","1","166","green","0.5","0.5","0.5","w","",""
"animation","123","165057","0.0-5.0-2.59","63d71e67dd0fcccd3cc745b0","bdp_lott","Sat Mar 25 2023 17:54:11 GMT-0500 (Central Daylight Time)","343493","green","red","","","","","","","","","","166","","","","","","[{""stimulus"":""img/green_wl/1.jpg"",""time"":56},{""stimulus"":""img/green_wl/2.jpg"",""time"":101},{""stimulus"":""img/green_wl/3.jpg"",""time"":151},{""stimulus"":""img/green_wl/4.jpg"",""time"":201},{""stimulus"":""img/green_wl/5.jpg"",""time"":251},{""stimulus"":""img/green_wl/6.jpg"",""time"":307},{""stimulus"":""img/green_wl/7.jpg"",""time"":352},{""stimulus"":""img/green_wl/8.jpg"",""time"":401},{""stimulus"":""img/green_wl/9.jpg"",""time"":452},{""stimulus"":""img/green_wl/10.jpg"",""time"":501},{""stimulus"":""img/green_wl/11.jpg"",""time"":552}]","[]"
"image-keyboard-response","124","165340","0.0-5.0-1.60","63d71e67dd0fcccd3cc745b0","bdp_lott","Sat Mar 25 2023 17:54:11 GMT-0500 (Central Daylight Time)","343493","green","red","","282","","","","choice","","img/green_wl/choose11.jpg","1","165","green","0.5","0.5","0.5","w","",""
"animation","125","165941","0.0-5.0-2.60","63d71e67dd0fcccd3cc745b0","bdp_lott","Sat Mar 25 2023 17:54:11 GMT-0500 (Central Daylight Time)","343493","green","red","","","","","","","","","","165","","","","","","[{""stimulus"":""img/green_wl/1.jpg"",""time"":54},{""stimulus"":""img/green_wl/2.jpg"",""time"":101},{""stimulus"":""img/green_wl/3.jpg"",""time"":155},{""stimulus"":""img/green_wl/4.jpg"",""time"":200},{""stimulus"":""img/green_wl/5.jpg"",""time"":255},{""stimulus"":""img/green_wl/6.jpg"",""time"":302},{""stimulus"":""img/green_wl/7.jpg"",""time"":356},{""stimulus"":""img/green_wl/8.jpg"",""time"":401},{""stimulus"":""img/green_wl/9.jpg"",""time"":451},{""stimulus"":""img/green_wl/10.jpg"",""time"":501},{""stimulus"":""img/green_wl/11.jpg"",""time"":556}]","[]"
"image-keyboard-response","126","166251","0.0-5.0-1.61","63d71e67dd0fcccd3cc745b0","bdp_lott","Sat Mar 25 2023 17:54:11 GMT-0500 (Central Daylight Time)","343493","green","red","","309","","","","choice","","img/green_wl/choose11.jpg","1","164","green","0.5","0.5","0.5","w","",""
"animation","127","166853","0.0-5.0-2.61","63d71e67dd0fcccd3cc745b0","bdp_lott","Sat Mar 25 2023 17:54:11 GMT-0500 (Central Daylight Time)","343493","green","red","","","","","","","","","","164","","","","","","[{""stimulus"":""img/green_wl/1.jpg"",""time"":61},{""stimulus"":""img/green_wl/2.jpg"",""time"":113},{""stimulus"":""img/green_wl/3.jpg"",""time"":152},{""stimulus"":""img/green_wl/4.jpg"",""time"":201},{""stimulus"":""img/green_wl/5.jpg"",""time"":251},{""stimulus"":""img/green_wl/6.jpg"",""time"":301},{""stimulus"":""img/green_wl/7.jpg"",""time"":352},{""stimulus"":""img/green_wl/8.jpg"",""time"":401},{""stimulus"":""img/green_wl/9.jpg"",""time"":451},{""stimulus"":""img/green_wl/10.jpg"",""time"":501},{""stimulus"":""img/green_wl/11.jpg"",""time"":551}]","[]"
"image-keyboard-response","128","167167","0.0-5.0-1.62","63d71e67dd0fcccd3cc745b0","bdp_lott","Sat Mar 25 2023 17:54:11 GMT-0500 (Central Daylight Time)","343493","green","red","","313","","","","choice","","img/green_wl/choose11.jpg","1","163","green","0.5","0.5","0.5","w","",""
"animation","129","167768","0.0-5.0-2.62","63d71e67dd0fcccd3cc745b0","bdp_lott","Sat Mar 25 2023 17:54:11 GMT-0500 (Central Daylight Time)","343493","green","red","","","","","","","","","","163","","","","","","[{""stimulus"":""img/green_wl/1.jpg"",""time"":77},{""stimulus"":""img/green_wl/2.jpg"",""time"":102},{""stimulus"":""img/green_wl/3.jpg"",""time"":151},{""stimulus"":""img/green_wl/4.jpg"",""time"":201},{""stimulus"":""img/green_wl/5.jpg"",""time"":250},{""stimulus"":""img/green_wl/6.jpg"",""time"":301},{""stimulus"":""img/green_wl/7.jpg"",""time"":350},{""stimulus"":""img/green_wl/8.jpg"",""time"":400},{""stimulus"":""img/green_wl/9.jpg"",""time"":450},{""stimulus"":""img/green_wl/10.jpg"",""time"":501},{""stimulus"":""img/green_wl/11.jpg"",""time"":550}]","[]"
"image-keyboard-response","130","168086","0.0-5.0-1.63","63d71e67dd0fcccd3cc745b0","bdp_lott","Sat Mar 25 2023 17:54:11 GMT-0500 (Central Daylight Time)","343493","green","red","","317","","","","choice","","img/green_wl/choose11.jpg","1","162","green","0.5","0.5","0.5","w","",""
"animation","131","168688","0.0-5.0-2.63","63d71e67dd0fcccd3cc745b0","bdp_lott","Sat Mar 25 2023 17:54:11 GMT-0500 (Central Daylight Time)","343493","green","red","","","","","","","","","","162","","","","","","[{""stimulus"":""img/green_wl/1.jpg"",""time"":59},{""stimulus"":""img/green_wl/2.jpg"",""time"":101},{""stimulus"":""img/green_wl/3.jpg"",""time"":151},{""stimulus"":""img/green_wl/4.jpg"",""time"":201},{""stimulus"":""img/green_wl/5.jpg"",""time"":251},{""stimulus"":""img/green_wl/6.jpg"",""time"":302},{""stimulus"":""img/green_wl/7.jpg"",""time"":360},{""stimulus"":""img/green_wl/8.jpg"",""time"":401},{""stimulus"":""img/green_wl/9.jpg"",""time"":451},{""stimulus"":""img/green_wl/10.jpg"",""time"":500},{""stimulus"":""img/green_wl/11.jpg"",""time"":551}]","[]"
"image-keyboard-response","132","169045","0.0-5.0-1.64","63d71e67dd0fcccd3cc745b0","bdp_lott","Sat Mar 25 2023 17:54:11 GMT-0500 (Central Daylight Time)","343493","green","red","","356","","","","choice","","img/green_wl/choose11.jpg","1","161","green","0.5","0.5","0.5","w","",""
"animation","133","169646","0.0-5.0-2.64","63d71e67dd0fcccd3cc745b0","bdp_lott","Sat Mar 25 2023 17:54:11 GMT-0500 (Central Daylight Time)","343493","green","red","","","","","","","","","","161","","","","","","[{""stimulus"":""img/green_wl/1.jpg"",""time"":67},{""stimulus"":""img/green_wl/2.jpg"",""time"":101},{""stimulus"":""img/green_wl/3.jpg"",""time"":152},{""stimulus"":""img/green_wl/4.jpg"",""time"":202},{""stimulus"":""img/green_wl/5.jpg"",""time"":251},{""stimulus"":""img/green_wl/6.jpg"",""time"":301},{""stimulus"":""img/green_wl/7.jpg"",""time"":352},{""stimulus"":""img/green_wl/8.jpg"",""time"":401},{""stimulus"":""img/green_wl/9.jpg"",""time"":451},{""stimulus"":""img/green_wl/10.jpg"",""time"":501},{""stimulus"":""img/green_wl/11.jpg"",""time"":552}]","[]"
"image-keyboard-response","134","170006","0.0-5.0-1.65","63d71e67dd0fcccd3cc745b0","bdp_lott","Sat Mar 25 2023 17:54:11 GMT-0500 (Central Daylight Time)","343493","green","red","","358","","","","choice","","img/green_wl/choose11.jpg","1","160","green","0.5","0.5","0.5","w","",""
"animation","135","170607","0.0-5.0-2.65","63d71e67dd0fcccd3cc745b0","bdp_lott","Sat Mar 25 2023 17:54:11 GMT-0500 (Central Daylight Time)","343493","green","red","","","","","","","","","","160","","","","","","[{""stimulus"":""img/green_wl/1.jpg"",""time"":57},{""stimulus"":""img/green_wl/2.jpg"",""time"":102},{""stimulus"":""img/green_wl/3.jpg"",""time"":153},{""stimulus"":""img/green_wl/4.jpg"",""time"":202},{""stimulus"":""img/green_wl/5.jpg"",""time"":252},{""stimulus"":""img/green_wl/6.jpg"",""time"":302},{""stimulus"":""img/green_wl/7.jpg"",""time"":351},{""stimulus"":""img/green_wl/8.jpg"",""time"":407},{""stimulus"":""img/green_wl/9.jpg"",""time"":452},{""stimulus"":""img/green_wl/10.jpg"",""time"":502},{""stimulus"":""img/green_wl/11.jpg"",""time"":552}]","[]"
"image-keyboard-response","136","170904","0.0-5.0-1.66","63d71e67dd0fcccd3cc745b0","bdp_lott","Sat Mar 25 2023 17:54:11 GMT-0500 (Central Daylight Time)","343493","green","red","","296","","","","choice","","img/green_wl/choose11.jpg","1","159","green","0.5","0.5","0.5","l","",""
"animation","137","171505","0.0-5.0-2.66","63d71e67dd0fcccd3cc745b0","bdp_lott","Sat Mar 25 2023 17:54:11 GMT-0500 (Central Daylight Time)","343493","green","red","","","","","","","","","","159","","","","","","[{""stimulus"":""img/green_ll/1.jpg"",""time"":73},{""stimulus"":""img/green_ll/2.jpg"",""time"":100},{""stimulus"":""img/green_ll/3.jpg"",""time"":151},{""stimulus"":""img/green_ll/4.jpg"",""time"":200},{""stimulus"":""img/green_ll/5.jpg"",""time"":252},{""stimulus"":""img/green_ll/6.jpg"",""time"":301},{""stimulus"":""img/green_ll/7.jpg"",""time"":351},{""stimulus"":""img/green_ll/8.jpg"",""time"":401},{""stimulus"":""img/green_ll/9.jpg"",""time"":452},{""stimulus"":""img/green_ll/10.jpg"",""time"":501},{""stimulus"":""img/green_ll/11.jpg"",""time"":551}]","[]"
"image-keyboard-response","138","171890","0.0-5.0-1.67","63d71e67dd0fcccd3cc745b0","bdp_lott","Sat Mar 25 2023 17:54:11 GMT-0500 (Central Daylight Time)","343493","green","red","","383","","","","choice","","img/green_ll/choose11.jpg","1","158","green","0.5","0.5","0.5","w","",""
"animation","139","172496","0.0-5.0-2.67","63d71e67dd0fcccd3cc745b0","bdp_lott","Sat Mar 25 2023 17:54:11 GMT-0500 (Central Daylight Time)","343493","green","red","","","","","","","","","","158","","","","","","[{""stimulus"":""img/green_wl/1.jpg"",""time"":55},{""stimulus"":""img/green_wl/2.jpg"",""time"":101},{""stimulus"":""img/green_wl/3.jpg"",""time"":151},{""stimulus"":""img/green_wl/4.jpg"",""time"":201},{""stimulus"":""img/green_wl/5.jpg"",""time"":252},{""stimulus"":""img/green_wl/6.jpg"",""time"":302},{""stimulus"":""img/green_wl/7.jpg"",""time"":352},{""stimulus"":""img/green_wl/8.jpg"",""time"":401},{""stimulus"":""img/green_wl/9.jpg"",""time"":451},{""stimulus"":""img/green_wl/10.jpg"",""time"":501},{""stimulus"":""img/green_wl/11.jpg"",""time"":551}]","[]"
"image-keyboard-response","140","172799","0.0-5.0-1.68","63d71e67dd0fcccd3cc745b0","bdp_lott","Sat Mar 25 2023 17:54:11 GMT-0500 (Central Daylight Time)","343493","green","red","","300","","","","choice","","img/green_wl/choose11.jpg","1","157","green","0.5","0.5","0.5","l","",""
"animation","141","173401","0.0-5.0-2.68","63d71e67dd0fcccd3cc745b0","bdp_lott","Sat Mar 25 2023 17:54:11 GMT-0500 (Central Daylight Time)","343493","green","red","","","","","","","","","","157","","","","","","[{""stimulus"":""img/green_ll/1.jpg"",""time"":63},{""stimulus"":""img/green_ll/2.jpg"",""time"":102},{""stimulus"":""img/green_ll/3.jpg"",""time"":151},{""stimulus"":""img/green_ll/4.jpg"",""time"":202},{""stimulus"":""img/green_ll/5.jpg"",""time"":251},{""stimulus"":""img/green_ll/6.jpg"",""time"":302},{""stimulus"":""img/green_ll/7.jpg"",""time"":351},{""stimulus"":""img/green_ll/8.jpg"",""time"":402},{""stimulus"":""img/green_ll/9.jpg"",""time"":451},{""stimulus"":""img/green_ll/10.jpg"",""time"":502},{""stimulus"":""img/green_ll/11.jpg"",""time"":551}]","[]"
"image-keyboard-response","142","173622","0.0-5.0-1.69","63d71e67dd0fcccd3cc745b0","bdp_lott","Sat Mar 25 2023 17:54:11 GMT-0500 (Central Daylight Time)","343493","green","red","","221","","","","choice","","img/green_ll/choose11.jpg","1","156","green","0.5","0.5","0.5","l","",""
"animation","143","174230","0.0-5.0-2.69","63d71e67dd0fcccd3cc745b0","bdp_lott","Sat Mar 25 2023 17:54:11 GMT-0500 (Central Daylight Time)","343493","green","red","","","","","","","","","","156","","","","","","[{""stimulus"":""img/green_ll/1.jpg"",""time"":57},{""stimulus"":""img/green_ll/2.jpg"",""time"":101},{""stimulus"":""img/green_ll/3.jpg"",""time"":152},{""stimulus"":""img/green_ll/4.jpg"",""time"":202},{""stimulus"":""img/green_ll/5.jpg"",""time"":252},{""stimulus"":""img/green_ll/6.jpg"",""time"":302},{""stimulus"":""img/green_ll/7.jpg"",""time"":351},{""stimulus"":""img/green_ll/8.jpg"",""time"":402},{""stimulus"":""img/green_ll/9.jpg"",""time"":452},{""stimulus"":""img/green_ll/10.jpg"",""time"":502},{""stimulus"":""img/green_ll/11.jpg"",""time"":552}]","[]"
"image-keyboard-response","144","174481","0.0-5.0-1.70","63d71e67dd0fcccd3cc745b0","bdp_lott","Sat Mar 25 2023 17:54:11 GMT-0500 (Central Daylight Time)","343493","green","red","","250","","","","choice","","img/green_ll/choose11.jpg","1","155","green","0.5","0.5","0.5","w","",""
"animation","145","175083","0.0-5.0-2.70","63d71e67dd0fcccd3cc745b0","bdp_lott","Sat Mar 25 2023 17:54:11 GMT-0500 (Central Daylight Time)","343493","green","red","","","","","","","","","","155","","","","","","[{""stimulus"":""img/green_wl/1.jpg"",""time"":64},{""stimulus"":""img/green_wl/2.jpg"",""time"":103},{""stimulus"":""img/green_wl/3.jpg"",""time"":152},{""stimulus"":""img/green_wl/4.jpg"",""time"":202},{""stimulus"":""img/green_wl/5.jpg"",""time"":265},{""stimulus"":""img/green_wl/6.jpg"",""time"":302},{""stimulus"":""img/green_wl/7.jpg"",""time"":353},{""stimulus"":""img/green_wl/8.jpg"",""time"":401},{""stimulus"":""img/green_wl/9.jpg"",""time"":451},{""stimulus"":""img/green_wl/10.jpg"",""time"":501},{""stimulus"":""img/green_wl/11.jpg"",""time"":553}]","[]"
"image-keyboard-response","146","175398","0.0-5.0-1.71","63d71e67dd0fcccd3cc745b0","bdp_lott","Sat Mar 25 2023 17:54:11 GMT-0500 (Central Daylight Time)","343493","green","red","","314","","","","choice","","img/green_wl/choose11.jpg","1","154","green","0.5","0.5","0.5","w","",""
"animation","147","175999","0.0-5.0-2.71","63d71e67dd0fcccd3cc745b0","bdp_lott","Sat Mar 25 2023 17:54:11 GMT-0500 (Central Daylight Time)","343493","green","red","","","","","","","","","","154","","","","","","[{""stimulus"":""img/green_wl/1.jpg"",""time"":65},{""stimulus"":""img/green_wl/2.jpg"",""time"":102},{""stimulus"":""img/green_wl/3.jpg"",""time"":152},{""stimulus"":""img/green_wl/4.jpg"",""time"":215},{""stimulus"":""img/green_wl/5.jpg"",""time"":252},{""stimulus"":""img/green_wl/6.jpg"",""time"":301},{""stimulus"":""img/green_wl/7.jpg"",""time"":351},{""stimulus"":""img/green_wl/8.jpg"",""time"":403},{""stimulus"":""img/green_wl/9.jpg"",""time"":452},{""stimulus"":""img/green_wl/10.jpg"",""time"":501},{""stimulus"":""img/green_wl/11.jpg"",""time"":551}]","[]"
"image-keyboard-response","148","176338","0.0-5.0-1.72","63d71e67dd0fcccd3cc745b0","bdp_lott","Sat Mar 25 2023 17:54:11 GMT-0500 (Central Daylight Time)","343493","green","red","","338","","","","choice","","img/green_wl/choose11.jpg","1","153","green","0.5","0.5","0.5","w","",""
"animation","149","176940","0.0-5.0-2.72","63d71e67dd0fcccd3cc745b0","bdp_lott","Sat Mar 25 2023 17:54:11 GMT-0500 (Central Daylight Time)","343493","green","red","","","","","","","","","","153","","","","","","[{""stimulus"":""img/green_wl/1.jpg"",""time"":56},{""stimulus"":""img/green_wl/2.jpg"",""time"":102},{""stimulus"":""img/green_wl/3.jpg"",""time"":158},{""stimulus"":""img/green_wl/4.jpg"",""time"":202},{""stimulus"":""img/green_wl/5.jpg"",""time"":258},{""stimulus"":""img/green_wl/6.jpg"",""time"":302},{""stimulus"":""img/green_wl/7.jpg"",""time"":352},{""stimulus"":""img/green_wl/8.jpg"",""time"":408},{""stimulus"":""img/green_wl/9.jpg"",""time"":458},{""stimulus"":""img/green_wl/10.jpg"",""time"":503},{""stimulus"":""img/green_wl/11.jpg"",""time"":552}]","[]"
"image-keyboard-response","150","177285","0.0-5.0-1.73","63d71e67dd0fcccd3cc745b0","bdp_lott","Sat Mar 25 2023 17:54:11 GMT-0500 (Central Daylight Time)","343493","green","red","","344","","","","choice","","img/green_wl/choose11.jpg","1","152","green","0.5","0.5","0.5","w","",""
"animation","151","177896","0.0-5.0-2.73","63d71e67dd0fcccd3cc745b0","bdp_lott","Sat Mar 25 2023 17:54:11 GMT-0500 (Central Daylight Time)","343493","green","red","","","","","","","","","","152","","","","","","[{""stimulus"":""img/green_wl/1.jpg"",""time"":60},{""stimulus"":""img/green_wl/2.jpg"",""time"":102},{""stimulus"":""img/green_wl/3.jpg"",""time"":162},{""stimulus"":""img/green_wl/4.jpg"",""time"":201},{""stimulus"":""img/green_wl/5.jpg"",""time"":251},{""stimulus"":""img/green_wl/6.jpg"",""time"":302},{""stimulus"":""img/green_wl/7.jpg"",""time"":351},{""stimulus"":""img/green_wl/8.jpg"",""time"":401},{""stimulus"":""img/green_wl/9.jpg"",""time"":451},{""stimulus"":""img/green_wl/10.jpg"",""time"":511},{""stimulus"":""img/green_wl/11.jpg"",""time"":552}]","[]"
"image-keyboard-response","152","178263","0.0-5.0-1.74","63d71e67dd0fcccd3cc745b0","bdp_lott","Sat Mar 25 2023 17:54:11 GMT-0500 (Central Daylight Time)","343493","green","red","","367","","","","choice","","img/green_wl/choose11.jpg","1","151","green","0.5","0.5","0.5","w","",""
"animation","153","178865","0.0-5.0-2.74","63d71e67dd0fcccd3cc745b0","bdp_lott","Sat Mar 25 2023 17:54:11 GMT-0500 (Central Daylight Time)","343493","green","red","","","","","","","","","","151","","","","","","[{""stimulus"":""img/green_wl/1.jpg"",""time"":66},{""stimulus"":""img/green_wl/2.jpg"",""time"":102},{""stimulus"":""img/green_wl/3.jpg"",""time"":167},{""stimulus"":""img/green_wl/4.jpg"",""time"":201},{""stimulus"":""img/green_wl/5.jpg"",""time"":252},{""stimulus"":""img/green_wl/6.jpg"",""time"":317},{""stimulus"":""img/green_wl/7.jpg"",""time"":367},{""stimulus"":""img/green_wl/8.jpg"",""time"":402},{""stimulus"":""img/green_wl/9.jpg"",""time"":452},{""stimulus"":""img/green_wl/10.jpg"",""time"":502},{""stimulus"":""img/green_wl/11.jpg"",""time"":555}]","[]"
"image-keyboard-response","154","179160","0.0-5.0-1.75","63d71e67dd0fcccd3cc745b0","bdp_lott","Sat Mar 25 2023 17:54:11 GMT-0500 (Central Daylight Time)","343493","green","red","","294","","","","choice","","img/green_wl/choose11.jpg","1","150","green","0.5","0.5","0.5","w","",""
"animation","155","179762","0.0-5.0-2.75","63d71e67dd0fcccd3cc745b0","bdp_lott","Sat Mar 25 2023 17:54:11 GMT-0500 (Central Daylight Time)","343493","green","red","","","","","","","","","","150","","","","","","[{""stimulus"":""img/green_wl/1.jpg"",""time"":52},{""stimulus"":""img/green_wl/2.jpg"",""time"":101},{""stimulus"":""img/green_wl/3.jpg"",""time"":151},{""stimulus"":""img/green_wl/4.jpg"",""time"":202},{""stimulus"":""img/green_wl/5.jpg"",""time"":251},{""stimulus"":""img/green_wl/6.jpg"",""time"":301},{""stimulus"":""img/green_wl/7.jpg"",""time"":350},{""stimulus"":""img/green_wl/8.jpg"",""time"":402},{""stimulus"":""img/green_wl/9.jpg"",""time"":451},{""stimulus"":""img/green_wl/10.jpg"",""time"":503},{""stimulus"":""img/green_wl/11.jpg"",""time"":551}]","[]"
"image-keyboard-response","156","180247","0.0-5.0-1.76","63d71e67dd0fcccd3cc745b0","bdp_lott","Sat Mar 25 2023 17:54:11 GMT-0500 (Central Daylight Time)","343493","green","red","","484","","","","choice","","img/green_wl/choose11.jpg","1","149","green","0.5","0.1","0.5","l","",""
"animation","157","180848","0.0-5.0-2.76","63d71e67dd0fcccd3cc745b0","bdp_lott","Sat Mar 25 2023 17:54:11 GMT-0500 (Central Daylight Time)","343493","green","red","","","","","","","","","","149","","","","","","[{""stimulus"":""img/green_ll/1.jpg"",""time"":66},{""stimulus"":""img/green_ll/2.jpg"",""time"":117},{""stimulus"":""img/green_ll/3.jpg"",""time"":152},{""stimulus"":""img/green_ll/4.jpg"",""time"":202},{""stimulus"":""img/green_ll/5.jpg"",""time"":252},{""stimulus"":""img/green_ll/6.jpg"",""time"":302},{""stimulus"":""img/green_ll/7.jpg"",""time"":352},{""stimulus"":""img/green_ll/8.jpg"",""time"":402},{""stimulus"":""img/green_ll/9.jpg"",""time"":452},{""stimulus"":""img/green_ll/10.jpg"",""time"":503},{""stimulus"":""img/green_ll/11.jpg"",""time"":553}]","[]"
"image-keyboard-response","158","181255","0.0-5.0-1.77","63d71e67dd0fcccd3cc745b0","bdp_lott","Sat Mar 25 2023 17:54:11 GMT-0500 (Central Daylight Time)","343493","green","red","","406","","","","choice","","img/green_ll/choose11.jpg","1","148","green","0.5","0.1","0.5","l","",""
"animation","159","181856","0.0-5.0-2.77","63d71e67dd0fcccd3cc745b0","bdp_lott","Sat Mar 25 2023 17:54:11 GMT-0500 (Central Daylight Time)","343493","green","red","","","","","","","","","","148","","","","","","[{""stimulus"":""img/green_ll/1.jpg"",""time"":57},{""stimulus"":""img/green_ll/2.jpg"",""time"":108},{""stimulus"":""img/green_ll/3.jpg"",""time"":151},{""stimulus"":""img/green_ll/4.jpg"",""time"":201},{""stimulus"":""img/green_ll/5.jpg"",""time"":251},{""stimulus"":""img/green_ll/6.jpg"",""time"":301},{""stimulus"":""img/green_ll/7.jpg"",""time"":352},{""stimulus"":""img/green_ll/8.jpg"",""time"":401},{""stimulus"":""img/green_ll/9.jpg"",""time"":451},{""stimulus"":""img/green_ll/10.jpg"",""time"":501},{""stimulus"":""img/green_ll/11.jpg"",""time"":551}]","[]"
"image-keyboard-response","160","182157","0.0-5.0-1.78","63d71e67dd0fcccd3cc745b0","bdp_lott","Sat Mar 25 2023 17:54:11 GMT-0500 (Central Daylight Time)","343493","green","red","","300","","","","choice","","img/green_ll/choose11.jpg","1","147","green","0.5","0.1","0.5","l","",""
"animation","161","182758","0.0-5.0-2.78","63d71e67dd0fcccd3cc745b0","bdp_lott","Sat Mar 25 2023 17:54:11 GMT-0500 (Central Daylight Time)","343493","green","red","","","","","","","","","","147","","","","","","[{""stimulus"":""img/green_ll/1.jpg"",""time"":55},{""stimulus"":""img/green_ll/2.jpg"",""time"":101},{""stimulus"":""img/green_ll/3.jpg"",""time"":152},{""stimulus"":""img/green_ll/4.jpg"",""time"":202},{""stimulus"":""img/green_ll/5.jpg"",""time"":250},{""stimulus"":""img/green_ll/6.jpg"",""time"":301},{""stimulus"":""img/green_ll/7.jpg"",""time"":351},{""stimulus"":""img/green_ll/8.jpg"",""time"":401},{""stimulus"":""img/green_ll/9.jpg"",""time"":451},{""stimulus"":""img/green_ll/10.jpg"",""time"":501},{""stimulus"":""img/green_ll/11.jpg"",""time"":551}]","[]"
"image-keyboard-response","162","183087","0.0-5.0-1.79","63d71e67dd0fcccd3cc745b0","bdp_lott","Sat Mar 25 2023 17:54:11 GMT-0500 (Central Daylight Time)","343493","green","red","","328","","","","choice","","img/green_ll/choose11.jpg","1","146","green","0.5","0.1","0.5","w","",""
"animation","163","183689","0.0-5.0-2.79","63d71e67dd0fcccd3cc745b0","bdp_lott","Sat Mar 25 2023 17:54:11 GMT-0500 (Central Daylight Time)","343493","green","red","","","","","","","","","","146","","","","","","[{""stimulus"":""img/green_wl/1.jpg"",""time"":58},{""stimulus"":""img/green_wl/2.jpg"",""time"":102},{""stimulus"":""img/green_wl/3.jpg"",""time"":152},{""stimulus"":""img/green_wl/4.jpg"",""time"":202},{""stimulus"":""img/green_wl/5.jpg"",""time"":252},{""stimulus"":""img/green_wl/6.jpg"",""time"":309},{""stimulus"":""img/green_wl/7.jpg"",""time"":351},{""stimulus"":""img/green_wl/8.jpg"",""time"":402},{""stimulus"":""img/green_wl/9.jpg"",""time"":452},{""stimulus"":""img/green_wl/10.jpg"",""time"":502},{""stimulus"":""img/green_wl/11.jpg"",""time"":551}]","[]"
"image-keyboard-response","164","183988","0.0-5.0-1.80","63d71e67dd0fcccd3cc745b0","bdp_lott","Sat Mar 25 2023 17:54:11 GMT-0500 (Central Daylight Time)","343493","green","red","","298","","","","choice","","img/green_wl/choose11.jpg","1","145","green","0.5","0.1","0.5","w","",""
"animation","165","184590","0.0-5.0-2.80","63d71e67dd0fcccd3cc745b0","bdp_lott","Sat Mar 25 2023 17:54:11 GMT-0500 (Central Daylight Time)","343493","green","red","","","","","","","","","","145","","","","","","[{""stimulus"":""img/green_wl/1.jpg"",""time"":57},{""stimulus"":""img/green_wl/2.jpg"",""time"":107},{""stimulus"":""img/green_wl/3.jpg"",""time"":151},{""stimulus"":""img/green_wl/4.jpg"",""time"":202},{""stimulus"":""img/green_wl/5.jpg"",""time"":252},{""stimulus"":""img/green_wl/6.jpg"",""time"":302},{""stimulus"":""img/green_wl/7.jpg"",""time"":352},{""stimulus"":""img/green_wl/8.jpg"",""time"":409},{""stimulus"":""img/green_wl/9.jpg"",""time"":452},{""stimulus"":""img/green_wl/10.jpg"",""time"":501},{""stimulus"":""img/green_wl/11.jpg"",""time"":552}]","[]"
"image-keyboard-response","166","184924","0.0-5.0-1.81","63d71e67dd0fcccd3cc745b0","bdp_lott","Sat Mar 25 2023 17:54:11 GMT-0500 (Central Daylight Time)","343493","green","red","","334","","","","choice","","img/green_wl/choose11.jpg","1","144","green","0.5","0.1","0.5","w","",""
"animation","167","185525","0.0-5.0-2.81","63d71e67dd0fcccd3cc745b0","bdp_lott","Sat Mar 25 2023 17:54:11 GMT-0500 (Central Daylight Time)","343493","green","red","","","","","","","","","","144","","","","","","[{""stimulus"":""img/green_wl/1.jpg"",""time"":54},{""stimulus"":""img/green_wl/2.jpg"",""time"":101},{""stimulus"":""img/green_wl/3.jpg"",""time"":151},{""stimulus"":""img/green_wl/4.jpg"",""time"":201},{""stimulus"":""img/green_wl/5.jpg"",""time"":252},{""stimulus"":""img/green_wl/6.jpg"",""time"":302},{""stimulus"":""img/green_wl/7.jpg"",""time"":352},{""stimulus"":""img/green_wl/8.jpg"",""time"":401},{""stimulus"":""img/green_wl/9.jpg"",""time"":452},{""stimulus"":""img/green_wl/10.jpg"",""time"":501},{""stimulus"":""img/green_wl/11.jpg"",""time"":551}]","[]"
"image-keyboard-response","168","185833","0.0-5.0-1.82","63d71e67dd0fcccd3cc745b0","bdp_lott","Sat Mar 25 2023 17:54:11 GMT-0500 (Central Daylight Time)","343493","green","red","","307","","","","choice","","img/green_wl/choose11.jpg","1","143","green","0.5","0.1","0.5","l","",""
"animation","169","186447","0.0-5.0-2.82","63d71e67dd0fcccd3cc745b0","bdp_lott","Sat Mar 25 2023 17:54:11 GMT-0500 (Central Daylight Time)","343493","green","red","","","","","","","","","","143","","","","","","[{""stimulus"":""img/green_ll/1.jpg"",""time"":66},{""stimulus"":""img/green_ll/2.jpg"",""time"":102},{""stimulus"":""img/green_ll/3.jpg"",""time"":152},{""stimulus"":""img/green_ll/4.jpg"",""time"":202},{""stimulus"":""img/green_ll/5.jpg"",""time"":263},{""stimulus"":""img/green_ll/6.jpg"",""time"":302},{""stimulus"":""img/green_ll/7.jpg"",""time"":351},{""stimulus"":""img/green_ll/8.jpg"",""time"":401},{""stimulus"":""img/green_ll/9.jpg"",""time"":463},{""stimulus"":""img/green_ll/10.jpg"",""time"":503},{""stimulus"":""img/green_ll/11.jpg"",""time"":551}]","[]"
"image-keyboard-response","170","186755","0.0-5.0-1.83","63d71e67dd0fcccd3cc745b0","bdp_lott","Sat Mar 25 2023 17:54:11 GMT-0500 (Central Daylight Time)","343493","green","red","","307","","","","choice","","img/green_ll/choose11.jpg","1","142","green","0.5","0.1","0.5","w","",""
"animation","171","187357","0.0-5.0-2.83","63d71e67dd0fcccd3cc745b0","bdp_lott","Sat Mar 25 2023 17:54:11 GMT-0500 (Central Daylight Time)","343493","green","red","","","","","","","","","","142","","","","","","[{""stimulus"":""img/green_wl/1.jpg"",""time"":57},{""stimulus"":""img/green_wl/2.jpg"",""time"":101},{""stimulus"":""img/green_wl/3.jpg"",""time"":152},{""stimulus"":""img/green_wl/4.jpg"",""time"":202},{""stimulus"":""img/green_wl/5.jpg"",""time"":250},{""stimulus"":""img/green_wl/6.jpg"",""time"":302},{""stimulus"":""img/green_wl/7.jpg"",""time"":351},{""stimulus"":""img/green_wl/8.jpg"",""time"":401},{""stimulus"":""img/green_wl/9.jpg"",""time"":452},{""stimulus"":""img/green_wl/10.jpg"",""time"":502},{""stimulus"":""img/green_wl/11.jpg"",""time"":552}]","[]"
"image-keyboard-response","172","187661","0.0-5.0-1.84","63d71e67dd0fcccd3cc745b0","bdp_lott","Sat Mar 25 2023 17:54:11 GMT-0500 (Central Daylight Time)","343493","green","red","","302","","","","choice","","img/green_wl/choose11.jpg","1","141","green","0.5","0.1","0.5","w","",""
"animation","173","188263","0.0-5.0-2.84","63d71e67dd0fcccd3cc745b0","bdp_lott","Sat Mar 25 2023 17:54:11 GMT-0500 (Central Daylight Time)","343493","green","red","","","","","","","","","","141","","","","","","[{""stimulus"":""img/green_wl/1.jpg"",""time"":51},{""stimulus"":""img/green_wl/2.jpg"",""time"":102},{""stimulus"":""img/green_wl/3.jpg"",""time"":153},{""stimulus"":""img/green_wl/4.jpg"",""time"":202},{""stimulus"":""img/green_wl/5.jpg"",""time"":252},{""stimulus"":""img/green_wl/6.jpg"",""time"":301},{""stimulus"":""img/green_wl/7.jpg"",""time"":351},{""stimulus"":""img/green_wl/8.jpg"",""time"":402},{""stimulus"":""img/green_wl/9.jpg"",""time"":452},{""stimulus"":""img/green_wl/10.jpg"",""time"":503},{""stimulus"":""img/green_wl/11.jpg"",""time"":552}]","[]"
"image-keyboard-response","174","188608","0.0-5.0-1.85","63d71e67dd0fcccd3cc745b0","bdp_lott","Sat Mar 25 2023 17:54:11 GMT-0500 (Central Daylight Time)","343493","green","red","","344","","","","choice","","img/green_wl/choose11.jpg","1","140","green","0.5","0.1","0.5","l","",""
"animation","175","189209","0.0-5.0-2.85","63d71e67dd0fcccd3cc745b0","bdp_lott","Sat Mar 25 2023 17:54:11 GMT-0500 (Central Daylight Time)","343493","green","red","","","","","","","","","","140","","","","","","[{""stimulus"":""img/green_ll/1.jpg"",""time"":53},{""stimulus"":""img/green_ll/2.jpg"",""time"":102},{""stimulus"":""img/green_ll/3.jpg"",""time"":150},{""stimulus"":""img/green_ll/4.jpg"",""time"":202},{""stimulus"":""img/green_ll/5.jpg"",""time"":251},{""stimulus"":""img/green_ll/6.jpg"",""time"":301},{""stimulus"":""img/green_ll/7.jpg"",""time"":351},{""stimulus"":""img/green_ll/8.jpg"",""time"":401},{""stimulus"":""img/green_ll/9.jpg"",""time"":451},{""stimulus"":""img/green_ll/10.jpg"",""time"":501},{""stimulus"":""img/green_ll/11.jpg"",""time"":551}]","[]"
"image-keyboard-response","176","189596","0.0-5.0-1.86","63d71e67dd0fcccd3cc745b0","bdp_lott","Sat Mar 25 2023 17:54:11 GMT-0500 (Central Daylight Time)","343493","green","red","","386","","","","choice","","img/green_ll/choose11.jpg","1","139","green","0.5","0.1","0.5","l","",""
"animation","177","190197","0.0-5.0-2.86","63d71e67dd0fcccd3cc745b0","bdp_lott","Sat Mar 25 2023 17:54:11 GMT-0500 (Central Daylight Time)","343493","green","red","","","","","","","","","","139","","","","","","[{""stimulus"":""img/green_ll/1.jpg"",""time"":66},{""stimulus"":""img/green_ll/2.jpg"",""time"":101},{""stimulus"":""img/green_ll/3.jpg"",""time"":152},{""stimulus"":""img/green_ll/4.jpg"",""time"":201},{""stimulus"":""img/green_ll/5.jpg"",""time"":251},{""stimulus"":""img/green_ll/6.jpg"",""time"":301},{""stimulus"":""img/green_ll/7.jpg"",""time"":351},{""stimulus"":""img/green_ll/8.jpg"",""time"":401},{""stimulus"":""img/green_ll/9.jpg"",""time"":451},{""stimulus"":""img/green_ll/10.jpg"",""time"":501},{""stimulus"":""img/green_ll/11.jpg"",""time"":551}]","[]"
"image-keyboard-response","178","190465","0.0-5.0-1.87","63d71e67dd0fcccd3cc745b0","bdp_lott","Sat Mar 25 2023 17:54:11 GMT-0500 (Central Daylight Time)","343493","green","red","","267","","","","choice","","img/green_ll/choose11.jpg","1","138","green","0.5","0.1","0.5","l","",""
"animation","179","191066","0.0-5.0-2.87","63d71e67dd0fcccd3cc745b0","bdp_lott","Sat Mar 25 2023 17:54:11 GMT-0500 (Central Daylight Time)","343493","green","red","","","","","","","","","","138","","","","","","[{""stimulus"":""img/green_ll/1.jpg"",""time"":63},{""stimulus"":""img/green_ll/2.jpg"",""time"":101},{""stimulus"":""img/green_ll/3.jpg"",""time"":164},{""stimulus"":""img/green_ll/4.jpg"",""time"":201},{""stimulus"":""img/green_ll/5.jpg"",""time"":265},{""stimulus"":""img/green_ll/6.jpg"",""time"":301},{""stimulus"":""img/green_ll/7.jpg"",""time"":351},{""stimulus"":""img/green_ll/8.jpg"",""time"":401},{""stimulus"":""img/green_ll/9.jpg"",""time"":451},{""stimulus"":""img/green_ll/10.jpg"",""time"":502},{""stimulus"":""img/green_ll/11.jpg"",""time"":551}]","[]"
"image-keyboard-response","180","191414","0.0-5.0-1.88","63d71e67dd0fcccd3cc745b0","bdp_lott","Sat Mar 25 2023 17:54:11 GMT-0500 (Central Daylight Time)","343493","green","red","","346","","","","choice","","img/green_ll/choose11.jpg","1","137","green","0.5","0.1","0.5","w","",""
"animation","181","192015","0.0-5.0-2.88","63d71e67dd0fcccd3cc745b0","bdp_lott","Sat Mar 25 2023 17:54:11 GMT-0500 (Central Daylight Time)","343493","green","red","","","","","","","","","","137","","","","","","[{""stimulus"":""img/green_wl/1.jpg"",""time"":52},{""stimulus"":""img/green_wl/2.jpg"",""time"":116},{""stimulus"":""img/green_wl/3.jpg"",""time"":152},{""stimulus"":""img/green_wl/4.jpg"",""time"":202},{""stimulus"":""img/green_wl/5.jpg"",""time"":252},{""stimulus"":""img/green_wl/6.jpg"",""time"":302},{""stimulus"":""img/green_wl/7.jpg"",""time"":351},{""stimulus"":""img/green_wl/8.jpg"",""time"":403},{""stimulus"":""img/green_wl/9.jpg"",""time"":452},{""stimulus"":""img/green_wl/10.jpg"",""time"":502},{""stimulus"":""img/green_wl/11.jpg"",""time"":552}]","[]"
"image-keyboard-response","182","192276","0.0-5.0-1.89","63d71e67dd0fcccd3cc745b0","bdp_lott","Sat Mar 25 2023 17:54:11 GMT-0500 (Central Daylight Time)","343493","green","red","","260","","","","choice","","img/green_wl/choose11.jpg","1","136","green","0.5","0.1","0.5","l","",""
"animation","183","192879","0.0-5.0-2.89","63d71e67dd0fcccd3cc745b0","bdp_lott","Sat Mar 25 2023 17:54:11 GMT-0500 (Central Daylight Time)","343493","green","red","","","","","","","","","","136","","","","","","[{""stimulus"":""img/green_ll/1.jpg"",""time"":53},{""stimulus"":""img/green_ll/2.jpg"",""time"":102},{""stimulus"":""img/green_ll/3.jpg"",""time"":151},{""stimulus"":""img/green_ll/4.jpg"",""time"":203},{""stimulus"":""img/green_ll/5.jpg"",""time"":252},{""stimulus"":""img/green_ll/6.jpg"",""time"":302},{""stimulus"":""img/green_ll/7.jpg"",""time"":353},{""stimulus"":""img/green_ll/8.jpg"",""time"":401},{""stimulus"":""img/green_ll/9.jpg"",""time"":454},{""stimulus"":""img/green_ll/10.jpg"",""time"":502},{""stimulus"":""img/green_ll/11.jpg"",""time"":552}]","[]"
"image-keyboard-response","184","193066","0.0-5.0-1.90","63d71e67dd0fcccd3cc745b0","bdp_lott","Sat Mar 25 2023 17:54:11 GMT-0500 (Central Daylight Time)","343493","green","red","","186","","","","choice","","img/green_ll/choose11.jpg","1","135","green","0.5","0.1","0.5","l","",""
"animation","185","193667","0.0-5.0-2.90","63d71e67dd0fcccd3cc745b0","bdp_lott","Sat Mar 25 2023 17:54:11 GMT-0500 (Central Daylight Time)","343493","green","red","","","","","","","","","","135","","","","","","[{""stimulus"":""img/green_ll/1.jpg"",""time"":63},{""stimulus"":""img/green_ll/2.jpg"",""time"":102},{""stimulus"":""img/green_ll/3.jpg"",""time"":151},{""stimulus"":""img/green_ll/4.jpg"",""time"":201},{""stimulus"":""img/green_ll/5.jpg"",""time"":252},{""stimulus"":""img/green_ll/6.jpg"",""time"":301},{""stimulus"":""img/green_ll/7.jpg"",""time"":351},{""stimulus"":""img/green_ll/8.jpg"",""time"":402},{""stimulus"":""img/green_ll/9.jpg"",""time"":450},{""stimulus"":""img/green_ll/10.jpg"",""time"":500},{""stimulus"":""img/green_ll/11.jpg"",""time"":551}]","[]"
"image-keyboard-response","186","194344","0.0-5.0-1.91","63d71e67dd0fcccd3cc745b0","bdp_lott","Sat Mar 25 2023 17:54:11 GMT-0500 (Central Daylight Time)","343493","green","red","","675","","","","choice","","img/green_ll/choose11.jpg","1","134","green","0.5","0.1","0.5","w","",""
"animation","187","194946","0.0-5.0-2.91","63d71e67dd0fcccd3cc745b0","bdp_lott","Sat Mar 25 2023 17:54:11 GMT-0500 (Central Daylight Time)","343493","green","red","","","","","","","","","","134","","","","","","[{""stimulus"":""img/green_wl/1.jpg"",""time"":52},{""stimulus"":""img/green_wl/2.jpg"",""time"":103},{""stimulus"":""img/green_wl/3.jpg"",""time"":152},{""stimulus"":""img/green_wl/4.jpg"",""time"":202},{""stimulus"":""img/green_wl/5.jpg"",""time"":253},{""stimulus"":""img/green_wl/6.jpg"",""time"":302},{""stimulus"":""img/green_wl/7.jpg"",""time"":352},{""stimulus"":""img/green_wl/8.jpg"",""time"":402},{""stimulus"":""img/green_wl/9.jpg"",""time"":452},{""stimulus"":""img/green_wl/10.jpg"",""time"":501},{""stimulus"":""img/green_wl/11.jpg"",""time"":552}]","[]"
"image-keyboard-response","188","195885","0.0-5.0-1.92","63d71e67dd0fcccd3cc745b0","bdp_lott","Sat Mar 25 2023 17:54:11 GMT-0500 (Central Daylight Time)","343493","green","red","","938","","","","choice","","img/green_wl/choose11.jpg","1","133","green","0.5","0.1","0.5","w","",""
