"trial_type","trial_index","time_elapsed","internal_node_id","subject_id","task","startTime","totalTime","fairMachine","unfairMachine","view_history","rt","event","trial","time","trialtype","success","stimulus","key_press","roundsLeft","chosen","pFairMachWin","pUnfairMachWin","pTrialWin","outcome","animation_sequence","responses"
"pavlovia","0","1","0.0-0.0","63d85999228b7d6b636dd96c","bdp_lott","Mon Mar 27 2023 11:50:14 GMT-0500 (Central Daylight Time)","421727","red","green","","","","","","","","","","","","","","","","",""
"instructions","1","2534","0.0-1.0","63d85999228b7d6b636dd96c","bdp_lott","Mon Mar 27 2023 11:50:14 GMT-0500 (Central Daylight Time)","421727","red","green","[{""page_index"":0,""viewing_time"":2533}]","2533","","","","","","","","","","","","","","",""
"","","","","63d85999228b7d6b636dd96c","bdp_lott","Mon Mar 27 2023 11:50:14 GMT-0500 (Central Daylight Time)","421727","red","green","","","fullscreenenter","2","7756","fullscreenenter","","","","","","","","","","",""
"fullscreen","2","8756","0.0-2.0","63d85999228b7d6b636dd96c","bdp_lott","Mon Mar 27 2023 11:50:14 GMT-0500 (Central Daylight Time)","421727","red","green","","","","","","","true","","","","","","","","","",""
"instructions","3","12198","0.0-4.0","63d85999228b7d6b636dd96c","bdp_lott","Mon Mar 27 2023 11:50:14 GMT-0500 (Central Daylight Time)","421727","red","green","[{""page_index"":0,""viewing_time"":3441}]","3441","","","","","","","","","","","","","","",""
"image-keyboard-response","4","13182","0.0-5.0-1.0","63d85999228b7d6b636dd96c","bdp_lott","Mon Mar 27 2023 11:50:14 GMT-0500 (Central Daylight Time)","421727","red","green","","983","","","","choice","","img/red_ll/initchoose11.jpg","2","225","red","0.5","0.5","0.5","w","",""
"animation","5","13787","0.0-5.0-2.0","63d85999228b7d6b636dd96c","bdp_lott","Mon Mar 27 2023 11:50:14 GMT-0500 (Central Daylight Time)","421727","red","green","","","","","","","","","","225","","","","","","[{""stimulus"":""img/red_lw/1.jpg"",""time"":66},{""stimulus"":""img/red_lw/2.jpg"",""time"":101},{""stimulus"":""img/red_lw/3.jpg"",""time"":155},{""stimulus"":""img/red_lw/4.jpg"",""time"":208},{""stimulus"":""img/red_lw/5.jpg"",""time"":251},{""stimulus"":""img/red_lw/6.jpg"",""time"":306},{""stimulus"":""img/red_lw/7.jpg"",""time"":354},{""stimulus"":""img/red_lw/8.jpg"",""time"":401},{""stimulus"":""img/red_lw/9.jpg"",""time"":457},{""stimulus"":""img/red_lw/10.jpg"",""time"":501},{""stimulus"":""img/red_lw/11.jpg"",""time"":551}]","[]"
"image-keyboard-response","6","14950","0.0-5.0-1.1","63d85999228b7d6b636dd96c","bdp_lott","Mon Mar 27 2023 11:50:14 GMT-0500 (Central Daylight Time)","421727","red","green","","1162","","","","choice","","img/red_lw/choose11.jpg","1","224","green","0.5","0.5","0.5","w","",""
"animation","7","15551","0.0-5.0-2.1","63d85999228b7d6b636dd96c","bdp_lott","Mon Mar 27 2023 11:50:14 GMT-0500 (Central Daylight Time)","421727","red","green","","","","","","","","","","224","","","","","","[{""stimulus"":""img/green_ww/1.jpg"",""time"":57},{""stimulus"":""img/green_ww/2.jpg"",""time"":100},{""stimulus"":""img/green_ww/3.jpg"",""time"":151},{""stimulus"":""img/green_ww/4.jpg"",""time"":200},{""stimulus"":""img/green_ww/5.jpg"",""time"":253},{""stimulus"":""img/green_ww/6.jpg"",""time"":301},{""stimulus"":""img/green_ww/7.jpg"",""time"":351},{""stimulus"":""img/green_ww/8.jpg"",""time"":400},{""stimulus"":""img/green_ww/9.jpg"",""time"":451},{""stimulus"":""img/green_ww/10.jpg"",""time"":501},{""stimulus"":""img/green_ww/11.jpg"",""time"":552}]","[]"
"image-keyboard-response","8","16334","0.0-5.0-1.2","63d85999228b7d6b636dd96c","bdp_lott","Mon Mar 27 2023 11:50:14 GMT-0500 (Central Daylight Time)","421727","red","green","","783","","","","choice","","img/green_ww/choose11.jpg","2","223","red","0.5","0.5","0.5","l","",""
"animation","9","16934","0.0-5.0-2.2","63d85999228b7d6b636dd96c","bdp_lott","Mon Mar 27 2023 11:50:14 GMT-0500 (Central Daylight Time)","421727","red","green","","","","","","","","","","223","","","","","","[{""stimulus"":""img/red_wl/1.jpg"",""time"":53},{""stimulus"":""img/red_wl/2.jpg"",""time"":102},{""stimulus"":""img/red_wl/3.jpg"",""time"":152},{""stimulus"":""img/red_wl/4.jpg"",""time"":200},{""stimulus"":""img/red_wl/5.jpg"",""time"":251},{""stimulus"":""img/red_wl/6.jpg"",""time"":301},{""stimulus"":""img/red_wl/7.jpg"",""time"":353},{""stimulus"":""img/red_wl/8.jpg"",""time"":400},{""stimulus"":""img/red_wl/9.jpg"",""time"":455},{""stimulus"":""img/red_wl/10.jpg"",""time"":502},{""stimulus"":""img/red_wl/11.jpg"",""time"":550}]","[]"
"image-keyboard-response","10","17622","0.0-5.0-1.3","63d85999228b7d6b636dd96c","bdp_lott","Mon Mar 27 2023 11:50:14 GMT-0500 (Central Daylight Time)","421727","red","green","","687","","","","choice","","img/red_wl/choose11.jpg","1","222","green","0.5","0.5","0.5","w","",""
"animation","11","18222","0.0-5.0-2.3","63d85999228b7d6b636dd96c","bdp_lott","Mon Mar 27 2023 11:50:14 GMT-0500 (Central Daylight Time)","421727","red","green","","","","","","","","","","222","","","","","","[{""stimulus"":""img/green_wl/1.jpg"",""time"":55},{""stimulus"":""img/green_wl/2.jpg"",""time"":100},{""stimulus"":""img/green_wl/3.jpg"",""time"":150},{""stimulus"":""img/green_wl/4.jpg"",""time"":201},{""stimulus"":""img/green_wl/5.jpg"",""time"":250},{""stimulus"":""img/green_wl/6.jpg"",""time"":300},{""stimulus"":""img/green_wl/7.jpg"",""time"":365},{""stimulus"":""img/green_wl/8.jpg"",""time"":400},{""stimulus"":""img/green_wl/9.jpg"",""time"":450},{""stimulus"":""img/green_wl/10.jpg"",""time"":500},{""stimulus"":""img/green_wl/11.jpg"",""time"":550}]","[]"
"image-keyboard-response","12","18998","0.0-5.0-1.4","63d85999228b7d6b636dd96c","bdp_lott","Mon Mar 27 2023 11:50:14 GMT-0500 (Central Daylight Time)","421727","red","green","","775","","","","choice","","img/green_wl/choose11.jpg","2","221","red","0.5","0.5","0.5","w","",""
"animation","13","19603","0.0-5.0-2.4","63d85999228b7d6b636dd96c","bdp_lott","Mon Mar 27 2023 11:50:14 GMT-0500 (Central Daylight Time)","421727","red","green","","","","","","","","","","221","","","","","","[{""stimulus"":""img/red_ww/1.jpg"",""time"":58},{""stimulus"":""img/red_ww/2.jpg"",""time"":107},{""stimulus"":""img/red_ww/3.jpg"",""time"":151},{""stimulus"":""img/red_ww/4.jpg"",""time"":201},{""stimulus"":""img/red_ww/5.jpg"",""time"":251},{""stimulus"":""img/red_ww/6.jpg"",""time"":301},{""stimulus"":""img/red_ww/7.jpg"",""time"":350},{""stimulus"":""img/red_ww/8.jpg"",""time"":401},{""stimulus"":""img/red_ww/9.jpg"",""time"":451},{""stimulus"":""img/red_ww/10.jpg"",""time"":500},{""stimulus"":""img/red_ww/11.jpg"",""time"":551}]","[]"
"image-keyboard-response","14","20318","0.0-5.0-1.5","63d85999228b7d6b636dd96c","bdp_lott","Mon Mar 27 2023 11:50:14 GMT-0500 (Central Daylight Time)","421727","red","green","","715","","","","choice","","img/red_ww/choose11.jpg","1","220","green","0.5","0.5","0.5","w","",""
"animation","15","20922","0.0-5.0-2.5","63d85999228b7d6b636dd96c","bdp_lott","Mon Mar 27 2023 11:50:14 GMT-0500 (Central Daylight Time)","421727","red","green","","","","","","","","","","220","","","","","","[{""stimulus"":""img/green_ww/1.jpg"",""time"":59},{""stimulus"":""img/green_ww/2.jpg"",""time"":101},{""stimulus"":""img/green_ww/3.jpg"",""time"":151},{""stimulus"":""img/green_ww/4.jpg"",""time"":201},{""stimulus"":""img/green_ww/5.jpg"",""time"":251},{""stimulus"":""img/green_ww/6.jpg"",""time"":304},{""stimulus"":""img/green_ww/7.jpg"",""time"":353},{""stimulus"":""img/green_ww/8.jpg"",""time"":404},{""stimulus"":""img/green_ww/9.jpg"",""time"":451},{""stimulus"":""img/green_ww/10.jpg"",""time"":504},{""stimulus"":""img/green_ww/11.jpg"",""time"":554}]","[]"
"image-keyboard-response","16","21734","0.0-5.0-1.6","63d85999228b7d6b636dd96c","bdp_lott","Mon Mar 27 2023 11:50:14 GMT-0500 (Central Daylight Time)","421727","red","green","","812","","","","choice","","img/green_ww/choose11.jpg","2","219","red","0.5","0.5","0.5","l","",""
"animation","17","22334","0.0-5.0-2.6","63d85999228b7d6b636dd96c","bdp_lott","Mon Mar 27 2023 11:50:14 GMT-0500 (Central Daylight Time)","421727","red","green","","","","","","","","","","219","","","","","","[{""stimulus"":""img/red_wl/1.jpg"",""time"":55},{""stimulus"":""img/red_wl/2.jpg"",""time"":100},{""stimulus"":""img/red_wl/3.jpg"",""time"":150},{""stimulus"":""img/red_wl/4.jpg"",""time"":200},{""stimulus"":""img/red_wl/5.jpg"",""time"":250},{""stimulus"":""img/red_wl/6.jpg"",""time"":300},{""stimulus"":""img/red_wl/7.jpg"",""time"":350},{""stimulus"":""img/red_wl/8.jpg"",""time"":400},{""stimulus"":""img/red_wl/9.jpg"",""time"":450},{""stimulus"":""img/red_wl/10.jpg"",""time"":500},{""stimulus"":""img/red_wl/11.jpg"",""time"":553}]","[]"
"image-keyboard-response","18","23670","0.0-5.0-1.7","63d85999228b7d6b636dd96c","bdp_lott","Mon Mar 27 2023 11:50:14 GMT-0500 (Central Daylight Time)","421727","red","green","","1336","","","","choice","","img/red_wl/choose11.jpg","1","218","green","0.5","0.5","0.5","w","",""
"animation","19","24270","0.0-5.0-2.7","63d85999228b7d6b636dd96c","bdp_lott","Mon Mar 27 2023 11:50:14 GMT-0500 (Central Daylight Time)","421727","red","green","","","","","","","","","","218","","","","","","[{""stimulus"":""img/green_wl/1.jpg"",""time"":52},{""stimulus"":""img/green_wl/2.jpg"",""time"":101},{""stimulus"":""img/green_wl/3.jpg"",""time"":151},{""stimulus"":""img/green_wl/4.jpg"",""time"":200},{""stimulus"":""img/green_wl/5.jpg"",""time"":251},{""stimulus"":""img/green_wl/6.jpg"",""time"":302},{""stimulus"":""img/green_wl/7.jpg"",""time"":351},{""stimulus"":""img/green_wl/8.jpg"",""time"":401},{""stimulus"":""img/green_wl/9.jpg"",""time"":451},{""stimulus"":""img/green_wl/10.jpg"",""time"":501},{""stimulus"":""img/green_wl/11.jpg"",""time"":552}]","[]"
"image-keyboard-response","20","25294","0.0-5.0-1.8","63d85999228b7d6b636dd96c","bdp_lott","Mon Mar 27 2023 11:50:14 GMT-0500 (Central Daylight Time)","421727","red","green","","1023","","","","choice","","img/green_wl/choose11.jpg","2","217","red","0.5","0.5","0.5","l","",""
"animation","21","25895","0.0-5.0-2.8","63d85999228b7d6b636dd96c","bdp_lott","Mon Mar 27 2023 11:50:14 GMT-0500 (Central Daylight Time)","421727","red","green","","","","","","","","","","217","","","","","","[{""stimulus"":""img/red_wl/1.jpg"",""time"":53},{""stimulus"":""img/red_wl/2.jpg"",""time"":104},{""stimulus"":""img/red_wl/3.jpg"",""time"":161},{""stimulus"":""img/red_wl/4.jpg"",""time"":201},{""stimulus"":""img/red_wl/5.jpg"",""time"":251},{""stimulus"":""img/red_wl/6.jpg"",""time"":301},{""stimulus"":""img/red_wl/7.jpg"",""time"":351},{""stimulus"":""img/red_wl/8.jpg"",""time"":401},{""stimulus"":""img/red_wl/9.jpg"",""time"":451},{""stimulus"":""img/red_wl/10.jpg"",""time"":509},{""stimulus"":""img/red_wl/11.jpg"",""time"":551}]","[]"
"image-keyboard-response","22","26774","0.0-5.0-1.9","63d85999228b7d6b636dd96c","bdp_lott","Mon Mar 27 2023 11:50:14 GMT-0500 (Central Daylight Time)","421727","red","green","","879","","","","choice","","img/red_wl/choose11.jpg","1","216","green","0.5","0.5","0.5","w","",""
"animation","23","27375","0.0-5.0-2.9","63d85999228b7d6b636dd96c","bdp_lott","Mon Mar 27 2023 11:50:14 GMT-0500 (Central Daylight Time)","421727","red","green","","","","","","","","","","216","","","","","","[{""stimulus"":""img/green_wl/1.jpg"",""time"":73},{""stimulus"":""img/green_wl/2.jpg"",""time"":100},{""stimulus"":""img/green_wl/3.jpg"",""time"":150},{""stimulus"":""img/green_wl/4.jpg"",""time"":201},{""stimulus"":""img/green_wl/5.jpg"",""time"":251},{""stimulus"":""img/green_wl/6.jpg"",""time"":301},{""stimulus"":""img/green_wl/7.jpg"",""time"":351},{""stimulus"":""img/green_wl/8.jpg"",""time"":401},{""stimulus"":""img/green_wl/9.jpg"",""time"":451},{""stimulus"":""img/green_wl/10.jpg"",""time"":500},{""stimulus"":""img/green_wl/11.jpg"",""time"":551}]","[]"
"image-keyboard-response","24","28198","0.0-5.0-1.10","63d85999228b7d6b636dd96c","bdp_lott","Mon Mar 27 2023 11:50:14 GMT-0500 (Central Daylight Time)","421727","red","green","","823","","","","choice","","img/green_wl/choose11.jpg","2","215","red","0.5","0.5","0.5","w","",""
"animation","25","28799","0.0-5.0-2.10","63d85999228b7d6b636dd96c","bdp_lott","Mon Mar 27 2023 11:50:14 GMT-0500 (Central Daylight Time)","421727","red","green","","","","","","","","","","215","","","","","","[{""stimulus"":""img/red_ww/1.jpg"",""time"":57},{""stimulus"":""img/red_ww/2.jpg"",""time"":101},{""stimulus"":""img/red_ww/3.jpg"",""time"":151},{""stimulus"":""img/red_ww/4.jpg"",""time"":201},{""stimulus"":""img/red_ww/5.jpg"",""time"":251},{""stimulus"":""img/red_ww/6.jpg"",""time"":301},{""stimulus"":""img/red_ww/7.jpg"",""time"":355},{""stimulus"":""img/red_ww/8.jpg"",""time"":401},{""stimulus"":""img/red_ww/9.jpg"",""time"":457},{""stimulus"":""img/red_ww/10.jpg"",""time"":505},{""stimulus"":""img/red_ww/11.jpg"",""time"":551}]","[]"
"image-keyboard-response","26","30022","0.0-5.0-1.11","63d85999228b7d6b636dd96c","bdp_lott","Mon Mar 27 2023 11:50:14 GMT-0500 (Central Daylight Time)","421727","red","green","","1223","","","","choice","","img/red_ww/choose11.jpg","1","214","green","0.5","0.5","0.5","w","",""
"animation","27","30622","0.0-5.0-2.11","63d85999228b7d6b636dd96c","bdp_lott","Mon Mar 27 2023 11:50:14 GMT-0500 (Central Daylight Time)","421727","red","green","","","","","","","","","","214","","","","","","[{""stimulus"":""img/green_ww/1.jpg"",""time"":52},{""stimulus"":""img/green_ww/2.jpg"",""time"":102},{""stimulus"":""img/green_ww/3.jpg"",""time"":151},{""stimulus"":""img/green_ww/4.jpg"",""time"":201},{""stimulus"":""img/green_ww/5.jpg"",""time"":251},{""stimulus"":""img/green_ww/6.jpg"",""time"":300},{""stimulus"":""img/green_ww/7.jpg"",""time"":350},{""stimulus"":""img/green_ww/8.jpg"",""time"":401},{""stimulus"":""img/green_ww/9.jpg"",""time"":450},{""stimulus"":""img/green_ww/10.jpg"",""time"":500},{""stimulus"":""img/green_ww/11.jpg"",""time"":550}]","[]"
"image-keyboard-response","28","31310","0.0-5.0-1.12","63d85999228b7d6b636dd96c","bdp_lott","Mon Mar 27 2023 11:50:14 GMT-0500 (Central Daylight Time)","421727","red","green","","688","","","","choice","","img/green_ww/choose11.jpg","2","213","red","0.5","0.5","0.5","l","",""
"animation","29","31911","0.0-5.0-2.12","63d85999228b7d6b636dd96c","bdp_lott","Mon Mar 27 2023 11:50:14 GMT-0500 (Central Daylight Time)","421727","red","green","","","","","","","","","","213","","","","","","[{""stimulus"":""img/red_wl/1.jpg"",""time"":50},{""stimulus"":""img/red_wl/2.jpg"",""time"":101},{""stimulus"":""img/red_wl/3.jpg"",""time"":150},{""stimulus"":""img/red_wl/4.jpg"",""time"":201},{""stimulus"":""img/red_wl/5.jpg"",""time"":250},{""stimulus"":""img/red_wl/6.jpg"",""time"":300},{""stimulus"":""img/red_wl/7.jpg"",""time"":350},{""stimulus"":""img/red_wl/8.jpg"",""time"":400},{""stimulus"":""img/red_wl/9.jpg"",""time"":450},{""stimulus"":""img/red_wl/10.jpg"",""time"":501},{""stimulus"":""img/red_wl/11.jpg"",""time"":551}]","[]"
"image-keyboard-response","30","32662","0.0-5.0-1.13","63d85999228b7d6b636dd96c","bdp_lott","Mon Mar 27 2023 11:50:14 GMT-0500 (Central Daylight Time)","421727","red","green","","750","","","","choice","","img/red_wl/choose11.jpg","1","212","green","0.5","0.5","0.5","w","",""
"animation","31","33262","0.0-5.0-2.13","63d85999228b7d6b636dd96c","bdp_lott","Mon Mar 27 2023 11:50:14 GMT-0500 (Central Daylight Time)","421727","red","green","","","","","","","","","","212","","","","","","[{""stimulus"":""img/green_wl/1.jpg"",""time"":50},{""stimulus"":""img/green_wl/2.jpg"",""time"":100},{""stimulus"":""img/green_wl/3.jpg"",""time"":150},{""stimulus"":""img/green_wl/4.jpg"",""time"":200},{""stimulus"":""img/green_wl/5.jpg"",""time"":251},{""stimulus"":""img/green_wl/6.jpg"",""time"":302},{""stimulus"":""img/green_wl/7.jpg"",""time"":351},{""stimulus"":""img/green_wl/8.jpg"",""time"":402},{""stimulus"":""img/green_wl/9.jpg"",""time"":451},{""stimulus"":""img/green_wl/10.jpg"",""time"":502},{""stimulus"":""img/green_wl/11.jpg"",""time"":551}]","[]"
"image-keyboard-response","32","34334","0.0-5.0-1.14","63d85999228b7d6b636dd96c","bdp_lott","Mon Mar 27 2023 11:50:14 GMT-0500 (Central Daylight Time)","421727","red","green","","1072","","","","choice","","img/green_wl/choose11.jpg","1","211","green","0.5","0.5","0.5","w","",""
"animation","33","34935","0.0-5.0-2.14","63d85999228b7d6b636dd96c","bdp_lott","Mon Mar 27 2023 11:50:14 GMT-0500 (Central Daylight Time)","421727","red","green","","","","","","","","","","211","","","","","","[{""stimulus"":""img/green_wl/1.jpg"",""time"":51},{""stimulus"":""img/green_wl/2.jpg"",""time"":102},{""stimulus"":""img/green_wl/3.jpg"",""time"":152},{""stimulus"":""img/green_wl/4.jpg"",""time"":200},{""stimulus"":""img/green_wl/5.jpg"",""time"":251},{""stimulus"":""img/green_wl/6.jpg"",""time"":301},{""stimulus"":""img/green_wl/7.jpg"",""time"":352},{""stimulus"":""img/green_wl/8.jpg"",""time"":401},{""stimulus"":""img/green_wl/9.jpg"",""time"":451},{""stimulus"":""img/green_wl/10.jpg"",""time"":501},{""stimulus"":""img/green_wl/11.jpg"",""time"":551}]","[]"
"image-keyboard-response","34","35782","0.0-5.0-1.15","63d85999228b7d6b636dd96c","bdp_lott","Mon Mar 27 2023 11:50:14 GMT-0500 (Central Daylight Time)","421727","red","green","","847","","","","choice","","img/green_wl/choose11.jpg","1","210","green","0.5","0.5","0.5","l","",""
"animation","35","36384","0.0-5.0-2.15","63d85999228b7d6b636dd96c","bdp_lott","Mon Mar 27 2023 11:50:14 GMT-0500 (Central Daylight Time)","421727","red","green","","","","","","","","","","210","","","","","","[{""stimulus"":""img/green_ll/1.jpg"",""time"":52},{""stimulus"":""img/green_ll/2.jpg"",""time"":101},{""stimulus"":""img/green_ll/3.jpg"",""time"":152},{""stimulus"":""img/green_ll/4.jpg"",""time"":201},{""stimulus"":""img/green_ll/5.jpg"",""time"":251},{""stimulus"":""img/green_ll/6.jpg"",""time"":300},{""stimulus"":""img/green_ll/7.jpg"",""time"":351},{""stimulus"":""img/green_ll/8.jpg"",""time"":401},{""stimulus"":""img/green_ll/9.jpg"",""time"":450},{""stimulus"":""img/green_ll/10.jpg"",""time"":501},{""stimulus"":""img/green_ll/11.jpg"",""time"":551}]","[]"
"image-keyboard-response","36","37070","0.0-5.0-1.16","63d85999228b7d6b636dd96c","bdp_lott","Mon Mar 27 2023 11:50:14 GMT-0500 (Central Daylight Time)","421727","red","green","","686","","","","choice","","img/green_ll/choose11.jpg","2","209","red","0.5","0.5","0.5","w","",""
"animation","37","37671","0.0-5.0-2.16","63d85999228b7d6b636dd96c","bdp_lott","Mon Mar 27 2023 11:50:14 GMT-0500 (Central Daylight Time)","421727","red","green","","","","","","","","","","209","","","","","","[{""stimulus"":""img/red_lw/1.jpg"",""time"":51},{""stimulus"":""img/red_lw/2.jpg"",""time"":100},{""stimulus"":""img/red_lw/3.jpg"",""time"":151},{""stimulus"":""img/red_lw/4.jpg"",""time"":201},{""stimulus"":""img/red_lw/5.jpg"",""time"":250},{""stimulus"":""img/red_lw/6.jpg"",""time"":301},{""stimulus"":""img/red_lw/7.jpg"",""time"":351},{""stimulus"":""img/red_lw/8.jpg"",""time"":402},{""stimulus"":""img/red_lw/9.jpg"",""time"":450},{""stimulus"":""img/red_lw/10.jpg"",""time"":501},{""stimulus"":""img/red_lw/11.jpg"",""time"":551}]","[]"
"image-keyboard-response","38","38462","0.0-5.0-1.17","63d85999228b7d6b636dd96c","bdp_lott","Mon Mar 27 2023 11:50:14 GMT-0500 (Central Daylight Time)","421727","red","green","","790","","","","choice","","img/red_lw/choose11.jpg","2","208","red","0.5","0.5","0.5","w","",""
"animation","39","39062","0.0-5.0-2.17","63d85999228b7d6b636dd96c","bdp_lott","Mon Mar 27 2023 11:50:14 GMT-0500 (Central Daylight Time)","421727","red","green","","","","","","","","","","208","","","","","","[{""stimulus"":""img/red_lw/1.jpg"",""time"":51},{""stimulus"":""img/red_lw/2.jpg"",""time"":102},{""stimulus"":""img/red_lw/3.jpg"",""time"":150},{""stimulus"":""img/red_lw/4.jpg"",""time"":201},{""stimulus"":""img/red_lw/5.jpg"",""time"":250},{""stimulus"":""img/red_lw/6.jpg"",""time"":300},{""stimulus"":""img/red_lw/7.jpg"",""time"":351},{""stimulus"":""img/red_lw/8.jpg"",""time"":401},{""stimulus"":""img/red_lw/9.jpg"",""time"":451},{""stimulus"":""img/red_lw/10.jpg"",""time"":500},{""stimulus"":""img/red_lw/11.jpg"",""time"":550}]","[]"
"image-keyboard-response","40","39670","0.0-5.0-1.18","63d85999228b7d6b636dd96c","bdp_lott","Mon Mar 27 2023 11:50:14 GMT-0500 (Central Daylight Time)","421727","red","green","","608","","","","choice","","img/red_lw/choose11.jpg","2","207","red","0.5","0.5","0.5","l","",""
"animation","41","40271","0.0-5.0-2.18","63d85999228b7d6b636dd96c","bdp_lott","Mon Mar 27 2023 11:50:14 GMT-0500 (Central Daylight Time)","421727","red","green","","","","","","","","","","207","","","","","","[{""stimulus"":""img/red_ll/1.jpg"",""time"":51},{""stimulus"":""img/red_ll/2.jpg"",""time"":100},{""stimulus"":""img/red_ll/3.jpg"",""time"":152},{""stimulus"":""img/red_ll/4.jpg"",""time"":202},{""stimulus"":""img/red_ll/5.jpg"",""time"":252},{""stimulus"":""img/red_ll/6.jpg"",""time"":302},{""stimulus"":""img/red_ll/7.jpg"",""time"":352},{""stimulus"":""img/red_ll/8.jpg"",""time"":402},{""stimulus"":""img/red_ll/9.jpg"",""time"":452},{""stimulus"":""img/red_ll/10.jpg"",""time"":501},{""stimulus"":""img/red_ll/11.jpg"",""time"":552}]","[]"
"image-keyboard-response","42","40886","0.0-5.0-1.19","63d85999228b7d6b636dd96c","bdp_lott","Mon Mar 27 2023 11:50:14 GMT-0500 (Central Daylight Time)","421727","red","green","","615","","","","choice","","img/red_ll/choose11.jpg","1","206","green","0.5","0.5","0.5","w","",""
"animation","43","41488","0.0-5.0-2.19","63d85999228b7d6b636dd96c","bdp_lott","Mon Mar 27 2023 11:50:14 GMT-0500 (Central Daylight Time)","421727","red","green","","","","","","","","","","206","","","","","","[{""stimulus"":""img/green_wl/1.jpg"",""time"":52},{""stimulus"":""img/green_wl/2.jpg"",""time"":101},{""stimulus"":""img/green_wl/3.jpg"",""time"":151},{""stimulus"":""img/green_wl/4.jpg"",""time"":200},{""stimulus"":""img/green_wl/5.jpg"",""time"":251},{""stimulus"":""img/green_wl/6.jpg"",""time"":301},{""stimulus"":""img/green_wl/7.jpg"",""time"":351},{""stimulus"":""img/green_wl/8.jpg"",""time"":401},{""stimulus"":""img/green_wl/9.jpg"",""time"":450},{""stimulus"":""img/green_wl/10.jpg"",""time"":501},{""stimulus"":""img/green_wl/11.jpg"",""time"":551}]","[]"
"image-keyboard-response","44","42318","0.0-5.0-1.20","63d85999228b7d6b636dd96c","bdp_lott","Mon Mar 27 2023 11:50:14 GMT-0500 (Central Daylight Time)","421727","red","green","","829","","","","choice","","img/green_wl/choose11.jpg","2","205","red","0.5","0.5","0.5","l","",""
"animation","45","42920","0.0-5.0-2.20","63d85999228b7d6b636dd96c","bdp_lott","Mon Mar 27 2023 11:50:14 GMT-0500 (Central Daylight Time)","421727","red","green","","","","","","","","","","205","","","","","","[{""stimulus"":""img/red_wl/1.jpg"",""time"":50},{""stimulus"":""img/red_wl/2.jpg"",""time"":100},{""stimulus"":""img/red_wl/3.jpg"",""time"":151},{""stimulus"":""img/red_wl/4.jpg"",""time"":201},{""stimulus"":""img/red_wl/5.jpg"",""time"":252},{""stimulus"":""img/red_wl/6.jpg"",""time"":302},{""stimulus"":""img/red_wl/7.jpg"",""time"":352},{""stimulus"":""img/red_wl/8.jpg"",""time"":401},{""stimulus"":""img/red_wl/9.jpg"",""time"":452},{""stimulus"":""img/red_wl/10.jpg"",""time"":502},{""stimulus"":""img/red_wl/11.jpg"",""time"":551}]","[]"
"image-keyboard-response","46","43830","0.0-5.0-1.21","63d85999228b7d6b636dd96c","bdp_lott","Mon Mar 27 2023 11:50:14 GMT-0500 (Central Daylight Time)","421727","red","green","","909","","","","choice","","img/red_wl/choose11.jpg","1","204","green","0.5","0.5","0.5","l","",""
"animation","47","44430","0.0-5.0-2.21","63d85999228b7d6b636dd96c","bdp_lott","Mon Mar 27 2023 11:50:14 GMT-0500 (Central Daylight Time)","421727","red","green","","","","","","","","","","204","","","","","","[{""stimulus"":""img/green_ll/1.jpg"",""time"":51},{""stimulus"":""img/green_ll/2.jpg"",""time"":101},{""stimulus"":""img/green_ll/3.jpg"",""time"":151},{""stimulus"":""img/green_ll/4.jpg"",""time"":201},{""stimulus"":""img/green_ll/5.jpg"",""time"":251},{""stimulus"":""img/green_ll/6.jpg"",""time"":301},{""stimulus"":""img/green_ll/7.jpg"",""time"":351},{""stimulus"":""img/green_ll/8.jpg"",""time"":401},{""stimulus"":""img/green_ll/9.jpg"",""time"":451},{""stimulus"":""img/green_ll/10.jpg"",""time"":501},{""stimulus"":""img/green_ll/11.jpg"",""time"":551}]","[]"
"image-keyboard-response","48","45166","0.0-5.0-1.22","63d85999228b7d6b636dd96c","bdp_lott","Mon Mar 27 2023 11:50:14 GMT-0500 (Central Daylight Time)","421727","red","green","","736","","","","choice","","img/green_ll/choose11.jpg","1","203","green","0.5","0.5","0.5","l","",""
"animation","49","45767","0.0-5.0-2.22","63d85999228b7d6b636dd96c","bdp_lott","Mon Mar 27 2023 11:50:14 GMT-0500 (Central Daylight Time)","421727","red","green","","","","","","","","","","203","","","","","","[{""stimulus"":""img/green_ll/1.jpg"",""time"":52},{""stimulus"":""img/green_ll/2.jpg"",""time"":101},{""stimulus"":""img/green_ll/3.jpg"",""time"":152},{""stimulus"":""img/green_ll/4.jpg"",""time"":200},{""stimulus"":""img/green_ll/5.jpg"",""time"":250},{""stimulus"":""img/green_ll/6.jpg"",""time"":302},{""stimulus"":""img/green_ll/7.jpg"",""time"":351},{""stimulus"":""img/green_ll/8.jpg"",""time"":401},{""stimulus"":""img/green_ll/9.jpg"",""time"":452},{""stimulus"":""img/green_ll/10.jpg"",""time"":500},{""stimulus"":""img/green_ll/11.jpg"",""time"":551}]","[]"
"image-keyboard-response","50","46502","0.0-5.0-1.23","63d85999228b7d6b636dd96c","bdp_lott","Mon Mar 27 2023 11:50:14 GMT-0500 (Central Daylight Time)","421727","red","green","","734","","","","choice","","img/green_ll/choose11.jpg","2","202","red","0.5","0.5","0.5","w","",""
"animation","51","47102","0.0-5.0-2.23","63d85999228b7d6b636dd96c","bdp_lott","Mon Mar 27 2023 11:50:14 GMT-0500 (Central Daylight Time)","421727","red","green","","","","","","","","","","202","","","","","","[{""stimulus"":""img/red_lw/1.jpg"",""time"":50},{""stimulus"":""img/red_lw/2.jpg"",""time"":100},{""stimulus"":""img/red_lw/3.jpg"",""time"":152},{""stimulus"":""img/red_lw/4.jpg"",""time"":202},{""stimulus"":""img/red_lw/5.jpg"",""time"":251},{""stimulus"":""img/red_lw/6.jpg"",""time"":300},{""stimulus"":""img/red_lw/7.jpg"",""time"":350},{""stimulus"":""img/red_lw/8.jpg"",""time"":401},{""stimulus"":""img/red_lw/9.jpg"",""time"":451},{""stimulus"":""img/red_lw/10.jpg"",""time"":501},{""stimulus"":""img/red_lw/11.jpg"",""time"":551}]","[]"
"image-keyboard-response","52","48038","0.0-5.0-1.24","63d85999228b7d6b636dd96c","bdp_lott","Mon Mar 27 2023 11:50:14 GMT-0500 (Central Daylight Time)","421727","red","green","","935","","","","choice","","img/red_lw/choose11.jpg","1","201","green","0.5","0.5","0.5","l","",""
"animation","53","48639","0.0-5.0-2.24","63d85999228b7d6b636dd96c","bdp_lott","Mon Mar 27 2023 11:50:14 GMT-0500 (Central Daylight Time)","421727","red","green","","","","","","","","","","201","","","","","","[{""stimulus"":""img/green_lw/1.jpg"",""time"":50},{""stimulus"":""img/green_lw/2.jpg"",""time"":100},{""stimulus"":""img/green_lw/3.jpg"",""time"":151},{""stimulus"":""img/green_lw/4.jpg"",""time"":200},{""stimulus"":""img/green_lw/5.jpg"",""time"":250},{""stimulus"":""img/green_lw/6.jpg"",""time"":301},{""stimulus"":""img/green_lw/7.jpg"",""time"":351},{""stimulus"":""img/green_lw/8.jpg"",""time"":400},{""stimulus"":""img/green_lw/9.jpg"",""time"":450},{""stimulus"":""img/green_lw/10.jpg"",""time"":501},{""stimulus"":""img/green_lw/11.jpg"",""time"":551}]","[]"
"image-keyboard-response","54","49494","0.0-5.0-1.25","63d85999228b7d6b636dd96c","bdp_lott","Mon Mar 27 2023 11:50:14 GMT-0500 (Central Daylight Time)","421727","red","green","","854","","","","choice","","img/green_lw/choose11.jpg","2","200","red","0.5","0.5","0.5","w","",""
"animation","55","50095","0.0-5.0-2.25","63d85999228b7d6b636dd96c","bdp_lott","Mon Mar 27 2023 11:50:14 GMT-0500 (Central Daylight Time)","421727","red","green","","","","","","","","","","200","","","","","","[{""stimulus"":""img/red_lw/1.jpg"",""time"":50},{""stimulus"":""img/red_lw/2.jpg"",""time"":101},{""stimulus"":""img/red_lw/3.jpg"",""time"":151},{""stimulus"":""img/red_lw/4.jpg"",""time"":202},{""stimulus"":""img/red_lw/5.jpg"",""time"":251},{""stimulus"":""img/red_lw/6.jpg"",""time"":301},{""stimulus"":""img/red_lw/7.jpg"",""time"":350},{""stimulus"":""img/red_lw/8.jpg"",""time"":400},{""stimulus"":""img/red_lw/9.jpg"",""time"":450},{""stimulus"":""img/red_lw/10.jpg"",""time"":500},{""stimulus"":""img/red_lw/11.jpg"",""time"":552}]","[]"
"image-keyboard-response","56","50918","0.0-5.0-1.26","63d85999228b7d6b636dd96c","bdp_lott","Mon Mar 27 2023 11:50:14 GMT-0500 (Central Daylight Time)","421727","red","green","","822","","","","choice","","img/red_lw/choose11.jpg","2","199","red","0.5","0.5","0.5","w","",""
"animation","57","51519","0.0-5.0-2.26","63d85999228b7d6b636dd96c","bdp_lott","Mon Mar 27 2023 11:50:14 GMT-0500 (Central Daylight Time)","421727","red","green","","","","","","","","","","199","","","","","","[{""stimulus"":""img/red_lw/1.jpg"",""time"":50},{""stimulus"":""img/red_lw/2.jpg"",""time"":100},{""stimulus"":""img/red_lw/3.jpg"",""time"":150},{""stimulus"":""img/red_lw/4.jpg"",""time"":200},{""stimulus"":""img/red_lw/5.jpg"",""time"":251},{""stimulus"":""img/red_lw/6.jpg"",""time"":301},{""stimulus"":""img/red_lw/7.jpg"",""time"":350},{""stimulus"":""img/red_lw/8.jpg"",""time"":401},{""stimulus"":""img/red_lw/9.jpg"",""time"":452},{""stimulus"":""img/red_lw/10.jpg"",""time"":502},{""stimulus"":""img/red_lw/11.jpg"",""time"":551}]","[]"
"image-keyboard-response","58","52205","0.0-5.0-1.27","63d85999228b7d6b636dd96c","bdp_lott","Mon Mar 27 2023 11:50:14 GMT-0500 (Central Daylight Time)","421727","red","green","","686","","","","choice","","img/red_lw/choose11.jpg","1","198","green","0.5","0.5","0.5","l","",""
"animation","59","52807","0.0-5.0-2.27","63d85999228b7d6b636dd96c","bdp_lott","Mon Mar 27 2023 11:50:14 GMT-0500 (Central Daylight Time)","421727","red","green","","","","","","","","","","198","","","","","","[{""stimulus"":""img/green_lw/1.jpg"",""time"":52},{""stimulus"":""img/green_lw/2.jpg"",""time"":100},{""stimulus"":""img/green_lw/3.jpg"",""time"":151},{""stimulus"":""img/green_lw/4.jpg"",""time"":201},{""stimulus"":""img/green_lw/5.jpg"",""time"":251},{""stimulus"":""img/green_lw/6.jpg"",""time"":301},{""stimulus"":""img/green_lw/7.jpg"",""time"":352},{""stimulus"":""img/green_lw/8.jpg"",""time"":402},{""stimulus"":""img/green_lw/9.jpg"",""time"":450},{""stimulus"":""img/green_lw/10.jpg"",""time"":501},{""stimulus"":""img/green_lw/11.jpg"",""time"":551}]","[]"
"image-keyboard-response","60","53654","0.0-5.0-1.28","63d85999228b7d6b636dd96c","bdp_lott","Mon Mar 27 2023 11:50:14 GMT-0500 (Central Daylight Time)","421727","red","green","","846","","","","choice","","img/green_lw/choose11.jpg","2","197","red","0.5","0.5","0.5","l","",""
"animation","61","54255","0.0-5.0-2.28","63d85999228b7d6b636dd96c","bdp_lott","Mon Mar 27 2023 11:50:14 GMT-0500 (Central Daylight Time)","421727","red","green","","","","","","","","","","197","","","","","","[{""stimulus"":""img/red_ll/1.jpg"",""time"":52},{""stimulus"":""img/red_ll/2.jpg"",""time"":100},{""stimulus"":""img/red_ll/3.jpg"",""time"":151},{""stimulus"":""img/red_ll/4.jpg"",""time"":201},{""stimulus"":""img/red_ll/5.jpg"",""time"":251},{""stimulus"":""img/red_ll/6.jpg"",""time"":302},{""stimulus"":""img/red_ll/7.jpg"",""time"":352},{""stimulus"":""img/red_ll/8.jpg"",""time"":401},{""stimulus"":""img/red_ll/9.jpg"",""time"":451},{""stimulus"":""img/red_ll/10.jpg"",""time"":500},{""stimulus"":""img/red_ll/11.jpg"",""time"":550}]","[]"
"image-keyboard-response","62","55182","0.0-5.0-1.29","63d85999228b7d6b636dd96c","bdp_lott","Mon Mar 27 2023 11:50:14 GMT-0500 (Central Daylight Time)","421727","red","green","","927","","","","choice","","img/red_ll/choose11.jpg","1","196","green","0.5","0.5","0.5","l","",""
"animation","63","55782","0.0-5.0-2.29","63d85999228b7d6b636dd96c","bdp_lott","Mon Mar 27 2023 11:50:14 GMT-0500 (Central Daylight Time)","421727","red","green","","","","","","","","","","196","","","","","","[{""stimulus"":""img/green_ll/1.jpg"",""time"":50},{""stimulus"":""img/green_ll/2.jpg"",""time"":100},{""stimulus"":""img/green_ll/3.jpg"",""time"":150},{""stimulus"":""img/green_ll/4.jpg"",""time"":200},{""stimulus"":""img/green_ll/5.jpg"",""time"":251},{""stimulus"":""img/green_ll/6.jpg"",""time"":301},{""stimulus"":""img/green_ll/7.jpg"",""time"":351},{""stimulus"":""img/green_ll/8.jpg"",""time"":402},{""stimulus"":""img/green_ll/9.jpg"",""time"":450},{""stimulus"":""img/green_ll/10.jpg"",""time"":500},{""stimulus"":""img/green_ll/11.jpg"",""time"":550}]","[]"
"image-keyboard-response","64","57582","0.0-5.0-1.30","63d85999228b7d6b636dd96c","bdp_lott","Mon Mar 27 2023 11:50:14 GMT-0500 (Central Daylight Time)","421727","red","green","","1799","","","","choice","","img/green_ll/choose11.jpg","2","195","red","0.5","0.5","0.5","w","",""
"animation","65","58184","0.0-5.0-2.30","63d85999228b7d6b636dd96c","bdp_lott","Mon Mar 27 2023 11:50:14 GMT-0500 (Central Daylight Time)","421727","red","green","","","","","","","","","","195","","","","","","[{""stimulus"":""img/red_lw/1.jpg"",""time"":51},{""stimulus"":""img/red_lw/2.jpg"",""time"":101},{""stimulus"":""img/red_lw/3.jpg"",""time"":150},{""stimulus"":""img/red_lw/4.jpg"",""time"":201},{""stimulus"":""img/red_lw/5.jpg"",""time"":251},{""stimulus"":""img/red_lw/6.jpg"",""time"":301},{""stimulus"":""img/red_lw/7.jpg"",""time"":352},{""stimulus"":""img/red_lw/8.jpg"",""time"":402},{""stimulus"":""img/red_lw/9.jpg"",""time"":450},{""stimulus"":""img/red_lw/10.jpg"",""time"":500},{""stimulus"":""img/red_lw/11.jpg"",""time"":550}]","[]"
"image-keyboard-response","66","58870","0.0-5.0-1.31","63d85999228b7d6b636dd96c","bdp_lott","Mon Mar 27 2023 11:50:14 GMT-0500 (Central Daylight Time)","421727","red","green","","686","","","","choice","","img/red_lw/choose11.jpg","1","194","green","0.5","0.5","0.5","l","",""
"animation","67","59471","0.0-5.0-2.31","63d85999228b7d6b636dd96c","bdp_lott","Mon Mar 27 2023 11:50:14 GMT-0500 (Central Daylight Time)","421727","red","green","","","","","","","","","","194","","","","","","[{""stimulus"":""img/green_lw/1.jpg"",""time"":50},{""stimulus"":""img/green_lw/2.jpg"",""time"":100},{""stimulus"":""img/green_lw/3.jpg"",""time"":150},{""stimulus"":""img/green_lw/4.jpg"",""time"":200},{""stimulus"":""img/green_lw/5.jpg"",""time"":250},{""stimulus"":""img/green_lw/6.jpg"",""time"":301},{""stimulus"":""img/green_lw/7.jpg"",""time"":350},{""stimulus"":""img/green_lw/8.jpg"",""time"":401},{""stimulus"":""img/green_lw/9.jpg"",""time"":451},{""stimulus"":""img/green_lw/10.jpg"",""time"":501},{""stimulus"":""img/green_lw/11.jpg"",""time"":551}]","[]"
"image-keyboard-response","68","61917","0.0-5.0-1.32","63d85999228b7d6b636dd96c","bdp_lott","Mon Mar 27 2023 11:50:14 GMT-0500 (Central Daylight Time)","421727","red","green","","2446","","","","choice","","img/green_lw/choose11.jpg","2","193","red","0.5","0.5","0.5","w","",""
"animation","69","62519","0.0-5.0-2.32","63d85999228b7d6b636dd96c","bdp_lott","Mon Mar 27 2023 11:50:14 GMT-0500 (Central Daylight Time)","421727","red","green","","","","","","","","","","193","","","","","","[{""stimulus"":""img/red_lw/1.jpg"",""time"":50},{""stimulus"":""img/red_lw/2.jpg"",""time"":101},{""stimulus"":""img/red_lw/3.jpg"",""time"":151},{""stimulus"":""img/red_lw/4.jpg"",""time"":200},{""stimulus"":""img/red_lw/5.jpg"",""time"":252},{""stimulus"":""img/red_lw/6.jpg"",""time"":301},{""stimulus"":""img/red_lw/7.jpg"",""time"":351},{""stimulus"":""img/red_lw/8.jpg"",""time"":400},{""stimulus"":""img/red_lw/9.jpg"",""time"":450},{""stimulus"":""img/red_lw/10.jpg"",""time"":500},{""stimulus"":""img/red_lw/11.jpg"",""time"":550}]","[]"
"image-keyboard-response","70","63390","0.0-5.0-1.33","63d85999228b7d6b636dd96c","bdp_lott","Mon Mar 27 2023 11:50:14 GMT-0500 (Central Daylight Time)","421727","red","green","","871","","","","choice","","img/red_lw/choose11.jpg","1","192","green","0.5","0.5","0.5","l","",""
"animation","71","63990","0.0-5.0-2.33","63d85999228b7d6b636dd96c","bdp_lott","Mon Mar 27 2023 11:50:14 GMT-0500 (Central Daylight Time)","421727","red","green","","","","","","","","","","192","","","","","","[{""stimulus"":""img/green_lw/1.jpg"",""time"":51},{""stimulus"":""img/green_lw/2.jpg"",""time"":101},{""stimulus"":""img/green_lw/3.jpg"",""time"":150},{""stimulus"":""img/green_lw/4.jpg"",""time"":201},{""stimulus"":""img/green_lw/5.jpg"",""time"":252},{""stimulus"":""img/green_lw/6.jpg"",""time"":302},{""stimulus"":""img/green_lw/7.jpg"",""time"":351},{""stimulus"":""img/green_lw/8.jpg"",""time"":401},{""stimulus"":""img/green_lw/9.jpg"",""time"":451},{""stimulus"":""img/green_lw/10.jpg"",""time"":500},{""stimulus"":""img/green_lw/11.jpg"",""time"":550}]","[]"
"image-keyboard-response","72","64958","0.0-5.0-1.34","63d85999228b7d6b636dd96c","bdp_lott","Mon Mar 27 2023 11:50:14 GMT-0500 (Central Daylight Time)","421727","red","green","","967","","","","choice","","img/green_lw/choose11.jpg","2","191","red","0.5","0.5","0.5","w","",""
"animation","73","65559","0.0-5.0-2.34","63d85999228b7d6b636dd96c","bdp_lott","Mon Mar 27 2023 11:50:14 GMT-0500 (Central Daylight Time)","421727","red","green","","","","","","","","","","191","","","","","","[{""stimulus"":""img/red_lw/1.jpg"",""time"":51},{""stimulus"":""img/red_lw/2.jpg"",""time"":101},{""stimulus"":""img/red_lw/3.jpg"",""time"":151},{""stimulus"":""img/red_lw/4.jpg"",""time"":201},{""stimulus"":""img/red_lw/5.jpg"",""time"":251},{""stimulus"":""img/red_lw/6.jpg"",""time"":301},{""stimulus"":""img/red_lw/7.jpg"",""time"":351},{""stimulus"":""img/red_lw/8.jpg"",""time"":401},{""stimulus"":""img/red_lw/9.jpg"",""time"":450},{""stimulus"":""img/red_lw/10.jpg"",""time"":501},{""stimulus"":""img/red_lw/11.jpg"",""time"":552}]","[]"
"image-keyboard-response","74","66878","0.0-5.0-1.35","63d85999228b7d6b636dd96c","bdp_lott","Mon Mar 27 2023 11:50:14 GMT-0500 (Central Daylight Time)","421727","red","green","","1319","","","","choice","","img/red_lw/choose11.jpg","2","190","red","0.5","0.5","0.5","w","",""
"animation","75","67480","0.0-5.0-2.35","63d85999228b7d6b636dd96c","bdp_lott","Mon Mar 27 2023 11:50:14 GMT-0500 (Central Daylight Time)","421727","red","green","","","","","","","","","","190","","","","","","[{""stimulus"":""img/red_lw/1.jpg"",""time"":52},{""stimulus"":""img/red_lw/2.jpg"",""time"":101},{""stimulus"":""img/red_lw/3.jpg"",""time"":151},{""stimulus"":""img/red_lw/4.jpg"",""time"":201},{""stimulus"":""img/red_lw/5.jpg"",""time"":251},{""stimulus"":""img/red_lw/6.jpg"",""time"":300},{""stimulus"":""img/red_lw/7.jpg"",""time"":350},{""stimulus"":""img/red_lw/8.jpg"",""time"":401},{""stimulus"":""img/red_lw/9.jpg"",""time"":452},{""stimulus"":""img/red_lw/10.jpg"",""time"":501},{""stimulus"":""img/red_lw/11.jpg"",""time"":551}]","[]"
"image-keyboard-response","76","68566","0.0-5.0-1.36","63d85999228b7d6b636dd96c","bdp_lott","Mon Mar 27 2023 11:50:14 GMT-0500 (Central Daylight Time)","421727","red","green","","1085","","","","choice","","img/red_lw/choose11.jpg","1","189","green","0.5","0.5","0.5","w","",""
"animation","77","69166","0.0-5.0-2.36","63d85999228b7d6b636dd96c","bdp_lott","Mon Mar 27 2023 11:50:14 GMT-0500 (Central Daylight Time)","421727","red","green","","","","","","","","","","189","","","","","","[{""stimulus"":""img/green_ww/1.jpg"",""time"":52},{""stimulus"":""img/green_ww/2.jpg"",""time"":102},{""stimulus"":""img/green_ww/3.jpg"",""time"":162},{""stimulus"":""img/green_ww/4.jpg"",""time"":200},{""stimulus"":""img/green_ww/5.jpg"",""time"":251},{""stimulus"":""img/green_ww/6.jpg"",""time"":301},{""stimulus"":""img/green_ww/7.jpg"",""time"":351},{""stimulus"":""img/green_ww/8.jpg"",""time"":401},{""stimulus"":""img/green_ww/9.jpg"",""time"":450},{""stimulus"":""img/green_ww/10.jpg"",""time"":500},{""stimulus"":""img/green_ww/11.jpg"",""time"":551}]","[]"
"image-keyboard-response","78","69550","0.0-5.0-1.37","63d85999228b7d6b636dd96c","bdp_lott","Mon Mar 27 2023 11:50:14 GMT-0500 (Central Daylight Time)","421727","red","green","","384","","","","choice","","img/green_ww/choose11.jpg","2","188","red","0.5","0.5","0.5","l","",""
"animation","79","70151","0.0-5.0-2.37","63d85999228b7d6b636dd96c","bdp_lott","Mon Mar 27 2023 11:50:14 GMT-0500 (Central Daylight Time)","421727","red","green","","","","","","","","","","188","","","","","","[{""stimulus"":""img/red_wl/1.jpg"",""time"":51},{""stimulus"":""img/red_wl/2.jpg"",""time"":101},{""stimulus"":""img/red_wl/3.jpg"",""time"":150},{""stimulus"":""img/red_wl/4.jpg"",""time"":201},{""stimulus"":""img/red_wl/5.jpg"",""time"":250},{""stimulus"":""img/red_wl/6.jpg"",""time"":300},{""stimulus"":""img/red_wl/7.jpg"",""time"":350},{""stimulus"":""img/red_wl/8.jpg"",""time"":401},{""stimulus"":""img/red_wl/9.jpg"",""time"":450},{""stimulus"":""img/red_wl/10.jpg"",""time"":502},{""stimulus"":""img/red_wl/11.jpg"",""time"":550}]","[]"
"image-keyboard-response","80","71262","0.0-5.0-1.38","63d85999228b7d6b636dd96c","bdp_lott","Mon Mar 27 2023 11:50:14 GMT-0500 (Central Daylight Time)","421727","red","green","","1111","","","","choice","","img/red_wl/choose11.jpg","1","187","green","0.5","0.5","0.5","w","",""
"animation","81","71862","0.0-5.0-2.38","63d85999228b7d6b636dd96c","bdp_lott","Mon Mar 27 2023 11:50:14 GMT-0500 (Central Daylight Time)","421727","red","green","","","","","","","","","","187","","","","","","[{""stimulus"":""img/green_wl/1.jpg"",""time"":51},{""stimulus"":""img/green_wl/2.jpg"",""time"":101},{""stimulus"":""img/green_wl/3.jpg"",""time"":151},{""stimulus"":""img/green_wl/4.jpg"",""time"":202},{""stimulus"":""img/green_wl/5.jpg"",""time"":251},{""stimulus"":""img/green_wl/6.jpg"",""time"":302},{""stimulus"":""img/green_wl/7.jpg"",""time"":352},{""stimulus"":""img/green_wl/8.jpg"",""time"":400},{""stimulus"":""img/green_wl/9.jpg"",""time"":450},{""stimulus"":""img/green_wl/10.jpg"",""time"":500},{""stimulus"":""img/green_wl/11.jpg"",""time"":552}]","[]"
"image-keyboard-response","82","72582","0.0-5.0-1.39","63d85999228b7d6b636dd96c","bdp_lott","Mon Mar 27 2023 11:50:14 GMT-0500 (Central Daylight Time)","421727","red","green","","719","","","","choice","","img/green_wl/choose11.jpg","2","186","red","0.5","0.5","0.5","w","",""
"animation","83","73183","0.0-5.0-2.39","63d85999228b7d6b636dd96c","bdp_lott","Mon Mar 27 2023 11:50:14 GMT-0500 (Central Daylight Time)","421727","red","green","","","","","","","","","","186","","","","","","[{""stimulus"":""img/red_ww/1.jpg"",""time"":51},{""stimulus"":""img/red_ww/2.jpg"",""time"":102},{""stimulus"":""img/red_ww/3.jpg"",""time"":151},{""stimulus"":""img/red_ww/4.jpg"",""time"":200},{""stimulus"":""img/red_ww/5.jpg"",""time"":250},{""stimulus"":""img/red_ww/6.jpg"",""time"":300},{""stimulus"":""img/red_ww/7.jpg"",""time"":352},{""stimulus"":""img/red_ww/8.jpg"",""time"":404},{""stimulus"":""img/red_ww/9.jpg"",""time"":451},{""stimulus"":""img/red_ww/10.jpg"",""time"":501},{""stimulus"":""img/red_ww/11.jpg"",""time"":551}]","[]"
"image-keyboard-response","84","74038","0.0-5.0-1.40","63d85999228b7d6b636dd96c","bdp_lott","Mon Mar 27 2023 11:50:14 GMT-0500 (Central Daylight Time)","421727","red","green","","854","","","","choice","","img/red_ww/choose11.jpg","1","185","green","0.5","0.5","0.5","w","",""
"animation","85","74639","0.0-5.0-2.40","63d85999228b7d6b636dd96c","bdp_lott","Mon Mar 27 2023 11:50:14 GMT-0500 (Central Daylight Time)","421727","red","green","","","","","","","","","","185","","","","","","[{""stimulus"":""img/green_ww/1.jpg"",""time"":51},{""stimulus"":""img/green_ww/2.jpg"",""time"":101},{""stimulus"":""img/green_ww/3.jpg"",""time"":151},{""stimulus"":""img/green_ww/4.jpg"",""time"":201},{""stimulus"":""img/green_ww/5.jpg"",""time"":251},{""stimulus"":""img/green_ww/6.jpg"",""time"":301},{""stimulus"":""img/green_ww/7.jpg"",""time"":350},{""stimulus"":""img/green_ww/8.jpg"",""time"":401},{""stimulus"":""img/green_ww/9.jpg"",""time"":450},{""stimulus"":""img/green_ww/10.jpg"",""time"":501},{""stimulus"":""img/green_ww/11.jpg"",""time"":551}]","[]"
"image-keyboard-response","86","75558","0.0-5.0-1.41","63d85999228b7d6b636dd96c","bdp_lott","Mon Mar 27 2023 11:50:14 GMT-0500 (Central Daylight Time)","421727","red","green","","919","","","","choice","","img/green_ww/choose11.jpg","1","184","green","0.5","0.5","0.5","w","",""
"animation","87","76159","0.0-5.0-2.41","63d85999228b7d6b636dd96c","bdp_lott","Mon Mar 27 2023 11:50:14 GMT-0500 (Central Daylight Time)","421727","red","green","","","","","","","","","","184","","","","","","[{""stimulus"":""img/green_ww/1.jpg"",""time"":50},{""stimulus"":""img/green_ww/2.jpg"",""time"":100},{""stimulus"":""img/green_ww/3.jpg"",""time"":150},{""stimulus"":""img/green_ww/4.jpg"",""time"":200},{""stimulus"":""img/green_ww/5.jpg"",""time"":250},{""stimulus"":""img/green_ww/6.jpg"",""time"":300},{""stimulus"":""img/green_ww/7.jpg"",""time"":351},{""stimulus"":""img/green_ww/8.jpg"",""time"":400},{""stimulus"":""img/green_ww/9.jpg"",""time"":451},{""stimulus"":""img/green_ww/10.jpg"",""time"":501},{""stimulus"":""img/green_ww/11.jpg"",""time"":551}]","[]"
"image-keyboard-response","88","76894","0.0-5.0-1.42","63d85999228b7d6b636dd96c","bdp_lott","Mon Mar 27 2023 11:50:14 GMT-0500 (Central Daylight Time)","421727","red","green","","735","","","","choice","","img/green_ww/choose11.jpg","2","183","red","0.5","0.5","0.5","w","",""
"animation","89","77494","0.0-5.0-2.42","63d85999228b7d6b636dd96c","bdp_lott","Mon Mar 27 2023 11:50:14 GMT-0500 (Central Daylight Time)","421727","red","green","","","","","","","","","","183","","","","","","[{""stimulus"":""img/red_ww/1.jpg"",""time"":50},{""stimulus"":""img/red_ww/2.jpg"",""time"":100},{""stimulus"":""img/red_ww/3.jpg"",""time"":151},{""stimulus"":""img/red_ww/4.jpg"",""time"":200},{""stimulus"":""img/red_ww/5.jpg"",""time"":250},{""stimulus"":""img/red_ww/6.jpg"",""time"":300},{""stimulus"":""img/red_ww/7.jpg"",""time"":351},{""stimulus"":""img/red_ww/8.jpg"",""time"":401},{""stimulus"":""img/red_ww/9.jpg"",""time"":450},{""stimulus"":""img/red_ww/10.jpg"",""time"":500},{""stimulus"":""img/red_ww/11.jpg"",""time"":550}]","[]"
"image-keyboard-response","90","78286","0.0-5.0-1.43","63d85999228b7d6b636dd96c","bdp_lott","Mon Mar 27 2023 11:50:14 GMT-0500 (Central Daylight Time)","421727","red","green","","790","","","","choice","","img/red_ww/choose11.jpg","1","182","green","0.5","0.5","0.5","w","",""
"animation","91","78887","0.0-5.0-2.43","63d85999228b7d6b636dd96c","bdp_lott","Mon Mar 27 2023 11:50:14 GMT-0500 (Central Daylight Time)","421727","red","green","","","","","","","","","","182","","","","","","[{""stimulus"":""img/green_ww/1.jpg"",""time"":50},{""stimulus"":""img/green_ww/2.jpg"",""time"":101},{""stimulus"":""img/green_ww/3.jpg"",""time"":150},{""stimulus"":""img/green_ww/4.jpg"",""time"":200},{""stimulus"":""img/green_ww/5.jpg"",""time"":250},{""stimulus"":""img/green_ww/6.jpg"",""time"":301},{""stimulus"":""img/green_ww/7.jpg"",""time"":351},{""stimulus"":""img/green_ww/8.jpg"",""time"":401},{""stimulus"":""img/green_ww/9.jpg"",""time"":451},{""stimulus"":""img/green_ww/10.jpg"",""time"":500},{""stimulus"":""img/green_ww/11.jpg"",""time"":550}]","[]"
"image-keyboard-response","92","79838","0.0-5.0-1.44","63d85999228b7d6b636dd96c","bdp_lott","Mon Mar 27 2023 11:50:14 GMT-0500 (Central Daylight Time)","421727","red","green","","951","","","","choice","","img/green_ww/choose11.jpg","2","181","red","0.5","0.5","0.5","w","",""
"animation","93","80440","0.0-5.0-2.44","63d85999228b7d6b636dd96c","bdp_lott","Mon Mar 27 2023 11:50:14 GMT-0500 (Central Daylight Time)","421727","red","green","","","","","","","","","","181","","","","","","[{""stimulus"":""img/red_ww/1.jpg"",""time"":51},{""stimulus"":""img/red_ww/2.jpg"",""time"":101},{""stimulus"":""img/red_ww/3.jpg"",""time"":152},{""stimulus"":""img/red_ww/4.jpg"",""time"":201},{""stimulus"":""img/red_ww/5.jpg"",""time"":251},{""stimulus"":""img/red_ww/6.jpg"",""time"":301},{""stimulus"":""img/red_ww/7.jpg"",""time"":351},{""stimulus"":""img/red_ww/8.jpg"",""time"":401},{""stimulus"":""img/red_ww/9.jpg"",""time"":451},{""stimulus"":""img/red_ww/10.jpg"",""time"":501},{""stimulus"":""img/red_ww/11.jpg"",""time"":551}]","[]"
"image-keyboard-response","94","81285","0.0-5.0-1.45","63d85999228b7d6b636dd96c","bdp_lott","Mon Mar 27 2023 11:50:14 GMT-0500 (Central Daylight Time)","421727","red","green","","845","","","","choice","","img/red_ww/choose11.jpg","1","180","green","0.5","0.5","0.5","l","",""
"animation","95","81887","0.0-5.0-2.45","63d85999228b7d6b636dd96c","bdp_lott","Mon Mar 27 2023 11:50:14 GMT-0500 (Central Daylight Time)","421727","red","green","","","","","","","","","","180","","","","","","[{""stimulus"":""img/green_lw/1.jpg"",""time"":50},{""stimulus"":""img/green_lw/2.jpg"",""time"":101},{""stimulus"":""img/green_lw/3.jpg"",""time"":151},{""stimulus"":""img/green_lw/4.jpg"",""time"":201},{""stimulus"":""img/green_lw/5.jpg"",""time"":250},{""stimulus"":""img/green_lw/6.jpg"",""time"":301},{""stimulus"":""img/green_lw/7.jpg"",""time"":351},{""stimulus"":""img/green_lw/8.jpg"",""time"":400},{""stimulus"":""img/green_lw/9.jpg"",""time"":450},{""stimulus"":""img/green_lw/10.jpg"",""time"":501},{""stimulus"":""img/green_lw/11.jpg"",""time"":551}]","[]"
"image-keyboard-response","96","82669","0.0-5.0-1.46","63d85999228b7d6b636dd96c","bdp_lott","Mon Mar 27 2023 11:50:14 GMT-0500 (Central Daylight Time)","421727","red","green","","782","","","","choice","","img/green_lw/choose11.jpg","2","179","red","0.5","0.5","0.5","w","",""
"animation","97","83271","0.0-5.0-2.46","63d85999228b7d6b636dd96c","bdp_lott","Mon Mar 27 2023 11:50:14 GMT-0500 (Central Daylight Time)","421727","red","green","","","","","","","","","","179","","","","","","[{""stimulus"":""img/red_lw/1.jpg"",""time"":51},{""stimulus"":""img/red_lw/2.jpg"",""time"":100},{""stimulus"":""img/red_lw/3.jpg"",""time"":151},{""stimulus"":""img/red_lw/4.jpg"",""time"":201},{""stimulus"":""img/red_lw/5.jpg"",""time"":251},{""stimulus"":""img/red_lw/6.jpg"",""time"":301},{""stimulus"":""img/red_lw/7.jpg"",""time"":351},{""stimulus"":""img/red_lw/8.jpg"",""time"":401},{""stimulus"":""img/red_lw/9.jpg"",""time"":451},{""stimulus"":""img/red_lw/10.jpg"",""time"":501},{""stimulus"":""img/red_lw/11.jpg"",""time"":551}]","[]"
"image-keyboard-response","98","83774","0.0-5.0-1.47","63d85999228b7d6b636dd96c","bdp_lott","Mon Mar 27 2023 11:50:14 GMT-0500 (Central Daylight Time)","421727","red","green","","503","","","","choice","","img/red_lw/choose11.jpg","1","178","green","0.5","0.5","0.5","w","",""
"animation","99","84375","0.0-5.0-2.47","63d85999228b7d6b636dd96c","bdp_lott","Mon Mar 27 2023 11:50:14 GMT-0500 (Central Daylight Time)","421727","red","green","","","","","","","","","","178","","","","","","[{""stimulus"":""img/green_ww/1.jpg"",""time"":51},{""stimulus"":""img/green_ww/2.jpg"",""time"":101},{""stimulus"":""img/green_ww/3.jpg"",""time"":151},{""stimulus"":""img/green_ww/4.jpg"",""time"":201},{""stimulus"":""img/green_ww/5.jpg"",""time"":251},{""stimulus"":""img/green_ww/6.jpg"",""time"":301},{""stimulus"":""img/green_ww/7.jpg"",""time"":351},{""stimulus"":""img/green_ww/8.jpg"",""time"":401},{""stimulus"":""img/green_ww/9.jpg"",""time"":451},{""stimulus"":""img/green_ww/10.jpg"",""time"":501},{""stimulus"":""img/green_ww/11.jpg"",""time"":551}]","[]"
"image-keyboard-response","100","84838","0.0-5.0-1.48","63d85999228b7d6b636dd96c","bdp_lott","Mon Mar 27 2023 11:50:14 GMT-0500 (Central Daylight Time)","421727","red","green","","462","","","","choice","","img/green_ww/choose11.jpg","2","177","red","0.5","0.5","0.5","w","",""
"animation","101","85438","0.0-5.0-2.48","63d85999228b7d6b636dd96c","bdp_lott","Mon Mar 27 2023 11:50:14 GMT-0500 (Central Daylight Time)","421727","red","green","","","","","","","","","","177","","","","","","[{""stimulus"":""img/red_ww/1.jpg"",""time"":51},{""stimulus"":""img/red_ww/2.jpg"",""time"":100},{""stimulus"":""img/red_ww/3.jpg"",""time"":150},{""stimulus"":""img/red_ww/4.jpg"",""time"":200},{""stimulus"":""img/red_ww/5.jpg"",""time"":251},{""stimulus"":""img/red_ww/6.jpg"",""time"":301},{""stimulus"":""img/red_ww/7.jpg"",""time"":351},{""stimulus"":""img/red_ww/8.jpg"",""time"":401},{""stimulus"":""img/red_ww/9.jpg"",""time"":451},{""stimulus"":""img/red_ww/10.jpg"",""time"":501},{""stimulus"":""img/red_ww/11.jpg"",""time"":551}]","[]"
"image-keyboard-response","102","85830","0.0-5.0-1.49","63d85999228b7d6b636dd96c","bdp_lott","Mon Mar 27 2023 11:50:14 GMT-0500 (Central Daylight Time)","421727","red","green","","391","","","","choice","","img/red_ww/choose11.jpg","2","176","red","0.5","0.5","0.5","w","",""
"animation","103","86431","0.0-5.0-2.49","63d85999228b7d6b636dd96c","bdp_lott","Mon Mar 27 2023 11:50:14 GMT-0500 (Central Daylight Time)","421727","red","green","","","","","","","","","","176","","","","","","[{""stimulus"":""img/red_ww/1.jpg"",""time"":50},{""stimulus"":""img/red_ww/2.jpg"",""time"":101},{""stimulus"":""img/red_ww/3.jpg"",""time"":150},{""stimulus"":""img/red_ww/4.jpg"",""time"":200},{""stimulus"":""img/red_ww/5.jpg"",""time"":251},{""stimulus"":""img/red_ww/6.jpg"",""time"":301},{""stimulus"":""img/red_ww/7.jpg"",""time"":351},{""stimulus"":""img/red_ww/8.jpg"",""time"":401},{""stimulus"":""img/red_ww/9.jpg"",""time"":451},{""stimulus"":""img/red_ww/10.jpg"",""time"":501},{""stimulus"":""img/red_ww/11.jpg"",""time"":551}]","[]"
"image-keyboard-response","104","86797","0.0-5.0-1.50","63d85999228b7d6b636dd96c","bdp_lott","Mon Mar 27 2023 11:50:14 GMT-0500 (Central Daylight Time)","421727","red","green","","366","","","","choice","","img/red_ww/choose11.jpg","1","175","green","0.5","0.5","0.5","w","",""
"animation","105","87398","0.0-5.0-2.50","63d85999228b7d6b636dd96c","bdp_lott","Mon Mar 27 2023 11:50:14 GMT-0500 (Central Daylight Time)","421727","red","green","","","","","","","","","","175","","","","","","[{""stimulus"":""img/green_ww/1.jpg"",""time"":51},{""stimulus"":""img/green_ww/2.jpg"",""time"":100},{""stimulus"":""img/green_ww/3.jpg"",""time"":151},{""stimulus"":""img/green_ww/4.jpg"",""time"":201},{""stimulus"":""img/green_ww/5.jpg"",""time"":250},{""stimulus"":""img/green_ww/6.jpg"",""time"":302},{""stimulus"":""img/green_ww/7.jpg"",""time"":350},{""stimulus"":""img/green_ww/8.jpg"",""time"":400},{""stimulus"":""img/green_ww/9.jpg"",""time"":450},{""stimulus"":""img/green_ww/10.jpg"",""time"":501},{""stimulus"":""img/green_ww/11.jpg"",""time"":552}]","[]"
"image-keyboard-response","106","87894","0.0-5.0-1.51","63d85999228b7d6b636dd96c","bdp_lott","Mon Mar 27 2023 11:50:14 GMT-0500 (Central Daylight Time)","421727","red","green","","496","","","","choice","","img/green_ww/choose11.jpg","2","174","red","0.5","0.5","0.5","w","",""
"animation","107","88495","0.0-5.0-2.51","63d85999228b7d6b636dd96c","bdp_lott","Mon Mar 27 2023 11:50:14 GMT-0500 (Central Daylight Time)","421727","red","green","","","","","","","","","","174","","","","","","[{""stimulus"":""img/red_ww/1.jpg"",""time"":50},{""stimulus"":""img/red_ww/2.jpg"",""time"":101},{""stimulus"":""img/red_ww/3.jpg"",""time"":151},{""stimulus"":""img/red_ww/4.jpg"",""time"":202},{""stimulus"":""img/red_ww/5.jpg"",""time"":252},{""stimulus"":""img/red_ww/6.jpg"",""time"":301},{""stimulus"":""img/red_ww/7.jpg"",""time"":351},{""stimulus"":""img/red_ww/8.jpg"",""time"":401},{""stimulus"":""img/red_ww/9.jpg"",""time"":451},{""stimulus"":""img/red_ww/10.jpg"",""time"":501},{""stimulus"":""img/red_ww/11.jpg"",""time"":552}]","[]"
"image-keyboard-response","108","89157","0.0-5.0-1.52","63d85999228b7d6b636dd96c","bdp_lott","Mon Mar 27 2023 11:50:14 GMT-0500 (Central Daylight Time)","421727","red","green","","662","","","","choice","","img/red_ww/choose11.jpg","1","173","green","0.5","0.5","0.5","l","",""
"animation","109","89759","0.0-5.0-2.52","63d85999228b7d6b636dd96c","bdp_lott","Mon Mar 27 2023 11:50:14 GMT-0500 (Central Daylight Time)","421727","red","green","","","","","","","","","","173","","","","","","[{""stimulus"":""img/green_lw/1.jpg"",""time"":51},{""stimulus"":""img/green_lw/2.jpg"",""time"":100},{""stimulus"":""img/green_lw/3.jpg"",""time"":151},{""stimulus"":""img/green_lw/4.jpg"",""time"":201},{""stimulus"":""img/green_lw/5.jpg"",""time"":251},{""stimulus"":""img/green_lw/6.jpg"",""time"":301},{""stimulus"":""img/green_lw/7.jpg"",""time"":351},{""stimulus"":""img/green_lw/8.jpg"",""time"":400},{""stimulus"":""img/green_lw/9.jpg"",""time"":452},{""stimulus"":""img/green_lw/10.jpg"",""time"":501},{""stimulus"":""img/green_lw/11.jpg"",""time"":550}]","[]"
"image-keyboard-response","110","90613","0.0-5.0-1.53","63d85999228b7d6b636dd96c","bdp_lott","Mon Mar 27 2023 11:50:14 GMT-0500 (Central Daylight Time)","421727","red","green","","854","","","","choice","","img/green_lw/choose11.jpg","2","172","red","0.5","0.5","0.5","w","",""
"animation","111","91214","0.0-5.0-2.53","63d85999228b7d6b636dd96c","bdp_lott","Mon Mar 27 2023 11:50:14 GMT-0500 (Central Daylight Time)","421727","red","green","","","","","","","","","","172","","","","","","[{""stimulus"":""img/red_lw/1.jpg"",""time"":51},{""stimulus"":""img/red_lw/2.jpg"",""time"":100},{""stimulus"":""img/red_lw/3.jpg"",""time"":150},{""stimulus"":""img/red_lw/4.jpg"",""time"":200},{""stimulus"":""img/red_lw/5.jpg"",""time"":251},{""stimulus"":""img/red_lw/6.jpg"",""time"":301},{""stimulus"":""img/red_lw/7.jpg"",""time"":352},{""stimulus"":""img/red_lw/8.jpg"",""time"":400},{""stimulus"":""img/red_lw/9.jpg"",""time"":451},{""stimulus"":""img/red_lw/10.jpg"",""time"":501},{""stimulus"":""img/red_lw/11.jpg"",""time"":551}]","[]"
"image-keyboard-response","112","91670","0.0-5.0-1.54","63d85999228b7d6b636dd96c","bdp_lott","Mon Mar 27 2023 11:50:14 GMT-0500 (Central Daylight Time)","421727","red","green","","454","","","","choice","","img/red_lw/choose11.jpg","1","171","green","0.5","0.5","0.5","w","",""
"animation","113","92271","0.0-5.0-2.54","63d85999228b7d6b636dd96c","bdp_lott","Mon Mar 27 2023 11:50:14 GMT-0500 (Central Daylight Time)","421727","red","green","","","","","","","","","","171","","","","","","[{""stimulus"":""img/green_ww/1.jpg"",""time"":50},{""stimulus"":""img/green_ww/2.jpg"",""time"":100},{""stimulus"":""img/green_ww/3.jpg"",""time"":151},{""stimulus"":""img/green_ww/4.jpg"",""time"":200},{""stimulus"":""img/green_ww/5.jpg"",""time"":251},{""stimulus"":""img/green_ww/6.jpg"",""time"":301},{""stimulus"":""img/green_ww/7.jpg"",""time"":350},{""stimulus"":""img/green_ww/8.jpg"",""time"":401},{""stimulus"":""img/green_ww/9.jpg"",""time"":451},{""stimulus"":""img/green_ww/10.jpg"",""time"":501},{""stimulus"":""img/green_ww/11.jpg"",""time"":551}]","[]"
"image-keyboard-response","114","93046","0.0-5.0-1.55","63d85999228b7d6b636dd96c","bdp_lott","Mon Mar 27 2023 11:50:14 GMT-0500 (Central Daylight Time)","421727","red","green","","775","","","","choice","","img/green_ww/choose11.jpg","2","170","red","0.5","0.5","0.5","w","",""
"animation","115","93647","0.0-5.0-2.55","63d85999228b7d6b636dd96c","bdp_lott","Mon Mar 27 2023 11:50:14 GMT-0500 (Central Daylight Time)","421727","red","green","","","","","","","","","","170","","","","","","[{""stimulus"":""img/red_ww/1.jpg"",""time"":52},{""stimulus"":""img/red_ww/2.jpg"",""time"":102},{""stimulus"":""img/red_ww/3.jpg"",""time"":150},{""stimulus"":""img/red_ww/4.jpg"",""time"":200},{""stimulus"":""img/red_ww/5.jpg"",""time"":250},{""stimulus"":""img/red_ww/6.jpg"",""time"":302},{""stimulus"":""img/red_ww/7.jpg"",""time"":351},{""stimulus"":""img/red_ww/8.jpg"",""time"":401},{""stimulus"":""img/red_ww/9.jpg"",""time"":450},{""stimulus"":""img/red_ww/10.jpg"",""time"":500},{""stimulus"":""img/red_ww/11.jpg"",""time"":550}]","[]"
"image-keyboard-response","116","94173","0.0-5.0-1.56","63d85999228b7d6b636dd96c","bdp_lott","Mon Mar 27 2023 11:50:14 GMT-0500 (Central Daylight Time)","421727","red","green","","526","","","","choice","","img/red_ww/choose11.jpg","1","169","green","0.5","0.5","0.5","w","",""
"animation","117","94774","0.0-5.0-2.56","63d85999228b7d6b636dd96c","bdp_lott","Mon Mar 27 2023 11:50:14 GMT-0500 (Central Daylight Time)","421727","red","green","","","","","","","","","","169","","","","","","[{""stimulus"":""img/green_ww/1.jpg"",""time"":52},{""stimulus"":""img/green_ww/2.jpg"",""time"":101},{""stimulus"":""img/green_ww/3.jpg"",""time"":152},{""stimulus"":""img/green_ww/4.jpg"",""time"":201},{""stimulus"":""img/green_ww/5.jpg"",""time"":251},{""stimulus"":""img/green_ww/6.jpg"",""time"":301},{""stimulus"":""img/green_ww/7.jpg"",""time"":351},{""stimulus"":""img/green_ww/8.jpg"",""time"":401},{""stimulus"":""img/green_ww/9.jpg"",""time"":450},{""stimulus"":""img/green_ww/10.jpg"",""time"":501},{""stimulus"":""img/green_ww/11.jpg"",""time"":551}]","[]"
"image-keyboard-response","118","95766","0.0-5.0-1.57","63d85999228b7d6b636dd96c","bdp_lott","Mon Mar 27 2023 11:50:14 GMT-0500 (Central Daylight Time)","421727","red","green","","991","","","","choice","","img/green_ww/choose11.jpg","1","168","green","0.5","0.5","0.5","w","",""
"animation","119","96366","0.0-5.0-2.57","63d85999228b7d6b636dd96c","bdp_lott","Mon Mar 27 2023 11:50:14 GMT-0500 (Central Daylight Time)","421727","red","green","","","","","","","","","","168","","","","","","[{""stimulus"":""img/green_ww/1.jpg"",""time"":51},{""stimulus"":""img/green_ww/2.jpg"",""time"":100},{""stimulus"":""img/green_ww/3.jpg"",""time"":150},{""stimulus"":""img/green_ww/4.jpg"",""time"":201},{""stimulus"":""img/green_ww/5.jpg"",""time"":251},{""stimulus"":""img/green_ww/6.jpg"",""time"":301},{""stimulus"":""img/green_ww/7.jpg"",""time"":351},{""stimulus"":""img/green_ww/8.jpg"",""time"":401},{""stimulus"":""img/green_ww/9.jpg"",""time"":450},{""stimulus"":""img/green_ww/10.jpg"",""time"":500},{""stimulus"":""img/green_ww/11.jpg"",""time"":550}]","[]"
"image-keyboard-response","120","96806","0.0-5.0-1.58","63d85999228b7d6b636dd96c","bdp_lott","Mon Mar 27 2023 11:50:14 GMT-0500 (Central Daylight Time)","421727","red","green","","438","","","","choice","","img/green_ww/choose11.jpg","1","167","green","0.5","0.5","0.5","w","",""
"animation","121","97407","0.0-5.0-2.58","63d85999228b7d6b636dd96c","bdp_lott","Mon Mar 27 2023 11:50:14 GMT-0500 (Central Daylight Time)","421727","red","green","","","","","","","","","","167","","","","","","[{""stimulus"":""img/green_ww/1.jpg"",""time"":50},{""stimulus"":""img/green_ww/2.jpg"",""time"":101},{""stimulus"":""img/green_ww/3.jpg"",""time"":151},{""stimulus"":""img/green_ww/4.jpg"",""time"":201},{""stimulus"":""img/green_ww/5.jpg"",""time"":252},{""stimulus"":""img/green_ww/6.jpg"",""time"":300},{""stimulus"":""img/green_ww/7.jpg"",""time"":351},{""stimulus"":""img/green_ww/8.jpg"",""time"":401},{""stimulus"":""img/green_ww/9.jpg"",""time"":451},{""stimulus"":""img/green_ww/10.jpg"",""time"":501},{""stimulus"":""img/green_ww/11.jpg"",""time"":551}]","[]"
"image-keyboard-response","122","97861","0.0-5.0-1.59","63d85999228b7d6b636dd96c","bdp_lott","Mon Mar 27 2023 11:50:14 GMT-0500 (Central Daylight Time)","421727","red","green","","454","","","","choice","","img/green_ww/choose11.jpg","2","166","red","0.5","0.5","0.5","l","",""
"animation","123","98463","0.0-5.0-2.59","63d85999228b7d6b636dd96c","bdp_lott","Mon Mar 27 2023 11:50:14 GMT-0500 (Central Daylight Time)","421727","red","green","","","","","","","","","","166","","","","","","[{""stimulus"":""img/red_wl/1.jpg"",""time"":50},{""stimulus"":""img/red_wl/2.jpg"",""time"":100},{""stimulus"":""img/red_wl/3.jpg"",""time"":150},{""stimulus"":""img/red_wl/4.jpg"",""time"":201},{""stimulus"":""img/red_wl/5.jpg"",""time"":251},{""stimulus"":""img/red_wl/6.jpg"",""time"":301},{""stimulus"":""img/red_wl/7.jpg"",""time"":350},{""stimulus"":""img/red_wl/8.jpg"",""time"":401},{""stimulus"":""img/red_wl/9.jpg"",""time"":450},{""stimulus"":""img/red_wl/10.jpg"",""time"":500},{""stimulus"":""img/red_wl/11.jpg"",""time"":550}]","[]"
"image-keyboard-response","124","99126","0.0-5.0-1.60","63d85999228b7d6b636dd96c","bdp_lott","Mon Mar 27 2023 11:50:14 GMT-0500 (Central Daylight Time)","421727","red","green","","663","","","","choice","","img/red_wl/choose11.jpg","2","165","red","0.5","0.5","0.5","l","",""
"animation","125","99727","0.0-5.0-2.60","63d85999228b7d6b636dd96c","bdp_lott","Mon Mar 27 2023 11:50:14 GMT-0500 (Central Daylight Time)","421727","red","green","","","","","","","","","","165","","","","","","[{""stimulus"":""img/red_wl/1.jpg"",""time"":52},{""stimulus"":""img/red_wl/2.jpg"",""time"":101},{""stimulus"":""img/red_wl/3.jpg"",""time"":150},{""stimulus"":""img/red_wl/4.jpg"",""time"":201},{""stimulus"":""img/red_wl/5.jpg"",""time"":250},{""stimulus"":""img/red_wl/6.jpg"",""time"":301},{""stimulus"":""img/red_wl/7.jpg"",""time"":351},{""stimulus"":""img/red_wl/8.jpg"",""time"":401},{""stimulus"":""img/red_wl/9.jpg"",""time"":450},{""stimulus"":""img/red_wl/10.jpg"",""time"":500},{""stimulus"":""img/red_wl/11.jpg"",""time"":551}]","[]"
"image-keyboard-response","126","100197","0.0-5.0-1.61","63d85999228b7d6b636dd96c","bdp_lott","Mon Mar 27 2023 11:50:14 GMT-0500 (Central Daylight Time)","421727","red","green","","470","","","","choice","","img/red_wl/choose11.jpg","1","164","green","0.5","0.5","0.5","l","",""
"animation","127","100798","0.0-5.0-2.61","63d85999228b7d6b636dd96c","bdp_lott","Mon Mar 27 2023 11:50:14 GMT-0500 (Central Daylight Time)","421727","red","green","","","","","","","","","","164","","","","","","[{""stimulus"":""img/green_ll/1.jpg"",""time"":50},{""stimulus"":""img/green_ll/2.jpg"",""time"":101},{""stimulus"":""img/green_ll/3.jpg"",""time"":152},{""stimulus"":""img/green_ll/4.jpg"",""time"":200},{""stimulus"":""img/green_ll/5.jpg"",""time"":250},{""stimulus"":""img/green_ll/6.jpg"",""time"":300},{""stimulus"":""img/green_ll/7.jpg"",""time"":352},{""stimulus"":""img/green_ll/8.jpg"",""time"":400},{""stimulus"":""img/green_ll/9.jpg"",""time"":450},{""stimulus"":""img/green_ll/10.jpg"",""time"":500},{""stimulus"":""img/green_ll/11.jpg"",""time"":551}]","[]"
"image-keyboard-response","128","101526","0.0-5.0-1.62","63d85999228b7d6b636dd96c","bdp_lott","Mon Mar 27 2023 11:50:14 GMT-0500 (Central Daylight Time)","421727","red","green","","727","","","","choice","","img/green_ll/choose11.jpg","2","163","red","0.5","0.5","0.5","l","",""
"animation","129","102126","0.0-5.0-2.62","63d85999228b7d6b636dd96c","bdp_lott","Mon Mar 27 2023 11:50:14 GMT-0500 (Central Daylight Time)","421727","red","green","","","","","","","","","","163","","","","","","[{""stimulus"":""img/red_ll/1.jpg"",""time"":52},{""stimulus"":""img/red_ll/2.jpg"",""time"":101},{""stimulus"":""img/red_ll/3.jpg"",""time"":151},{""stimulus"":""img/red_ll/4.jpg"",""time"":201},{""stimulus"":""img/red_ll/5.jpg"",""time"":251},{""stimulus"":""img/red_ll/6.jpg"",""time"":301},{""stimulus"":""img/red_ll/7.jpg"",""time"":352},{""stimulus"":""img/red_ll/8.jpg"",""time"":402},{""stimulus"":""img/red_ll/9.jpg"",""time"":452},{""stimulus"":""img/red_ll/10.jpg"",""time"":501},{""stimulus"":""img/red_ll/11.jpg"",""time"":550}]","[]"
"image-keyboard-response","130","102782","0.0-5.0-1.63","63d85999228b7d6b636dd96c","bdp_lott","Mon Mar 27 2023 11:50:14 GMT-0500 (Central Daylight Time)","421727","red","green","","655","","","","choice","","img/red_ll/choose11.jpg","1","162","green","0.5","0.5","0.5","l","",""
"animation","131","103384","0.0-5.0-2.63","63d85999228b7d6b636dd96c","bdp_lott","Mon Mar 27 2023 11:50:14 GMT-0500 (Central Daylight Time)","421727","red","green","","","","","","","","","","162","","","","","","[{""stimulus"":""img/green_ll/1.jpg"",""time"":51},{""stimulus"":""img/green_ll/2.jpg"",""time"":100},{""stimulus"":""img/green_ll/3.jpg"",""time"":151},{""stimulus"":""img/green_ll/4.jpg"",""time"":200},{""stimulus"":""img/green_ll/5.jpg"",""time"":250},{""stimulus"":""img/green_ll/6.jpg"",""time"":301},{""stimulus"":""img/green_ll/7.jpg"",""time"":351},{""stimulus"":""img/green_ll/8.jpg"",""time"":401},{""stimulus"":""img/green_ll/9.jpg"",""time"":450},{""stimulus"":""img/green_ll/10.jpg"",""time"":501},{""stimulus"":""img/green_ll/11.jpg"",""time"":552}]","[]"
"image-keyboard-response","132","103974","0.0-5.0-1.64","63d85999228b7d6b636dd96c","bdp_lott","Mon Mar 27 2023 11:50:14 GMT-0500 (Central Daylight Time)","421727","red","green","","590","","","","choice","","img/green_ll/choose11.jpg","2","161","red","0.5","0.5","0.5","l","",""
"animation","133","104575","0.0-5.0-2.64","63d85999228b7d6b636dd96c","bdp_lott","Mon Mar 27 2023 11:50:14 GMT-0500 (Central Daylight Time)","421727","red","green","","","","","","","","","","161","","","","","","[{""stimulus"":""img/red_ll/1.jpg"",""time"":50},{""stimulus"":""img/red_ll/2.jpg"",""time"":102},{""stimulus"":""img/red_ll/3.jpg"",""time"":152},{""stimulus"":""img/red_ll/4.jpg"",""time"":201},{""stimulus"":""img/red_ll/5.jpg"",""time"":252},{""stimulus"":""img/red_ll/6.jpg"",""time"":301},{""stimulus"":""img/red_ll/7.jpg"",""time"":351},{""stimulus"":""img/red_ll/8.jpg"",""time"":401},{""stimulus"":""img/red_ll/9.jpg"",""time"":451},{""stimulus"":""img/red_ll/10.jpg"",""time"":502},{""stimulus"":""img/red_ll/11.jpg"",""time"":551}]","[]"
"image-keyboard-response","134","105422","0.0-5.0-1.65","63d85999228b7d6b636dd96c","bdp_lott","Mon Mar 27 2023 11:50:14 GMT-0500 (Central Daylight Time)","421727","red","green","","847","","","","choice","","img/red_ll/choose11.jpg","2","160","red","0.5","0.5","0.5","w","",""
"animation","135","106024","0.0-5.0-2.65","63d85999228b7d6b636dd96c","bdp_lott","Mon Mar 27 2023 11:50:14 GMT-0500 (Central Daylight Time)","421727","red","green","","","","","","","","","","160","","","","","","[{""stimulus"":""img/red_lw/1.jpg"",""time"":50},{""stimulus"":""img/red_lw/2.jpg"",""time"":101},{""stimulus"":""img/red_lw/3.jpg"",""time"":151},{""stimulus"":""img/red_lw/4.jpg"",""time"":202},{""stimulus"":""img/red_lw/5.jpg"",""time"":251},{""stimulus"":""img/red_lw/6.jpg"",""time"":301},{""stimulus"":""img/red_lw/7.jpg"",""time"":351},{""stimulus"":""img/red_lw/8.jpg"",""time"":401},{""stimulus"":""img/red_lw/9.jpg"",""time"":451},{""stimulus"":""img/red_lw/10.jpg"",""time"":501},{""stimulus"":""img/red_lw/11.jpg"",""time"":551}]","[]"
"image-keyboard-response","136","107150","0.0-5.0-1.66","63d85999228b7d6b636dd96c","bdp_lott","Mon Mar 27 2023 11:50:14 GMT-0500 (Central Daylight Time)","421727","red","green","","1125","","","","choice","","img/red_lw/choose11.jpg","2","159","red","0.5","0.5","0.5","l","",""
"animation","137","107750","0.0-5.0-2.66","63d85999228b7d6b636dd96c","bdp_lott","Mon Mar 27 2023 11:50:14 GMT-0500 (Central Daylight Time)","421727","red","green","","","","","","","","","","159","","","","","","[{""stimulus"":""img/red_ll/1.jpg"",""time"":50},{""stimulus"":""img/red_ll/2.jpg"",""time"":101},{""stimulus"":""img/red_ll/3.jpg"",""time"":150},{""stimulus"":""img/red_ll/4.jpg"",""time"":201},{""stimulus"":""img/red_ll/5.jpg"",""time"":250},{""stimulus"":""img/red_ll/6.jpg"",""time"":300},{""stimulus"":""img/red_ll/7.jpg"",""time"":351},{""stimulus"":""img/red_ll/8.jpg"",""time"":401},{""stimulus"":""img/red_ll/9.jpg"",""time"":451},{""stimulus"":""img/red_ll/10.jpg"",""time"":500},{""stimulus"":""img/red_ll/11.jpg"",""time"":550}]","[]"
"image-keyboard-response","138","108437","0.0-5.0-1.67","63d85999228b7d6b636dd96c","bdp_lott","Mon Mar 27 2023 11:50:14 GMT-0500 (Central Daylight Time)","421727","red","green","","686","","","","choice","","img/red_ll/choose11.jpg","1","158","green","0.5","0.5","0.5","l","",""
"animation","139","109039","0.0-5.0-2.67","63d85999228b7d6b636dd96c","bdp_lott","Mon Mar 27 2023 11:50:14 GMT-0500 (Central Daylight Time)","421727","red","green","","","","","","","","","","158","","","","","","[{""stimulus"":""img/green_ll/1.jpg"",""time"":52},{""stimulus"":""img/green_ll/2.jpg"",""time"":100},{""stimulus"":""img/green_ll/3.jpg"",""time"":152},{""stimulus"":""img/green_ll/4.jpg"",""time"":201},{""stimulus"":""img/green_ll/5.jpg"",""time"":251},{""stimulus"":""img/green_ll/6.jpg"",""time"":301},{""stimulus"":""img/green_ll/7.jpg"",""time"":351},{""stimulus"":""img/green_ll/8.jpg"",""time"":401},{""stimulus"":""img/green_ll/9.jpg"",""time"":451},{""stimulus"":""img/green_ll/10.jpg"",""time"":501},{""stimulus"":""img/green_ll/11.jpg"",""time"":551}]","[]"
"image-keyboard-response","140","110070","0.0-5.0-1.68","63d85999228b7d6b636dd96c","bdp_lott","Mon Mar 27 2023 11:50:14 GMT-0500 (Central Daylight Time)","421727","red","green","","1031","","","","choice","","img/green_ll/choose11.jpg","2","157","red","0.5","0.5","0.5","w","",""
"animation","141","110671","0.0-5.0-2.68","63d85999228b7d6b636dd96c","bdp_lott","Mon Mar 27 2023 11:50:14 GMT-0500 (Central Daylight Time)","421727","red","green","","","","","","","","","","157","","","","","","[{""stimulus"":""img/red_lw/1.jpg"",""time"":50},{""stimulus"":""img/red_lw/2.jpg"",""time"":101},{""stimulus"":""img/red_lw/3.jpg"",""time"":150},{""stimulus"":""img/red_lw/4.jpg"",""time"":201},{""stimulus"":""img/red_lw/5.jpg"",""time"":251},{""stimulus"":""img/red_lw/6.jpg"",""time"":301},{""stimulus"":""img/red_lw/7.jpg"",""time"":350},{""stimulus"":""img/red_lw/8.jpg"",""time"":401},{""stimulus"":""img/red_lw/9.jpg"",""time"":450},{""stimulus"":""img/red_lw/10.jpg"",""time"":501},{""stimulus"":""img/red_lw/11.jpg"",""time"":551}]","[]"
"image-keyboard-response","142","111342","0.0-5.0-1.69","63d85999228b7d6b636dd96c","bdp_lott","Mon Mar 27 2023 11:50:14 GMT-0500 (Central Daylight Time)","421727","red","green","","671","","","","choice","","img/red_lw/choose11.jpg","2","156","red","0.5","0.5","0.5","l","",""
"animation","143","111942","0.0-5.0-2.69","63d85999228b7d6b636dd96c","bdp_lott","Mon Mar 27 2023 11:50:14 GMT-0500 (Central Daylight Time)","421727","red","green","","","","","","","","","","156","","","","","","[{""stimulus"":""img/red_ll/1.jpg"",""time"":52},{""stimulus"":""img/red_ll/2.jpg"",""time"":102},{""stimulus"":""img/red_ll/3.jpg"",""time"":150},{""stimulus"":""img/red_ll/4.jpg"",""time"":200},{""stimulus"":""img/red_ll/5.jpg"",""time"":250},{""stimulus"":""img/red_ll/6.jpg"",""time"":300},{""stimulus"":""img/red_ll/7.jpg"",""time"":350},{""stimulus"":""img/red_ll/8.jpg"",""time"":401},{""stimulus"":""img/red_ll/9.jpg"",""time"":450},{""stimulus"":""img/red_ll/10.jpg"",""time"":501},{""stimulus"":""img/red_ll/11.jpg"",""time"":552}]","[]"
"image-keyboard-response","144","112854","0.0-5.0-1.70","63d85999228b7d6b636dd96c","bdp_lott","Mon Mar 27 2023 11:50:14 GMT-0500 (Central Daylight Time)","421727","red","green","","911","","","","choice","","img/red_ll/choose11.jpg","2","155","red","0.5","0.5","0.5","l","",""
"animation","145","113455","0.0-5.0-2.70","63d85999228b7d6b636dd96c","bdp_lott","Mon Mar 27 2023 11:50:14 GMT-0500 (Central Daylight Time)","421727","red","green","","","","","","","","","","155","","","","","","[{""stimulus"":""img/red_ll/1.jpg"",""time"":51},{""stimulus"":""img/red_ll/2.jpg"",""time"":101},{""stimulus"":""img/red_ll/3.jpg"",""time"":151},{""stimulus"":""img/red_ll/4.jpg"",""time"":201},{""stimulus"":""img/red_ll/5.jpg"",""time"":250},{""stimulus"":""img/red_ll/6.jpg"",""time"":300},{""stimulus"":""img/red_ll/7.jpg"",""time"":350},{""stimulus"":""img/red_ll/8.jpg"",""time"":400},{""stimulus"":""img/red_ll/9.jpg"",""time"":450},{""stimulus"":""img/red_ll/10.jpg"",""time"":501},{""stimulus"":""img/red_ll/11.jpg"",""time"":551}]","[]"
"image-keyboard-response","146","114597","0.0-5.0-1.71","63d85999228b7d6b636dd96c","bdp_lott","Mon Mar 27 2023 11:50:14 GMT-0500 (Central Daylight Time)","421727","red","green","","1141","","","","choice","","img/red_ll/choose11.jpg","2","154","red","0.5","0.5","0.5","w","",""
"animation","147","115198","0.0-5.0-2.71","63d85999228b7d6b636dd96c","bdp_lott","Mon Mar 27 2023 11:50:14 GMT-0500 (Central Daylight Time)","421727","red","green","","","","","","","","","","154","","","","","","[{""stimulus"":""img/red_lw/1.jpg"",""time"":50},{""stimulus"":""img/red_lw/2.jpg"",""time"":101},{""stimulus"":""img/red_lw/3.jpg"",""time"":152},{""stimulus"":""img/red_lw/4.jpg"",""time"":202},{""stimulus"":""img/red_lw/5.jpg"",""time"":252},{""stimulus"":""img/red_lw/6.jpg"",""time"":301},{""stimulus"":""img/red_lw/7.jpg"",""time"":350},{""stimulus"":""img/red_lw/8.jpg"",""time"":400},{""stimulus"":""img/red_lw/9.jpg"",""time"":450},{""stimulus"":""img/red_lw/10.jpg"",""time"":501},{""stimulus"":""img/red_lw/11.jpg"",""time"":551}]","[]"
"image-keyboard-response","148","116309","0.0-5.0-1.72","63d85999228b7d6b636dd96c","bdp_lott","Mon Mar 27 2023 11:50:14 GMT-0500 (Central Daylight Time)","421727","red","green","","1110","","","","choice","","img/red_lw/choose11.jpg","1","153","green","0.5","0.5","0.5","l","",""
"animation","149","116910","0.0-5.0-2.72","63d85999228b7d6b636dd96c","bdp_lott","Mon Mar 27 2023 11:50:14 GMT-0500 (Central Daylight Time)","421727","red","green","","","","","","","","","","153","","","","","","[{""stimulus"":""img/green_lw/1.jpg"",""time"":51},{""stimulus"":""img/green_lw/2.jpg"",""time"":100},{""stimulus"":""img/green_lw/3.jpg"",""time"":151},{""stimulus"":""img/green_lw/4.jpg"",""time"":201},{""stimulus"":""img/green_lw/5.jpg"",""time"":251},{""stimulus"":""img/green_lw/6.jpg"",""time"":300},{""stimulus"":""img/green_lw/7.jpg"",""time"":350},{""stimulus"":""img/green_lw/8.jpg"",""time"":400},{""stimulus"":""img/green_lw/9.jpg"",""time"":451},{""stimulus"":""img/green_lw/10.jpg"",""time"":501},{""stimulus"":""img/green_lw/11.jpg"",""time"":550}]","[]"
"image-keyboard-response","150","118045","0.0-5.0-1.73","63d85999228b7d6b636dd96c","bdp_lott","Mon Mar 27 2023 11:50:14 GMT-0500 (Central Daylight Time)","421727","red","green","","1134","","","","choice","","img/green_lw/choose11.jpg","1","152","green","0.5","0.5","0.5","w","",""
"animation","151","118646","0.0-5.0-2.73","63d85999228b7d6b636dd96c","bdp_lott","Mon Mar 27 2023 11:50:14 GMT-0500 (Central Daylight Time)","421727","red","green","","","","","","","","","","152","","","","","","[{""stimulus"":""img/green_ww/1.jpg"",""time"":50},{""stimulus"":""img/green_ww/2.jpg"",""time"":100},{""stimulus"":""img/green_ww/3.jpg"",""time"":151},{""stimulus"":""img/green_ww/4.jpg"",""time"":202},{""stimulus"":""img/green_ww/5.jpg"",""time"":251},{""stimulus"":""img/green_ww/6.jpg"",""time"":301},{""stimulus"":""img/green_ww/7.jpg"",""time"":351},{""stimulus"":""img/green_ww/8.jpg"",""time"":402},{""stimulus"":""img/green_ww/9.jpg"",""time"":452},{""stimulus"":""img/green_ww/10.jpg"",""time"":500},{""stimulus"":""img/green_ww/11.jpg"",""time"":550}]","[]"
"image-keyboard-response","152","120598","0.0-5.0-1.74","63d85999228b7d6b636dd96c","bdp_lott","Mon Mar 27 2023 11:50:14 GMT-0500 (Central Daylight Time)","421727","red","green","","1952","","","","choice","","img/green_ww/choose11.jpg","2","151","red","0.5","0.5","0.5","w","",""
"animation","153","121199","0.0-5.0-2.74","63d85999228b7d6b636dd96c","bdp_lott","Mon Mar 27 2023 11:50:14 GMT-0500 (Central Daylight Time)","421727","red","green","","","","","","","","","","151","","","","","","[{""stimulus"":""img/red_ww/1.jpg"",""time"":50},{""stimulus"":""img/red_ww/2.jpg"",""time"":100},{""stimulus"":""img/red_ww/3.jpg"",""time"":150},{""stimulus"":""img/red_ww/4.jpg"",""time"":201},{""stimulus"":""img/red_ww/5.jpg"",""time"":252},{""stimulus"":""img/red_ww/6.jpg"",""time"":300},{""stimulus"":""img/red_ww/7.jpg"",""time"":351},{""stimulus"":""img/red_ww/8.jpg"",""time"":401},{""stimulus"":""img/red_ww/9.jpg"",""time"":451},{""stimulus"":""img/red_ww/10.jpg"",""time"":501},{""stimulus"":""img/red_ww/11.jpg"",""time"":551}]","[]"
"image-keyboard-response","154","122669","0.0-5.0-1.75","63d85999228b7d6b636dd96c","bdp_lott","Mon Mar 27 2023 11:50:14 GMT-0500 (Central Daylight Time)","421727","red","green","","1470","","","","choice","","img/red_ww/choose11.jpg","1","150","green","0.5","0.5","0.5","w","",""
"animation","155","123270","0.0-5.0-2.75","63d85999228b7d6b636dd96c","bdp_lott","Mon Mar 27 2023 11:50:14 GMT-0500 (Central Daylight Time)","421727","red","green","","","","","","","","","","150","","","","","","[{""stimulus"":""img/green_ww/1.jpg"",""time"":50},{""stimulus"":""img/green_ww/2.jpg"",""time"":100},{""stimulus"":""img/green_ww/3.jpg"",""time"":150},{""stimulus"":""img/green_ww/4.jpg"",""time"":200},{""stimulus"":""img/green_ww/5.jpg"",""time"":251},{""stimulus"":""img/green_ww/6.jpg"",""time"":300},{""stimulus"":""img/green_ww/7.jpg"",""time"":351},{""stimulus"":""img/green_ww/8.jpg"",""time"":401},{""stimulus"":""img/green_ww/9.jpg"",""time"":450},{""stimulus"":""img/green_ww/10.jpg"",""time"":500},{""stimulus"":""img/green_ww/11.jpg"",""time"":550}]","[]"
"image-keyboard-response","156","124709","0.0-5.0-1.76","63d85999228b7d6b636dd96c","bdp_lott","Mon Mar 27 2023 11:50:14 GMT-0500 (Central Daylight Time)","421727","red","green","","1439","","","","choice","","img/green_ww/choose11.jpg","1","149","green","0.5","0.1","0.1","w","",""
"animation","157","125311","0.0-5.0-2.76","63d85999228b7d6b636dd96c","bdp_lott","Mon Mar 27 2023 11:50:14 GMT-0500 (Central Daylight Time)","421727","red","green","","","","","","","","","","149","","","","","","[{""stimulus"":""img/green_ww/1.jpg"",""time"":51},{""stimulus"":""img/green_ww/2.jpg"",""time"":100},{""stimulus"":""img/green_ww/3.jpg"",""time"":150},{""stimulus"":""img/green_ww/4.jpg"",""time"":200},{""stimulus"":""img/green_ww/5.jpg"",""time"":250},{""stimulus"":""img/green_ww/6.jpg"",""time"":301},{""stimulus"":""img/green_ww/7.jpg"",""time"":351},{""stimulus"":""img/green_ww/8.jpg"",""time"":400},{""stimulus"":""img/green_ww/9.jpg"",""time"":450},{""stimulus"":""img/green_ww/10.jpg"",""time"":501},{""stimulus"":""img/green_ww/11.jpg"",""time"":551}]","[]"
"image-keyboard-response","158","126181","0.0-5.0-1.77","63d85999228b7d6b636dd96c","bdp_lott","Mon Mar 27 2023 11:50:14 GMT-0500 (Central Daylight Time)","421727","red","green","","870","","","","choice","","img/green_ww/choose11.jpg","2","148","red","0.5","0.1","0.5","w","",""
"animation","159","126782","0.0-5.0-2.77","63d85999228b7d6b636dd96c","bdp_lott","Mon Mar 27 2023 11:50:14 GMT-0500 (Central Daylight Time)","421727","red","green","","","","","","","","","","148","","","","","","[{""stimulus"":""img/red_ww/1.jpg"",""time"":51},{""stimulus"":""img/red_ww/2.jpg"",""time"":101},{""stimulus"":""img/red_ww/3.jpg"",""time"":152},{""stimulus"":""img/red_ww/4.jpg"",""time"":200},{""stimulus"":""img/red_ww/5.jpg"",""time"":250},{""stimulus"":""img/red_ww/6.jpg"",""time"":301},{""stimulus"":""img/red_ww/7.jpg"",""time"":351},{""stimulus"":""img/red_ww/8.jpg"",""time"":400},{""stimulus"":""img/red_ww/9.jpg"",""time"":450},{""stimulus"":""img/red_ww/10.jpg"",""time"":500},{""stimulus"":""img/red_ww/11.jpg"",""time"":550}]","[]"
"image-keyboard-response","160","127341","0.0-5.0-1.78","63d85999228b7d6b636dd96c","bdp_lott","Mon Mar 27 2023 11:50:14 GMT-0500 (Central Daylight Time)","421727","red","green","","558","","","","choice","","img/red_ww/choose11.jpg","2","147","red","0.5","0.1","0.5","w","",""
"animation","161","127943","0.0-5.0-2.78","63d85999228b7d6b636dd96c","bdp_lott","Mon Mar 27 2023 11:50:14 GMT-0500 (Central Daylight Time)","421727","red","green","","","","","","","","","","147","","","","","","[{""stimulus"":""img/red_ww/1.jpg"",""time"":52},{""stimulus"":""img/red_ww/2.jpg"",""time"":102},{""stimulus"":""img/red_ww/3.jpg"",""time"":152},{""stimulus"":""img/red_ww/4.jpg"",""time"":201},{""stimulus"":""img/red_ww/5.jpg"",""time"":251},{""stimulus"":""img/red_ww/6.jpg"",""time"":301},{""stimulus"":""img/red_ww/7.jpg"",""time"":351},{""stimulus"":""img/red_ww/8.jpg"",""time"":402},{""stimulus"":""img/red_ww/9.jpg"",""time"":451},{""stimulus"":""img/red_ww/10.jpg"",""time"":502},{""stimulus"":""img/red_ww/11.jpg"",""time"":552}]","[]"
"image-keyboard-response","162","128717","0.0-5.0-1.79","63d85999228b7d6b636dd96c","bdp_lott","Mon Mar 27 2023 11:50:14 GMT-0500 (Central Daylight Time)","421727","red","green","","774","","","","choice","","img/red_ww/choose11.jpg","2","146","red","0.5","0.1","0.5","l","",""
"animation","163","129318","0.0-5.0-2.79","63d85999228b7d6b636dd96c","bdp_lott","Mon Mar 27 2023 11:50:14 GMT-0500 (Central Daylight Time)","421727","red","green","","","","","","","","","","146","","","","","","[{""stimulus"":""img/red_wl/1.jpg"",""time"":52},{""stimulus"":""img/red_wl/2.jpg"",""time"":101},{""stimulus"":""img/red_wl/3.jpg"",""time"":152},{""stimulus"":""img/red_wl/4.jpg"",""time"":202},{""stimulus"":""img/red_wl/5.jpg"",""time"":252},{""stimulus"":""img/red_wl/6.jpg"",""time"":302},{""stimulus"":""img/red_wl/7.jpg"",""time"":351},{""stimulus"":""img/red_wl/8.jpg"",""time"":401},{""stimulus"":""img/red_wl/9.jpg"",""time"":451},{""stimulus"":""img/red_wl/10.jpg"",""time"":502},{""stimulus"":""img/red_wl/11.jpg"",""time"":551}]","[]"
"image-keyboard-response","164","129717","0.0-5.0-1.80","63d85999228b7d6b636dd96c","bdp_lott","Mon Mar 27 2023 11:50:14 GMT-0500 (Central Daylight Time)","421727","red","green","","398","","","","choice","","img/red_wl/choose11.jpg","1","145","green","0.5","0.1","0.1","l","",""
"animation","165","130318","0.0-5.0-2.80","63d85999228b7d6b636dd96c","bdp_lott","Mon Mar 27 2023 11:50:14 GMT-0500 (Central Daylight Time)","421727","red","green","","","","","","","","","","145","","","","","","[{""stimulus"":""img/green_ll/1.jpg"",""time"":52},{""stimulus"":""img/green_ll/2.jpg"",""time"":101},{""stimulus"":""img/green_ll/3.jpg"",""time"":151},{""stimulus"":""img/green_ll/4.jpg"",""time"":201},{""stimulus"":""img/green_ll/5.jpg"",""time"":251},{""stimulus"":""img/green_ll/6.jpg"",""time"":302},{""stimulus"":""img/green_ll/7.jpg"",""time"":351},{""stimulus"":""img/green_ll/8.jpg"",""time"":401},{""stimulus"":""img/green_ll/9.jpg"",""time"":451},{""stimulus"":""img/green_ll/10.jpg"",""time"":503},{""stimulus"":""img/green_ll/11.jpg"",""time"":552}]","[]"
"image-keyboard-response","166","131157","0.0-5.0-1.81","63d85999228b7d6b636dd96c","bdp_lott","Mon Mar 27 2023 11:50:14 GMT-0500 (Central Daylight Time)","421727","red","green","","839","","","","choice","","img/green_ll/choose11.jpg","1","144","green","0.5","0.1","0.1","l","",""
"animation","167","131758","0.0-5.0-2.81","63d85999228b7d6b636dd96c","bdp_lott","Mon Mar 27 2023 11:50:14 GMT-0500 (Central Daylight Time)","421727","red","green","","","","","","","","","","144","","","","","","[{""stimulus"":""img/green_ll/1.jpg"",""time"":50},{""stimulus"":""img/green_ll/2.jpg"",""time"":100},{""stimulus"":""img/green_ll/3.jpg"",""time"":150},{""stimulus"":""img/green_ll/4.jpg"",""time"":201},{""stimulus"":""img/green_ll/5.jpg"",""time"":251},{""stimulus"":""img/green_ll/6.jpg"",""time"":301},{""stimulus"":""img/green_ll/7.jpg"",""time"":350},{""stimulus"":""img/green_ll/8.jpg"",""time"":401},{""stimulus"":""img/green_ll/9.jpg"",""time"":450},{""stimulus"":""img/green_ll/10.jpg"",""time"":500},{""stimulus"":""img/green_ll/11.jpg"",""time"":550}]","[]"
"image-keyboard-response","168","132213","0.0-5.0-1.82","63d85999228b7d6b636dd96c","bdp_lott","Mon Mar 27 2023 11:50:14 GMT-0500 (Central Daylight Time)","421727","red","green","","454","","","","choice","","img/green_ll/choose11.jpg","1","143","green","0.5","0.1","0.1","l","",""
"animation","169","132814","0.0-5.0-2.82","63d85999228b7d6b636dd96c","bdp_lott","Mon Mar 27 2023 11:50:14 GMT-0500 (Central Daylight Time)","421727","red","green","","","","","","","","","","143","","","","","","[{""stimulus"":""img/green_ll/1.jpg"",""time"":51},{""stimulus"":""img/green_ll/2.jpg"",""time"":101},{""stimulus"":""img/green_ll/3.jpg"",""time"":151},{""stimulus"":""img/green_ll/4.jpg"",""time"":201},{""stimulus"":""img/green_ll/5.jpg"",""time"":251},{""stimulus"":""img/green_ll/6.jpg"",""time"":301},{""stimulus"":""img/green_ll/7.jpg"",""time"":351},{""stimulus"":""img/green_ll/8.jpg"",""time"":401},{""stimulus"":""img/green_ll/9.jpg"",""time"":451},{""stimulus"":""img/green_ll/10.jpg"",""time"":501},{""stimulus"":""img/green_ll/11.jpg"",""time"":551}]","[]"
"image-keyboard-response","170","133349","0.0-5.0-1.83","63d85999228b7d6b636dd96c","bdp_lott","Mon Mar 27 2023 11:50:14 GMT-0500 (Central Daylight Time)","421727","red","green","","535","","","","choice","","img/green_ll/choose11.jpg","1","142","green","0.5","0.1","0.1","l","",""
"animation","171","133950","0.0-5.0-2.83","63d85999228b7d6b636dd96c","bdp_lott","Mon Mar 27 2023 11:50:14 GMT-0500 (Central Daylight Time)","421727","red","green","","","","","","","","","","142","","","","","","[{""stimulus"":""img/green_ll/1.jpg"",""time"":51},{""stimulus"":""img/green_ll/2.jpg"",""time"":101},{""stimulus"":""img/green_ll/3.jpg"",""time"":152},{""stimulus"":""img/green_ll/4.jpg"",""time"":201},{""stimulus"":""img/green_ll/5.jpg"",""time"":252},{""stimulus"":""img/green_ll/6.jpg"",""time"":301},{""stimulus"":""img/green_ll/7.jpg"",""time"":351},{""stimulus"":""img/green_ll/8.jpg"",""time"":401},{""stimulus"":""img/green_ll/9.jpg"",""time"":451},{""stimulus"":""img/green_ll/10.jpg"",""time"":501},{""stimulus"":""img/green_ll/11.jpg"",""time"":551}]","[]"
"image-keyboard-response","172","134357","0.0-5.0-1.84","63d85999228b7d6b636dd96c","bdp_lott","Mon Mar 27 2023 11:50:14 GMT-0500 (Central Daylight Time)","421727","red","green","","406","","","","choice","","img/green_ll/choose11.jpg","2","141","red","0.5","0.1","0.5","l","",""
"animation","173","134959","0.0-5.0-2.84","63d85999228b7d6b636dd96c","bdp_lott","Mon Mar 27 2023 11:50:14 GMT-0500 (Central Daylight Time)","421727","red","green","","","","","","","","","","141","","","","","","[{""stimulus"":""img/red_ll/1.jpg"",""time"":53},{""stimulus"":""img/red_ll/2.jpg"",""time"":102},{""stimulus"":""img/red_ll/3.jpg"",""time"":152},{""stimulus"":""img/red_ll/4.jpg"",""time"":201},{""stimulus"":""img/red_ll/5.jpg"",""time"":251},{""stimulus"":""img/red_ll/6.jpg"",""time"":301},{""stimulus"":""img/red_ll/7.jpg"",""time"":352},{""stimulus"":""img/red_ll/8.jpg"",""time"":401},{""stimulus"":""img/red_ll/9.jpg"",""time"":451},{""stimulus"":""img/red_ll/10.jpg"",""time"":501},{""stimulus"":""img/red_ll/11.jpg"",""time"":551}]","[]"
"image-keyboard-response","174","135373","0.0-5.0-1.85","63d85999228b7d6b636dd96c","bdp_lott","Mon Mar 27 2023 11:50:14 GMT-0500 (Central Daylight Time)","421727","red","green","","414","","","","choice","","img/red_ll/choose11.jpg","2","140","red","0.5","0.1","0.5","w","",""
"animation","175","135974","0.0-5.0-2.85","63d85999228b7d6b636dd96c","bdp_lott","Mon Mar 27 2023 11:50:14 GMT-0500 (Central Daylight Time)","421727","red","green","","","","","","","","","","140","","","","","","[{""stimulus"":""img/red_lw/1.jpg"",""time"":52},{""stimulus"":""img/red_lw/2.jpg"",""time"":101},{""stimulus"":""img/red_lw/3.jpg"",""time"":152},{""stimulus"":""img/red_lw/4.jpg"",""time"":202},{""stimulus"":""img/red_lw/5.jpg"",""time"":251},{""stimulus"":""img/red_lw/6.jpg"",""time"":301},{""stimulus"":""img/red_lw/7.jpg"",""time"":351},{""stimulus"":""img/red_lw/8.jpg"",""time"":401},{""stimulus"":""img/red_lw/9.jpg"",""time"":451},{""stimulus"":""img/red_lw/10.jpg"",""time"":502},{""stimulus"":""img/red_lw/11.jpg"",""time"":552}]","[]"
"image-keyboard-response","176","136357","0.0-5.0-1.86","63d85999228b7d6b636dd96c","bdp_lott","Mon Mar 27 2023 11:50:14 GMT-0500 (Central Daylight Time)","421727","red","green","","383","","","","choice","","img/red_lw/choose11.jpg","1","139","green","0.5","0.1","0.1","l","",""
"animation","177","136958","0.0-5.0-2.86","63d85999228b7d6b636dd96c","bdp_lott","Mon Mar 27 2023 11:50:14 GMT-0500 (Central Daylight Time)","421727","red","green","","","","","","","","","","139","","","","","","[{""stimulus"":""img/green_lw/1.jpg"",""time"":52},{""stimulus"":""img/green_lw/2.jpg"",""time"":102},{""stimulus"":""img/green_lw/3.jpg"",""time"":152},{""stimulus"":""img/green_lw/4.jpg"",""time"":201},{""stimulus"":""img/green_lw/5.jpg"",""time"":252},{""stimulus"":""img/green_lw/6.jpg"",""time"":301},{""stimulus"":""img/green_lw/7.jpg"",""time"":351},{""stimulus"":""img/green_lw/8.jpg"",""time"":401},{""stimulus"":""img/green_lw/9.jpg"",""time"":451},{""stimulus"":""img/green_lw/10.jpg"",""time"":501},{""stimulus"":""img/green_lw/11.jpg"",""time"":551}]","[]"
"image-keyboard-response","178","137509","0.0-5.0-1.87","63d85999228b7d6b636dd96c","bdp_lott","Mon Mar 27 2023 11:50:14 GMT-0500 (Central Daylight Time)","421727","red","green","","550","","","","choice","","img/green_lw/choose11.jpg","1","138","green","0.5","0.1","0.1","l","",""
"animation","179","138110","0.0-5.0-2.87","63d85999228b7d6b636dd96c","bdp_lott","Mon Mar 27 2023 11:50:14 GMT-0500 (Central Daylight Time)","421727","red","green","","","","","","","","","","138","","","","","","[{""stimulus"":""img/green_lw/1.jpg"",""time"":51},{""stimulus"":""img/green_lw/2.jpg"",""time"":101},{""stimulus"":""img/green_lw/3.jpg"",""time"":151},{""stimulus"":""img/green_lw/4.jpg"",""time"":201},{""stimulus"":""img/green_lw/5.jpg"",""time"":251},{""stimulus"":""img/green_lw/6.jpg"",""time"":303},{""stimulus"":""img/green_lw/7.jpg"",""time"":352},{""stimulus"":""img/green_lw/8.jpg"",""time"":401},{""stimulus"":""img/green_lw/9.jpg"",""time"":451},{""stimulus"":""img/green_lw/10.jpg"",""time"":501},{""stimulus"":""img/green_lw/11.jpg"",""time"":551}]","[]"
"image-keyboard-response","180","139173","0.0-5.0-1.88","63d85999228b7d6b636dd96c","bdp_lott","Mon Mar 27 2023 11:50:14 GMT-0500 (Central Daylight Time)","421727","red","green","","1063","","","","choice","","img/green_lw/choose11.jpg","2","137","red","0.5","0.1","0.5","w","",""
"animation","181","139775","0.0-5.0-2.88","63d85999228b7d6b636dd96c","bdp_lott","Mon Mar 27 2023 11:50:14 GMT-0500 (Central Daylight Time)","421727","red","green","","","","","","","","","","137","","","","","","[{""stimulus"":""img/red_lw/1.jpg"",""time"":51},{""stimulus"":""img/red_lw/2.jpg"",""time"":101},{""stimulus"":""img/red_lw/3.jpg"",""time"":152},{""stimulus"":""img/red_lw/4.jpg"",""time"":201},{""stimulus"":""img/red_lw/5.jpg"",""time"":251},{""stimulus"":""img/red_lw/6.jpg"",""time"":301},{""stimulus"":""img/red_lw/7.jpg"",""time"":351},{""stimulus"":""img/red_lw/8.jpg"",""time"":401},{""stimulus"":""img/red_lw/9.jpg"",""time"":451},{""stimulus"":""img/red_lw/10.jpg"",""time"":501},{""stimulus"":""img/red_lw/11.jpg"",""time"":552}]","[]"
"image-keyboard-response","182","140277","0.0-5.0-1.89","63d85999228b7d6b636dd96c","bdp_lott","Mon Mar 27 2023 11:50:14 GMT-0500 (Central Daylight Time)","421727","red","green","","502","","","","choice","","img/red_lw/choose11.jpg","2","136","red","0.5","0.1","0.5","w","",""
"animation","183","140879","0.0-5.0-2.89","63d85999228b7d6b636dd96c","bdp_lott","Mon Mar 27 2023 11:50:14 GMT-0500 (Central Daylight Time)","421727","red","green","","","","","","","","","","136","","","","","","[{""stimulus"":""img/red_lw/1.jpg"",""time"":52},{""stimulus"":""img/red_lw/2.jpg"",""time"":102},{""stimulus"":""img/red_lw/3.jpg"",""time"":151},{""stimulus"":""img/red_lw/4.jpg"",""time"":201},{""stimulus"":""img/red_lw/5.jpg"",""time"":252},{""stimulus"":""img/red_lw/6.jpg"",""time"":301},{""stimulus"":""img/red_lw/7.jpg"",""time"":352},{""stimulus"":""img/red_lw/8.jpg"",""time"":402},{""stimulus"":""img/red_lw/9.jpg"",""time"":451},{""stimulus"":""img/red_lw/10.jpg"",""time"":502},{""stimulus"":""img/red_lw/11.jpg"",""time"":552}]","[]"
"image-keyboard-response","184","141950","0.0-5.0-1.90","63d85999228b7d6b636dd96c","bdp_lott","Mon Mar 27 2023 11:50:14 GMT-0500 (Central Daylight Time)","421727","red","green","","1071","","","","choice","","img/red_lw/choose11.jpg","2","135","red","0.5","0.1","0.5","l","",""
"animation","185","142551","0.0-5.0-2.90","63d85999228b7d6b636dd96c","bdp_lott","Mon Mar 27 2023 11:50:14 GMT-0500 (Central Daylight Time)","421727","red","green","","","","","","","","","","135","","","","","","[{""stimulus"":""img/red_ll/1.jpg"",""time"":51},{""stimulus"":""img/red_ll/2.jpg"",""time"":101},{""stimulus"":""img/red_ll/3.jpg"",""time"":151},{""stimulus"":""img/red_ll/4.jpg"",""time"":201},{""stimulus"":""img/red_ll/5.jpg"",""time"":251},{""stimulus"":""img/red_ll/6.jpg"",""time"":301},{""stimulus"":""img/red_ll/7.jpg"",""time"":351},{""stimulus"":""img/red_ll/8.jpg"",""time"":401},{""stimulus"":""img/red_ll/9.jpg"",""time"":451},{""stimulus"":""img/red_ll/10.jpg"",""time"":500},{""stimulus"":""img/red_ll/11.jpg"",""time"":551}]","[]"
"image-keyboard-response","186","143845","0.0-5.0-1.91","63d85999228b7d6b636dd96c","bdp_lott","Mon Mar 27 2023 11:50:14 GMT-0500 (Central Daylight Time)","421727","red","green","","1294","","","","choice","","img/red_ll/choose11.jpg","2","134","red","0.5","0.1","0.5","l","",""
"animation","187","144447","0.0-5.0-2.91","63d85999228b7d6b636dd96c","bdp_lott","Mon Mar 27 2023 11:50:14 GMT-0500 (Central Daylight Time)","421727","red","green","","","","","","","","","","134","","","","","","[{""stimulus"":""img/red_ll/1.jpg"",""time"":51},{""stimulus"":""img/red_ll/2.jpg"",""time"":102},{""stimulus"":""img/red_ll/3.jpg"",""time"":152},{""stimulus"":""img/red_ll/4.jpg"",""time"":201},{""stimulus"":""img/red_ll/5.jpg"",""time"":251},{""stimulus"":""img/red_ll/6.jpg"",""time"":301},{""stimulus"":""img/red_ll/7.jpg"",""time"":351},{""stimulus"":""img/red_ll/8.jpg"",""time"":401},{""stimulus"":""img/red_ll/9.jpg"",""time"":451},{""stimulus"":""img/red_ll/10.jpg"",""time"":501},{""stimulus"":""img/red_ll/11.jpg"",""time"":551}]","[]"
"image-keyboard-response","188","147581","0.0-5.0-1.92","63d85999228b7d6b636dd96c","bdp_lott","Mon Mar 27 2023 11:50:14 GMT-0500 (Central Daylight Time)","421727","red","green","","3134","","","","choice","","img/red_ll/choose11.jpg","1","133","green","0.5","0.1","0.1","l","",""
"animation","189","148182","0.0-5.0-2.92","63d85999228b7d6b636dd96c","bdp_lott","Mon Mar 27 2023 11:50:14 GMT-0500 (Central Daylight Time)","421727","red","green","","","","","","","","","","133","","","","","","[{""stimulus"":""img/green_ll/1.jpg"",""time"":52},{""stimulus"":""img/green_ll/2.jpg"",""time"":101},{""stimulus"":""img/green_ll/3.jpg"",""time"":151},{""stimulus"":""img/green_ll/4.jpg"",""time"":201},{""stimulus"":""img/green_ll/5.jpg"",""time"":252},{""stimulus"":""img/green_ll/6.jpg"",""time"":302},{""stimulus"":""img/green_ll/7.jpg"",""time"":351},{""stimulus"":""img/green_ll/8.jpg"",""time"":401},{""stimulus"":""img/green_ll/9.jpg"",""time"":451},{""stimulus"":""img/green_ll/10.jpg"",""time"":502},{""stimulus"":""img/green_ll/11.jpg"",""time"":552}]","[]"
"image-keyboard-response","190","149333","0.0-5.0-1.93","63d85999228b7d6b636dd96c","bdp_lott","Mon Mar 27 2023 11:50:14 GMT-0500 (Central Daylight Time)","421727","red","green","","1151","","","","choice","","img/green_ll/choose11.jpg","2","132","red","0.5","0.1","0.5","w","",""
"animation","191","149934","0.0-5.0-2.93","63d85999228b7d6b636dd96c","bdp_lott","Mon Mar 27 2023 11:50:14 GMT-0500 (Central Daylight Time)","421727","red","green","","","","","","","","","","132","","","","","","[{""stimulus"":""img/red_lw/1.jpg"",""time"":51},{""stimulus"":""img/red_lw/2.jpg"",""time"":101},{""stimulus"":""img/red_lw/3.jpg"",""time"":151},{""stimulus"":""img/red_lw/4.jpg"",""time"":202},{""stimulus"":""img/red_lw/5.jpg"",""time"":251},{""stimulus"":""img/red_lw/6.jpg"",""time"":301},{""stimulus"":""img/red_lw/7.jpg"",""time"":352},{""stimulus"":""img/red_lw/8.jpg"",""time"":401},{""stimulus"":""img/red_lw/9.jpg"",""time"":451},{""stimulus"":""img/red_lw/10.jpg"",""time"":501},{""stimulus"":""img/red_lw/11.jpg"",""time"":551}]","[]"
