"trial_type","trial_index","time_elapsed","internal_node_id","subject_id","task","startTime","totalTime","fairMachine","unfairMachine","view_history","rt","event","trial","time","trialtype","success","stimulus","key_press","roundsLeft","chosen","pFairMachWin","pUnfairMachWin","pTrialWin","outcome","animation_sequence","responses"
"pavlovia","0","5","0.0-0.0","63df609cf58947e964792bb6","bdp_lott","Sun Mar 26 2023 08:03:40 GMT-0700 (Pacific Daylight Time)","278632","red","green","","","","","","","","","","","","","","","","",""
"instructions","1","3232","0.0-1.0","63df609cf58947e964792bb6","bdp_lott","Sun Mar 26 2023 08:03:40 GMT-0700 (Pacific Daylight Time)","278632","red","green","[{""page_index"":0,""viewing_time"":3226}]","3226","","","","","","","","","","","","","","",""
"","","","","63df609cf58947e964792bb6","bdp_lott","Sun Mar 26 2023 08:03:40 GMT-0700 (Pacific Daylight Time)","278632","red","green","","","fullscreenenter","2","5738","fullscreenenter","","","","","","","","","","",""
"fullscreen","2","6733","0.0-2.0","63df609cf58947e964792bb6","bdp_lott","Sun Mar 26 2023 08:03:40 GMT-0700 (Pacific Daylight Time)","278632","red","green","","","","","","","true","","","","","","","","","",""
"instructions","3","31130","0.0-4.0","63df609cf58947e964792bb6","bdp_lott","Sun Mar 26 2023 08:03:40 GMT-0700 (Pacific Daylight Time)","278632","red","green","[{""page_index"":0,""viewing_time"":24395}]","24396","","","","","","","","","","","","","","",""
"image-keyboard-response","4","33326","0.0-5.0-1.0","63df609cf58947e964792bb6","bdp_lott","Sun Mar 26 2023 08:03:40 GMT-0700 (Pacific Daylight Time)","278632","red","green","","2194","","","","choice","","img/red_ll/initchoose11.jpg","1","225","green","0.5","0.5","0.5","l","",""
"animation","5","33927","0.0-5.0-2.0","63df609cf58947e964792bb6","bdp_lott","Sun Mar 26 2023 08:03:40 GMT-0700 (Pacific Daylight Time)","278632","red","green","","","","","","","","","","225","","","","","","[{""stimulus"":""img/green_ll/1.jpg"",""time"":52},{""stimulus"":""img/green_ll/2.jpg"",""time"":101},{""stimulus"":""img/green_ll/3.jpg"",""time"":151},{""stimulus"":""img/green_ll/4.jpg"",""time"":201},{""stimulus"":""img/green_ll/5.jpg"",""time"":252},{""stimulus"":""img/green_ll/6.jpg"",""time"":302},{""stimulus"":""img/green_ll/7.jpg"",""time"":351},{""stimulus"":""img/green_ll/8.jpg"",""time"":401},{""stimulus"":""img/green_ll/9.jpg"",""time"":451},{""stimulus"":""img/green_ll/10.jpg"",""time"":501},{""stimulus"":""img/green_ll/11.jpg"",""time"":551}]","[]"
"image-keyboard-response","6","34968","0.0-5.0-1.1","63df609cf58947e964792bb6","bdp_lott","Sun Mar 26 2023 08:03:40 GMT-0700 (Pacific Daylight Time)","278632","red","green","","1040","","","","choice","","img/green_ll/choose11.jpg","2","224","red","0.5","0.5","0.5","w","",""
"animation","7","35569","0.0-5.0-2.1","63df609cf58947e964792bb6","bdp_lott","Sun Mar 26 2023 08:03:40 GMT-0700 (Pacific Daylight Time)","278632","red","green","","","","","","","","","","224","","","","","","[{""stimulus"":""img/red_lw/1.jpg"",""time"":51},{""stimulus"":""img/red_lw/2.jpg"",""time"":101},{""stimulus"":""img/red_lw/3.jpg"",""time"":150},{""stimulus"":""img/red_lw/4.jpg"",""time"":201},{""stimulus"":""img/red_lw/5.jpg"",""time"":250},{""stimulus"":""img/red_lw/6.jpg"",""time"":300},{""stimulus"":""img/red_lw/7.jpg"",""time"":350},{""stimulus"":""img/red_lw/8.jpg"",""time"":401},{""stimulus"":""img/red_lw/9.jpg"",""time"":450},{""stimulus"":""img/red_lw/10.jpg"",""time"":500},{""stimulus"":""img/red_lw/11.jpg"",""time"":551}]","[]"
"image-keyboard-response","8","36744","0.0-5.0-1.2","63df609cf58947e964792bb6","bdp_lott","Sun Mar 26 2023 08:03:40 GMT-0700 (Pacific Daylight Time)","278632","red","green","","1173","","","","choice","","img/red_lw/choose11.jpg","2","223","red","0.5","0.5","0.5","l","",""
"animation","9","37344","0.0-5.0-2.2","63df609cf58947e964792bb6","bdp_lott","Sun Mar 26 2023 08:03:40 GMT-0700 (Pacific Daylight Time)","278632","red","green","","","","","","","","","","223","","","","","","[{""stimulus"":""img/red_ll/1.jpg"",""time"":52},{""stimulus"":""img/red_ll/2.jpg"",""time"":101},{""stimulus"":""img/red_ll/3.jpg"",""time"":150},{""stimulus"":""img/red_ll/4.jpg"",""time"":201},{""stimulus"":""img/red_ll/5.jpg"",""time"":250},{""stimulus"":""img/red_ll/6.jpg"",""time"":300},{""stimulus"":""img/red_ll/7.jpg"",""time"":350},{""stimulus"":""img/red_ll/8.jpg"",""time"":400},{""stimulus"":""img/red_ll/9.jpg"",""time"":450},{""stimulus"":""img/red_ll/10.jpg"",""time"":500},{""stimulus"":""img/red_ll/11.jpg"",""time"":550}]","[]"
"image-keyboard-response","10","38182","0.0-5.0-1.3","63df609cf58947e964792bb6","bdp_lott","Sun Mar 26 2023 08:03:40 GMT-0700 (Pacific Daylight Time)","278632","red","green","","837","","","","choice","","img/red_ll/choose11.jpg","2","222","red","0.5","0.5","0.5","w","",""
"animation","11","38783","0.0-5.0-2.3","63df609cf58947e964792bb6","bdp_lott","Sun Mar 26 2023 08:03:40 GMT-0700 (Pacific Daylight Time)","278632","red","green","","","","","","","","","","222","","","","","","[{""stimulus"":""img/red_lw/1.jpg"",""time"":52},{""stimulus"":""img/red_lw/2.jpg"",""time"":102},{""stimulus"":""img/red_lw/3.jpg"",""time"":152},{""stimulus"":""img/red_lw/4.jpg"",""time"":202},{""stimulus"":""img/red_lw/5.jpg"",""time"":251},{""stimulus"":""img/red_lw/6.jpg"",""time"":302},{""stimulus"":""img/red_lw/7.jpg"",""time"":352},{""stimulus"":""img/red_lw/8.jpg"",""time"":401},{""stimulus"":""img/red_lw/9.jpg"",""time"":451},{""stimulus"":""img/red_lw/10.jpg"",""time"":502},{""stimulus"":""img/red_lw/11.jpg"",""time"":551}]","[]"
"image-keyboard-response","12","40230","0.0-5.0-1.4","63df609cf58947e964792bb6","bdp_lott","Sun Mar 26 2023 08:03:40 GMT-0700 (Pacific Daylight Time)","278632","red","green","","1447","","","","choice","","img/red_lw/choose11.jpg","2","221","red","0.5","0.5","0.5","l","",""
"animation","13","40832","0.0-5.0-2.4","63df609cf58947e964792bb6","bdp_lott","Sun Mar 26 2023 08:03:40 GMT-0700 (Pacific Daylight Time)","278632","red","green","","","","","","","","","","221","","","","","","[{""stimulus"":""img/red_ll/1.jpg"",""time"":51},{""stimulus"":""img/red_ll/2.jpg"",""time"":101},{""stimulus"":""img/red_ll/3.jpg"",""time"":152},{""stimulus"":""img/red_ll/4.jpg"",""time"":201},{""stimulus"":""img/red_ll/5.jpg"",""time"":252},{""stimulus"":""img/red_ll/6.jpg"",""time"":301},{""stimulus"":""img/red_ll/7.jpg"",""time"":351},{""stimulus"":""img/red_ll/8.jpg"",""time"":401},{""stimulus"":""img/red_ll/9.jpg"",""time"":451},{""stimulus"":""img/red_ll/10.jpg"",""time"":502},{""stimulus"":""img/red_ll/11.jpg"",""time"":551}]","[]"
"image-keyboard-response","14","41301","0.0-5.0-1.5","63df609cf58947e964792bb6","bdp_lott","Sun Mar 26 2023 08:03:40 GMT-0700 (Pacific Daylight Time)","278632","red","green","","469","","","","choice","","img/red_ll/choose11.jpg","1","220","green","0.5","0.5","0.5","w","",""
"animation","15","41902","0.0-5.0-2.5","63df609cf58947e964792bb6","bdp_lott","Sun Mar 26 2023 08:03:40 GMT-0700 (Pacific Daylight Time)","278632","red","green","","","","","","","","","","220","","","","","","[{""stimulus"":""img/green_wl/1.jpg"",""time"":52},{""stimulus"":""img/green_wl/2.jpg"",""time"":101},{""stimulus"":""img/green_wl/3.jpg"",""time"":151},{""stimulus"":""img/green_wl/4.jpg"",""time"":201},{""stimulus"":""img/green_wl/5.jpg"",""time"":251},{""stimulus"":""img/green_wl/6.jpg"",""time"":301},{""stimulus"":""img/green_wl/7.jpg"",""time"":351},{""stimulus"":""img/green_wl/8.jpg"",""time"":401},{""stimulus"":""img/green_wl/9.jpg"",""time"":451},{""stimulus"":""img/green_wl/10.jpg"",""time"":502},{""stimulus"":""img/green_wl/11.jpg"",""time"":551}]","[]"
"image-keyboard-response","16","43020","0.0-5.0-1.6","63df609cf58947e964792bb6","bdp_lott","Sun Mar 26 2023 08:03:40 GMT-0700 (Pacific Daylight Time)","278632","red","green","","1117","","","","choice","","img/green_wl/choose11.jpg","2","219","red","0.5","0.5","0.5","w","",""
"animation","17","43620","0.0-5.0-2.6","63df609cf58947e964792bb6","bdp_lott","Sun Mar 26 2023 08:03:40 GMT-0700 (Pacific Daylight Time)","278632","red","green","","","","","","","","","","219","","","","","","[{""stimulus"":""img/red_ww/1.jpg"",""time"":52},{""stimulus"":""img/red_ww/2.jpg"",""time"":101},{""stimulus"":""img/red_ww/3.jpg"",""time"":151},{""stimulus"":""img/red_ww/4.jpg"",""time"":200},{""stimulus"":""img/red_ww/5.jpg"",""time"":250},{""stimulus"":""img/red_ww/6.jpg"",""time"":301},{""stimulus"":""img/red_ww/7.jpg"",""time"":351},{""stimulus"":""img/red_ww/8.jpg"",""time"":400},{""stimulus"":""img/red_ww/9.jpg"",""time"":450},{""stimulus"":""img/red_ww/10.jpg"",""time"":500},{""stimulus"":""img/red_ww/11.jpg"",""time"":552}]","[]"
"image-keyboard-response","18","44269","0.0-5.0-1.7","63df609cf58947e964792bb6","bdp_lott","Sun Mar 26 2023 08:03:40 GMT-0700 (Pacific Daylight Time)","278632","red","green","","647","","","","choice","","img/red_ww/choose11.jpg","1","218","green","0.5","0.5","0.5","w","",""
"animation","19","44870","0.0-5.0-2.7","63df609cf58947e964792bb6","bdp_lott","Sun Mar 26 2023 08:03:40 GMT-0700 (Pacific Daylight Time)","278632","red","green","","","","","","","","","","218","","","","","","[{""stimulus"":""img/green_ww/1.jpg"",""time"":51},{""stimulus"":""img/green_ww/2.jpg"",""time"":101},{""stimulus"":""img/green_ww/3.jpg"",""time"":151},{""stimulus"":""img/green_ww/4.jpg"",""time"":201},{""stimulus"":""img/green_ww/5.jpg"",""time"":251},{""stimulus"":""img/green_ww/6.jpg"",""time"":301},{""stimulus"":""img/green_ww/7.jpg"",""time"":351},{""stimulus"":""img/green_ww/8.jpg"",""time"":401},{""stimulus"":""img/green_ww/9.jpg"",""time"":451},{""stimulus"":""img/green_ww/10.jpg"",""time"":501},{""stimulus"":""img/green_ww/11.jpg"",""time"":552}]","[]"
"image-keyboard-response","20","45455","0.0-5.0-1.8","63df609cf58947e964792bb6","bdp_lott","Sun Mar 26 2023 08:03:40 GMT-0700 (Pacific Daylight Time)","278632","red","green","","584","","","","choice","","img/green_ww/choose11.jpg","2","217","red","0.5","0.5","0.5","l","",""
"animation","21","46055","0.0-5.0-2.8","63df609cf58947e964792bb6","bdp_lott","Sun Mar 26 2023 08:03:40 GMT-0700 (Pacific Daylight Time)","278632","red","green","","","","","","","","","","217","","","","","","[{""stimulus"":""img/red_wl/1.jpg"",""time"":51},{""stimulus"":""img/red_wl/2.jpg"",""time"":102},{""stimulus"":""img/red_wl/3.jpg"",""time"":151},{""stimulus"":""img/red_wl/4.jpg"",""time"":201},{""stimulus"":""img/red_wl/5.jpg"",""time"":251},{""stimulus"":""img/red_wl/6.jpg"",""time"":300},{""stimulus"":""img/red_wl/7.jpg"",""time"":351},{""stimulus"":""img/red_wl/8.jpg"",""time"":401},{""stimulus"":""img/red_wl/9.jpg"",""time"":450},{""stimulus"":""img/red_wl/10.jpg"",""time"":501},{""stimulus"":""img/red_wl/11.jpg"",""time"":551}]","[]"
"image-keyboard-response","22","46725","0.0-5.0-1.9","63df609cf58947e964792bb6","bdp_lott","Sun Mar 26 2023 08:03:40 GMT-0700 (Pacific Daylight Time)","278632","red","green","","669","","","","choice","","img/red_wl/choose11.jpg","1","216","green","0.5","0.5","0.5","l","",""
"animation","23","47326","0.0-5.0-2.9","63df609cf58947e964792bb6","bdp_lott","Sun Mar 26 2023 08:03:40 GMT-0700 (Pacific Daylight Time)","278632","red","green","","","","","","","","","","216","","","","","","[{""stimulus"":""img/green_ll/1.jpg"",""time"":51},{""stimulus"":""img/green_ll/2.jpg"",""time"":102},{""stimulus"":""img/green_ll/3.jpg"",""time"":152},{""stimulus"":""img/green_ll/4.jpg"",""time"":201},{""stimulus"":""img/green_ll/5.jpg"",""time"":251},{""stimulus"":""img/green_ll/6.jpg"",""time"":301},{""stimulus"":""img/green_ll/7.jpg"",""time"":352},{""stimulus"":""img/green_ll/8.jpg"",""time"":402},{""stimulus"":""img/green_ll/9.jpg"",""time"":451},{""stimulus"":""img/green_ll/10.jpg"",""time"":501},{""stimulus"":""img/green_ll/11.jpg"",""time"":551}]","[]"
"image-keyboard-response","24","47978","0.0-5.0-1.10","63df609cf58947e964792bb6","bdp_lott","Sun Mar 26 2023 08:03:40 GMT-0700 (Pacific Daylight Time)","278632","red","green","","651","","","","choice","","img/green_ll/choose11.jpg","2","215","red","0.5","0.5","0.5","w","",""
"animation","25","48579","0.0-5.0-2.10","63df609cf58947e964792bb6","bdp_lott","Sun Mar 26 2023 08:03:40 GMT-0700 (Pacific Daylight Time)","278632","red","green","","","","","","","","","","215","","","","","","[{""stimulus"":""img/red_lw/1.jpg"",""time"":51},{""stimulus"":""img/red_lw/2.jpg"",""time"":101},{""stimulus"":""img/red_lw/3.jpg"",""time"":151},{""stimulus"":""img/red_lw/4.jpg"",""time"":202},{""stimulus"":""img/red_lw/5.jpg"",""time"":252},{""stimulus"":""img/red_lw/6.jpg"",""time"":302},{""stimulus"":""img/red_lw/7.jpg"",""time"":351},{""stimulus"":""img/red_lw/8.jpg"",""time"":402},{""stimulus"":""img/red_lw/9.jpg"",""time"":452},{""stimulus"":""img/red_lw/10.jpg"",""time"":501},{""stimulus"":""img/red_lw/11.jpg"",""time"":552}]","[]"
"image-keyboard-response","26","49486","0.0-5.0-1.11","63df609cf58947e964792bb6","bdp_lott","Sun Mar 26 2023 08:03:40 GMT-0700 (Pacific Daylight Time)","278632","red","green","","906","","","","choice","","img/red_lw/choose11.jpg","1","214","green","0.5","0.5","0.5","w","",""
"animation","27","50086","0.0-5.0-2.11","63df609cf58947e964792bb6","bdp_lott","Sun Mar 26 2023 08:03:40 GMT-0700 (Pacific Daylight Time)","278632","red","green","","","","","","","","","","214","","","","","","[{""stimulus"":""img/green_ww/1.jpg"",""time"":51},{""stimulus"":""img/green_ww/2.jpg"",""time"":101},{""stimulus"":""img/green_ww/3.jpg"",""time"":150},{""stimulus"":""img/green_ww/4.jpg"",""time"":201},{""stimulus"":""img/green_ww/5.jpg"",""time"":251},{""stimulus"":""img/green_ww/6.jpg"",""time"":300},{""stimulus"":""img/green_ww/7.jpg"",""time"":351},{""stimulus"":""img/green_ww/8.jpg"",""time"":401},{""stimulus"":""img/green_ww/9.jpg"",""time"":450},{""stimulus"":""img/green_ww/10.jpg"",""time"":500},{""stimulus"":""img/green_ww/11.jpg"",""time"":552}]","[]"
"image-keyboard-response","28","51181","0.0-5.0-1.12","63df609cf58947e964792bb6","bdp_lott","Sun Mar 26 2023 08:03:40 GMT-0700 (Pacific Daylight Time)","278632","red","green","","1094","","","","choice","","img/green_ww/choose11.jpg","2","213","red","0.5","0.5","0.5","l","",""
"animation","29","51782","0.0-5.0-2.12","63df609cf58947e964792bb6","bdp_lott","Sun Mar 26 2023 08:03:40 GMT-0700 (Pacific Daylight Time)","278632","red","green","","","","","","","","","","213","","","","","","[{""stimulus"":""img/red_wl/1.jpg"",""time"":51},{""stimulus"":""img/red_wl/2.jpg"",""time"":101},{""stimulus"":""img/red_wl/3.jpg"",""time"":151},{""stimulus"":""img/red_wl/4.jpg"",""time"":201},{""stimulus"":""img/red_wl/5.jpg"",""time"":251},{""stimulus"":""img/red_wl/6.jpg"",""time"":302},{""stimulus"":""img/red_wl/7.jpg"",""time"":352},{""stimulus"":""img/red_wl/8.jpg"",""time"":401},{""stimulus"":""img/red_wl/9.jpg"",""time"":452},{""stimulus"":""img/red_wl/10.jpg"",""time"":502},{""stimulus"":""img/red_wl/11.jpg"",""time"":552}]","[]"
"image-keyboard-response","30","52418","0.0-5.0-1.13","63df609cf58947e964792bb6","bdp_lott","Sun Mar 26 2023 08:03:40 GMT-0700 (Pacific Daylight Time)","278632","red","green","","635","","","","choice","","img/red_wl/choose11.jpg","2","212","red","0.5","0.5","0.5","w","",""
"animation","31","53019","0.0-5.0-2.13","63df609cf58947e964792bb6","bdp_lott","Sun Mar 26 2023 08:03:40 GMT-0700 (Pacific Daylight Time)","278632","red","green","","","","","","","","","","212","","","","","","[{""stimulus"":""img/red_ww/1.jpg"",""time"":52},{""stimulus"":""img/red_ww/2.jpg"",""time"":101},{""stimulus"":""img/red_ww/3.jpg"",""time"":151},{""stimulus"":""img/red_ww/4.jpg"",""time"":201},{""stimulus"":""img/red_ww/5.jpg"",""time"":251},{""stimulus"":""img/red_ww/6.jpg"",""time"":301},{""stimulus"":""img/red_ww/7.jpg"",""time"":352},{""stimulus"":""img/red_ww/8.jpg"",""time"":402},{""stimulus"":""img/red_ww/9.jpg"",""time"":452},{""stimulus"":""img/red_ww/10.jpg"",""time"":501},{""stimulus"":""img/red_ww/11.jpg"",""time"":551}]","[]"
"image-keyboard-response","32","54059","0.0-5.0-1.14","63df609cf58947e964792bb6","bdp_lott","Sun Mar 26 2023 08:03:40 GMT-0700 (Pacific Daylight Time)","278632","red","green","","1039","","","","choice","","img/red_ww/choose11.jpg","1","211","green","0.5","0.5","0.5","l","",""
"animation","33","54661","0.0-5.0-2.14","63df609cf58947e964792bb6","bdp_lott","Sun Mar 26 2023 08:03:40 GMT-0700 (Pacific Daylight Time)","278632","red","green","","","","","","","","","","211","","","","","","[{""stimulus"":""img/green_lw/1.jpg"",""time"":51},{""stimulus"":""img/green_lw/2.jpg"",""time"":101},{""stimulus"":""img/green_lw/3.jpg"",""time"":150},{""stimulus"":""img/green_lw/4.jpg"",""time"":201},{""stimulus"":""img/green_lw/5.jpg"",""time"":252},{""stimulus"":""img/green_lw/6.jpg"",""time"":301},{""stimulus"":""img/green_lw/7.jpg"",""time"":351},{""stimulus"":""img/green_lw/8.jpg"",""time"":401},{""stimulus"":""img/green_lw/9.jpg"",""time"":451},{""stimulus"":""img/green_lw/10.jpg"",""time"":501},{""stimulus"":""img/green_lw/11.jpg"",""time"":551}]","[]"
"image-keyboard-response","34","55359","0.0-5.0-1.15","63df609cf58947e964792bb6","bdp_lott","Sun Mar 26 2023 08:03:40 GMT-0700 (Pacific Daylight Time)","278632","red","green","","698","","","","choice","","img/green_lw/choose11.jpg","1","210","green","0.5","0.5","0.5","w","",""
"animation","35","55959","0.0-5.0-2.15","63df609cf58947e964792bb6","bdp_lott","Sun Mar 26 2023 08:03:40 GMT-0700 (Pacific Daylight Time)","278632","red","green","","","","","","","","","","210","","","","","","[{""stimulus"":""img/green_ww/1.jpg"",""time"":51},{""stimulus"":""img/green_ww/2.jpg"",""time"":101},{""stimulus"":""img/green_ww/3.jpg"",""time"":151},{""stimulus"":""img/green_ww/4.jpg"",""time"":201},{""stimulus"":""img/green_ww/5.jpg"",""time"":251},{""stimulus"":""img/green_ww/6.jpg"",""time"":314},{""stimulus"":""img/green_ww/7.jpg"",""time"":351},{""stimulus"":""img/green_ww/8.jpg"",""time"":402},{""stimulus"":""img/green_ww/9.jpg"",""time"":451},{""stimulus"":""img/green_ww/10.jpg"",""time"":501},{""stimulus"":""img/green_ww/11.jpg"",""time"":551}]","[]"
"image-keyboard-response","36","56829","0.0-5.0-1.16","63df609cf58947e964792bb6","bdp_lott","Sun Mar 26 2023 08:03:40 GMT-0700 (Pacific Daylight Time)","278632","red","green","","869","","","","choice","","img/green_ww/choose11.jpg","1","209","green","0.5","0.5","0.5","l","",""
"animation","37","57429","0.0-5.0-2.16","63df609cf58947e964792bb6","bdp_lott","Sun Mar 26 2023 08:03:40 GMT-0700 (Pacific Daylight Time)","278632","red","green","","","","","","","","","","209","","","","","","[{""stimulus"":""img/green_lw/1.jpg"",""time"":51},{""stimulus"":""img/green_lw/2.jpg"",""time"":100},{""stimulus"":""img/green_lw/3.jpg"",""time"":151},{""stimulus"":""img/green_lw/4.jpg"",""time"":200},{""stimulus"":""img/green_lw/5.jpg"",""time"":251},{""stimulus"":""img/green_lw/6.jpg"",""time"":301},{""stimulus"":""img/green_lw/7.jpg"",""time"":351},{""stimulus"":""img/green_lw/8.jpg"",""time"":401},{""stimulus"":""img/green_lw/9.jpg"",""time"":452},{""stimulus"":""img/green_lw/10.jpg"",""time"":500},{""stimulus"":""img/green_lw/11.jpg"",""time"":551}]","[]"
"image-keyboard-response","38","58340","0.0-5.0-1.17","63df609cf58947e964792bb6","bdp_lott","Sun Mar 26 2023 08:03:40 GMT-0700 (Pacific Daylight Time)","278632","red","green","","910","","","","choice","","img/green_lw/choose11.jpg","1","208","green","0.5","0.5","0.5","w","",""
"animation","39","58941","0.0-5.0-2.17","63df609cf58947e964792bb6","bdp_lott","Sun Mar 26 2023 08:03:40 GMT-0700 (Pacific Daylight Time)","278632","red","green","","","","","","","","","","208","","","","","","[{""stimulus"":""img/green_ww/1.jpg"",""time"":51},{""stimulus"":""img/green_ww/2.jpg"",""time"":101},{""stimulus"":""img/green_ww/3.jpg"",""time"":152},{""stimulus"":""img/green_ww/4.jpg"",""time"":201},{""stimulus"":""img/green_ww/5.jpg"",""time"":251},{""stimulus"":""img/green_ww/6.jpg"",""time"":302},{""stimulus"":""img/green_ww/7.jpg"",""time"":351},{""stimulus"":""img/green_ww/8.jpg"",""time"":402},{""stimulus"":""img/green_ww/9.jpg"",""time"":452},{""stimulus"":""img/green_ww/10.jpg"",""time"":501},{""stimulus"":""img/green_ww/11.jpg"",""time"":551}]","[]"
"image-keyboard-response","40","59605","0.0-5.0-1.18","63df609cf58947e964792bb6","bdp_lott","Sun Mar 26 2023 08:03:40 GMT-0700 (Pacific Daylight Time)","278632","red","green","","664","","","","choice","","img/green_ww/choose11.jpg","2","207","red","0.5","0.5","0.5","l","",""
"animation","41","60206","0.0-5.0-2.18","63df609cf58947e964792bb6","bdp_lott","Sun Mar 26 2023 08:03:40 GMT-0700 (Pacific Daylight Time)","278632","red","green","","","","","","","","","","207","","","","","","[{""stimulus"":""img/red_wl/1.jpg"",""time"":51},{""stimulus"":""img/red_wl/2.jpg"",""time"":101},{""stimulus"":""img/red_wl/3.jpg"",""time"":151},{""stimulus"":""img/red_wl/4.jpg"",""time"":201},{""stimulus"":""img/red_wl/5.jpg"",""time"":251},{""stimulus"":""img/red_wl/6.jpg"",""time"":301},{""stimulus"":""img/red_wl/7.jpg"",""time"":352},{""stimulus"":""img/red_wl/8.jpg"",""time"":401},{""stimulus"":""img/red_wl/9.jpg"",""time"":452},{""stimulus"":""img/red_wl/10.jpg"",""time"":501},{""stimulus"":""img/red_wl/11.jpg"",""time"":551}]","[]"
"image-keyboard-response","42","60535","0.0-5.0-1.19","63df609cf58947e964792bb6","bdp_lott","Sun Mar 26 2023 08:03:40 GMT-0700 (Pacific Daylight Time)","278632","red","green","","328","","","","choice","","img/red_wl/choose11.jpg","2","206","red","0.5","0.5","0.5","w","",""
"animation","43","61136","0.0-5.0-2.19","63df609cf58947e964792bb6","bdp_lott","Sun Mar 26 2023 08:03:40 GMT-0700 (Pacific Daylight Time)","278632","red","green","","","","","","","","","","206","","","","","","[{""stimulus"":""img/red_ww/1.jpg"",""time"":52},{""stimulus"":""img/red_ww/2.jpg"",""time"":102},{""stimulus"":""img/red_ww/3.jpg"",""time"":151},{""stimulus"":""img/red_ww/4.jpg"",""time"":202},{""stimulus"":""img/red_ww/5.jpg"",""time"":252},{""stimulus"":""img/red_ww/6.jpg"",""time"":301},{""stimulus"":""img/red_ww/7.jpg"",""time"":351},{""stimulus"":""img/red_ww/8.jpg"",""time"":401},{""stimulus"":""img/red_ww/9.jpg"",""time"":451},{""stimulus"":""img/red_ww/10.jpg"",""time"":501},{""stimulus"":""img/red_ww/11.jpg"",""time"":551}]","[]"
"image-keyboard-response","44","61621","0.0-5.0-1.20","63df609cf58947e964792bb6","bdp_lott","Sun Mar 26 2023 08:03:40 GMT-0700 (Pacific Daylight Time)","278632","red","green","","483","","","","choice","","img/red_ww/choose11.jpg","2","205","red","0.5","0.5","0.5","w","",""
"animation","45","62222","0.0-5.0-2.20","63df609cf58947e964792bb6","bdp_lott","Sun Mar 26 2023 08:03:40 GMT-0700 (Pacific Daylight Time)","278632","red","green","","","","","","","","","","205","","","","","","[{""stimulus"":""img/red_ww/1.jpg"",""time"":51},{""stimulus"":""img/red_ww/2.jpg"",""time"":101},{""stimulus"":""img/red_ww/3.jpg"",""time"":151},{""stimulus"":""img/red_ww/4.jpg"",""time"":201},{""stimulus"":""img/red_ww/5.jpg"",""time"":250},{""stimulus"":""img/red_ww/6.jpg"",""time"":300},{""stimulus"":""img/red_ww/7.jpg"",""time"":350},{""stimulus"":""img/red_ww/8.jpg"",""time"":401},{""stimulus"":""img/red_ww/9.jpg"",""time"":451},{""stimulus"":""img/red_ww/10.jpg"",""time"":501},{""stimulus"":""img/red_ww/11.jpg"",""time"":551}]","[]"
"image-keyboard-response","46","62746","0.0-5.0-1.21","63df609cf58947e964792bb6","bdp_lott","Sun Mar 26 2023 08:03:40 GMT-0700 (Pacific Daylight Time)","278632","red","green","","524","","","","choice","","img/red_ww/choose11.jpg","2","204","red","0.5","0.5","0.5","l","",""
"animation","47","63348","0.0-5.0-2.21","63df609cf58947e964792bb6","bdp_lott","Sun Mar 26 2023 08:03:40 GMT-0700 (Pacific Daylight Time)","278632","red","green","","","","","","","","","","204","","","","","","[{""stimulus"":""img/red_wl/1.jpg"",""time"":52},{""stimulus"":""img/red_wl/2.jpg"",""time"":102},{""stimulus"":""img/red_wl/3.jpg"",""time"":152},{""stimulus"":""img/red_wl/4.jpg"",""time"":201},{""stimulus"":""img/red_wl/5.jpg"",""time"":251},{""stimulus"":""img/red_wl/6.jpg"",""time"":301},{""stimulus"":""img/red_wl/7.jpg"",""time"":351},{""stimulus"":""img/red_wl/8.jpg"",""time"":402},{""stimulus"":""img/red_wl/9.jpg"",""time"":451},{""stimulus"":""img/red_wl/10.jpg"",""time"":502},{""stimulus"":""img/red_wl/11.jpg"",""time"":552}]","[]"
"image-keyboard-response","48","63764","0.0-5.0-1.22","63df609cf58947e964792bb6","bdp_lott","Sun Mar 26 2023 08:03:40 GMT-0700 (Pacific Daylight Time)","278632","red","green","","415","","","","choice","","img/red_wl/choose11.jpg","2","203","red","0.5","0.5","0.5","w","",""
"animation","49","64365","0.0-5.0-2.22","63df609cf58947e964792bb6","bdp_lott","Sun Mar 26 2023 08:03:40 GMT-0700 (Pacific Daylight Time)","278632","red","green","","","","","","","","","","203","","","","","","[{""stimulus"":""img/red_ww/1.jpg"",""time"":51},{""stimulus"":""img/red_ww/2.jpg"",""time"":101},{""stimulus"":""img/red_ww/3.jpg"",""time"":151},{""stimulus"":""img/red_ww/4.jpg"",""time"":201},{""stimulus"":""img/red_ww/5.jpg"",""time"":251},{""stimulus"":""img/red_ww/6.jpg"",""time"":301},{""stimulus"":""img/red_ww/7.jpg"",""time"":351},{""stimulus"":""img/red_ww/8.jpg"",""time"":401},{""stimulus"":""img/red_ww/9.jpg"",""time"":451},{""stimulus"":""img/red_ww/10.jpg"",""time"":501},{""stimulus"":""img/red_ww/11.jpg"",""time"":551}]","[]"
"image-keyboard-response","50","64760","0.0-5.0-1.23","63df609cf58947e964792bb6","bdp_lott","Sun Mar 26 2023 08:03:40 GMT-0700 (Pacific Daylight Time)","278632","red","green","","394","","","","choice","","img/red_ww/choose11.jpg","1","202","green","0.5","0.5","0.5","w","",""
"animation","51","65360","0.0-5.0-2.23","63df609cf58947e964792bb6","bdp_lott","Sun Mar 26 2023 08:03:40 GMT-0700 (Pacific Daylight Time)","278632","red","green","","","","","","","","","","202","","","","","","[{""stimulus"":""img/green_ww/1.jpg"",""time"":51},{""stimulus"":""img/green_ww/2.jpg"",""time"":101},{""stimulus"":""img/green_ww/3.jpg"",""time"":150},{""stimulus"":""img/green_ww/4.jpg"",""time"":201},{""stimulus"":""img/green_ww/5.jpg"",""time"":251},{""stimulus"":""img/green_ww/6.jpg"",""time"":300},{""stimulus"":""img/green_ww/7.jpg"",""time"":350},{""stimulus"":""img/green_ww/8.jpg"",""time"":401},{""stimulus"":""img/green_ww/9.jpg"",""time"":450},{""stimulus"":""img/green_ww/10.jpg"",""time"":500},{""stimulus"":""img/green_ww/11.jpg"",""time"":550}]","[]"
"image-keyboard-response","52","66236","0.0-5.0-1.24","63df609cf58947e964792bb6","bdp_lott","Sun Mar 26 2023 08:03:40 GMT-0700 (Pacific Daylight Time)","278632","red","green","","875","","","","choice","","img/green_ww/choose11.jpg","2","201","red","0.5","0.5","0.5","w","",""
"animation","53","66837","0.0-5.0-2.24","63df609cf58947e964792bb6","bdp_lott","Sun Mar 26 2023 08:03:40 GMT-0700 (Pacific Daylight Time)","278632","red","green","","","","","","","","","","201","","","","","","[{""stimulus"":""img/red_ww/1.jpg"",""time"":51},{""stimulus"":""img/red_ww/2.jpg"",""time"":101},{""stimulus"":""img/red_ww/3.jpg"",""time"":150},{""stimulus"":""img/red_ww/4.jpg"",""time"":201},{""stimulus"":""img/red_ww/5.jpg"",""time"":250},{""stimulus"":""img/red_ww/6.jpg"",""time"":301},{""stimulus"":""img/red_ww/7.jpg"",""time"":351},{""stimulus"":""img/red_ww/8.jpg"",""time"":401},{""stimulus"":""img/red_ww/9.jpg"",""time"":451},{""stimulus"":""img/red_ww/10.jpg"",""time"":501},{""stimulus"":""img/red_ww/11.jpg"",""time"":550}]","[]"
"image-keyboard-response","54","67954","0.0-5.0-1.25","63df609cf58947e964792bb6","bdp_lott","Sun Mar 26 2023 08:03:40 GMT-0700 (Pacific Daylight Time)","278632","red","green","","1116","","","","choice","","img/red_ww/choose11.jpg","1","200","green","0.5","0.5","0.5","l","",""
"animation","55","68555","0.0-5.0-2.25","63df609cf58947e964792bb6","bdp_lott","Sun Mar 26 2023 08:03:40 GMT-0700 (Pacific Daylight Time)","278632","red","green","","","","","","","","","","200","","","","","","[{""stimulus"":""img/green_lw/1.jpg"",""time"":51},{""stimulus"":""img/green_lw/2.jpg"",""time"":102},{""stimulus"":""img/green_lw/3.jpg"",""time"":151},{""stimulus"":""img/green_lw/4.jpg"",""time"":201},{""stimulus"":""img/green_lw/5.jpg"",""time"":251},{""stimulus"":""img/green_lw/6.jpg"",""time"":301},{""stimulus"":""img/green_lw/7.jpg"",""time"":351},{""stimulus"":""img/green_lw/8.jpg"",""time"":401},{""stimulus"":""img/green_lw/9.jpg"",""time"":452},{""stimulus"":""img/green_lw/10.jpg"",""time"":500},{""stimulus"":""img/green_lw/11.jpg"",""time"":551}]","[]"
"image-keyboard-response","56","69364","0.0-5.0-1.26","63df609cf58947e964792bb6","bdp_lott","Sun Mar 26 2023 08:03:40 GMT-0700 (Pacific Daylight Time)","278632","red","green","","808","","","","choice","","img/green_lw/choose11.jpg","2","199","red","0.5","0.5","0.5","l","",""
"animation","57","69966","0.0-5.0-2.26","63df609cf58947e964792bb6","bdp_lott","Sun Mar 26 2023 08:03:40 GMT-0700 (Pacific Daylight Time)","278632","red","green","","","","","","","","","","199","","","","","","[{""stimulus"":""img/red_ll/1.jpg"",""time"":56},{""stimulus"":""img/red_ll/2.jpg"",""time"":100},{""stimulus"":""img/red_ll/3.jpg"",""time"":150},{""stimulus"":""img/red_ll/4.jpg"",""time"":200},{""stimulus"":""img/red_ll/5.jpg"",""time"":251},{""stimulus"":""img/red_ll/6.jpg"",""time"":301},{""stimulus"":""img/red_ll/7.jpg"",""time"":350},{""stimulus"":""img/red_ll/8.jpg"",""time"":400},{""stimulus"":""img/red_ll/9.jpg"",""time"":450},{""stimulus"":""img/red_ll/10.jpg"",""time"":501},{""stimulus"":""img/red_ll/11.jpg"",""time"":550}]","[]"
"image-keyboard-response","58","70283","0.0-5.0-1.27","63df609cf58947e964792bb6","bdp_lott","Sun Mar 26 2023 08:03:40 GMT-0700 (Pacific Daylight Time)","278632","red","green","","316","","","","choice","","img/red_ll/choose11.jpg","2","198","red","0.5","0.5","0.5","l","",""
"animation","59","70884","0.0-5.0-2.27","63df609cf58947e964792bb6","bdp_lott","Sun Mar 26 2023 08:03:40 GMT-0700 (Pacific Daylight Time)","278632","red","green","","","","","","","","","","198","","","","","","[{""stimulus"":""img/red_ll/1.jpg"",""time"":51},{""stimulus"":""img/red_ll/2.jpg"",""time"":101},{""stimulus"":""img/red_ll/3.jpg"",""time"":152},{""stimulus"":""img/red_ll/4.jpg"",""time"":201},{""stimulus"":""img/red_ll/5.jpg"",""time"":251},{""stimulus"":""img/red_ll/6.jpg"",""time"":301},{""stimulus"":""img/red_ll/7.jpg"",""time"":352},{""stimulus"":""img/red_ll/8.jpg"",""time"":401},{""stimulus"":""img/red_ll/9.jpg"",""time"":451},{""stimulus"":""img/red_ll/10.jpg"",""time"":502},{""stimulus"":""img/red_ll/11.jpg"",""time"":551}]","[]"
"image-keyboard-response","60","71344","0.0-5.0-1.28","63df609cf58947e964792bb6","bdp_lott","Sun Mar 26 2023 08:03:40 GMT-0700 (Pacific Daylight Time)","278632","red","green","","459","","","","choice","","img/red_ll/choose11.jpg","1","197","green","0.5","0.5","0.5","w","",""
"animation","61","71945","0.0-5.0-2.28","63df609cf58947e964792bb6","bdp_lott","Sun Mar 26 2023 08:03:40 GMT-0700 (Pacific Daylight Time)","278632","red","green","","","","","","","","","","197","","","","","","[{""stimulus"":""img/green_wl/1.jpg"",""time"":50},{""stimulus"":""img/green_wl/2.jpg"",""time"":102},{""stimulus"":""img/green_wl/3.jpg"",""time"":151},{""stimulus"":""img/green_wl/4.jpg"",""time"":201},{""stimulus"":""img/green_wl/5.jpg"",""time"":251},{""stimulus"":""img/green_wl/6.jpg"",""time"":301},{""stimulus"":""img/green_wl/7.jpg"",""time"":351},{""stimulus"":""img/green_wl/8.jpg"",""time"":401},{""stimulus"":""img/green_wl/9.jpg"",""time"":450},{""stimulus"":""img/green_wl/10.jpg"",""time"":500},{""stimulus"":""img/green_wl/11.jpg"",""time"":551}]","[]"
"image-keyboard-response","62","72673","0.0-5.0-1.29","63df609cf58947e964792bb6","bdp_lott","Sun Mar 26 2023 08:03:40 GMT-0700 (Pacific Daylight Time)","278632","red","green","","727","","","","choice","","img/green_wl/choose11.jpg","1","196","green","0.5","0.5","0.5","l","",""
"animation","63","73274","0.0-5.0-2.29","63df609cf58947e964792bb6","bdp_lott","Sun Mar 26 2023 08:03:40 GMT-0700 (Pacific Daylight Time)","278632","red","green","","","","","","","","","","196","","","","","","[{""stimulus"":""img/green_ll/1.jpg"",""time"":51},{""stimulus"":""img/green_ll/2.jpg"",""time"":102},{""stimulus"":""img/green_ll/3.jpg"",""time"":151},{""stimulus"":""img/green_ll/4.jpg"",""time"":201},{""stimulus"":""img/green_ll/5.jpg"",""time"":251},{""stimulus"":""img/green_ll/6.jpg"",""time"":301},{""stimulus"":""img/green_ll/7.jpg"",""time"":351},{""stimulus"":""img/green_ll/8.jpg"",""time"":401},{""stimulus"":""img/green_ll/9.jpg"",""time"":451},{""stimulus"":""img/green_ll/10.jpg"",""time"":502},{""stimulus"":""img/green_ll/11.jpg"",""time"":551}]","[]"
"image-keyboard-response","64","73955","0.0-5.0-1.30","63df609cf58947e964792bb6","bdp_lott","Sun Mar 26 2023 08:03:40 GMT-0700 (Pacific Daylight Time)","278632","red","green","","681","","","","choice","","img/green_ll/choose11.jpg","2","195","red","0.5","0.5","0.5","w","",""
"animation","65","74556","0.0-5.0-2.30","63df609cf58947e964792bb6","bdp_lott","Sun Mar 26 2023 08:03:40 GMT-0700 (Pacific Daylight Time)","278632","red","green","","","","","","","","","","195","","","","","","[{""stimulus"":""img/red_lw/1.jpg"",""time"":52},{""stimulus"":""img/red_lw/2.jpg"",""time"":101},{""stimulus"":""img/red_lw/3.jpg"",""time"":151},{""stimulus"":""img/red_lw/4.jpg"",""time"":201},{""stimulus"":""img/red_lw/5.jpg"",""time"":252},{""stimulus"":""img/red_lw/6.jpg"",""time"":301},{""stimulus"":""img/red_lw/7.jpg"",""time"":351},{""stimulus"":""img/red_lw/8.jpg"",""time"":401},{""stimulus"":""img/red_lw/9.jpg"",""time"":452},{""stimulus"":""img/red_lw/10.jpg"",""time"":501},{""stimulus"":""img/red_lw/11.jpg"",""time"":551}]","[]"
"image-keyboard-response","66","75113","0.0-5.0-1.31","63df609cf58947e964792bb6","bdp_lott","Sun Mar 26 2023 08:03:40 GMT-0700 (Pacific Daylight Time)","278632","red","green","","556","","","","choice","","img/red_lw/choose11.jpg","1","194","green","0.5","0.5","0.5","w","",""
"animation","67","75714","0.0-5.0-2.31","63df609cf58947e964792bb6","bdp_lott","Sun Mar 26 2023 08:03:40 GMT-0700 (Pacific Daylight Time)","278632","red","green","","","","","","","","","","194","","","","","","[{""stimulus"":""img/green_ww/1.jpg"",""time"":51},{""stimulus"":""img/green_ww/2.jpg"",""time"":101},{""stimulus"":""img/green_ww/3.jpg"",""time"":151},{""stimulus"":""img/green_ww/4.jpg"",""time"":201},{""stimulus"":""img/green_ww/5.jpg"",""time"":251},{""stimulus"":""img/green_ww/6.jpg"",""time"":300},{""stimulus"":""img/green_ww/7.jpg"",""time"":351},{""stimulus"":""img/green_ww/8.jpg"",""time"":401},{""stimulus"":""img/green_ww/9.jpg"",""time"":450},{""stimulus"":""img/green_ww/10.jpg"",""time"":501},{""stimulus"":""img/green_ww/11.jpg"",""time"":550}]","[]"
"image-keyboard-response","68","76250","0.0-5.0-1.32","63df609cf58947e964792bb6","bdp_lott","Sun Mar 26 2023 08:03:40 GMT-0700 (Pacific Daylight Time)","278632","red","green","","535","","","","choice","","img/green_ww/choose11.jpg","2","193","red","0.5","0.5","0.5","w","",""
"animation","69","76851","0.0-5.0-2.32","63df609cf58947e964792bb6","bdp_lott","Sun Mar 26 2023 08:03:40 GMT-0700 (Pacific Daylight Time)","278632","red","green","","","","","","","","","","193","","","","","","[{""stimulus"":""img/red_ww/1.jpg"",""time"":51},{""stimulus"":""img/red_ww/2.jpg"",""time"":101},{""stimulus"":""img/red_ww/3.jpg"",""time"":151},{""stimulus"":""img/red_ww/4.jpg"",""time"":201},{""stimulus"":""img/red_ww/5.jpg"",""time"":251},{""stimulus"":""img/red_ww/6.jpg"",""time"":301},{""stimulus"":""img/red_ww/7.jpg"",""time"":351},{""stimulus"":""img/red_ww/8.jpg"",""time"":401},{""stimulus"":""img/red_ww/9.jpg"",""time"":451},{""stimulus"":""img/red_ww/10.jpg"",""time"":501},{""stimulus"":""img/red_ww/11.jpg"",""time"":551}]","[]"
"image-keyboard-response","70","77360","0.0-5.0-1.33","63df609cf58947e964792bb6","bdp_lott","Sun Mar 26 2023 08:03:40 GMT-0700 (Pacific Daylight Time)","278632","red","green","","509","","","","choice","","img/red_ww/choose11.jpg","1","192","green","0.5","0.5","0.5","l","",""
"animation","71","77961","0.0-5.0-2.33","63df609cf58947e964792bb6","bdp_lott","Sun Mar 26 2023 08:03:40 GMT-0700 (Pacific Daylight Time)","278632","red","green","","","","","","","","","","192","","","","","","[{""stimulus"":""img/green_lw/1.jpg"",""time"":51},{""stimulus"":""img/green_lw/2.jpg"",""time"":101},{""stimulus"":""img/green_lw/3.jpg"",""time"":151},{""stimulus"":""img/green_lw/4.jpg"",""time"":201},{""stimulus"":""img/green_lw/5.jpg"",""time"":251},{""stimulus"":""img/green_lw/6.jpg"",""time"":301},{""stimulus"":""img/green_lw/7.jpg"",""time"":351},{""stimulus"":""img/green_lw/8.jpg"",""time"":401},{""stimulus"":""img/green_lw/9.jpg"",""time"":452},{""stimulus"":""img/green_lw/10.jpg"",""time"":501},{""stimulus"":""img/green_lw/11.jpg"",""time"":551}]","[]"
"image-keyboard-response","72","78389","0.0-5.0-1.34","63df609cf58947e964792bb6","bdp_lott","Sun Mar 26 2023 08:03:40 GMT-0700 (Pacific Daylight Time)","278632","red","green","","426","","","","choice","","img/green_lw/choose11.jpg","2","191","red","0.5","0.5","0.5","w","",""
"animation","73","78989","0.0-5.0-2.34","63df609cf58947e964792bb6","bdp_lott","Sun Mar 26 2023 08:03:40 GMT-0700 (Pacific Daylight Time)","278632","red","green","","","","","","","","","","191","","","","","","[{""stimulus"":""img/red_lw/1.jpg"",""time"":51},{""stimulus"":""img/red_lw/2.jpg"",""time"":101},{""stimulus"":""img/red_lw/3.jpg"",""time"":150},{""stimulus"":""img/red_lw/4.jpg"",""time"":200},{""stimulus"":""img/red_lw/5.jpg"",""time"":251},{""stimulus"":""img/red_lw/6.jpg"",""time"":300},{""stimulus"":""img/red_lw/7.jpg"",""time"":351},{""stimulus"":""img/red_lw/8.jpg"",""time"":400},{""stimulus"":""img/red_lw/9.jpg"",""time"":450},{""stimulus"":""img/red_lw/10.jpg"",""time"":501},{""stimulus"":""img/red_lw/11.jpg"",""time"":550}]","[]"
"image-keyboard-response","74","79269","0.0-5.0-1.35","63df609cf58947e964792bb6","bdp_lott","Sun Mar 26 2023 08:03:40 GMT-0700 (Pacific Daylight Time)","278632","red","green","","279","","","","choice","","img/red_lw/choose11.jpg","1","190","green","0.5","0.5","0.5","w","",""
"animation","75","79870","0.0-5.0-2.35","63df609cf58947e964792bb6","bdp_lott","Sun Mar 26 2023 08:03:40 GMT-0700 (Pacific Daylight Time)","278632","red","green","","","","","","","","","","190","","","","","","[{""stimulus"":""img/green_ww/1.jpg"",""time"":51},{""stimulus"":""img/green_ww/2.jpg"",""time"":101},{""stimulus"":""img/green_ww/3.jpg"",""time"":151},{""stimulus"":""img/green_ww/4.jpg"",""time"":200},{""stimulus"":""img/green_ww/5.jpg"",""time"":250},{""stimulus"":""img/green_ww/6.jpg"",""time"":301},{""stimulus"":""img/green_ww/7.jpg"",""time"":350},{""stimulus"":""img/green_ww/8.jpg"",""time"":400},{""stimulus"":""img/green_ww/9.jpg"",""time"":451},{""stimulus"":""img/green_ww/10.jpg"",""time"":500},{""stimulus"":""img/green_ww/11.jpg"",""time"":550}]","[]"
"image-keyboard-response","76","80360","0.0-5.0-1.36","63df609cf58947e964792bb6","bdp_lott","Sun Mar 26 2023 08:03:40 GMT-0700 (Pacific Daylight Time)","278632","red","green","","489","","","","choice","","img/green_ww/choose11.jpg","2","189","red","0.5","0.5","0.5","w","",""
"animation","77","80961","0.0-5.0-2.36","63df609cf58947e964792bb6","bdp_lott","Sun Mar 26 2023 08:03:40 GMT-0700 (Pacific Daylight Time)","278632","red","green","","","","","","","","","","189","","","","","","[{""stimulus"":""img/red_ww/1.jpg"",""time"":52},{""stimulus"":""img/red_ww/2.jpg"",""time"":102},{""stimulus"":""img/red_ww/3.jpg"",""time"":151},{""stimulus"":""img/red_ww/4.jpg"",""time"":201},{""stimulus"":""img/red_ww/5.jpg"",""time"":251},{""stimulus"":""img/red_ww/6.jpg"",""time"":301},{""stimulus"":""img/red_ww/7.jpg"",""time"":351},{""stimulus"":""img/red_ww/8.jpg"",""time"":401},{""stimulus"":""img/red_ww/9.jpg"",""time"":451},{""stimulus"":""img/red_ww/10.jpg"",""time"":501},{""stimulus"":""img/red_ww/11.jpg"",""time"":551}]","[]"
"image-keyboard-response","78","81328","0.0-5.0-1.37","63df609cf58947e964792bb6","bdp_lott","Sun Mar 26 2023 08:03:40 GMT-0700 (Pacific Daylight Time)","278632","red","green","","366","","","","choice","","img/red_ww/choose11.jpg","1","188","green","0.5","0.5","0.5","w","",""
"animation","79","81929","0.0-5.0-2.37","63df609cf58947e964792bb6","bdp_lott","Sun Mar 26 2023 08:03:40 GMT-0700 (Pacific Daylight Time)","278632","red","green","","","","","","","","","","188","","","","","","[{""stimulus"":""img/green_ww/1.jpg"",""time"":51},{""stimulus"":""img/green_ww/2.jpg"",""time"":101},{""stimulus"":""img/green_ww/3.jpg"",""time"":150},{""stimulus"":""img/green_ww/4.jpg"",""time"":201},{""stimulus"":""img/green_ww/5.jpg"",""time"":251},{""stimulus"":""img/green_ww/6.jpg"",""time"":301},{""stimulus"":""img/green_ww/7.jpg"",""time"":351},{""stimulus"":""img/green_ww/8.jpg"",""time"":401},{""stimulus"":""img/green_ww/9.jpg"",""time"":451},{""stimulus"":""img/green_ww/10.jpg"",""time"":501},{""stimulus"":""img/green_ww/11.jpg"",""time"":551}]","[]"
"image-keyboard-response","80","82285","0.0-5.0-1.38","63df609cf58947e964792bb6","bdp_lott","Sun Mar 26 2023 08:03:40 GMT-0700 (Pacific Daylight Time)","278632","red","green","","355","","","","choice","","img/green_ww/choose11.jpg","2","187","red","0.5","0.5","0.5","w","",""
"animation","81","82893","0.0-5.0-2.38","63df609cf58947e964792bb6","bdp_lott","Sun Mar 26 2023 08:03:40 GMT-0700 (Pacific Daylight Time)","278632","red","green","","","","","","","","","","187","","","","","","[{""stimulus"":""img/red_ww/1.jpg"",""time"":51},{""stimulus"":""img/red_ww/2.jpg"",""time"":101},{""stimulus"":""img/red_ww/3.jpg"",""time"":150},{""stimulus"":""img/red_ww/4.jpg"",""time"":201},{""stimulus"":""img/red_ww/5.jpg"",""time"":251},{""stimulus"":""img/red_ww/6.jpg"",""time"":300},{""stimulus"":""img/red_ww/7.jpg"",""time"":351},{""stimulus"":""img/red_ww/8.jpg"",""time"":401},{""stimulus"":""img/red_ww/9.jpg"",""time"":451},{""stimulus"":""img/red_ww/10.jpg"",""time"":500},{""stimulus"":""img/red_ww/11.jpg"",""time"":551}]","[]"
"image-keyboard-response","82","83147","0.0-5.0-1.39","63df609cf58947e964792bb6","bdp_lott","Sun Mar 26 2023 08:03:40 GMT-0700 (Pacific Daylight Time)","278632","red","green","","253","","","","choice","","img/red_ww/choose11.jpg","1","186","green","0.5","0.5","0.5","l","",""
"animation","83","83748","0.0-5.0-2.39","63df609cf58947e964792bb6","bdp_lott","Sun Mar 26 2023 08:03:40 GMT-0700 (Pacific Daylight Time)","278632","red","green","","","","","","","","","","186","","","","","","[{""stimulus"":""img/green_lw/1.jpg"",""time"":52},{""stimulus"":""img/green_lw/2.jpg"",""time"":101},{""stimulus"":""img/green_lw/3.jpg"",""time"":151},{""stimulus"":""img/green_lw/4.jpg"",""time"":201},{""stimulus"":""img/green_lw/5.jpg"",""time"":252},{""stimulus"":""img/green_lw/6.jpg"",""time"":301},{""stimulus"":""img/green_lw/7.jpg"",""time"":351},{""stimulus"":""img/green_lw/8.jpg"",""time"":402},{""stimulus"":""img/green_lw/9.jpg"",""time"":452},{""stimulus"":""img/green_lw/10.jpg"",""time"":501},{""stimulus"":""img/green_lw/11.jpg"",""time"":552}]","[]"
"image-keyboard-response","84","84161","0.0-5.0-1.40","63df609cf58947e964792bb6","bdp_lott","Sun Mar 26 2023 08:03:40 GMT-0700 (Pacific Daylight Time)","278632","red","green","","411","","","","choice","","img/green_lw/choose11.jpg","2","185","red","0.5","0.5","0.5","w","",""
"animation","85","84762","0.0-5.0-2.40","63df609cf58947e964792bb6","bdp_lott","Sun Mar 26 2023 08:03:40 GMT-0700 (Pacific Daylight Time)","278632","red","green","","","","","","","","","","185","","","","","","[{""stimulus"":""img/red_lw/1.jpg"",""time"":51},{""stimulus"":""img/red_lw/2.jpg"",""time"":100},{""stimulus"":""img/red_lw/3.jpg"",""time"":150},{""stimulus"":""img/red_lw/4.jpg"",""time"":202},{""stimulus"":""img/red_lw/5.jpg"",""time"":250},{""stimulus"":""img/red_lw/6.jpg"",""time"":300},{""stimulus"":""img/red_lw/7.jpg"",""time"":351},{""stimulus"":""img/red_lw/8.jpg"",""time"":401},{""stimulus"":""img/red_lw/9.jpg"",""time"":451},{""stimulus"":""img/red_lw/10.jpg"",""time"":501},{""stimulus"":""img/red_lw/11.jpg"",""time"":551}]","[]"
"image-keyboard-response","86","85120","0.0-5.0-1.41","63df609cf58947e964792bb6","bdp_lott","Sun Mar 26 2023 08:03:40 GMT-0700 (Pacific Daylight Time)","278632","red","green","","358","","","","choice","","img/red_lw/choose11.jpg","1","184","green","0.5","0.5","0.5","l","",""
"animation","87","85721","0.0-5.0-2.41","63df609cf58947e964792bb6","bdp_lott","Sun Mar 26 2023 08:03:40 GMT-0700 (Pacific Daylight Time)","278632","red","green","","","","","","","","","","184","","","","","","[{""stimulus"":""img/green_lw/1.jpg"",""time"":51},{""stimulus"":""img/green_lw/2.jpg"",""time"":101},{""stimulus"":""img/green_lw/3.jpg"",""time"":151},{""stimulus"":""img/green_lw/4.jpg"",""time"":201},{""stimulus"":""img/green_lw/5.jpg"",""time"":250},{""stimulus"":""img/green_lw/6.jpg"",""time"":300},{""stimulus"":""img/green_lw/7.jpg"",""time"":352},{""stimulus"":""img/green_lw/8.jpg"",""time"":401},{""stimulus"":""img/green_lw/9.jpg"",""time"":451},{""stimulus"":""img/green_lw/10.jpg"",""time"":511},{""stimulus"":""img/green_lw/11.jpg"",""time"":551}]","[]"
"image-keyboard-response","88","86022","0.0-5.0-1.42","63df609cf58947e964792bb6","bdp_lott","Sun Mar 26 2023 08:03:40 GMT-0700 (Pacific Daylight Time)","278632","red","green","","300","","","","choice","","img/green_lw/choose11.jpg","2","183","red","0.5","0.5","0.5","l","",""
"animation","89","86623","0.0-5.0-2.42","63df609cf58947e964792bb6","bdp_lott","Sun Mar 26 2023 08:03:40 GMT-0700 (Pacific Daylight Time)","278632","red","green","","","","","","","","","","183","","","","","","[{""stimulus"":""img/red_ll/1.jpg"",""time"":50},{""stimulus"":""img/red_ll/2.jpg"",""time"":101},{""stimulus"":""img/red_ll/3.jpg"",""time"":151},{""stimulus"":""img/red_ll/4.jpg"",""time"":200},{""stimulus"":""img/red_ll/5.jpg"",""time"":251},{""stimulus"":""img/red_ll/6.jpg"",""time"":301},{""stimulus"":""img/red_ll/7.jpg"",""time"":351},{""stimulus"":""img/red_ll/8.jpg"",""time"":402},{""stimulus"":""img/red_ll/9.jpg"",""time"":452},{""stimulus"":""img/red_ll/10.jpg"",""time"":501},{""stimulus"":""img/red_ll/11.jpg"",""time"":552}]","[]"
"image-keyboard-response","90","87168","0.0-5.0-1.43","63df609cf58947e964792bb6","bdp_lott","Sun Mar 26 2023 08:03:40 GMT-0700 (Pacific Daylight Time)","278632","red","green","","544","","","","choice","","img/red_ll/choose11.jpg","1","182","green","0.5","0.5","0.5","l","",""
"animation","91","87769","0.0-5.0-2.43","63df609cf58947e964792bb6","bdp_lott","Sun Mar 26 2023 08:03:40 GMT-0700 (Pacific Daylight Time)","278632","red","green","","","","","","","","","","182","","","","","","[{""stimulus"":""img/green_ll/1.jpg"",""time"":51},{""stimulus"":""img/green_ll/2.jpg"",""time"":101},{""stimulus"":""img/green_ll/3.jpg"",""time"":152},{""stimulus"":""img/green_ll/4.jpg"",""time"":201},{""stimulus"":""img/green_ll/5.jpg"",""time"":252},{""stimulus"":""img/green_ll/6.jpg"",""time"":301},{""stimulus"":""img/green_ll/7.jpg"",""time"":352},{""stimulus"":""img/green_ll/8.jpg"",""time"":401},{""stimulus"":""img/green_ll/9.jpg"",""time"":451},{""stimulus"":""img/green_ll/10.jpg"",""time"":501},{""stimulus"":""img/green_ll/11.jpg"",""time"":551}]","[]"
"image-keyboard-response","92","88188","0.0-5.0-1.44","63df609cf58947e964792bb6","bdp_lott","Sun Mar 26 2023 08:03:40 GMT-0700 (Pacific Daylight Time)","278632","red","green","","419","","","","choice","","img/green_ll/choose11.jpg","2","181","red","0.5","0.5","0.5","w","",""
"animation","93","88788","0.0-5.0-2.44","63df609cf58947e964792bb6","bdp_lott","Sun Mar 26 2023 08:03:40 GMT-0700 (Pacific Daylight Time)","278632","red","green","","","","","","","","","","181","","","","","","[{""stimulus"":""img/red_lw/1.jpg"",""time"":52},{""stimulus"":""img/red_lw/2.jpg"",""time"":102},{""stimulus"":""img/red_lw/3.jpg"",""time"":151},{""stimulus"":""img/red_lw/4.jpg"",""time"":202},{""stimulus"":""img/red_lw/5.jpg"",""time"":252},{""stimulus"":""img/red_lw/6.jpg"",""time"":302},{""stimulus"":""img/red_lw/7.jpg"",""time"":351},{""stimulus"":""img/red_lw/8.jpg"",""time"":401},{""stimulus"":""img/red_lw/9.jpg"",""time"":452},{""stimulus"":""img/red_lw/10.jpg"",""time"":501},{""stimulus"":""img/red_lw/11.jpg"",""time"":551}]","[]"
"image-keyboard-response","94","89110","0.0-5.0-1.45","63df609cf58947e964792bb6","bdp_lott","Sun Mar 26 2023 08:03:40 GMT-0700 (Pacific Daylight Time)","278632","red","green","","321","","","","choice","","img/red_lw/choose11.jpg","2","180","red","0.5","0.5","0.5","l","",""
"animation","95","89712","0.0-5.0-2.45","63df609cf58947e964792bb6","bdp_lott","Sun Mar 26 2023 08:03:40 GMT-0700 (Pacific Daylight Time)","278632","red","green","","","","","","","","","","180","","","","","","[{""stimulus"":""img/red_ll/1.jpg"",""time"":52},{""stimulus"":""img/red_ll/2.jpg"",""time"":101},{""stimulus"":""img/red_ll/3.jpg"",""time"":151},{""stimulus"":""img/red_ll/4.jpg"",""time"":201},{""stimulus"":""img/red_ll/5.jpg"",""time"":252},{""stimulus"":""img/red_ll/6.jpg"",""time"":301},{""stimulus"":""img/red_ll/7.jpg"",""time"":351},{""stimulus"":""img/red_ll/8.jpg"",""time"":402},{""stimulus"":""img/red_ll/9.jpg"",""time"":451},{""stimulus"":""img/red_ll/10.jpg"",""time"":501},{""stimulus"":""img/red_ll/11.jpg"",""time"":551}]","[]"
"image-keyboard-response","96","90038","0.0-5.0-1.46","63df609cf58947e964792bb6","bdp_lott","Sun Mar 26 2023 08:03:40 GMT-0700 (Pacific Daylight Time)","278632","red","green","","326","","","","choice","","img/red_ll/choose11.jpg","1","179","green","0.5","0.5","0.5","l","",""
"animation","97","90639","0.0-5.0-2.46","63df609cf58947e964792bb6","bdp_lott","Sun Mar 26 2023 08:03:40 GMT-0700 (Pacific Daylight Time)","278632","red","green","","","","","","","","","","179","","","","","","[{""stimulus"":""img/green_ll/1.jpg"",""time"":51},{""stimulus"":""img/green_ll/2.jpg"",""time"":101},{""stimulus"":""img/green_ll/3.jpg"",""time"":151},{""stimulus"":""img/green_ll/4.jpg"",""time"":202},{""stimulus"":""img/green_ll/5.jpg"",""time"":252},{""stimulus"":""img/green_ll/6.jpg"",""time"":301},{""stimulus"":""img/green_ll/7.jpg"",""time"":352},{""stimulus"":""img/green_ll/8.jpg"",""time"":401},{""stimulus"":""img/green_ll/9.jpg"",""time"":451},{""stimulus"":""img/green_ll/10.jpg"",""time"":501},{""stimulus"":""img/green_ll/11.jpg"",""time"":552}]","[]"
"image-keyboard-response","98","91159","0.0-5.0-1.47","63df609cf58947e964792bb6","bdp_lott","Sun Mar 26 2023 08:03:40 GMT-0700 (Pacific Daylight Time)","278632","red","green","","518","","","","choice","","img/green_ll/choose11.jpg","2","178","red","0.5","0.5","0.5","l","",""
"animation","99","91760","0.0-5.0-2.47","63df609cf58947e964792bb6","bdp_lott","Sun Mar 26 2023 08:03:40 GMT-0700 (Pacific Daylight Time)","278632","red","green","","","","","","","","","","178","","","","","","[{""stimulus"":""img/red_ll/1.jpg"",""time"":50},{""stimulus"":""img/red_ll/2.jpg"",""time"":101},{""stimulus"":""img/red_ll/3.jpg"",""time"":150},{""stimulus"":""img/red_ll/4.jpg"",""time"":201},{""stimulus"":""img/red_ll/5.jpg"",""time"":251},{""stimulus"":""img/red_ll/6.jpg"",""time"":301},{""stimulus"":""img/red_ll/7.jpg"",""time"":351},{""stimulus"":""img/red_ll/8.jpg"",""time"":400},{""stimulus"":""img/red_ll/9.jpg"",""time"":451},{""stimulus"":""img/red_ll/10.jpg"",""time"":500},{""stimulus"":""img/red_ll/11.jpg"",""time"":551}]","[]"
"image-keyboard-response","100","92040","0.0-5.0-1.48","63df609cf58947e964792bb6","bdp_lott","Sun Mar 26 2023 08:03:40 GMT-0700 (Pacific Daylight Time)","278632","red","green","","280","","","","choice","","img/red_ll/choose11.jpg","1","177","green","0.5","0.5","0.5","w","",""
"animation","101","92641","0.0-5.0-2.48","63df609cf58947e964792bb6","bdp_lott","Sun Mar 26 2023 08:03:40 GMT-0700 (Pacific Daylight Time)","278632","red","green","","","","","","","","","","177","","","","","","[{""stimulus"":""img/green_wl/1.jpg"",""time"":51},{""stimulus"":""img/green_wl/2.jpg"",""time"":101},{""stimulus"":""img/green_wl/3.jpg"",""time"":152},{""stimulus"":""img/green_wl/4.jpg"",""time"":203},{""stimulus"":""img/green_wl/5.jpg"",""time"":251},{""stimulus"":""img/green_wl/6.jpg"",""time"":302},{""stimulus"":""img/green_wl/7.jpg"",""time"":351},{""stimulus"":""img/green_wl/8.jpg"",""time"":401},{""stimulus"":""img/green_wl/9.jpg"",""time"":451},{""stimulus"":""img/green_wl/10.jpg"",""time"":500},{""stimulus"":""img/green_wl/11.jpg"",""time"":551}]","[]"
"image-keyboard-response","102","92953","0.0-5.0-1.49","63df609cf58947e964792bb6","bdp_lott","Sun Mar 26 2023 08:03:40 GMT-0700 (Pacific Daylight Time)","278632","red","green","","311","","","","choice","","img/green_wl/choose11.jpg","2","176","red","0.5","0.5","0.5","w","",""
"animation","103","93553","0.0-5.0-2.49","63df609cf58947e964792bb6","bdp_lott","Sun Mar 26 2023 08:03:40 GMT-0700 (Pacific Daylight Time)","278632","red","green","","","","","","","","","","176","","","","","","[{""stimulus"":""img/red_ww/1.jpg"",""time"":50},{""stimulus"":""img/red_ww/2.jpg"",""time"":100},{""stimulus"":""img/red_ww/3.jpg"",""time"":151},{""stimulus"":""img/red_ww/4.jpg"",""time"":201},{""stimulus"":""img/red_ww/5.jpg"",""time"":251},{""stimulus"":""img/red_ww/6.jpg"",""time"":301},{""stimulus"":""img/red_ww/7.jpg"",""time"":351},{""stimulus"":""img/red_ww/8.jpg"",""time"":401},{""stimulus"":""img/red_ww/9.jpg"",""time"":450},{""stimulus"":""img/red_ww/10.jpg"",""time"":501},{""stimulus"":""img/red_ww/11.jpg"",""time"":550}]","[]"
"image-keyboard-response","104","93863","0.0-5.0-1.50","63df609cf58947e964792bb6","bdp_lott","Sun Mar 26 2023 08:03:40 GMT-0700 (Pacific Daylight Time)","278632","red","green","","309","","","","choice","","img/red_ww/choose11.jpg","1","175","green","0.5","0.5","0.5","w","",""
"animation","105","94464","0.0-5.0-2.50","63df609cf58947e964792bb6","bdp_lott","Sun Mar 26 2023 08:03:40 GMT-0700 (Pacific Daylight Time)","278632","red","green","","","","","","","","","","175","","","","","","[{""stimulus"":""img/green_ww/1.jpg"",""time"":52},{""stimulus"":""img/green_ww/2.jpg"",""time"":102},{""stimulus"":""img/green_ww/3.jpg"",""time"":151},{""stimulus"":""img/green_ww/4.jpg"",""time"":202},{""stimulus"":""img/green_ww/5.jpg"",""time"":251},{""stimulus"":""img/green_ww/6.jpg"",""time"":302},{""stimulus"":""img/green_ww/7.jpg"",""time"":352},{""stimulus"":""img/green_ww/8.jpg"",""time"":402},{""stimulus"":""img/green_ww/9.jpg"",""time"":451},{""stimulus"":""img/green_ww/10.jpg"",""time"":501},{""stimulus"":""img/green_ww/11.jpg"",""time"":552}]","[]"
"image-keyboard-response","106","94869","0.0-5.0-1.51","63df609cf58947e964792bb6","bdp_lott","Sun Mar 26 2023 08:03:40 GMT-0700 (Pacific Daylight Time)","278632","red","green","","405","","","","choice","","img/green_ww/choose11.jpg","2","174","red","0.5","0.5","0.5","l","",""
"animation","107","95470","0.0-5.0-2.51","63df609cf58947e964792bb6","bdp_lott","Sun Mar 26 2023 08:03:40 GMT-0700 (Pacific Daylight Time)","278632","red","green","","","","","","","","","","174","","","","","","[{""stimulus"":""img/red_wl/1.jpg"",""time"":51},{""stimulus"":""img/red_wl/2.jpg"",""time"":101},{""stimulus"":""img/red_wl/3.jpg"",""time"":151},{""stimulus"":""img/red_wl/4.jpg"",""time"":201},{""stimulus"":""img/red_wl/5.jpg"",""time"":251},{""stimulus"":""img/red_wl/6.jpg"",""time"":300},{""stimulus"":""img/red_wl/7.jpg"",""time"":351},{""stimulus"":""img/red_wl/8.jpg"",""time"":400},{""stimulus"":""img/red_wl/9.jpg"",""time"":451},{""stimulus"":""img/red_wl/10.jpg"",""time"":501},{""stimulus"":""img/red_wl/11.jpg"",""time"":551}]","[]"
"image-keyboard-response","108","95811","0.0-5.0-1.52","63df609cf58947e964792bb6","bdp_lott","Sun Mar 26 2023 08:03:40 GMT-0700 (Pacific Daylight Time)","278632","red","green","","341","","","","choice","","img/red_wl/choose11.jpg","2","173","red","0.5","0.5","0.5","l","",""
"animation","109","96413","0.0-5.0-2.52","63df609cf58947e964792bb6","bdp_lott","Sun Mar 26 2023 08:03:40 GMT-0700 (Pacific Daylight Time)","278632","red","green","","","","","","","","","","173","","","","","","[{""stimulus"":""img/red_wl/1.jpg"",""time"":51},{""stimulus"":""img/red_wl/2.jpg"",""time"":101},{""stimulus"":""img/red_wl/3.jpg"",""time"":151},{""stimulus"":""img/red_wl/4.jpg"",""time"":201},{""stimulus"":""img/red_wl/5.jpg"",""time"":251},{""stimulus"":""img/red_wl/6.jpg"",""time"":301},{""stimulus"":""img/red_wl/7.jpg"",""time"":351},{""stimulus"":""img/red_wl/8.jpg"",""time"":401},{""stimulus"":""img/red_wl/9.jpg"",""time"":451},{""stimulus"":""img/red_wl/10.jpg"",""time"":501},{""stimulus"":""img/red_wl/11.jpg"",""time"":552}]","[]"
"image-keyboard-response","110","96694","0.0-5.0-1.53","63df609cf58947e964792bb6","bdp_lott","Sun Mar 26 2023 08:03:40 GMT-0700 (Pacific Daylight Time)","278632","red","green","","281","","","","choice","","img/red_wl/choose11.jpg","1","172","green","0.5","0.5","0.5","l","",""
"animation","111","97295","0.0-5.0-2.53","63df609cf58947e964792bb6","bdp_lott","Sun Mar 26 2023 08:03:40 GMT-0700 (Pacific Daylight Time)","278632","red","green","","","","","","","","","","172","","","","","","[{""stimulus"":""img/green_ll/1.jpg"",""time"":51},{""stimulus"":""img/green_ll/2.jpg"",""time"":101},{""stimulus"":""img/green_ll/3.jpg"",""time"":151},{""stimulus"":""img/green_ll/4.jpg"",""time"":201},{""stimulus"":""img/green_ll/5.jpg"",""time"":251},{""stimulus"":""img/green_ll/6.jpg"",""time"":301},{""stimulus"":""img/green_ll/7.jpg"",""time"":351},{""stimulus"":""img/green_ll/8.jpg"",""time"":401},{""stimulus"":""img/green_ll/9.jpg"",""time"":451},{""stimulus"":""img/green_ll/10.jpg"",""time"":501},{""stimulus"":""img/green_ll/11.jpg"",""time"":551}]","[]"
"image-keyboard-response","112","97624","0.0-5.0-1.54","63df609cf58947e964792bb6","bdp_lott","Sun Mar 26 2023 08:03:40 GMT-0700 (Pacific Daylight Time)","278632","red","green","","328","","","","choice","","img/green_ll/choose11.jpg","2","171","red","0.5","0.5","0.5","l","",""
"animation","113","98225","0.0-5.0-2.54","63df609cf58947e964792bb6","bdp_lott","Sun Mar 26 2023 08:03:40 GMT-0700 (Pacific Daylight Time)","278632","red","green","","","","","","","","","","171","","","","","","[{""stimulus"":""img/red_ll/1.jpg"",""time"":52},{""stimulus"":""img/red_ll/2.jpg"",""time"":101},{""stimulus"":""img/red_ll/3.jpg"",""time"":151},{""stimulus"":""img/red_ll/4.jpg"",""time"":201},{""stimulus"":""img/red_ll/5.jpg"",""time"":251},{""stimulus"":""img/red_ll/6.jpg"",""time"":301},{""stimulus"":""img/red_ll/7.jpg"",""time"":351},{""stimulus"":""img/red_ll/8.jpg"",""time"":401},{""stimulus"":""img/red_ll/9.jpg"",""time"":452},{""stimulus"":""img/red_ll/10.jpg"",""time"":501},{""stimulus"":""img/red_ll/11.jpg"",""time"":551}]","[]"
"image-keyboard-response","114","98424","0.0-5.0-1.55","63df609cf58947e964792bb6","bdp_lott","Sun Mar 26 2023 08:03:40 GMT-0700 (Pacific Daylight Time)","278632","red","green","","198","","","","choice","","img/red_ll/choose11.jpg","2","170","red","0.5","0.5","0.5","w","",""
"animation","115","99025","0.0-5.0-2.55","63df609cf58947e964792bb6","bdp_lott","Sun Mar 26 2023 08:03:40 GMT-0700 (Pacific Daylight Time)","278632","red","green","","","","","","","","","","170","","","","","","[{""stimulus"":""img/red_lw/1.jpg"",""time"":52},{""stimulus"":""img/red_lw/2.jpg"",""time"":102},{""stimulus"":""img/red_lw/3.jpg"",""time"":151},{""stimulus"":""img/red_lw/4.jpg"",""time"":202},{""stimulus"":""img/red_lw/5.jpg"",""time"":253},{""stimulus"":""img/red_lw/6.jpg"",""time"":302},{""stimulus"":""img/red_lw/7.jpg"",""time"":351},{""stimulus"":""img/red_lw/8.jpg"",""time"":402},{""stimulus"":""img/red_lw/9.jpg"",""time"":452},{""stimulus"":""img/red_lw/10.jpg"",""time"":501},{""stimulus"":""img/red_lw/11.jpg"",""time"":552}]","[]"
"image-keyboard-response","116","99538","0.0-5.0-1.56","63df609cf58947e964792bb6","bdp_lott","Sun Mar 26 2023 08:03:40 GMT-0700 (Pacific Daylight Time)","278632","red","green","","512","","","","choice","","img/red_lw/choose11.jpg","1","169","green","0.5","0.5","0.5","w","",""
"animation","117","100139","0.0-5.0-2.56","63df609cf58947e964792bb6","bdp_lott","Sun Mar 26 2023 08:03:40 GMT-0700 (Pacific Daylight Time)","278632","red","green","","","","","","","","","","169","","","","","","[{""stimulus"":""img/green_ww/1.jpg"",""time"":52},{""stimulus"":""img/green_ww/2.jpg"",""time"":101},{""stimulus"":""img/green_ww/3.jpg"",""time"":152},{""stimulus"":""img/green_ww/4.jpg"",""time"":201},{""stimulus"":""img/green_ww/5.jpg"",""time"":251},{""stimulus"":""img/green_ww/6.jpg"",""time"":301},{""stimulus"":""img/green_ww/7.jpg"",""time"":352},{""stimulus"":""img/green_ww/8.jpg"",""time"":401},{""stimulus"":""img/green_ww/9.jpg"",""time"":451},{""stimulus"":""img/green_ww/10.jpg"",""time"":503},{""stimulus"":""img/green_ww/11.jpg"",""time"":551}]","[]"
"image-keyboard-response","118","100526","0.0-5.0-1.57","63df609cf58947e964792bb6","bdp_lott","Sun Mar 26 2023 08:03:40 GMT-0700 (Pacific Daylight Time)","278632","red","green","","386","","","","choice","","img/green_ww/choose11.jpg","2","168","red","0.5","0.5","0.5","l","",""
"animation","119","101127","0.0-5.0-2.57","63df609cf58947e964792bb6","bdp_lott","Sun Mar 26 2023 08:03:40 GMT-0700 (Pacific Daylight Time)","278632","red","green","","","","","","","","","","168","","","","","","[{""stimulus"":""img/red_wl/1.jpg"",""time"":51},{""stimulus"":""img/red_wl/2.jpg"",""time"":101},{""stimulus"":""img/red_wl/3.jpg"",""time"":150},{""stimulus"":""img/red_wl/4.jpg"",""time"":201},{""stimulus"":""img/red_wl/5.jpg"",""time"":250},{""stimulus"":""img/red_wl/6.jpg"",""time"":301},{""stimulus"":""img/red_wl/7.jpg"",""time"":350},{""stimulus"":""img/red_wl/8.jpg"",""time"":401},{""stimulus"":""img/red_wl/9.jpg"",""time"":451},{""stimulus"":""img/red_wl/10.jpg"",""time"":501},{""stimulus"":""img/red_wl/11.jpg"",""time"":551}]","[]"
"image-keyboard-response","120","101638","0.0-5.0-1.58","63df609cf58947e964792bb6","bdp_lott","Sun Mar 26 2023 08:03:40 GMT-0700 (Pacific Daylight Time)","278632","red","green","","510","","","","choice","","img/red_wl/choose11.jpg","1","167","green","0.5","0.5","0.5","l","",""
"animation","121","102239","0.0-5.0-2.58","63df609cf58947e964792bb6","bdp_lott","Sun Mar 26 2023 08:03:40 GMT-0700 (Pacific Daylight Time)","278632","red","green","","","","","","","","","","167","","","","","","[{""stimulus"":""img/green_ll/1.jpg"",""time"":51},{""stimulus"":""img/green_ll/2.jpg"",""time"":104},{""stimulus"":""img/green_ll/3.jpg"",""time"":151},{""stimulus"":""img/green_ll/4.jpg"",""time"":201},{""stimulus"":""img/green_ll/5.jpg"",""time"":251},{""stimulus"":""img/green_ll/6.jpg"",""time"":301},{""stimulus"":""img/green_ll/7.jpg"",""time"":351},{""stimulus"":""img/green_ll/8.jpg"",""time"":401},{""stimulus"":""img/green_ll/9.jpg"",""time"":450},{""stimulus"":""img/green_ll/10.jpg"",""time"":501},{""stimulus"":""img/green_ll/11.jpg"",""time"":551}]","[]"
"image-keyboard-response","122","102603","0.0-5.0-1.59","63df609cf58947e964792bb6","bdp_lott","Sun Mar 26 2023 08:03:40 GMT-0700 (Pacific Daylight Time)","278632","red","green","","363","","","","choice","","img/green_ll/choose11.jpg","1","166","green","0.5","0.5","0.5","l","",""
"animation","123","103205","0.0-5.0-2.59","63df609cf58947e964792bb6","bdp_lott","Sun Mar 26 2023 08:03:40 GMT-0700 (Pacific Daylight Time)","278632","red","green","","","","","","","","","","166","","","","","","[{""stimulus"":""img/green_ll/1.jpg"",""time"":50},{""stimulus"":""img/green_ll/2.jpg"",""time"":101},{""stimulus"":""img/green_ll/3.jpg"",""time"":150},{""stimulus"":""img/green_ll/4.jpg"",""time"":200},{""stimulus"":""img/green_ll/5.jpg"",""time"":252},{""stimulus"":""img/green_ll/6.jpg"",""time"":301},{""stimulus"":""img/green_ll/7.jpg"",""time"":350},{""stimulus"":""img/green_ll/8.jpg"",""time"":401},{""stimulus"":""img/green_ll/9.jpg"",""time"":451},{""stimulus"":""img/green_ll/10.jpg"",""time"":501},{""stimulus"":""img/green_ll/11.jpg"",""time"":551}]","[]"
"image-keyboard-response","124","103482","0.0-5.0-1.60","63df609cf58947e964792bb6","bdp_lott","Sun Mar 26 2023 08:03:40 GMT-0700 (Pacific Daylight Time)","278632","red","green","","277","","","","choice","","img/green_ll/choose11.jpg","2","165","red","0.5","0.5","0.5","w","",""
"animation","125","104083","0.0-5.0-2.60","63df609cf58947e964792bb6","bdp_lott","Sun Mar 26 2023 08:03:40 GMT-0700 (Pacific Daylight Time)","278632","red","green","","","","","","","","","","165","","","","","","[{""stimulus"":""img/red_lw/1.jpg"",""time"":51},{""stimulus"":""img/red_lw/2.jpg"",""time"":102},{""stimulus"":""img/red_lw/3.jpg"",""time"":152},{""stimulus"":""img/red_lw/4.jpg"",""time"":201},{""stimulus"":""img/red_lw/5.jpg"",""time"":252},{""stimulus"":""img/red_lw/6.jpg"",""time"":302},{""stimulus"":""img/red_lw/7.jpg"",""time"":352},{""stimulus"":""img/red_lw/8.jpg"",""time"":402},{""stimulus"":""img/red_lw/9.jpg"",""time"":451},{""stimulus"":""img/red_lw/10.jpg"",""time"":502},{""stimulus"":""img/red_lw/11.jpg"",""time"":551}]","[]"
"image-keyboard-response","126","104433","0.0-5.0-1.61","63df609cf58947e964792bb6","bdp_lott","Sun Mar 26 2023 08:03:40 GMT-0700 (Pacific Daylight Time)","278632","red","green","","349","","","","choice","","img/red_lw/choose11.jpg","2","164","red","0.5","0.5","0.5","w","",""
"animation","127","105034","0.0-5.0-2.61","63df609cf58947e964792bb6","bdp_lott","Sun Mar 26 2023 08:03:40 GMT-0700 (Pacific Daylight Time)","278632","red","green","","","","","","","","","","164","","","","","","[{""stimulus"":""img/red_lw/1.jpg"",""time"":51},{""stimulus"":""img/red_lw/2.jpg"",""time"":101},{""stimulus"":""img/red_lw/3.jpg"",""time"":152},{""stimulus"":""img/red_lw/4.jpg"",""time"":201},{""stimulus"":""img/red_lw/5.jpg"",""time"":251},{""stimulus"":""img/red_lw/6.jpg"",""time"":301},{""stimulus"":""img/red_lw/7.jpg"",""time"":351},{""stimulus"":""img/red_lw/8.jpg"",""time"":401},{""stimulus"":""img/red_lw/9.jpg"",""time"":451},{""stimulus"":""img/red_lw/10.jpg"",""time"":501},{""stimulus"":""img/red_lw/11.jpg"",""time"":551}]","[]"
"image-keyboard-response","128","105420","0.0-5.0-1.62","63df609cf58947e964792bb6","bdp_lott","Sun Mar 26 2023 08:03:40 GMT-0700 (Pacific Daylight Time)","278632","red","green","","385","","","","choice","","img/red_lw/choose11.jpg","2","163","red","0.5","0.5","0.5","w","",""
"animation","129","106020","0.0-5.0-2.62","63df609cf58947e964792bb6","bdp_lott","Sun Mar 26 2023 08:03:40 GMT-0700 (Pacific Daylight Time)","278632","red","green","","","","","","","","","","163","","","","","","[{""stimulus"":""img/red_lw/1.jpg"",""time"":51},{""stimulus"":""img/red_lw/2.jpg"",""time"":100},{""stimulus"":""img/red_lw/3.jpg"",""time"":151},{""stimulus"":""img/red_lw/4.jpg"",""time"":201},{""stimulus"":""img/red_lw/5.jpg"",""time"":251},{""stimulus"":""img/red_lw/6.jpg"",""time"":301},{""stimulus"":""img/red_lw/7.jpg"",""time"":351},{""stimulus"":""img/red_lw/8.jpg"",""time"":401},{""stimulus"":""img/red_lw/9.jpg"",""time"":451},{""stimulus"":""img/red_lw/10.jpg"",""time"":501},{""stimulus"":""img/red_lw/11.jpg"",""time"":551}]","[]"
"image-keyboard-response","130","106410","0.0-5.0-1.63","63df609cf58947e964792bb6","bdp_lott","Sun Mar 26 2023 08:03:40 GMT-0700 (Pacific Daylight Time)","278632","red","green","","389","","","","choice","","img/red_lw/choose11.jpg","2","162","red","0.5","0.5","0.5","l","",""
"animation","131","107011","0.0-5.0-2.63","63df609cf58947e964792bb6","bdp_lott","Sun Mar 26 2023 08:03:40 GMT-0700 (Pacific Daylight Time)","278632","red","green","","","","","","","","","","162","","","","","","[{""stimulus"":""img/red_ll/1.jpg"",""time"":52},{""stimulus"":""img/red_ll/2.jpg"",""time"":101},{""stimulus"":""img/red_ll/3.jpg"",""time"":151},{""stimulus"":""img/red_ll/4.jpg"",""time"":202},{""stimulus"":""img/red_ll/5.jpg"",""time"":252},{""stimulus"":""img/red_ll/6.jpg"",""time"":301},{""stimulus"":""img/red_ll/7.jpg"",""time"":352},{""stimulus"":""img/red_ll/8.jpg"",""time"":401},{""stimulus"":""img/red_ll/9.jpg"",""time"":451},{""stimulus"":""img/red_ll/10.jpg"",""time"":502},{""stimulus"":""img/red_ll/11.jpg"",""time"":551}]","[]"
"image-keyboard-response","132","107393","0.0-5.0-1.64","63df609cf58947e964792bb6","bdp_lott","Sun Mar 26 2023 08:03:40 GMT-0700 (Pacific Daylight Time)","278632","red","green","","381","","","","choice","","img/red_ll/choose11.jpg","2","161","red","0.5","0.5","0.5","w","",""
"animation","133","107994","0.0-5.0-2.64","63df609cf58947e964792bb6","bdp_lott","Sun Mar 26 2023 08:03:40 GMT-0700 (Pacific Daylight Time)","278632","red","green","","","","","","","","","","161","","","","","","[{""stimulus"":""img/red_lw/1.jpg"",""time"":51},{""stimulus"":""img/red_lw/2.jpg"",""time"":102},{""stimulus"":""img/red_lw/3.jpg"",""time"":151},{""stimulus"":""img/red_lw/4.jpg"",""time"":201},{""stimulus"":""img/red_lw/5.jpg"",""time"":252},{""stimulus"":""img/red_lw/6.jpg"",""time"":302},{""stimulus"":""img/red_lw/7.jpg"",""time"":351},{""stimulus"":""img/red_lw/8.jpg"",""time"":402},{""stimulus"":""img/red_lw/9.jpg"",""time"":452},{""stimulus"":""img/red_lw/10.jpg"",""time"":502},{""stimulus"":""img/red_lw/11.jpg"",""time"":552}]","[]"
"image-keyboard-response","134","108371","0.0-5.0-1.65","63df609cf58947e964792bb6","bdp_lott","Sun Mar 26 2023 08:03:40 GMT-0700 (Pacific Daylight Time)","278632","red","green","","376","","","","choice","","img/red_lw/choose11.jpg","2","160","red","0.5","0.5","0.5","w","",""
"animation","135","108972","0.0-5.0-2.65","63df609cf58947e964792bb6","bdp_lott","Sun Mar 26 2023 08:03:40 GMT-0700 (Pacific Daylight Time)","278632","red","green","","","","","","","","","","160","","","","","","[{""stimulus"":""img/red_lw/1.jpg"",""time"":52},{""stimulus"":""img/red_lw/2.jpg"",""time"":101},{""stimulus"":""img/red_lw/3.jpg"",""time"":151},{""stimulus"":""img/red_lw/4.jpg"",""time"":201},{""stimulus"":""img/red_lw/5.jpg"",""time"":251},{""stimulus"":""img/red_lw/6.jpg"",""time"":301},{""stimulus"":""img/red_lw/7.jpg"",""time"":351},{""stimulus"":""img/red_lw/8.jpg"",""time"":401},{""stimulus"":""img/red_lw/9.jpg"",""time"":451},{""stimulus"":""img/red_lw/10.jpg"",""time"":501},{""stimulus"":""img/red_lw/11.jpg"",""time"":551}]","[]"
"image-keyboard-response","136","109350","0.0-5.0-1.66","63df609cf58947e964792bb6","bdp_lott","Sun Mar 26 2023 08:03:40 GMT-0700 (Pacific Daylight Time)","278632","red","green","","378","","","","choice","","img/red_lw/choose11.jpg","2","159","red","0.5","0.5","0.5","w","",""
"animation","137","109950","0.0-5.0-2.66","63df609cf58947e964792bb6","bdp_lott","Sun Mar 26 2023 08:03:40 GMT-0700 (Pacific Daylight Time)","278632","red","green","","","","","","","","","","159","","","","","","[{""stimulus"":""img/red_lw/1.jpg"",""time"":51},{""stimulus"":""img/red_lw/2.jpg"",""time"":115},{""stimulus"":""img/red_lw/3.jpg"",""time"":151},{""stimulus"":""img/red_lw/4.jpg"",""time"":201},{""stimulus"":""img/red_lw/5.jpg"",""time"":250},{""stimulus"":""img/red_lw/6.jpg"",""time"":301},{""stimulus"":""img/red_lw/7.jpg"",""time"":351},{""stimulus"":""img/red_lw/8.jpg"",""time"":401},{""stimulus"":""img/red_lw/9.jpg"",""time"":451},{""stimulus"":""img/red_lw/10.jpg"",""time"":501},{""stimulus"":""img/red_lw/11.jpg"",""time"":551}]","[]"
"image-keyboard-response","138","110243","0.0-5.0-1.67","63df609cf58947e964792bb6","bdp_lott","Sun Mar 26 2023 08:03:40 GMT-0700 (Pacific Daylight Time)","278632","red","green","","292","","","","choice","","img/red_lw/choose11.jpg","2","158","red","0.5","0.5","0.5","w","",""
"animation","139","110845","0.0-5.0-2.67","63df609cf58947e964792bb6","bdp_lott","Sun Mar 26 2023 08:03:40 GMT-0700 (Pacific Daylight Time)","278632","red","green","","","","","","","","","","158","","","","","","[{""stimulus"":""img/red_lw/1.jpg"",""time"":50},{""stimulus"":""img/red_lw/2.jpg"",""time"":100},{""stimulus"":""img/red_lw/3.jpg"",""time"":151},{""stimulus"":""img/red_lw/4.jpg"",""time"":200},{""stimulus"":""img/red_lw/5.jpg"",""time"":251},{""stimulus"":""img/red_lw/6.jpg"",""time"":301},{""stimulus"":""img/red_lw/7.jpg"",""time"":350},{""stimulus"":""img/red_lw/8.jpg"",""time"":401},{""stimulus"":""img/red_lw/9.jpg"",""time"":451},{""stimulus"":""img/red_lw/10.jpg"",""time"":500},{""stimulus"":""img/red_lw/11.jpg"",""time"":551}]","[]"
"image-keyboard-response","140","111169","0.0-5.0-1.68","63df609cf58947e964792bb6","bdp_lott","Sun Mar 26 2023 08:03:40 GMT-0700 (Pacific Daylight Time)","278632","red","green","","323","","","","choice","","img/red_lw/choose11.jpg","2","157","red","0.5","0.5","0.5","w","",""
"animation","141","111771","0.0-5.0-2.68","63df609cf58947e964792bb6","bdp_lott","Sun Mar 26 2023 08:03:40 GMT-0700 (Pacific Daylight Time)","278632","red","green","","","","","","","","","","157","","","","","","[{""stimulus"":""img/red_lw/1.jpg"",""time"":52},{""stimulus"":""img/red_lw/2.jpg"",""time"":102},{""stimulus"":""img/red_lw/3.jpg"",""time"":152},{""stimulus"":""img/red_lw/4.jpg"",""time"":202},{""stimulus"":""img/red_lw/5.jpg"",""time"":252},{""stimulus"":""img/red_lw/6.jpg"",""time"":302},{""stimulus"":""img/red_lw/7.jpg"",""time"":352},{""stimulus"":""img/red_lw/8.jpg"",""time"":402},{""stimulus"":""img/red_lw/9.jpg"",""time"":452},{""stimulus"":""img/red_lw/10.jpg"",""time"":501},{""stimulus"":""img/red_lw/11.jpg"",""time"":552}]","[]"
"image-keyboard-response","142","112053","0.0-5.0-1.69","63df609cf58947e964792bb6","bdp_lott","Sun Mar 26 2023 08:03:40 GMT-0700 (Pacific Daylight Time)","278632","red","green","","282","","","","choice","","img/red_lw/choose11.jpg","2","156","red","0.5","0.5","0.5","l","",""
"animation","143","112654","0.0-5.0-2.69","63df609cf58947e964792bb6","bdp_lott","Sun Mar 26 2023 08:03:40 GMT-0700 (Pacific Daylight Time)","278632","red","green","","","","","","","","","","156","","","","","","[{""stimulus"":""img/red_ll/1.jpg"",""time"":50},{""stimulus"":""img/red_ll/2.jpg"",""time"":101},{""stimulus"":""img/red_ll/3.jpg"",""time"":151},{""stimulus"":""img/red_ll/4.jpg"",""time"":202},{""stimulus"":""img/red_ll/5.jpg"",""time"":251},{""stimulus"":""img/red_ll/6.jpg"",""time"":301},{""stimulus"":""img/red_ll/7.jpg"",""time"":351},{""stimulus"":""img/red_ll/8.jpg"",""time"":401},{""stimulus"":""img/red_ll/9.jpg"",""time"":452},{""stimulus"":""img/red_ll/10.jpg"",""time"":501},{""stimulus"":""img/red_ll/11.jpg"",""time"":551}]","[]"
"image-keyboard-response","144","113324","0.0-5.0-1.70","63df609cf58947e964792bb6","bdp_lott","Sun Mar 26 2023 08:03:40 GMT-0700 (Pacific Daylight Time)","278632","red","green","","669","","","","choice","","img/red_ll/choose11.jpg","1","155","green","0.5","0.5","0.5","l","",""
"animation","145","113924","0.0-5.0-2.70","63df609cf58947e964792bb6","bdp_lott","Sun Mar 26 2023 08:03:40 GMT-0700 (Pacific Daylight Time)","278632","red","green","","","","","","","","","","155","","","","","","[{""stimulus"":""img/green_ll/1.jpg"",""time"":51},{""stimulus"":""img/green_ll/2.jpg"",""time"":100},{""stimulus"":""img/green_ll/3.jpg"",""time"":151},{""stimulus"":""img/green_ll/4.jpg"",""time"":202},{""stimulus"":""img/green_ll/5.jpg"",""time"":251},{""stimulus"":""img/green_ll/6.jpg"",""time"":301},{""stimulus"":""img/green_ll/7.jpg"",""time"":350},{""stimulus"":""img/green_ll/8.jpg"",""time"":401},{""stimulus"":""img/green_ll/9.jpg"",""time"":451},{""stimulus"":""img/green_ll/10.jpg"",""time"":501},{""stimulus"":""img/green_ll/11.jpg"",""time"":551}]","[]"
"image-keyboard-response","146","114401","0.0-5.0-1.71","63df609cf58947e964792bb6","bdp_lott","Sun Mar 26 2023 08:03:40 GMT-0700 (Pacific Daylight Time)","278632","red","green","","475","","","","choice","","img/green_ll/choose11.jpg","2","154","red","0.5","0.5","0.5","l","",""
"animation","147","115001","0.0-5.0-2.71","63df609cf58947e964792bb6","bdp_lott","Sun Mar 26 2023 08:03:40 GMT-0700 (Pacific Daylight Time)","278632","red","green","","","","","","","","","","154","","","","","","[{""stimulus"":""img/red_ll/1.jpg"",""time"":61},{""stimulus"":""img/red_ll/2.jpg"",""time"":100},{""stimulus"":""img/red_ll/3.jpg"",""time"":151},{""stimulus"":""img/red_ll/4.jpg"",""time"":201},{""stimulus"":""img/red_ll/5.jpg"",""time"":250},{""stimulus"":""img/red_ll/6.jpg"",""time"":301},{""stimulus"":""img/red_ll/7.jpg"",""time"":351},{""stimulus"":""img/red_ll/8.jpg"",""time"":401},{""stimulus"":""img/red_ll/9.jpg"",""time"":451},{""stimulus"":""img/red_ll/10.jpg"",""time"":500},{""stimulus"":""img/red_ll/11.jpg"",""time"":551}]","[]"
"image-keyboard-response","148","115690","0.0-5.0-1.72","63df609cf58947e964792bb6","bdp_lott","Sun Mar 26 2023 08:03:40 GMT-0700 (Pacific Daylight Time)","278632","red","green","","688","","","","choice","","img/red_ll/choose11.jpg","2","153","red","0.5","0.5","0.5","l","",""
"animation","149","116291","0.0-5.0-2.72","63df609cf58947e964792bb6","bdp_lott","Sun Mar 26 2023 08:03:40 GMT-0700 (Pacific Daylight Time)","278632","red","green","","","","","","","","","","153","","","","","","[{""stimulus"":""img/red_ll/1.jpg"",""time"":51},{""stimulus"":""img/red_ll/2.jpg"",""time"":101},{""stimulus"":""img/red_ll/3.jpg"",""time"":150},{""stimulus"":""img/red_ll/4.jpg"",""time"":201},{""stimulus"":""img/red_ll/5.jpg"",""time"":251},{""stimulus"":""img/red_ll/6.jpg"",""time"":302},{""stimulus"":""img/red_ll/7.jpg"",""time"":352},{""stimulus"":""img/red_ll/8.jpg"",""time"":402},{""stimulus"":""img/red_ll/9.jpg"",""time"":451},{""stimulus"":""img/red_ll/10.jpg"",""time"":500},{""stimulus"":""img/red_ll/11.jpg"",""time"":551}]","[]"
"image-keyboard-response","150","116603","0.0-5.0-1.73","63df609cf58947e964792bb6","bdp_lott","Sun Mar 26 2023 08:03:40 GMT-0700 (Pacific Daylight Time)","278632","red","green","","312","","","","choice","","img/red_ll/choose11.jpg","1","152","green","0.5","0.5","0.5","w","",""
"animation","151","117204","0.0-5.0-2.73","63df609cf58947e964792bb6","bdp_lott","Sun Mar 26 2023 08:03:40 GMT-0700 (Pacific Daylight Time)","278632","red","green","","","","","","","","","","152","","","","","","[{""stimulus"":""img/green_wl/1.jpg"",""time"":52},{""stimulus"":""img/green_wl/2.jpg"",""time"":102},{""stimulus"":""img/green_wl/3.jpg"",""time"":152},{""stimulus"":""img/green_wl/4.jpg"",""time"":202},{""stimulus"":""img/green_wl/5.jpg"",""time"":251},{""stimulus"":""img/green_wl/6.jpg"",""time"":301},{""stimulus"":""img/green_wl/7.jpg"",""time"":351},{""stimulus"":""img/green_wl/8.jpg"",""time"":401},{""stimulus"":""img/green_wl/9.jpg"",""time"":451},{""stimulus"":""img/green_wl/10.jpg"",""time"":501},{""stimulus"":""img/green_wl/11.jpg"",""time"":551}]","[]"
"image-keyboard-response","152","117480","0.0-5.0-1.74","63df609cf58947e964792bb6","bdp_lott","Sun Mar 26 2023 08:03:40 GMT-0700 (Pacific Daylight Time)","278632","red","green","","276","","","","choice","","img/green_wl/choose11.jpg","2","151","red","0.5","0.5","0.5","l","",""
"animation","153","118081","0.0-5.0-2.74","63df609cf58947e964792bb6","bdp_lott","Sun Mar 26 2023 08:03:40 GMT-0700 (Pacific Daylight Time)","278632","red","green","","","","","","","","","","151","","","","","","[{""stimulus"":""img/red_wl/1.jpg"",""time"":52},{""stimulus"":""img/red_wl/2.jpg"",""time"":101},{""stimulus"":""img/red_wl/3.jpg"",""time"":152},{""stimulus"":""img/red_wl/4.jpg"",""time"":201},{""stimulus"":""img/red_wl/5.jpg"",""time"":251},{""stimulus"":""img/red_wl/6.jpg"",""time"":301},{""stimulus"":""img/red_wl/7.jpg"",""time"":352},{""stimulus"":""img/red_wl/8.jpg"",""time"":401},{""stimulus"":""img/red_wl/9.jpg"",""time"":451},{""stimulus"":""img/red_wl/10.jpg"",""time"":501},{""stimulus"":""img/red_wl/11.jpg"",""time"":552}]","[]"
"image-keyboard-response","154","118409","0.0-5.0-1.75","63df609cf58947e964792bb6","bdp_lott","Sun Mar 26 2023 08:03:40 GMT-0700 (Pacific Daylight Time)","278632","red","green","","327","","","","choice","","img/red_wl/choose11.jpg","1","150","green","0.5","0.5","0.5","l","",""
"animation","155","119010","0.0-5.0-2.75","63df609cf58947e964792bb6","bdp_lott","Sun Mar 26 2023 08:03:40 GMT-0700 (Pacific Daylight Time)","278632","red","green","","","","","","","","","","150","","","","","","[{""stimulus"":""img/green_ll/1.jpg"",""time"":52},{""stimulus"":""img/green_ll/2.jpg"",""time"":101},{""stimulus"":""img/green_ll/3.jpg"",""time"":152},{""stimulus"":""img/green_ll/4.jpg"",""time"":201},{""stimulus"":""img/green_ll/5.jpg"",""time"":252},{""stimulus"":""img/green_ll/6.jpg"",""time"":301},{""stimulus"":""img/green_ll/7.jpg"",""time"":352},{""stimulus"":""img/green_ll/8.jpg"",""time"":401},{""stimulus"":""img/green_ll/9.jpg"",""time"":451},{""stimulus"":""img/green_ll/10.jpg"",""time"":501},{""stimulus"":""img/green_ll/11.jpg"",""time"":551}]","[]"
"image-keyboard-response","156","119253","0.0-5.0-1.76","63df609cf58947e964792bb6","bdp_lott","Sun Mar 26 2023 08:03:40 GMT-0700 (Pacific Daylight Time)","278632","red","green","","243","","","","choice","","img/green_ll/choose11.jpg","2","149","red","0.5","0.1","0.5","l","",""
"animation","157","119854","0.0-5.0-2.76","63df609cf58947e964792bb6","bdp_lott","Sun Mar 26 2023 08:03:40 GMT-0700 (Pacific Daylight Time)","278632","red","green","","","","","","","","","","149","","","","","","[{""stimulus"":""img/red_ll/1.jpg"",""time"":52},{""stimulus"":""img/red_ll/2.jpg"",""time"":101},{""stimulus"":""img/red_ll/3.jpg"",""time"":151},{""stimulus"":""img/red_ll/4.jpg"",""time"":202},{""stimulus"":""img/red_ll/5.jpg"",""time"":251},{""stimulus"":""img/red_ll/6.jpg"",""time"":301},{""stimulus"":""img/red_ll/7.jpg"",""time"":351},{""stimulus"":""img/red_ll/8.jpg"",""time"":402},{""stimulus"":""img/red_ll/9.jpg"",""time"":451},{""stimulus"":""img/red_ll/10.jpg"",""time"":501},{""stimulus"":""img/red_ll/11.jpg"",""time"":551}]","[]"
"image-keyboard-response","158","120334","0.0-5.0-1.77","63df609cf58947e964792bb6","bdp_lott","Sun Mar 26 2023 08:03:40 GMT-0700 (Pacific Daylight Time)","278632","red","green","","479","","","","choice","","img/red_ll/choose11.jpg","1","148","green","0.5","0.1","0.1","l","",""
"animation","159","120935","0.0-5.0-2.77","63df609cf58947e964792bb6","bdp_lott","Sun Mar 26 2023 08:03:40 GMT-0700 (Pacific Daylight Time)","278632","red","green","","","","","","","","","","148","","","","","","[{""stimulus"":""img/green_ll/1.jpg"",""time"":51},{""stimulus"":""img/green_ll/2.jpg"",""time"":101},{""stimulus"":""img/green_ll/3.jpg"",""time"":151},{""stimulus"":""img/green_ll/4.jpg"",""time"":200},{""stimulus"":""img/green_ll/5.jpg"",""time"":251},{""stimulus"":""img/green_ll/6.jpg"",""time"":301},{""stimulus"":""img/green_ll/7.jpg"",""time"":351},{""stimulus"":""img/green_ll/8.jpg"",""time"":401},{""stimulus"":""img/green_ll/9.jpg"",""time"":451},{""stimulus"":""img/green_ll/10.jpg"",""time"":501},{""stimulus"":""img/green_ll/11.jpg"",""time"":551}]","[]"
"image-keyboard-response","160","121152","0.0-5.0-1.78","63df609cf58947e964792bb6","bdp_lott","Sun Mar 26 2023 08:03:40 GMT-0700 (Pacific Daylight Time)","278632","red","green","","216","","","","choice","","img/green_ll/choose11.jpg","2","147","red","0.5","0.1","0.5","w","",""
"animation","161","121753","0.0-5.0-2.78","63df609cf58947e964792bb6","bdp_lott","Sun Mar 26 2023 08:03:40 GMT-0700 (Pacific Daylight Time)","278632","red","green","","","","","","","","","","147","","","","","","[{""stimulus"":""img/red_lw/1.jpg"",""time"":52},{""stimulus"":""img/red_lw/2.jpg"",""time"":100},{""stimulus"":""img/red_lw/3.jpg"",""time"":150},{""stimulus"":""img/red_lw/4.jpg"",""time"":201},{""stimulus"":""img/red_lw/5.jpg"",""time"":251},{""stimulus"":""img/red_lw/6.jpg"",""time"":301},{""stimulus"":""img/red_lw/7.jpg"",""time"":350},{""stimulus"":""img/red_lw/8.jpg"",""time"":401},{""stimulus"":""img/red_lw/9.jpg"",""time"":451},{""stimulus"":""img/red_lw/10.jpg"",""time"":501},{""stimulus"":""img/red_lw/11.jpg"",""time"":550}]","[]"
"image-keyboard-response","162","122435","0.0-5.0-1.79","63df609cf58947e964792bb6","bdp_lott","Sun Mar 26 2023 08:03:40 GMT-0700 (Pacific Daylight Time)","278632","red","green","","681","","","","choice","","img/red_lw/choose11.jpg","2","146","red","0.5","0.1","0.5","w","",""
"animation","163","123036","0.0-5.0-2.79","63df609cf58947e964792bb6","bdp_lott","Sun Mar 26 2023 08:03:40 GMT-0700 (Pacific Daylight Time)","278632","red","green","","","","","","","","","","146","","","","","","[{""stimulus"":""img/red_lw/1.jpg"",""time"":51},{""stimulus"":""img/red_lw/2.jpg"",""time"":100},{""stimulus"":""img/red_lw/3.jpg"",""time"":151},{""stimulus"":""img/red_lw/4.jpg"",""time"":200},{""stimulus"":""img/red_lw/5.jpg"",""time"":251},{""stimulus"":""img/red_lw/6.jpg"",""time"":300},{""stimulus"":""img/red_lw/7.jpg"",""time"":351},{""stimulus"":""img/red_lw/8.jpg"",""time"":400},{""stimulus"":""img/red_lw/9.jpg"",""time"":451},{""stimulus"":""img/red_lw/10.jpg"",""time"":500},{""stimulus"":""img/red_lw/11.jpg"",""time"":551}]","[]"
"image-keyboard-response","164","123404","0.0-5.0-1.80","63df609cf58947e964792bb6","bdp_lott","Sun Mar 26 2023 08:03:40 GMT-0700 (Pacific Daylight Time)","278632","red","green","","367","","","","choice","","img/red_lw/choose11.jpg","2","145","red","0.5","0.1","0.5","w","",""
"animation","165","124004","0.0-5.0-2.80","63df609cf58947e964792bb6","bdp_lott","Sun Mar 26 2023 08:03:40 GMT-0700 (Pacific Daylight Time)","278632","red","green","","","","","","","","","","145","","","","","","[{""stimulus"":""img/red_lw/1.jpg"",""time"":51},{""stimulus"":""img/red_lw/2.jpg"",""time"":100},{""stimulus"":""img/red_lw/3.jpg"",""time"":151},{""stimulus"":""img/red_lw/4.jpg"",""time"":200},{""stimulus"":""img/red_lw/5.jpg"",""time"":251},{""stimulus"":""img/red_lw/6.jpg"",""time"":300},{""stimulus"":""img/red_lw/7.jpg"",""time"":351},{""stimulus"":""img/red_lw/8.jpg"",""time"":401},{""stimulus"":""img/red_lw/9.jpg"",""time"":451},{""stimulus"":""img/red_lw/10.jpg"",""time"":501},{""stimulus"":""img/red_lw/11.jpg"",""time"":550}]","[]"
"image-keyboard-response","166","124339","0.0-5.0-1.81","63df609cf58947e964792bb6","bdp_lott","Sun Mar 26 2023 08:03:40 GMT-0700 (Pacific Daylight Time)","278632","red","green","","335","","","","choice","","img/red_lw/choose11.jpg","2","144","red","0.5","0.1","0.5","l","",""
"animation","167","124939","0.0-5.0-2.81","63df609cf58947e964792bb6","bdp_lott","Sun Mar 26 2023 08:03:40 GMT-0700 (Pacific Daylight Time)","278632","red","green","","","","","","","","","","144","","","","","","[{""stimulus"":""img/red_ll/1.jpg"",""time"":51},{""stimulus"":""img/red_ll/2.jpg"",""time"":100},{""stimulus"":""img/red_ll/3.jpg"",""time"":152},{""stimulus"":""img/red_ll/4.jpg"",""time"":200},{""stimulus"":""img/red_ll/5.jpg"",""time"":251},{""stimulus"":""img/red_ll/6.jpg"",""time"":301},{""stimulus"":""img/red_ll/7.jpg"",""time"":351},{""stimulus"":""img/red_ll/8.jpg"",""time"":402},{""stimulus"":""img/red_ll/9.jpg"",""time"":451},{""stimulus"":""img/red_ll/10.jpg"",""time"":501},{""stimulus"":""img/red_ll/11.jpg"",""time"":552}]","[]"
"image-keyboard-response","168","125244","0.0-5.0-1.82","63df609cf58947e964792bb6","bdp_lott","Sun Mar 26 2023 08:03:40 GMT-0700 (Pacific Daylight Time)","278632","red","green","","304","","","","choice","","img/red_ll/choose11.jpg","2","143","red","0.5","0.1","0.5","l","",""
"animation","169","125845","0.0-5.0-2.82","63df609cf58947e964792bb6","bdp_lott","Sun Mar 26 2023 08:03:40 GMT-0700 (Pacific Daylight Time)","278632","red","green","","","","","","","","","","143","","","","","","[{""stimulus"":""img/red_ll/1.jpg"",""time"":52},{""stimulus"":""img/red_ll/2.jpg"",""time"":101},{""stimulus"":""img/red_ll/3.jpg"",""time"":151},{""stimulus"":""img/red_ll/4.jpg"",""time"":201},{""stimulus"":""img/red_ll/5.jpg"",""time"":251},{""stimulus"":""img/red_ll/6.jpg"",""time"":301},{""stimulus"":""img/red_ll/7.jpg"",""time"":352},{""stimulus"":""img/red_ll/8.jpg"",""time"":401},{""stimulus"":""img/red_ll/9.jpg"",""time"":451},{""stimulus"":""img/red_ll/10.jpg"",""time"":501},{""stimulus"":""img/red_ll/11.jpg"",""time"":552}]","[]"
"image-keyboard-response","170","126118","0.0-5.0-1.83","63df609cf58947e964792bb6","bdp_lott","Sun Mar 26 2023 08:03:40 GMT-0700 (Pacific Daylight Time)","278632","red","green","","273","","","","choice","","img/red_ll/choose11.jpg","2","142","red","0.5","0.1","0.5","l","",""
"animation","171","126720","0.0-5.0-2.83","63df609cf58947e964792bb6","bdp_lott","Sun Mar 26 2023 08:03:40 GMT-0700 (Pacific Daylight Time)","278632","red","green","","","","","","","","","","142","","","","","","[{""stimulus"":""img/red_ll/1.jpg"",""time"":51},{""stimulus"":""img/red_ll/2.jpg"",""time"":101},{""stimulus"":""img/red_ll/3.jpg"",""time"":151},{""stimulus"":""img/red_ll/4.jpg"",""time"":201},{""stimulus"":""img/red_ll/5.jpg"",""time"":251},{""stimulus"":""img/red_ll/6.jpg"",""time"":301},{""stimulus"":""img/red_ll/7.jpg"",""time"":352},{""stimulus"":""img/red_ll/8.jpg"",""time"":402},{""stimulus"":""img/red_ll/9.jpg"",""time"":452},{""stimulus"":""img/red_ll/10.jpg"",""time"":502},{""stimulus"":""img/red_ll/11.jpg"",""time"":551}]","[]"
"image-keyboard-response","172","126938","0.0-5.0-1.84","63df609cf58947e964792bb6","bdp_lott","Sun Mar 26 2023 08:03:40 GMT-0700 (Pacific Daylight Time)","278632","red","green","","218","","","","choice","","img/red_ll/choose11.jpg","1","141","green","0.5","0.1","0.1","l","",""
"animation","173","127539","0.0-5.0-2.84","63df609cf58947e964792bb6","bdp_lott","Sun Mar 26 2023 08:03:40 GMT-0700 (Pacific Daylight Time)","278632","red","green","","","","","","","","","","141","","","","","","[{""stimulus"":""img/green_ll/1.jpg"",""time"":51},{""stimulus"":""img/green_ll/2.jpg"",""time"":101},{""stimulus"":""img/green_ll/3.jpg"",""time"":151},{""stimulus"":""img/green_ll/4.jpg"",""time"":201},{""stimulus"":""img/green_ll/5.jpg"",""time"":251},{""stimulus"":""img/green_ll/6.jpg"",""time"":302},{""stimulus"":""img/green_ll/7.jpg"",""time"":351},{""stimulus"":""img/green_ll/8.jpg"",""time"":401},{""stimulus"":""img/green_ll/9.jpg"",""time"":452},{""stimulus"":""img/green_ll/10.jpg"",""time"":500},{""stimulus"":""img/green_ll/11.jpg"",""time"":551}]","[]"
"image-keyboard-response","174","127846","0.0-5.0-1.85","63df609cf58947e964792bb6","bdp_lott","Sun Mar 26 2023 08:03:40 GMT-0700 (Pacific Daylight Time)","278632","red","green","","306","","","","choice","","img/green_ll/choose11.jpg","2","140","red","0.5","0.1","0.5","l","",""
"animation","175","128447","0.0-5.0-2.85","63df609cf58947e964792bb6","bdp_lott","Sun Mar 26 2023 08:03:40 GMT-0700 (Pacific Daylight Time)","278632","red","green","","","","","","","","","","140","","","","","","[{""stimulus"":""img/red_ll/1.jpg"",""time"":52},{""stimulus"":""img/red_ll/2.jpg"",""time"":101},{""stimulus"":""img/red_ll/3.jpg"",""time"":152},{""stimulus"":""img/red_ll/4.jpg"",""time"":201},{""stimulus"":""img/red_ll/5.jpg"",""time"":252},{""stimulus"":""img/red_ll/6.jpg"",""time"":301},{""stimulus"":""img/red_ll/7.jpg"",""time"":351},{""stimulus"":""img/red_ll/8.jpg"",""time"":401},{""stimulus"":""img/red_ll/9.jpg"",""time"":451},{""stimulus"":""img/red_ll/10.jpg"",""time"":501},{""stimulus"":""img/red_ll/11.jpg"",""time"":552}]","[]"
"image-keyboard-response","176","128832","0.0-5.0-1.86","63df609cf58947e964792bb6","bdp_lott","Sun Mar 26 2023 08:03:40 GMT-0700 (Pacific Daylight Time)","278632","red","green","","384","","","","choice","","img/red_ll/choose11.jpg","1","139","green","0.5","0.1","0.1","l","",""
"animation","177","129434","0.0-5.0-2.86","63df609cf58947e964792bb6","bdp_lott","Sun Mar 26 2023 08:03:40 GMT-0700 (Pacific Daylight Time)","278632","red","green","","","","","","","","","","139","","","","","","[{""stimulus"":""img/green_ll/1.jpg"",""time"":51},{""stimulus"":""img/green_ll/2.jpg"",""time"":101},{""stimulus"":""img/green_ll/3.jpg"",""time"":151},{""stimulus"":""img/green_ll/4.jpg"",""time"":202},{""stimulus"":""img/green_ll/5.jpg"",""time"":251},{""stimulus"":""img/green_ll/6.jpg"",""time"":302},{""stimulus"":""img/green_ll/7.jpg"",""time"":352},{""stimulus"":""img/green_ll/8.jpg"",""time"":402},{""stimulus"":""img/green_ll/9.jpg"",""time"":451},{""stimulus"":""img/green_ll/10.jpg"",""time"":501},{""stimulus"":""img/green_ll/11.jpg"",""time"":552}]","[]"
"image-keyboard-response","178","129701","0.0-5.0-1.87","63df609cf58947e964792bb6","bdp_lott","Sun Mar 26 2023 08:03:40 GMT-0700 (Pacific Daylight Time)","278632","red","green","","267","","","","choice","","img/green_ll/choose11.jpg","2","138","red","0.5","0.1","0.5","w","",""
"animation","179","130303","0.0-5.0-2.87","63df609cf58947e964792bb6","bdp_lott","Sun Mar 26 2023 08:03:40 GMT-0700 (Pacific Daylight Time)","278632","red","green","","","","","","","","","","138","","","","","","[{""stimulus"":""img/red_lw/1.jpg"",""time"":52},{""stimulus"":""img/red_lw/2.jpg"",""time"":102},{""stimulus"":""img/red_lw/3.jpg"",""time"":151},{""stimulus"":""img/red_lw/4.jpg"",""time"":202},{""stimulus"":""img/red_lw/5.jpg"",""time"":251},{""stimulus"":""img/red_lw/6.jpg"",""time"":301},{""stimulus"":""img/red_lw/7.jpg"",""time"":352},{""stimulus"":""img/red_lw/8.jpg"",""time"":401},{""stimulus"":""img/red_lw/9.jpg"",""time"":451},{""stimulus"":""img/red_lw/10.jpg"",""time"":501},{""stimulus"":""img/red_lw/11.jpg"",""time"":551}]","[]"
"image-keyboard-response","180","130841","0.0-5.0-1.88","63df609cf58947e964792bb6","bdp_lott","Sun Mar 26 2023 08:03:40 GMT-0700 (Pacific Daylight Time)","278632","red","green","","538","","","","choice","","img/red_lw/choose11.jpg","2","137","red","0.5","0.1","0.5","l","",""
"animation","181","131442","0.0-5.0-2.88","63df609cf58947e964792bb6","bdp_lott","Sun Mar 26 2023 08:03:40 GMT-0700 (Pacific Daylight Time)","278632","red","green","","","","","","","","","","137","","","","","","[{""stimulus"":""img/red_ll/1.jpg"",""time"":51},{""stimulus"":""img/red_ll/2.jpg"",""time"":101},{""stimulus"":""img/red_ll/3.jpg"",""time"":150},{""stimulus"":""img/red_ll/4.jpg"",""time"":201},{""stimulus"":""img/red_ll/5.jpg"",""time"":251},{""stimulus"":""img/red_ll/6.jpg"",""time"":301},{""stimulus"":""img/red_ll/7.jpg"",""time"":350},{""stimulus"":""img/red_ll/8.jpg"",""time"":401},{""stimulus"":""img/red_ll/9.jpg"",""time"":451},{""stimulus"":""img/red_ll/10.jpg"",""time"":500},{""stimulus"":""img/red_ll/11.jpg"",""time"":550}]","[]"
"image-keyboard-response","182","131674","0.0-5.0-1.89","63df609cf58947e964792bb6","bdp_lott","Sun Mar 26 2023 08:03:40 GMT-0700 (Pacific Daylight Time)","278632","red","green","","230","","","","choice","","img/red_ll/choose11.jpg","2","136","red","0.5","0.1","0.5","w","",""
"animation","183","132275","0.0-5.0-2.89","63df609cf58947e964792bb6","bdp_lott","Sun Mar 26 2023 08:03:40 GMT-0700 (Pacific Daylight Time)","278632","red","green","","","","","","","","","","136","","","","","","[{""stimulus"":""img/red_lw/1.jpg"",""time"":51},{""stimulus"":""img/red_lw/2.jpg"",""time"":101},{""stimulus"":""img/red_lw/3.jpg"",""time"":151},{""stimulus"":""img/red_lw/4.jpg"",""time"":201},{""stimulus"":""img/red_lw/5.jpg"",""time"":252},{""stimulus"":""img/red_lw/6.jpg"",""time"":302},{""stimulus"":""img/red_lw/7.jpg"",""time"":351},{""stimulus"":""img/red_lw/8.jpg"",""time"":400},{""stimulus"":""img/red_lw/9.jpg"",""time"":451},{""stimulus"":""img/red_lw/10.jpg"",""time"":500},{""stimulus"":""img/red_lw/11.jpg"",""time"":550}]","[]"
"image-keyboard-response","184","132684","0.0-5.0-1.90","63df609cf58947e964792bb6","bdp_lott","Sun Mar 26 2023 08:03:40 GMT-0700 (Pacific Daylight Time)","278632","red","green","","409","","","","choice","","img/red_lw/choose11.jpg","2","135","red","0.5","0.1","0.5","l","",""
"animation","185","133285","0.0-5.0-2.90","63df609cf58947e964792bb6","bdp_lott","Sun Mar 26 2023 08:03:40 GMT-0700 (Pacific Daylight Time)","278632","red","green","","","","","","","","","","135","","","","","","[{""stimulus"":""img/red_ll/1.jpg"",""time"":51},{""stimulus"":""img/red_ll/2.jpg"",""time"":101},{""stimulus"":""img/red_ll/3.jpg"",""time"":151},{""stimulus"":""img/red_ll/4.jpg"",""time"":202},{""stimulus"":""img/red_ll/5.jpg"",""time"":252},{""stimulus"":""img/red_ll/6.jpg"",""time"":302},{""stimulus"":""img/red_ll/7.jpg"",""time"":351},{""stimulus"":""img/red_ll/8.jpg"",""time"":401},{""stimulus"":""img/red_ll/9.jpg"",""time"":452},{""stimulus"":""img/red_ll/10.jpg"",""time"":501},{""stimulus"":""img/red_ll/11.jpg"",""time"":551}]","[]"
"image-keyboard-response","186","133516","0.0-5.0-1.91","63df609cf58947e964792bb6","bdp_lott","Sun Mar 26 2023 08:03:40 GMT-0700 (Pacific Daylight Time)","278632","red","green","","230","","","","choice","","img/red_ll/choose11.jpg","2","134","red","0.5","0.1","0.5","l","",""
"animation","187","134116","0.0-5.0-2.91","63df609cf58947e964792bb6","bdp_lott","Sun Mar 26 2023 08:03:40 GMT-0700 (Pacific Daylight Time)","278632","red","green","","","","","","","","","","134","","","","","","[{""stimulus"":""img/red_ll/1.jpg"",""time"":52},{""stimulus"":""img/red_ll/2.jpg"",""time"":101},{""stimulus"":""img/red_ll/3.jpg"",""time"":151},{""stimulus"":""img/red_ll/4.jpg"",""time"":201},{""stimulus"":""img/red_ll/5.jpg"",""time"":251},{""stimulus"":""img/red_ll/6.jpg"",""time"":302},{""stimulus"":""img/red_ll/7.jpg"",""time"":351},{""stimulus"":""img/red_ll/8.jpg"",""time"":401},{""stimulus"":""img/red_ll/9.jpg"",""time"":451},{""stimulus"":""img/red_ll/10.jpg"",""time"":501},{""stimulus"":""img/red_ll/11.jpg"",""time"":551}]","[]"
"image-keyboard-response","188","134576","0.0-5.0-1.92","63df609cf58947e964792bb6","bdp_lott","Sun Mar 26 2023 08:03:40 GMT-0700 (Pacific Daylight Time)","278632","red","green","","459","","","","choice","","img/red_ll/choose11.jpg","2","133","red","0.5","0.1","0.5","l","",""
"animation","189","135178","0.0-5.0-2.92","63df609cf58947e964792bb6","bdp_lott","Sun Mar 26 2023 08:03:40 GMT-0700 (Pacific Daylight Time)","278632","red","green","","","","","","","","","","133","","","","","","[{""stimulus"":""img/red_ll/1.jpg"",""time"":52},{""stimulus"":""img/red_ll/2.jpg"",""time"":101},{""stimulus"":""img/red_ll/3.jpg"",""time"":152},{""stimulus"":""img/red_ll/4.jpg"",""time"":202},{""stimulus"":""img/red_ll/5.jpg"",""time"":251},{""stimulus"":""img/red_ll/6.jpg"",""time"":302},{""stimulus"":""img/red_ll/7.jpg"",""time"":352},{""stimulus"":""img/red_ll/8.jpg"",""time"":402},{""stimulus"":""img/red_ll/9.jpg"",""time"":452},{""stimulus"":""img/red_ll/10.jpg"",""time"":501},{""stimulus"":""img/red_ll/11.jpg"",""time"":551}]","[]"
"image-keyboard-response","190","135409","0.0-5.0-1.93","63df609cf58947e964792bb6","bdp_lott","Sun Mar 26 2023 08:03:40 GMT-0700 (Pacific Daylight Time)","278632","red","green","","231","","","","choice","","img/red_ll/choose11.jpg","1","132","green","0.5","0.1","0.1","l","",""
"animation","191","136010","0.0-5.0-2.93","63df609cf58947e964792bb6","bdp_lott","Sun Mar 26 2023 08:03:40 GMT-0700 (Pacific Daylight Time)","278632","red","green","","","","","","","","","","132","","","","","","[{""stimulus"":""img/green_ll/1.jpg"",""time"":51},{""stimulus"":""img/green_ll/2.jpg"",""time"":101},{""stimulus"":""img/green_ll/3.jpg"",""time"":151},{""stimulus"":""img/green_ll/4.jpg"",""time"":201},{""stimulus"":""img/green_ll/5.jpg"",""time"":252},{""stimulus"":""img/green_ll/6.jpg"",""time"":302},{""stimulus"":""img/green_ll/7.jpg"",""time"":351},{""stimulus"":""img/green_ll/8.jpg"",""time"":401},{""stimulus"":""img/green_ll/9.jpg"",""time"":451},{""stimulus"":""img/green_ll/10.jpg"",""time"":502},{""stimulus"":""img/green_ll/11.jpg"",""time"":551}]","[]"
"image-keyboard-response","192","136359","0.0-5.0-1.94","63df609cf58947e964792bb6","bdp_lott","Sun Mar 26 2023 08:03:40 GMT-0700 (Pacific Daylight Time)","278632","red","green","","349","","","","choice","","img/green_ll/choose11.jpg","2","131","red","0.5","0.1","0.5","w","",""
