"trial_type","trial_index","time_elapsed","internal_node_id","subject_id","task","startTime","totalTime","fairMachine","unfairMachine","view_history","rt","event","trial","time","trialtype","success","numBlurs","stimulus","key_press","roundsLeft","chosen","pFairMachWin","pUnfairMachWin","pTrialWin","outcome","animation_sequence","responses"
"pavlovia","0","3","0.0-0.0","63ee59dc6e5fbabca14d3d16","bdp_lott","Tue Mar 28 2023 21:22:48 GMT-0400 (Eastern Daylight Time)","484397","green","red","","","","","","","","","","","","","","","","","",""
"instructions","1","3726","0.0-1.0","63ee59dc6e5fbabca14d3d16","bdp_lott","Tue Mar 28 2023 21:22:48 GMT-0400 (Eastern Daylight Time)","484397","green","red","[{""page_index"":0,""viewing_time"":3723}]","3723","","","","","","","","","","","","","","","",""
"","","","","63ee59dc6e5fbabca14d3d16","bdp_lott","Tue Mar 28 2023 21:22:48 GMT-0400 (Eastern Daylight Time)","484397","green","red","","","fullscreenenter","2","6423","fullscreenenter","","","","","","","","","","","",""
"fullscreen","2","7416","0.0-2.0","63ee59dc6e5fbabca14d3d16","bdp_lott","Tue Mar 28 2023 21:22:48 GMT-0400 (Eastern Daylight Time)","484397","green","red","","","","","","","true","","","","","","","","","","",""
"","","","","63ee59dc6e5fbabca14d3d16","bdp_lott","Tue Mar 28 2023 21:22:48 GMT-0400 (Eastern Daylight Time)","484397","green","red","","","blur","3","17792","blurevent","","1","","","","","","","","","",""
"","","","","63ee59dc6e5fbabca14d3d16","bdp_lott","Tue Mar 28 2023 21:22:48 GMT-0400 (Eastern Daylight Time)","484397","green","red","","","focus","3","229016","focusevent","","","","","","","","","","","",""
"instructions","3","230635","0.0-4.0","63ee59dc6e5fbabca14d3d16","bdp_lott","Tue Mar 28 2023 21:22:48 GMT-0400 (Eastern Daylight Time)","484397","green","red","[{""page_index"":0,""viewing_time"":223217}]","223217","","","","","","","","","","","","","","","",""
"image-keyboard-response","4","240681","0.0-5.0-0.0-0.0","63ee59dc6e5fbabca14d3d16","bdp_lott","Tue Mar 28 2023 21:22:48 GMT-0400 (Eastern Daylight Time)","484397","green","red","","10046","","","","blurwarn","","1","","49","","","","","","","",""
"image-keyboard-response","5","245367","0.0-5.0-1.0","63ee59dc6e5fbabca14d3d16","bdp_lott","Tue Mar 28 2023 21:22:48 GMT-0400 (Eastern Daylight Time)","484397","green","red","","4418","","","","choice","","","img/red_ll/initchoose11.jpg","1","225","green","0.5","0.5","0.5","l","",""
"animation","6","245970","0.0-5.0-2.0","63ee59dc6e5fbabca14d3d16","bdp_lott","Tue Mar 28 2023 21:22:48 GMT-0400 (Eastern Daylight Time)","484397","green","red","","","","","","","","","","","225","","","","","","[{""stimulus"":""img/green_ll/1.jpg"",""time"":52},{""stimulus"":""img/green_ll/2.jpg"",""time"":109},{""stimulus"":""img/green_ll/3.jpg"",""time"":155},{""stimulus"":""img/green_ll/4.jpg"",""time"":201},{""stimulus"":""img/green_ll/5.jpg"",""time"":263},{""stimulus"":""img/green_ll/6.jpg"",""time"":310},{""stimulus"":""img/green_ll/7.jpg"",""time"":356},{""stimulus"":""img/green_ll/8.jpg"",""time"":402},{""stimulus"":""img/green_ll/9.jpg"",""time"":464},{""stimulus"":""img/green_ll/10.jpg"",""time"":511},{""stimulus"":""img/green_ll/11.jpg"",""time"":556}]","[]"
"image-keyboard-response","7","247793","0.0-5.0-1.1","63ee59dc6e5fbabca14d3d16","bdp_lott","Tue Mar 28 2023 21:22:48 GMT-0400 (Eastern Daylight Time)","484397","green","red","","1823","","","","choice","","","img/green_ll/choose11.jpg","2","224","red","0.5","0.5","0.5","w","",""
"animation","8","248405","0.0-5.0-2.1","63ee59dc6e5fbabca14d3d16","bdp_lott","Tue Mar 28 2023 21:22:48 GMT-0400 (Eastern Daylight Time)","484397","green","red","","","","","","","","","","","224","","","","","","[{""stimulus"":""img/red_lw/1.jpg"",""time"":51},{""stimulus"":""img/red_lw/2.jpg"",""time"":104},{""stimulus"":""img/red_lw/3.jpg"",""time"":166},{""stimulus"":""img/red_lw/4.jpg"",""time"":211},{""stimulus"":""img/red_lw/5.jpg"",""time"":257},{""stimulus"":""img/red_lw/6.jpg"",""time"":304},{""stimulus"":""img/red_lw/7.jpg"",""time"":351},{""stimulus"":""img/red_lw/8.jpg"",""time"":412},{""stimulus"":""img/red_lw/9.jpg"",""time"":458},{""stimulus"":""img/red_lw/10.jpg"",""time"":504},{""stimulus"":""img/red_lw/11.jpg"",""time"":566}]","[]"
"image-keyboard-response","9","250153","0.0-5.0-1.2","63ee59dc6e5fbabca14d3d16","bdp_lott","Tue Mar 28 2023 21:22:48 GMT-0400 (Eastern Daylight Time)","484397","green","red","","1747","","","","choice","","","img/red_lw/choose11.jpg","2","223","red","0.5","0.5","0.5","w","",""
"animation","10","250763","0.0-5.0-2.2","63ee59dc6e5fbabca14d3d16","bdp_lott","Tue Mar 28 2023 21:22:48 GMT-0400 (Eastern Daylight Time)","484397","green","red","","","","","","","","","","","223","","","","","","[{""stimulus"":""img/red_lw/1.jpg"",""time"":50},{""stimulus"":""img/red_lw/2.jpg"",""time"":102},{""stimulus"":""img/red_lw/3.jpg"",""time"":163},{""stimulus"":""img/red_lw/4.jpg"",""time"":210},{""stimulus"":""img/red_lw/5.jpg"",""time"":256},{""stimulus"":""img/red_lw/6.jpg"",""time"":302},{""stimulus"":""img/red_lw/7.jpg"",""time"":364},{""stimulus"":""img/red_lw/8.jpg"",""time"":410},{""stimulus"":""img/red_lw/9.jpg"",""time"":457},{""stimulus"":""img/red_lw/10.jpg"",""time"":503},{""stimulus"":""img/red_lw/11.jpg"",""time"":564}]","[]"
"image-keyboard-response","11","251839","0.0-5.0-1.3","63ee59dc6e5fbabca14d3d16","bdp_lott","Tue Mar 28 2023 21:22:48 GMT-0400 (Eastern Daylight Time)","484397","green","red","","1076","","","","choice","","","img/red_lw/choose11.jpg","2","222","red","0.5","0.5","0.5","w","",""
"animation","12","252442","0.0-5.0-2.3","63ee59dc6e5fbabca14d3d16","bdp_lott","Tue Mar 28 2023 21:22:48 GMT-0400 (Eastern Daylight Time)","484397","green","red","","","","","","","","","","","222","","","","","","[{""stimulus"":""img/red_lw/1.jpg"",""time"":51},{""stimulus"":""img/red_lw/2.jpg"",""time"":108},{""stimulus"":""img/red_lw/3.jpg"",""time"":155},{""stimulus"":""img/red_lw/4.jpg"",""time"":216},{""stimulus"":""img/red_lw/5.jpg"",""time"":262},{""stimulus"":""img/red_lw/6.jpg"",""time"":308},{""stimulus"":""img/red_lw/7.jpg"",""time"":355},{""stimulus"":""img/red_lw/8.jpg"",""time"":401},{""stimulus"":""img/red_lw/9.jpg"",""time"":462},{""stimulus"":""img/red_lw/10.jpg"",""time"":509},{""stimulus"":""img/red_lw/11.jpg"",""time"":555}]","[]"
"image-keyboard-response","13","253456","0.0-5.0-1.4","63ee59dc6e5fbabca14d3d16","bdp_lott","Tue Mar 28 2023 21:22:48 GMT-0400 (Eastern Daylight Time)","484397","green","red","","1014","","","","choice","","","img/red_lw/choose11.jpg","1","221","green","0.5","0.5","0.5","w","",""
"animation","14","254058","0.0-5.0-2.4","63ee59dc6e5fbabca14d3d16","bdp_lott","Tue Mar 28 2023 21:22:48 GMT-0400 (Eastern Daylight Time)","484397","green","red","","","","","","","","","","","221","","","","","","[{""stimulus"":""img/green_ww/1.jpg"",""time"":60},{""stimulus"":""img/green_ww/2.jpg"",""time"":102},{""stimulus"":""img/green_ww/3.jpg"",""time"":152},{""stimulus"":""img/green_ww/4.jpg"",""time"":202},{""stimulus"":""img/green_ww/5.jpg"",""time"":252},{""stimulus"":""img/green_ww/6.jpg"",""time"":301},{""stimulus"":""img/green_ww/7.jpg"",""time"":363},{""stimulus"":""img/green_ww/8.jpg"",""time"":402},{""stimulus"":""img/green_ww/9.jpg"",""time"":452},{""stimulus"":""img/green_ww/10.jpg"",""time"":502},{""stimulus"":""img/green_ww/11.jpg"",""time"":552}]","[]"
"image-keyboard-response","15","255245","0.0-5.0-1.5","63ee59dc6e5fbabca14d3d16","bdp_lott","Tue Mar 28 2023 21:22:48 GMT-0400 (Eastern Daylight Time)","484397","green","red","","1186","","","","choice","","","img/green_ww/choose11.jpg","1","220","green","0.5","0.5","0.5","l","",""
"animation","16","255857","0.0-5.0-2.5","63ee59dc6e5fbabca14d3d16","bdp_lott","Tue Mar 28 2023 21:22:48 GMT-0400 (Eastern Daylight Time)","484397","green","red","","","","","","","","","","","220","","","","","","[{""stimulus"":""img/green_lw/1.jpg"",""time"":51},{""stimulus"":""img/green_lw/2.jpg"",""time"":102},{""stimulus"":""img/green_lw/3.jpg"",""time"":164},{""stimulus"":""img/green_lw/4.jpg"",""time"":210},{""stimulus"":""img/green_lw/5.jpg"",""time"":256},{""stimulus"":""img/green_lw/6.jpg"",""time"":303},{""stimulus"":""img/green_lw/7.jpg"",""time"":365},{""stimulus"":""img/green_lw/8.jpg"",""time"":411},{""stimulus"":""img/green_lw/9.jpg"",""time"":458},{""stimulus"":""img/green_lw/10.jpg"",""time"":504},{""stimulus"":""img/green_lw/11.jpg"",""time"":565}]","[]"
"image-keyboard-response","17","256689","0.0-5.0-1.6","63ee59dc6e5fbabca14d3d16","bdp_lott","Tue Mar 28 2023 21:22:48 GMT-0400 (Eastern Daylight Time)","484397","green","red","","832","","","","choice","","","img/green_lw/choose11.jpg","1","219","green","0.5","0.5","0.5","l","",""
"animation","18","257293","0.0-5.0-2.6","63ee59dc6e5fbabca14d3d16","bdp_lott","Tue Mar 28 2023 21:22:48 GMT-0400 (Eastern Daylight Time)","484397","green","red","","","","","","","","","","","219","","","","","","[{""stimulus"":""img/green_lw/1.jpg"",""time"":64},{""stimulus"":""img/green_lw/2.jpg"",""time"":110},{""stimulus"":""img/green_lw/3.jpg"",""time"":156},{""stimulus"":""img/green_lw/4.jpg"",""time"":203},{""stimulus"":""img/green_lw/5.jpg"",""time"":264},{""stimulus"":""img/green_lw/6.jpg"",""time"":311},{""stimulus"":""img/green_lw/7.jpg"",""time"":357},{""stimulus"":""img/green_lw/8.jpg"",""time"":404},{""stimulus"":""img/green_lw/9.jpg"",""time"":464},{""stimulus"":""img/green_lw/10.jpg"",""time"":511},{""stimulus"":""img/green_lw/11.jpg"",""time"":557}]","[]"
"image-keyboard-response","19","257903","0.0-5.0-1.7","63ee59dc6e5fbabca14d3d16","bdp_lott","Tue Mar 28 2023 21:22:48 GMT-0400 (Eastern Daylight Time)","484397","green","red","","610","","","","choice","","","img/green_lw/choose11.jpg","1","218","green","0.5","0.5","0.5","w","",""
"animation","20","258510","0.0-5.0-2.7","63ee59dc6e5fbabca14d3d16","bdp_lott","Tue Mar 28 2023 21:22:48 GMT-0400 (Eastern Daylight Time)","484397","green","red","","","","","","","","","","","218","","","","","","[{""stimulus"":""img/green_ww/1.jpg"",""time"":51},{""stimulus"":""img/green_ww/2.jpg"",""time"":112},{""stimulus"":""img/green_ww/3.jpg"",""time"":161},{""stimulus"":""img/green_ww/4.jpg"",""time"":208},{""stimulus"":""img/green_ww/5.jpg"",""time"":253},{""stimulus"":""img/green_ww/6.jpg"",""time"":315},{""stimulus"":""img/green_ww/7.jpg"",""time"":361},{""stimulus"":""img/green_ww/8.jpg"",""time"":407},{""stimulus"":""img/green_ww/9.jpg"",""time"":453},{""stimulus"":""img/green_ww/10.jpg"",""time"":515},{""stimulus"":""img/green_ww/11.jpg"",""time"":561}]","[]"
"image-keyboard-response","21","259123","0.0-5.0-1.8","63ee59dc6e5fbabca14d3d16","bdp_lott","Tue Mar 28 2023 21:22:48 GMT-0400 (Eastern Daylight Time)","484397","green","red","","611","","","","choice","","","img/green_ww/choose11.jpg","2","217","red","0.5","0.5","0.5","l","",""
"animation","22","259724","0.0-5.0-2.8","63ee59dc6e5fbabca14d3d16","bdp_lott","Tue Mar 28 2023 21:22:48 GMT-0400 (Eastern Daylight Time)","484397","green","red","","","","","","","","","","","217","","","","","","[{""stimulus"":""img/red_wl/1.jpg"",""time"":52},{""stimulus"":""img/red_wl/2.jpg"",""time"":106},{""stimulus"":""img/red_wl/3.jpg"",""time"":158},{""stimulus"":""img/red_wl/4.jpg"",""time"":204},{""stimulus"":""img/red_wl/5.jpg"",""time"":251},{""stimulus"":""img/red_wl/6.jpg"",""time"":313},{""stimulus"":""img/red_wl/7.jpg"",""time"":352},{""stimulus"":""img/red_wl/8.jpg"",""time"":402},{""stimulus"":""img/red_wl/9.jpg"",""time"":452},{""stimulus"":""img/red_wl/10.jpg"",""time"":502},{""stimulus"":""img/red_wl/11.jpg"",""time"":552}]","[]"
"image-keyboard-response","23","260189","0.0-5.0-1.9","63ee59dc6e5fbabca14d3d16","bdp_lott","Tue Mar 28 2023 21:22:48 GMT-0400 (Eastern Daylight Time)","484397","green","red","","464","","","","choice","","","img/red_wl/choose11.jpg","2","216","red","0.5","0.5","0.5","w","",""
"animation","24","260791","0.0-5.0-2.9","63ee59dc6e5fbabca14d3d16","bdp_lott","Tue Mar 28 2023 21:22:48 GMT-0400 (Eastern Daylight Time)","484397","green","red","","","","","","","","","","","216","","","","","","[{""stimulus"":""img/red_ww/1.jpg"",""time"":51},{""stimulus"":""img/red_ww/2.jpg"",""time"":106},{""stimulus"":""img/red_ww/3.jpg"",""time"":157},{""stimulus"":""img/red_ww/4.jpg"",""time"":203},{""stimulus"":""img/red_ww/5.jpg"",""time"":264},{""stimulus"":""img/red_ww/6.jpg"",""time"":303},{""stimulus"":""img/red_ww/7.jpg"",""time"":352},{""stimulus"":""img/red_ww/8.jpg"",""time"":402},{""stimulus"":""img/red_ww/9.jpg"",""time"":451},{""stimulus"":""img/red_ww/10.jpg"",""time"":512},{""stimulus"":""img/red_ww/11.jpg"",""time"":552}]","[]"
"image-keyboard-response","25","261793","0.0-5.0-1.10","63ee59dc6e5fbabca14d3d16","bdp_lott","Tue Mar 28 2023 21:22:48 GMT-0400 (Eastern Daylight Time)","484397","green","red","","1001","","","","choice","","","img/red_ww/choose11.jpg","2","215","red","0.5","0.5","0.5","w","",""
"animation","26","262400","0.0-5.0-2.10","63ee59dc6e5fbabca14d3d16","bdp_lott","Tue Mar 28 2023 21:22:48 GMT-0400 (Eastern Daylight Time)","484397","green","red","","","","","","","","","","","215","","","","","","[{""stimulus"":""img/red_ww/1.jpg"",""time"":50},{""stimulus"":""img/red_ww/2.jpg"",""time"":112},{""stimulus"":""img/red_ww/3.jpg"",""time"":159},{""stimulus"":""img/red_ww/4.jpg"",""time"":205},{""stimulus"":""img/red_ww/5.jpg"",""time"":251},{""stimulus"":""img/red_ww/6.jpg"",""time"":313},{""stimulus"":""img/red_ww/7.jpg"",""time"":359},{""stimulus"":""img/red_ww/8.jpg"",""time"":405},{""stimulus"":""img/red_ww/9.jpg"",""time"":452},{""stimulus"":""img/red_ww/10.jpg"",""time"":514},{""stimulus"":""img/red_ww/11.jpg"",""time"":560}]","[]"
"image-keyboard-response","27","262987","0.0-5.0-1.11","63ee59dc6e5fbabca14d3d16","bdp_lott","Tue Mar 28 2023 21:22:48 GMT-0400 (Eastern Daylight Time)","484397","green","red","","586","","","","choice","","","img/red_ww/choose11.jpg","2","214","red","0.5","0.5","0.5","w","",""
"animation","28","263589","0.0-5.0-2.11","63ee59dc6e5fbabca14d3d16","bdp_lott","Tue Mar 28 2023 21:22:48 GMT-0400 (Eastern Daylight Time)","484397","green","red","","","","","","","","","","","214","","","","","","[{""stimulus"":""img/red_ww/1.jpg"",""time"":51},{""stimulus"":""img/red_ww/2.jpg"",""time"":108},{""stimulus"":""img/red_ww/3.jpg"",""time"":155},{""stimulus"":""img/red_ww/4.jpg"",""time"":216},{""stimulus"":""img/red_ww/5.jpg"",""time"":263},{""stimulus"":""img/red_ww/6.jpg"",""time"":309},{""stimulus"":""img/red_ww/7.jpg"",""time"":357},{""stimulus"":""img/red_ww/8.jpg"",""time"":402},{""stimulus"":""img/red_ww/9.jpg"",""time"":464},{""stimulus"":""img/red_ww/10.jpg"",""time"":510},{""stimulus"":""img/red_ww/11.jpg"",""time"":557}]","[]"
"image-keyboard-response","29","264137","0.0-5.0-1.12","63ee59dc6e5fbabca14d3d16","bdp_lott","Tue Mar 28 2023 21:22:48 GMT-0400 (Eastern Daylight Time)","484397","green","red","","547","","","","choice","","","img/red_ww/choose11.jpg","2","213","red","0.5","0.5","0.5","l","",""
"animation","30","264747","0.0-5.0-2.12","63ee59dc6e5fbabca14d3d16","bdp_lott","Tue Mar 28 2023 21:22:48 GMT-0400 (Eastern Daylight Time)","484397","green","red","","","","","","","","","","","213","","","","","","[{""stimulus"":""img/red_wl/1.jpg"",""time"":50},{""stimulus"":""img/red_wl/2.jpg"",""time"":101},{""stimulus"":""img/red_wl/3.jpg"",""time"":163},{""stimulus"":""img/red_wl/4.jpg"",""time"":209},{""stimulus"":""img/red_wl/5.jpg"",""time"":255},{""stimulus"":""img/red_wl/6.jpg"",""time"":301},{""stimulus"":""img/red_wl/7.jpg"",""time"":363},{""stimulus"":""img/red_wl/8.jpg"",""time"":409},{""stimulus"":""img/red_wl/9.jpg"",""time"":456},{""stimulus"":""img/red_wl/10.jpg"",""time"":501},{""stimulus"":""img/red_wl/11.jpg"",""time"":563}]","[]"
"image-keyboard-response","31","265469","0.0-5.0-1.13","63ee59dc6e5fbabca14d3d16","bdp_lott","Tue Mar 28 2023 21:22:48 GMT-0400 (Eastern Daylight Time)","484397","green","red","","721","","","","choice","","","img/red_wl/choose11.jpg","2","212","red","0.5","0.5","0.5","l","",""
"animation","32","266078","0.0-5.0-2.13","63ee59dc6e5fbabca14d3d16","bdp_lott","Tue Mar 28 2023 21:22:48 GMT-0400 (Eastern Daylight Time)","484397","green","red","","","","","","","","","","","212","","","","","","[{""stimulus"":""img/red_wl/1.jpg"",""time"":51},{""stimulus"":""img/red_wl/2.jpg"",""time"":114},{""stimulus"":""img/red_wl/3.jpg"",""time"":160},{""stimulus"":""img/red_wl/4.jpg"",""time"":207},{""stimulus"":""img/red_wl/5.jpg"",""time"":253},{""stimulus"":""img/red_wl/6.jpg"",""time"":315},{""stimulus"":""img/red_wl/7.jpg"",""time"":361},{""stimulus"":""img/red_wl/8.jpg"",""time"":408},{""stimulus"":""img/red_wl/9.jpg"",""time"":454},{""stimulus"":""img/red_wl/10.jpg"",""time"":501},{""stimulus"":""img/red_wl/11.jpg"",""time"":563}]","[]"
"image-keyboard-response","33","266383","0.0-5.0-1.14","63ee59dc6e5fbabca14d3d16","bdp_lott","Tue Mar 28 2023 21:22:48 GMT-0400 (Eastern Daylight Time)","484397","green","red","","304","","","","choice","","","img/red_wl/choose11.jpg","2","211","red","0.5","0.5","0.5","l","",""
"animation","34","266991","0.0-5.0-2.14","63ee59dc6e5fbabca14d3d16","bdp_lott","Tue Mar 28 2023 21:22:48 GMT-0400 (Eastern Daylight Time)","484397","green","red","","","","","","","","","","","211","","","","","","[{""stimulus"":""img/red_wl/1.jpg"",""time"":50},{""stimulus"":""img/red_wl/2.jpg"",""time"":113},{""stimulus"":""img/red_wl/3.jpg"",""time"":160},{""stimulus"":""img/red_wl/4.jpg"",""time"":207},{""stimulus"":""img/red_wl/5.jpg"",""time"":253},{""stimulus"":""img/red_wl/6.jpg"",""time"":315},{""stimulus"":""img/red_wl/7.jpg"",""time"":364},{""stimulus"":""img/red_wl/8.jpg"",""time"":410},{""stimulus"":""img/red_wl/9.jpg"",""time"":454},{""stimulus"":""img/red_wl/10.jpg"",""time"":516},{""stimulus"":""img/red_wl/11.jpg"",""time"":562}]","[]"
"image-keyboard-response","35","267261","0.0-5.0-1.15","63ee59dc6e5fbabca14d3d16","bdp_lott","Tue Mar 28 2023 21:22:48 GMT-0400 (Eastern Daylight Time)","484397","green","red","","269","","","","choice","","","img/red_wl/choose11.jpg","2","210","red","0.5","0.5","0.5","l","",""
"animation","36","267872","0.0-5.0-2.15","63ee59dc6e5fbabca14d3d16","bdp_lott","Tue Mar 28 2023 21:22:48 GMT-0400 (Eastern Daylight Time)","484397","green","red","","","","","","","","","","","210","","","","","","[{""stimulus"":""img/red_wl/1.jpg"",""time"":51},{""stimulus"":""img/red_wl/2.jpg"",""time"":101},{""stimulus"":""img/red_wl/3.jpg"",""time"":163},{""stimulus"":""img/red_wl/4.jpg"",""time"":210},{""stimulus"":""img/red_wl/5.jpg"",""time"":255},{""stimulus"":""img/red_wl/6.jpg"",""time"":301},{""stimulus"":""img/red_wl/7.jpg"",""time"":364},{""stimulus"":""img/red_wl/8.jpg"",""time"":400},{""stimulus"":""img/red_wl/9.jpg"",""time"":456},{""stimulus"":""img/red_wl/10.jpg"",""time"":503},{""stimulus"":""img/red_wl/11.jpg"",""time"":564}]","[]"
"image-keyboard-response","37","268119","0.0-5.0-1.16","63ee59dc6e5fbabca14d3d16","bdp_lott","Tue Mar 28 2023 21:22:48 GMT-0400 (Eastern Daylight Time)","484397","green","red","","247","","","","choice","","","img/red_wl/choose11.jpg","2","209","red","0.5","0.5","0.5","l","",""
"animation","38","268723","0.0-5.0-2.16","63ee59dc6e5fbabca14d3d16","bdp_lott","Tue Mar 28 2023 21:22:48 GMT-0400 (Eastern Daylight Time)","484397","green","red","","","","","","","","","","","209","","","","","","[{""stimulus"":""img/red_wl/1.jpg"",""time"":50},{""stimulus"":""img/red_wl/2.jpg"",""time"":108},{""stimulus"":""img/red_wl/3.jpg"",""time"":154},{""stimulus"":""img/red_wl/4.jpg"",""time"":201},{""stimulus"":""img/red_wl/5.jpg"",""time"":263},{""stimulus"":""img/red_wl/6.jpg"",""time"":309},{""stimulus"":""img/red_wl/7.jpg"",""time"":356},{""stimulus"":""img/red_wl/8.jpg"",""time"":402},{""stimulus"":""img/red_wl/9.jpg"",""time"":465},{""stimulus"":""img/red_wl/10.jpg"",""time"":511},{""stimulus"":""img/red_wl/11.jpg"",""time"":558}]","[]"
"image-keyboard-response","39","269041","0.0-5.0-1.17","63ee59dc6e5fbabca14d3d16","bdp_lott","Tue Mar 28 2023 21:22:48 GMT-0400 (Eastern Daylight Time)","484397","green","red","","318","","","","choice","","","img/red_wl/choose11.jpg","2","208","red","0.5","0.5","0.5","l","",""
"animation","40","269650","0.0-5.0-2.17","63ee59dc6e5fbabca14d3d16","bdp_lott","Tue Mar 28 2023 21:22:48 GMT-0400 (Eastern Daylight Time)","484397","green","red","","","","","","","","","","","208","","","","","","[{""stimulus"":""img/red_wl/1.jpg"",""time"":51},{""stimulus"":""img/red_wl/2.jpg"",""time"":104},{""stimulus"":""img/red_wl/3.jpg"",""time"":161},{""stimulus"":""img/red_wl/4.jpg"",""time"":207},{""stimulus"":""img/red_wl/5.jpg"",""time"":253},{""stimulus"":""img/red_wl/6.jpg"",""time"":315},{""stimulus"":""img/red_wl/7.jpg"",""time"":362},{""stimulus"":""img/red_wl/8.jpg"",""time"":408},{""stimulus"":""img/red_wl/9.jpg"",""time"":455},{""stimulus"":""img/red_wl/10.jpg"",""time"":501},{""stimulus"":""img/red_wl/11.jpg"",""time"":563}]","[]"
"image-keyboard-response","41","269929","0.0-5.0-1.18","63ee59dc6e5fbabca14d3d16","bdp_lott","Tue Mar 28 2023 21:22:48 GMT-0400 (Eastern Daylight Time)","484397","green","red","","278","","","","choice","","","img/red_wl/choose11.jpg","2","207","red","0.5","0.5","0.5","w","",""
"animation","42","270533","0.0-5.0-2.18","63ee59dc6e5fbabca14d3d16","bdp_lott","Tue Mar 28 2023 21:22:48 GMT-0400 (Eastern Daylight Time)","484397","green","red","","","","","","","","","","","207","","","","","","[{""stimulus"":""img/red_ww/1.jpg"",""time"":51},{""stimulus"":""img/red_ww/2.jpg"",""time"":109},{""stimulus"":""img/red_ww/3.jpg"",""time"":155},{""stimulus"":""img/red_ww/4.jpg"",""time"":201},{""stimulus"":""img/red_ww/5.jpg"",""time"":263},{""stimulus"":""img/red_ww/6.jpg"",""time"":310},{""stimulus"":""img/red_ww/7.jpg"",""time"":356},{""stimulus"":""img/red_ww/8.jpg"",""time"":403},{""stimulus"":""img/red_ww/9.jpg"",""time"":465},{""stimulus"":""img/red_ww/10.jpg"",""time"":511},{""stimulus"":""img/red_ww/11.jpg"",""time"":558}]","[]"
"image-keyboard-response","43","270831","0.0-5.0-1.19","63ee59dc6e5fbabca14d3d16","bdp_lott","Tue Mar 28 2023 21:22:48 GMT-0400 (Eastern Daylight Time)","484397","green","red","","297","","","","choice","","","img/red_ww/choose11.jpg","2","206","red","0.5","0.5","0.5","l","",""
"animation","44","271447","0.0-5.0-2.19","63ee59dc6e5fbabca14d3d16","bdp_lott","Tue Mar 28 2023 21:22:48 GMT-0400 (Eastern Daylight Time)","484397","green","red","","","","","","","","","","","206","","","","","","[{""stimulus"":""img/red_wl/1.jpg"",""time"":58},{""stimulus"":""img/red_wl/2.jpg"",""time"":105},{""stimulus"":""img/red_wl/3.jpg"",""time"":151},{""stimulus"":""img/red_wl/4.jpg"",""time"":213},{""stimulus"":""img/red_wl/5.jpg"",""time"":259},{""stimulus"":""img/red_wl/6.jpg"",""time"":306},{""stimulus"":""img/red_wl/7.jpg"",""time"":352},{""stimulus"":""img/red_wl/8.jpg"",""time"":414},{""stimulus"":""img/red_wl/9.jpg"",""time"":461},{""stimulus"":""img/red_wl/10.jpg"",""time"":507},{""stimulus"":""img/red_wl/11.jpg"",""time"":554}]","[]"
"image-keyboard-response","45","271863","0.0-5.0-1.20","63ee59dc6e5fbabca14d3d16","bdp_lott","Tue Mar 28 2023 21:22:48 GMT-0400 (Eastern Daylight Time)","484397","green","red","","416","","","","choice","","","img/red_wl/choose11.jpg","1","205","green","0.5","0.5","0.5","w","",""
"animation","46","272468","0.0-5.0-2.20","63ee59dc6e5fbabca14d3d16","bdp_lott","Tue Mar 28 2023 21:22:48 GMT-0400 (Eastern Daylight Time)","484397","green","red","","","","","","","","","","","205","","","","","","[{""stimulus"":""img/green_wl/1.jpg"",""time"":51},{""stimulus"":""img/green_wl/2.jpg"",""time"":110},{""stimulus"":""img/green_wl/3.jpg"",""time"":157},{""stimulus"":""img/green_wl/4.jpg"",""time"":204},{""stimulus"":""img/green_wl/5.jpg"",""time"":265},{""stimulus"":""img/green_wl/6.jpg"",""time"":312},{""stimulus"":""img/green_wl/7.jpg"",""time"":357},{""stimulus"":""img/green_wl/8.jpg"",""time"":404},{""stimulus"":""img/green_wl/9.jpg"",""time"":466},{""stimulus"":""img/green_wl/10.jpg"",""time"":513},{""stimulus"":""img/green_wl/11.jpg"",""time"":559}]","[]"
"image-keyboard-response","47","272945","0.0-5.0-1.21","63ee59dc6e5fbabca14d3d16","bdp_lott","Tue Mar 28 2023 21:22:48 GMT-0400 (Eastern Daylight Time)","484397","green","red","","476","","","","choice","","","img/green_wl/choose11.jpg","1","204","green","0.5","0.5","0.5","l","",""
"animation","48","273555","0.0-5.0-2.21","63ee59dc6e5fbabca14d3d16","bdp_lott","Tue Mar 28 2023 21:22:48 GMT-0400 (Eastern Daylight Time)","484397","green","red","","","","","","","","","","","204","","","","","","[{""stimulus"":""img/green_ll/1.jpg"",""time"":64},{""stimulus"":""img/green_ll/2.jpg"",""time"":101},{""stimulus"":""img/green_ll/3.jpg"",""time"":160},{""stimulus"":""img/green_ll/4.jpg"",""time"":207},{""stimulus"":""img/green_ll/5.jpg"",""time"":253},{""stimulus"":""img/green_ll/6.jpg"",""time"":317},{""stimulus"":""img/green_ll/7.jpg"",""time"":363},{""stimulus"":""img/green_ll/8.jpg"",""time"":409},{""stimulus"":""img/green_ll/9.jpg"",""time"":455},{""stimulus"":""img/green_ll/10.jpg"",""time"":502},{""stimulus"":""img/green_ll/11.jpg"",""time"":565}]","[]"
"image-keyboard-response","49","274121","0.0-5.0-1.22","63ee59dc6e5fbabca14d3d16","bdp_lott","Tue Mar 28 2023 21:22:48 GMT-0400 (Eastern Daylight Time)","484397","green","red","","565","","","","choice","","","img/green_ll/choose11.jpg","1","203","green","0.5","0.5","0.5","l","",""
"animation","50","274732","0.0-5.0-2.22","63ee59dc6e5fbabca14d3d16","bdp_lott","Tue Mar 28 2023 21:22:48 GMT-0400 (Eastern Daylight Time)","484397","green","red","","","","","","","","","","","203","","","","","","[{""stimulus"":""img/green_ll/1.jpg"",""time"":51},{""stimulus"":""img/green_ll/2.jpg"",""time"":115},{""stimulus"":""img/green_ll/3.jpg"",""time"":162},{""stimulus"":""img/green_ll/4.jpg"",""time"":209},{""stimulus"":""img/green_ll/5.jpg"",""time"":256},{""stimulus"":""img/green_ll/6.jpg"",""time"":301},{""stimulus"":""img/green_ll/7.jpg"",""time"":363},{""stimulus"":""img/green_ll/8.jpg"",""time"":410},{""stimulus"":""img/green_ll/9.jpg"",""time"":457},{""stimulus"":""img/green_ll/10.jpg"",""time"":502},{""stimulus"":""img/green_ll/11.jpg"",""time"":564}]","[]"
"image-keyboard-response","51","275157","0.0-5.0-1.23","63ee59dc6e5fbabca14d3d16","bdp_lott","Tue Mar 28 2023 21:22:48 GMT-0400 (Eastern Daylight Time)","484397","green","red","","425","","","","choice","","","img/green_ll/choose11.jpg","2","202","red","0.5","0.5","0.5","w","",""
"animation","52","275758","0.0-5.0-2.23","63ee59dc6e5fbabca14d3d16","bdp_lott","Tue Mar 28 2023 21:22:48 GMT-0400 (Eastern Daylight Time)","484397","green","red","","","","","","","","","","","202","","","","","","[{""stimulus"":""img/red_lw/1.jpg"",""time"":52},{""stimulus"":""img/red_lw/2.jpg"",""time"":102},{""stimulus"":""img/red_lw/3.jpg"",""time"":163},{""stimulus"":""img/red_lw/4.jpg"",""time"":210},{""stimulus"":""img/red_lw/5.jpg"",""time"":256},{""stimulus"":""img/red_lw/6.jpg"",""time"":303},{""stimulus"":""img/red_lw/7.jpg"",""time"":365},{""stimulus"":""img/red_lw/8.jpg"",""time"":401},{""stimulus"":""img/red_lw/9.jpg"",""time"":451},{""stimulus"":""img/red_lw/10.jpg"",""time"":501},{""stimulus"":""img/red_lw/11.jpg"",""time"":551}]","[]"
"image-keyboard-response","53","276343","0.0-5.0-1.24","63ee59dc6e5fbabca14d3d16","bdp_lott","Tue Mar 28 2023 21:22:48 GMT-0400 (Eastern Daylight Time)","484397","green","red","","585","","","","choice","","","img/red_lw/choose11.jpg","2","201","red","0.5","0.5","0.5","w","",""
"animation","54","276947","0.0-5.0-2.24","63ee59dc6e5fbabca14d3d16","bdp_lott","Tue Mar 28 2023 21:22:48 GMT-0400 (Eastern Daylight Time)","484397","green","red","","","","","","","","","","","201","","","","","","[{""stimulus"":""img/red_lw/1.jpg"",""time"":51},{""stimulus"":""img/red_lw/2.jpg"",""time"":104},{""stimulus"":""img/red_lw/3.jpg"",""time"":155},{""stimulus"":""img/red_lw/4.jpg"",""time"":201},{""stimulus"":""img/red_lw/5.jpg"",""time"":263},{""stimulus"":""img/red_lw/6.jpg"",""time"":309},{""stimulus"":""img/red_lw/7.jpg"",""time"":356},{""stimulus"":""img/red_lw/8.jpg"",""time"":403},{""stimulus"":""img/red_lw/9.jpg"",""time"":465},{""stimulus"":""img/red_lw/10.jpg"",""time"":511},{""stimulus"":""img/red_lw/11.jpg"",""time"":557}]","[]"
"image-keyboard-response","55","277427","0.0-5.0-1.25","63ee59dc6e5fbabca14d3d16","bdp_lott","Tue Mar 28 2023 21:22:48 GMT-0400 (Eastern Daylight Time)","484397","green","red","","480","","","","choice","","","img/red_lw/choose11.jpg","2","200","red","0.5","0.5","0.5","w","",""
"animation","56","278031","0.0-5.0-2.25","63ee59dc6e5fbabca14d3d16","bdp_lott","Tue Mar 28 2023 21:22:48 GMT-0400 (Eastern Daylight Time)","484397","green","red","","","","","","","","","","","200","","","","","","[{""stimulus"":""img/red_lw/1.jpg"",""time"":51},{""stimulus"":""img/red_lw/2.jpg"",""time"":108},{""stimulus"":""img/red_lw/3.jpg"",""time"":155},{""stimulus"":""img/red_lw/4.jpg"",""time"":201},{""stimulus"":""img/red_lw/5.jpg"",""time"":264},{""stimulus"":""img/red_lw/6.jpg"",""time"":310},{""stimulus"":""img/red_lw/7.jpg"",""time"":356},{""stimulus"":""img/red_lw/8.jpg"",""time"":402},{""stimulus"":""img/red_lw/9.jpg"",""time"":465},{""stimulus"":""img/red_lw/10.jpg"",""time"":511},{""stimulus"":""img/red_lw/11.jpg"",""time"":557}]","[]"
"image-keyboard-response","57","278519","0.0-5.0-1.26","63ee59dc6e5fbabca14d3d16","bdp_lott","Tue Mar 28 2023 21:22:48 GMT-0400 (Eastern Daylight Time)","484397","green","red","","488","","","","choice","","","img/red_lw/choose11.jpg","2","199","red","0.5","0.5","0.5","w","",""
"animation","58","279130","0.0-5.0-2.26","63ee59dc6e5fbabca14d3d16","bdp_lott","Tue Mar 28 2023 21:22:48 GMT-0400 (Eastern Daylight Time)","484397","green","red","","","","","","","","","","","199","","","","","","[{""stimulus"":""img/red_lw/1.jpg"",""time"":51},{""stimulus"":""img/red_lw/2.jpg"",""time"":110},{""stimulus"":""img/red_lw/3.jpg"",""time"":162},{""stimulus"":""img/red_lw/4.jpg"",""time"":209},{""stimulus"":""img/red_lw/5.jpg"",""time"":256},{""stimulus"":""img/red_lw/6.jpg"",""time"":302},{""stimulus"":""img/red_lw/7.jpg"",""time"":364},{""stimulus"":""img/red_lw/8.jpg"",""time"":410},{""stimulus"":""img/red_lw/9.jpg"",""time"":457},{""stimulus"":""img/red_lw/10.jpg"",""time"":504},{""stimulus"":""img/red_lw/11.jpg"",""time"":565}]","[]"
"image-keyboard-response","59","279579","0.0-5.0-1.27","63ee59dc6e5fbabca14d3d16","bdp_lott","Tue Mar 28 2023 21:22:48 GMT-0400 (Eastern Daylight Time)","484397","green","red","","449","","","","choice","","","img/red_lw/choose11.jpg","2","198","red","0.5","0.5","0.5","l","",""
"animation","60","280183","0.0-5.0-2.27","63ee59dc6e5fbabca14d3d16","bdp_lott","Tue Mar 28 2023 21:22:48 GMT-0400 (Eastern Daylight Time)","484397","green","red","","","","","","","","","","","198","","","","","","[{""stimulus"":""img/red_ll/1.jpg"",""time"":51},{""stimulus"":""img/red_ll/2.jpg"",""time"":109},{""stimulus"":""img/red_ll/3.jpg"",""time"":155},{""stimulus"":""img/red_ll/4.jpg"",""time"":202},{""stimulus"":""img/red_ll/5.jpg"",""time"":264},{""stimulus"":""img/red_ll/6.jpg"",""time"":310},{""stimulus"":""img/red_ll/7.jpg"",""time"":356},{""stimulus"":""img/red_ll/8.jpg"",""time"":403},{""stimulus"":""img/red_ll/9.jpg"",""time"":465},{""stimulus"":""img/red_ll/10.jpg"",""time"":511},{""stimulus"":""img/red_ll/11.jpg"",""time"":558}]","[]"
"image-keyboard-response","61","280677","0.0-5.0-1.28","63ee59dc6e5fbabca14d3d16","bdp_lott","Tue Mar 28 2023 21:22:48 GMT-0400 (Eastern Daylight Time)","484397","green","red","","493","","","","choice","","","img/red_ll/choose11.jpg","1","197","green","0.5","0.5","0.5","l","",""
"animation","62","281282","0.0-5.0-2.28","63ee59dc6e5fbabca14d3d16","bdp_lott","Tue Mar 28 2023 21:22:48 GMT-0400 (Eastern Daylight Time)","484397","green","red","","","","","","","","","","","197","","","","","","[{""stimulus"":""img/green_ll/1.jpg"",""time"":50},{""stimulus"":""img/green_ll/2.jpg"",""time"":110},{""stimulus"":""img/green_ll/3.jpg"",""time"":156},{""stimulus"":""img/green_ll/4.jpg"",""time"":202},{""stimulus"":""img/green_ll/5.jpg"",""time"":265},{""stimulus"":""img/green_ll/6.jpg"",""time"":311},{""stimulus"":""img/green_ll/7.jpg"",""time"":358},{""stimulus"":""img/green_ll/8.jpg"",""time"":404},{""stimulus"":""img/green_ll/9.jpg"",""time"":451},{""stimulus"":""img/green_ll/10.jpg"",""time"":512},{""stimulus"":""img/green_ll/11.jpg"",""time"":559}]","[]"
"image-keyboard-response","63","281709","0.0-5.0-1.29","63ee59dc6e5fbabca14d3d16","bdp_lott","Tue Mar 28 2023 21:22:48 GMT-0400 (Eastern Daylight Time)","484397","green","red","","426","","","","choice","","","img/green_ll/choose11.jpg","1","196","green","0.5","0.5","0.5","w","",""
"animation","64","282320","0.0-5.0-2.29","63ee59dc6e5fbabca14d3d16","bdp_lott","Tue Mar 28 2023 21:22:48 GMT-0400 (Eastern Daylight Time)","484397","green","red","","","","","","","","","","","196","","","","","","[{""stimulus"":""img/green_wl/1.jpg"",""time"":50},{""stimulus"":""img/green_wl/2.jpg"",""time"":115},{""stimulus"":""img/green_wl/3.jpg"",""time"":161},{""stimulus"":""img/green_wl/4.jpg"",""time"":207},{""stimulus"":""img/green_wl/5.jpg"",""time"":254},{""stimulus"":""img/green_wl/6.jpg"",""time"":300},{""stimulus"":""img/green_wl/7.jpg"",""time"":362},{""stimulus"":""img/green_wl/8.jpg"",""time"":409},{""stimulus"":""img/green_wl/9.jpg"",""time"":455},{""stimulus"":""img/green_wl/10.jpg"",""time"":502},{""stimulus"":""img/green_wl/11.jpg"",""time"":564}]","[]"
"image-keyboard-response","65","282873","0.0-5.0-1.30","63ee59dc6e5fbabca14d3d16","bdp_lott","Tue Mar 28 2023 21:22:48 GMT-0400 (Eastern Daylight Time)","484397","green","red","","552","","","","choice","","","img/green_wl/choose11.jpg","1","195","green","0.5","0.5","0.5","w","",""
"animation","66","283481","0.0-5.0-2.30","63ee59dc6e5fbabca14d3d16","bdp_lott","Tue Mar 28 2023 21:22:48 GMT-0400 (Eastern Daylight Time)","484397","green","red","","","","","","","","","","","195","","","","","","[{""stimulus"":""img/green_wl/1.jpg"",""time"":51},{""stimulus"":""img/green_wl/2.jpg"",""time"":113},{""stimulus"":""img/green_wl/3.jpg"",""time"":159},{""stimulus"":""img/green_wl/4.jpg"",""time"":206},{""stimulus"":""img/green_wl/5.jpg"",""time"":252},{""stimulus"":""img/green_wl/6.jpg"",""time"":314},{""stimulus"":""img/green_wl/7.jpg"",""time"":360},{""stimulus"":""img/green_wl/8.jpg"",""time"":407},{""stimulus"":""img/green_wl/9.jpg"",""time"":453},{""stimulus"":""img/green_wl/10.jpg"",""time"":515},{""stimulus"":""img/green_wl/11.jpg"",""time"":562}]","[]"
"image-keyboard-response","67","283883","0.0-5.0-1.31","63ee59dc6e5fbabca14d3d16","bdp_lott","Tue Mar 28 2023 21:22:48 GMT-0400 (Eastern Daylight Time)","484397","green","red","","401","","","","choice","","","img/green_wl/choose11.jpg","1","194","green","0.5","0.5","0.5","l","",""
"animation","68","284486","0.0-5.0-2.31","63ee59dc6e5fbabca14d3d16","bdp_lott","Tue Mar 28 2023 21:22:48 GMT-0400 (Eastern Daylight Time)","484397","green","red","","","","","","","","","","","194","","","","","","[{""stimulus"":""img/green_ll/1.jpg"",""time"":51},{""stimulus"":""img/green_ll/2.jpg"",""time"":108},{""stimulus"":""img/green_ll/3.jpg"",""time"":154},{""stimulus"":""img/green_ll/4.jpg"",""time"":201},{""stimulus"":""img/green_ll/5.jpg"",""time"":263},{""stimulus"":""img/green_ll/6.jpg"",""time"":310},{""stimulus"":""img/green_ll/7.jpg"",""time"":356},{""stimulus"":""img/green_ll/8.jpg"",""time"":402},{""stimulus"":""img/green_ll/9.jpg"",""time"":464},{""stimulus"":""img/green_ll/10.jpg"",""time"":510},{""stimulus"":""img/green_ll/11.jpg"",""time"":557}]","[]"
"image-keyboard-response","69","284969","0.0-5.0-1.32","63ee59dc6e5fbabca14d3d16","bdp_lott","Tue Mar 28 2023 21:22:48 GMT-0400 (Eastern Daylight Time)","484397","green","red","","483","","","","choice","","","img/green_ll/choose11.jpg","1","193","green","0.5","0.5","0.5","l","",""
"animation","70","285585","0.0-5.0-2.32","63ee59dc6e5fbabca14d3d16","bdp_lott","Tue Mar 28 2023 21:22:48 GMT-0400 (Eastern Daylight Time)","484397","green","red","","","","","","","","","","","193","","","","","","[{""stimulus"":""img/green_ll/1.jpg"",""time"":51},{""stimulus"":""img/green_ll/2.jpg"",""time"":105},{""stimulus"":""img/green_ll/3.jpg"",""time"":151},{""stimulus"":""img/green_ll/4.jpg"",""time"":213},{""stimulus"":""img/green_ll/5.jpg"",""time"":260},{""stimulus"":""img/green_ll/6.jpg"",""time"":306},{""stimulus"":""img/green_ll/7.jpg"",""time"":353},{""stimulus"":""img/green_ll/8.jpg"",""time"":401},{""stimulus"":""img/green_ll/9.jpg"",""time"":461},{""stimulus"":""img/green_ll/10.jpg"",""time"":508},{""stimulus"":""img/green_ll/11.jpg"",""time"":554}]","[]"
"image-keyboard-response","71","286007","0.0-5.0-1.33","63ee59dc6e5fbabca14d3d16","bdp_lott","Tue Mar 28 2023 21:22:48 GMT-0400 (Eastern Daylight Time)","484397","green","red","","421","","","","choice","","","img/green_ll/choose11.jpg","2","192","red","0.5","0.5","0.5","w","",""
"animation","72","286608","0.0-5.0-2.33","63ee59dc6e5fbabca14d3d16","bdp_lott","Tue Mar 28 2023 21:22:48 GMT-0400 (Eastern Daylight Time)","484397","green","red","","","","","","","","","","","192","","","","","","[{""stimulus"":""img/red_lw/1.jpg"",""time"":51},{""stimulus"":""img/red_lw/2.jpg"",""time"":104},{""stimulus"":""img/red_lw/3.jpg"",""time"":166},{""stimulus"":""img/red_lw/4.jpg"",""time"":201},{""stimulus"":""img/red_lw/5.jpg"",""time"":251},{""stimulus"":""img/red_lw/6.jpg"",""time"":301},{""stimulus"":""img/red_lw/7.jpg"",""time"":351},{""stimulus"":""img/red_lw/8.jpg"",""time"":401},{""stimulus"":""img/red_lw/9.jpg"",""time"":451},{""stimulus"":""img/red_lw/10.jpg"",""time"":501},{""stimulus"":""img/red_lw/11.jpg"",""time"":551}]","[]"
"image-keyboard-response","73","287149","0.0-5.0-1.34","63ee59dc6e5fbabca14d3d16","bdp_lott","Tue Mar 28 2023 21:22:48 GMT-0400 (Eastern Daylight Time)","484397","green","red","","541","","","","choice","","","img/red_lw/choose11.jpg","2","191","red","0.5","0.5","0.5","w","",""
"animation","74","287765","0.0-5.0-2.34","63ee59dc6e5fbabca14d3d16","bdp_lott","Tue Mar 28 2023 21:22:48 GMT-0400 (Eastern Daylight Time)","484397","green","red","","","","","","","","","","","191","","","","","","[{""stimulus"":""img/red_lw/1.jpg"",""time"":51},{""stimulus"":""img/red_lw/2.jpg"",""time"":106},{""stimulus"":""img/red_lw/3.jpg"",""time"":153},{""stimulus"":""img/red_lw/4.jpg"",""time"":215},{""stimulus"":""img/red_lw/5.jpg"",""time"":261},{""stimulus"":""img/red_lw/6.jpg"",""time"":308},{""stimulus"":""img/red_lw/7.jpg"",""time"":353},{""stimulus"":""img/red_lw/8.jpg"",""time"":416},{""stimulus"":""img/red_lw/9.jpg"",""time"":462},{""stimulus"":""img/red_lw/10.jpg"",""time"":508},{""stimulus"":""img/red_lw/11.jpg"",""time"":555}]","[]"
"image-keyboard-response","75","288251","0.0-5.0-1.35","63ee59dc6e5fbabca14d3d16","bdp_lott","Tue Mar 28 2023 21:22:48 GMT-0400 (Eastern Daylight Time)","484397","green","red","","486","","","","choice","","","img/red_lw/choose11.jpg","2","190","red","0.5","0.5","0.5","w","",""
"animation","76","288863","0.0-5.0-2.35","63ee59dc6e5fbabca14d3d16","bdp_lott","Tue Mar 28 2023 21:22:48 GMT-0400 (Eastern Daylight Time)","484397","green","red","","","","","","","","","","","190","","","","","","[{""stimulus"":""img/red_lw/1.jpg"",""time"":52},{""stimulus"":""img/red_lw/2.jpg"",""time"":102},{""stimulus"":""img/red_lw/3.jpg"",""time"":164},{""stimulus"":""img/red_lw/4.jpg"",""time"":210},{""stimulus"":""img/red_lw/5.jpg"",""time"":256},{""stimulus"":""img/red_lw/6.jpg"",""time"":303},{""stimulus"":""img/red_lw/7.jpg"",""time"":365},{""stimulus"":""img/red_lw/8.jpg"",""time"":411},{""stimulus"":""img/red_lw/9.jpg"",""time"":458},{""stimulus"":""img/red_lw/10.jpg"",""time"":504},{""stimulus"":""img/red_lw/11.jpg"",""time"":566}]","[]"
"image-keyboard-response","77","289293","0.0-5.0-1.36","63ee59dc6e5fbabca14d3d16","bdp_lott","Tue Mar 28 2023 21:22:48 GMT-0400 (Eastern Daylight Time)","484397","green","red","","429","","","","choice","","","img/red_lw/choose11.jpg","2","189","red","0.5","0.5","0.5","l","",""
"animation","78","289899","0.0-5.0-2.36","63ee59dc6e5fbabca14d3d16","bdp_lott","Tue Mar 28 2023 21:22:48 GMT-0400 (Eastern Daylight Time)","484397","green","red","","","","","","","","","","","189","","","","","","[{""stimulus"":""img/red_ll/1.jpg"",""time"":51},{""stimulus"":""img/red_ll/2.jpg"",""time"":112},{""stimulus"":""img/red_ll/3.jpg"",""time"":158},{""stimulus"":""img/red_ll/4.jpg"",""time"":205},{""stimulus"":""img/red_ll/5.jpg"",""time"":251},{""stimulus"":""img/red_ll/6.jpg"",""time"":312},{""stimulus"":""img/red_ll/7.jpg"",""time"":359},{""stimulus"":""img/red_ll/8.jpg"",""time"":405},{""stimulus"":""img/red_ll/9.jpg"",""time"":452},{""stimulus"":""img/red_ll/10.jpg"",""time"":514},{""stimulus"":""img/red_ll/11.jpg"",""time"":560}]","[]"
"image-keyboard-response","79","290467","0.0-5.0-1.37","63ee59dc6e5fbabca14d3d16","bdp_lott","Tue Mar 28 2023 21:22:48 GMT-0400 (Eastern Daylight Time)","484397","green","red","","568","","","","choice","","","img/red_ll/choose11.jpg","1","188","green","0.5","0.5","0.5","l","",""
"animation","80","291074","0.0-5.0-2.37","63ee59dc6e5fbabca14d3d16","bdp_lott","Tue Mar 28 2023 21:22:48 GMT-0400 (Eastern Daylight Time)","484397","green","red","","","","","","","","","","","188","","","","","","[{""stimulus"":""img/green_ll/1.jpg"",""time"":52},{""stimulus"":""img/green_ll/2.jpg"",""time"":112},{""stimulus"":""img/green_ll/3.jpg"",""time"":159},{""stimulus"":""img/green_ll/4.jpg"",""time"":205},{""stimulus"":""img/green_ll/5.jpg"",""time"":251},{""stimulus"":""img/green_ll/6.jpg"",""time"":313},{""stimulus"":""img/green_ll/7.jpg"",""time"":360},{""stimulus"":""img/green_ll/8.jpg"",""time"":406},{""stimulus"":""img/green_ll/9.jpg"",""time"":452},{""stimulus"":""img/green_ll/10.jpg"",""time"":514},{""stimulus"":""img/green_ll/11.jpg"",""time"":561}]","[]"
"image-keyboard-response","81","291565","0.0-5.0-1.38","63ee59dc6e5fbabca14d3d16","bdp_lott","Tue Mar 28 2023 21:22:48 GMT-0400 (Eastern Daylight Time)","484397","green","red","","490","","","","choice","","","img/green_ll/choose11.jpg","1","187","green","0.5","0.5","0.5","w","",""
"animation","82","292170","0.0-5.0-2.38","63ee59dc6e5fbabca14d3d16","bdp_lott","Tue Mar 28 2023 21:22:48 GMT-0400 (Eastern Daylight Time)","484397","green","red","","","","","","","","","","","187","","","","","","[{""stimulus"":""img/green_wl/1.jpg"",""time"":64},{""stimulus"":""img/green_wl/2.jpg"",""time"":110},{""stimulus"":""img/green_wl/3.jpg"",""time"":157},{""stimulus"":""img/green_wl/4.jpg"",""time"":203},{""stimulus"":""img/green_wl/5.jpg"",""time"":265},{""stimulus"":""img/green_wl/6.jpg"",""time"":312},{""stimulus"":""img/green_wl/7.jpg"",""time"":357},{""stimulus"":""img/green_wl/8.jpg"",""time"":404},{""stimulus"":""img/green_wl/9.jpg"",""time"":466},{""stimulus"":""img/green_wl/10.jpg"",""time"":512},{""stimulus"":""img/green_wl/11.jpg"",""time"":559}]","[]"
"image-keyboard-response","83","292701","0.0-5.0-1.39","63ee59dc6e5fbabca14d3d16","bdp_lott","Tue Mar 28 2023 21:22:48 GMT-0400 (Eastern Daylight Time)","484397","green","red","","530","","","","choice","","","img/green_wl/choose11.jpg","2","186","red","0.5","0.5","0.5","l","",""
"animation","84","293314","0.0-5.0-2.39","63ee59dc6e5fbabca14d3d16","bdp_lott","Tue Mar 28 2023 21:22:48 GMT-0400 (Eastern Daylight Time)","484397","green","red","","","","","","","","","","","186","","","","","","[{""stimulus"":""img/red_wl/1.jpg"",""time"":51},{""stimulus"":""img/red_wl/2.jpg"",""time"":104},{""stimulus"":""img/red_wl/3.jpg"",""time"":166},{""stimulus"":""img/red_wl/4.jpg"",""time"":212},{""stimulus"":""img/red_wl/5.jpg"",""time"":259},{""stimulus"":""img/red_wl/6.jpg"",""time"":305},{""stimulus"":""img/red_wl/7.jpg"",""time"":351},{""stimulus"":""img/red_wl/8.jpg"",""time"":413},{""stimulus"":""img/red_wl/9.jpg"",""time"":459},{""stimulus"":""img/red_wl/10.jpg"",""time"":505},{""stimulus"":""img/red_wl/11.jpg"",""time"":552}]","[]"
"image-keyboard-response","85","293671","0.0-5.0-1.40","63ee59dc6e5fbabca14d3d16","bdp_lott","Tue Mar 28 2023 21:22:48 GMT-0400 (Eastern Daylight Time)","484397","green","red","","356","","","","choice","","","img/red_wl/choose11.jpg","1","185","green","0.5","0.5","0.5","w","",""
"animation","86","294288","0.0-5.0-2.40","63ee59dc6e5fbabca14d3d16","bdp_lott","Tue Mar 28 2023 21:22:48 GMT-0400 (Eastern Daylight Time)","484397","green","red","","","","","","","","","","","185","","","","","","[{""stimulus"":""img/green_wl/1.jpg"",""time"":51},{""stimulus"":""img/green_wl/2.jpg"",""time"":107},{""stimulus"":""img/green_wl/3.jpg"",""time"":153},{""stimulus"":""img/green_wl/4.jpg"",""time"":215},{""stimulus"":""img/green_wl/5.jpg"",""time"":261},{""stimulus"":""img/green_wl/6.jpg"",""time"":307},{""stimulus"":""img/green_wl/7.jpg"",""time"":354},{""stimulus"":""img/green_wl/8.jpg"",""time"":415},{""stimulus"":""img/green_wl/9.jpg"",""time"":462},{""stimulus"":""img/green_wl/10.jpg"",""time"":501},{""stimulus"":""img/green_wl/11.jpg"",""time"":555}]","[]"
"image-keyboard-response","87","294769","0.0-5.0-1.41","63ee59dc6e5fbabca14d3d16","bdp_lott","Tue Mar 28 2023 21:22:48 GMT-0400 (Eastern Daylight Time)","484397","green","red","","480","","","","choice","","","img/green_wl/choose11.jpg","1","184","green","0.5","0.5","0.5","l","",""
"animation","88","295385","0.0-5.0-2.41","63ee59dc6e5fbabca14d3d16","bdp_lott","Tue Mar 28 2023 21:22:48 GMT-0400 (Eastern Daylight Time)","484397","green","red","","","","","","","","","","","184","","","","","","[{""stimulus"":""img/green_ll/1.jpg"",""time"":52},{""stimulus"":""img/green_ll/2.jpg"",""time"":104},{""stimulus"":""img/green_ll/3.jpg"",""time"":152},{""stimulus"":""img/green_ll/4.jpg"",""time"":214},{""stimulus"":""img/green_ll/5.jpg"",""time"":260},{""stimulus"":""img/green_ll/6.jpg"",""time"":306},{""stimulus"":""img/green_ll/7.jpg"",""time"":352},{""stimulus"":""img/green_ll/8.jpg"",""time"":415},{""stimulus"":""img/green_ll/9.jpg"",""time"":461},{""stimulus"":""img/green_ll/10.jpg"",""time"":508},{""stimulus"":""img/green_ll/11.jpg"",""time"":554}]","[]"
"image-keyboard-response","89","295805","0.0-5.0-1.42","63ee59dc6e5fbabca14d3d16","bdp_lott","Tue Mar 28 2023 21:22:48 GMT-0400 (Eastern Daylight Time)","484397","green","red","","419","","","","choice","","","img/green_ll/choose11.jpg","2","183","red","0.5","0.5","0.5","w","",""
"animation","90","296421","0.0-5.0-2.42","63ee59dc6e5fbabca14d3d16","bdp_lott","Tue Mar 28 2023 21:22:48 GMT-0400 (Eastern Daylight Time)","484397","green","red","","","","","","","","","","","183","","","","","","[{""stimulus"":""img/red_lw/1.jpg"",""time"":52},{""stimulus"":""img/red_lw/2.jpg"",""time"":106},{""stimulus"":""img/red_lw/3.jpg"",""time"":152},{""stimulus"":""img/red_lw/4.jpg"",""time"":214},{""stimulus"":""img/red_lw/5.jpg"",""time"":261},{""stimulus"":""img/red_lw/6.jpg"",""time"":307},{""stimulus"":""img/red_lw/7.jpg"",""time"":353},{""stimulus"":""img/red_lw/8.jpg"",""time"":415},{""stimulus"":""img/red_lw/9.jpg"",""time"":462},{""stimulus"":""img/red_lw/10.jpg"",""time"":508},{""stimulus"":""img/red_lw/11.jpg"",""time"":554}]","[]"
"image-keyboard-response","91","296939","0.0-5.0-1.43","63ee59dc6e5fbabca14d3d16","bdp_lott","Tue Mar 28 2023 21:22:48 GMT-0400 (Eastern Daylight Time)","484397","green","red","","518","","","","choice","","","img/red_lw/choose11.jpg","2","182","red","0.5","0.5","0.5","l","",""
"animation","92","297549","0.0-5.0-2.43","63ee59dc6e5fbabca14d3d16","bdp_lott","Tue Mar 28 2023 21:22:48 GMT-0400 (Eastern Daylight Time)","484397","green","red","","","","","","","","","","","182","","","","","","[{""stimulus"":""img/red_ll/1.jpg"",""time"":52},{""stimulus"":""img/red_ll/2.jpg"",""time"":101},{""stimulus"":""img/red_ll/3.jpg"",""time"":162},{""stimulus"":""img/red_ll/4.jpg"",""time"":209},{""stimulus"":""img/red_ll/5.jpg"",""time"":255},{""stimulus"":""img/red_ll/6.jpg"",""time"":302},{""stimulus"":""img/red_ll/7.jpg"",""time"":363},{""stimulus"":""img/red_ll/8.jpg"",""time"":409},{""stimulus"":""img/red_ll/9.jpg"",""time"":456},{""stimulus"":""img/red_ll/10.jpg"",""time"":502},{""stimulus"":""img/red_ll/11.jpg"",""time"":564}]","[]"
"image-keyboard-response","93","297939","0.0-5.0-1.44","63ee59dc6e5fbabca14d3d16","bdp_lott","Tue Mar 28 2023 21:22:48 GMT-0400 (Eastern Daylight Time)","484397","green","red","","389","","","","choice","","","img/red_ll/choose11.jpg","2","181","red","0.5","0.5","0.5","w","",""
"animation","94","298542","0.0-5.0-2.44","63ee59dc6e5fbabca14d3d16","bdp_lott","Tue Mar 28 2023 21:22:48 GMT-0400 (Eastern Daylight Time)","484397","green","red","","","","","","","","","","","181","","","","","","[{""stimulus"":""img/red_lw/1.jpg"",""time"":51},{""stimulus"":""img/red_lw/2.jpg"",""time"":105},{""stimulus"":""img/red_lw/3.jpg"",""time"":151},{""stimulus"":""img/red_lw/4.jpg"",""time"":213},{""stimulus"":""img/red_lw/5.jpg"",""time"":267},{""stimulus"":""img/red_lw/6.jpg"",""time"":312},{""stimulus"":""img/red_lw/7.jpg"",""time"":362},{""stimulus"":""img/red_lw/8.jpg"",""time"":425},{""stimulus"":""img/red_lw/9.jpg"",""time"":470},{""stimulus"":""img/red_lw/10.jpg"",""time"":516},{""stimulus"":""img/red_lw/11.jpg"",""time"":556}]","[]"
"image-keyboard-response","95","299021","0.0-5.0-1.45","63ee59dc6e5fbabca14d3d16","bdp_lott","Tue Mar 28 2023 21:22:48 GMT-0400 (Eastern Daylight Time)","484397","green","red","","478","","","","choice","","","img/red_lw/choose11.jpg","2","180","red","0.5","0.5","0.5","l","",""
"animation","96","299637","0.0-5.0-2.45","63ee59dc6e5fbabca14d3d16","bdp_lott","Tue Mar 28 2023 21:22:48 GMT-0400 (Eastern Daylight Time)","484397","green","red","","","","","","","","","","","180","","","","","","[{""stimulus"":""img/red_ll/1.jpg"",""time"":51},{""stimulus"":""img/red_ll/2.jpg"",""time"":107},{""stimulus"":""img/red_ll/3.jpg"",""time"":152},{""stimulus"":""img/red_ll/4.jpg"",""time"":215},{""stimulus"":""img/red_ll/5.jpg"",""time"":262},{""stimulus"":""img/red_ll/6.jpg"",""time"":308},{""stimulus"":""img/red_ll/7.jpg"",""time"":355},{""stimulus"":""img/red_ll/8.jpg"",""time"":416},{""stimulus"":""img/red_ll/9.jpg"",""time"":462},{""stimulus"":""img/red_ll/10.jpg"",""time"":508},{""stimulus"":""img/red_ll/11.jpg"",""time"":555}]","[]"
"image-keyboard-response","97","300095","0.0-5.0-1.46","63ee59dc6e5fbabca14d3d16","bdp_lott","Tue Mar 28 2023 21:22:48 GMT-0400 (Eastern Daylight Time)","484397","green","red","","457","","","","choice","","","img/red_ll/choose11.jpg","2","179","red","0.5","0.5","0.5","w","",""
"animation","98","300701","0.0-5.0-2.46","63ee59dc6e5fbabca14d3d16","bdp_lott","Tue Mar 28 2023 21:22:48 GMT-0400 (Eastern Daylight Time)","484397","green","red","","","","","","","","","","","179","","","","","","[{""stimulus"":""img/red_lw/1.jpg"",""time"":51},{""stimulus"":""img/red_lw/2.jpg"",""time"":114},{""stimulus"":""img/red_lw/3.jpg"",""time"":160},{""stimulus"":""img/red_lw/4.jpg"",""time"":207},{""stimulus"":""img/red_lw/5.jpg"",""time"":253},{""stimulus"":""img/red_lw/6.jpg"",""time"":301},{""stimulus"":""img/red_lw/7.jpg"",""time"":360},{""stimulus"":""img/red_lw/8.jpg"",""time"":406},{""stimulus"":""img/red_lw/9.jpg"",""time"":452},{""stimulus"":""img/red_lw/10.jpg"",""time"":514},{""stimulus"":""img/red_lw/11.jpg"",""time"":560}]","[]"
"image-keyboard-response","99","301193","0.0-5.0-1.47","63ee59dc6e5fbabca14d3d16","bdp_lott","Tue Mar 28 2023 21:22:48 GMT-0400 (Eastern Daylight Time)","484397","green","red","","491","","","","choice","","","img/red_lw/choose11.jpg","2","178","red","0.5","0.5","0.5","l","",""
"animation","100","301799","0.0-5.0-2.47","63ee59dc6e5fbabca14d3d16","bdp_lott","Tue Mar 28 2023 21:22:48 GMT-0400 (Eastern Daylight Time)","484397","green","red","","","","","","","","","","","178","","","","","","[{""stimulus"":""img/red_ll/1.jpg"",""time"":51},{""stimulus"":""img/red_ll/2.jpg"",""time"":112},{""stimulus"":""img/red_ll/3.jpg"",""time"":151},{""stimulus"":""img/red_ll/4.jpg"",""time"":205},{""stimulus"":""img/red_ll/5.jpg"",""time"":251},{""stimulus"":""img/red_ll/6.jpg"",""time"":313},{""stimulus"":""img/red_ll/7.jpg"",""time"":359},{""stimulus"":""img/red_ll/8.jpg"",""time"":406},{""stimulus"":""img/red_ll/9.jpg"",""time"":452},{""stimulus"":""img/red_ll/10.jpg"",""time"":514},{""stimulus"":""img/red_ll/11.jpg"",""time"":555}]","[]"
"image-keyboard-response","101","302131","0.0-5.0-1.48","63ee59dc6e5fbabca14d3d16","bdp_lott","Tue Mar 28 2023 21:22:48 GMT-0400 (Eastern Daylight Time)","484397","green","red","","331","","","","choice","","","img/red_ll/choose11.jpg","2","177","red","0.5","0.5","0.5","l","",""
"animation","102","302731","0.0-5.0-2.48","63ee59dc6e5fbabca14d3d16","bdp_lott","Tue Mar 28 2023 21:22:48 GMT-0400 (Eastern Daylight Time)","484397","green","red","","","","","","","","","","","177","","","","","","[{""stimulus"":""img/red_ll/1.jpg"",""time"":51},{""stimulus"":""img/red_ll/2.jpg"",""time"":101},{""stimulus"":""img/red_ll/3.jpg"",""time"":163},{""stimulus"":""img/red_ll/4.jpg"",""time"":209},{""stimulus"":""img/red_ll/5.jpg"",""time"":256},{""stimulus"":""img/red_ll/6.jpg"",""time"":302},{""stimulus"":""img/red_ll/7.jpg"",""time"":364},{""stimulus"":""img/red_ll/8.jpg"",""time"":410},{""stimulus"":""img/red_ll/9.jpg"",""time"":456},{""stimulus"":""img/red_ll/10.jpg"",""time"":502},{""stimulus"":""img/red_ll/11.jpg"",""time"":564}]","[]"
"image-keyboard-response","103","303225","0.0-5.0-1.49","63ee59dc6e5fbabca14d3d16","bdp_lott","Tue Mar 28 2023 21:22:48 GMT-0400 (Eastern Daylight Time)","484397","green","red","","493","","","","choice","","","img/red_ll/choose11.jpg","1","176","green","0.5","0.5","0.5","l","",""
"animation","104","303838","0.0-5.0-2.49","63ee59dc6e5fbabca14d3d16","bdp_lott","Tue Mar 28 2023 21:22:48 GMT-0400 (Eastern Daylight Time)","484397","green","red","","","","","","","","","","","176","","","","","","[{""stimulus"":""img/green_ll/1.jpg"",""time"":50},{""stimulus"":""img/green_ll/2.jpg"",""time"":102},{""stimulus"":""img/green_ll/3.jpg"",""time"":164},{""stimulus"":""img/green_ll/4.jpg"",""time"":211},{""stimulus"":""img/green_ll/5.jpg"",""time"":257},{""stimulus"":""img/green_ll/6.jpg"",""time"":304},{""stimulus"":""img/green_ll/7.jpg"",""time"":366},{""stimulus"":""img/green_ll/8.jpg"",""time"":412},{""stimulus"":""img/green_ll/9.jpg"",""time"":458},{""stimulus"":""img/green_ll/10.jpg"",""time"":504},{""stimulus"":""img/green_ll/11.jpg"",""time"":551}]","[]"
"image-keyboard-response","105","304355","0.0-5.0-1.50","63ee59dc6e5fbabca14d3d16","bdp_lott","Tue Mar 28 2023 21:22:48 GMT-0400 (Eastern Daylight Time)","484397","green","red","","517","","","","choice","","","img/green_ll/choose11.jpg","2","175","red","0.5","0.5","0.5","w","",""
"animation","106","304965","0.0-5.0-2.50","63ee59dc6e5fbabca14d3d16","bdp_lott","Tue Mar 28 2023 21:22:48 GMT-0400 (Eastern Daylight Time)","484397","green","red","","","","","","","","","","","175","","","","","","[{""stimulus"":""img/red_lw/1.jpg"",""time"":51},{""stimulus"":""img/red_lw/2.jpg"",""time"":117},{""stimulus"":""img/red_lw/3.jpg"",""time"":163},{""stimulus"":""img/red_lw/4.jpg"",""time"":210},{""stimulus"":""img/red_lw/5.jpg"",""time"":256},{""stimulus"":""img/red_lw/6.jpg"",""time"":302},{""stimulus"":""img/red_lw/7.jpg"",""time"":364},{""stimulus"":""img/red_lw/8.jpg"",""time"":410},{""stimulus"":""img/red_lw/9.jpg"",""time"":456},{""stimulus"":""img/red_lw/10.jpg"",""time"":503},{""stimulus"":""img/red_lw/11.jpg"",""time"":564}]","[]"
"image-keyboard-response","107","305517","0.0-5.0-1.51","63ee59dc6e5fbabca14d3d16","bdp_lott","Tue Mar 28 2023 21:22:48 GMT-0400 (Eastern Daylight Time)","484397","green","red","","551","","","","choice","","","img/red_lw/choose11.jpg","2","174","red","0.5","0.5","0.5","l","",""
"animation","108","306121","0.0-5.0-2.51","63ee59dc6e5fbabca14d3d16","bdp_lott","Tue Mar 28 2023 21:22:48 GMT-0400 (Eastern Daylight Time)","484397","green","red","","","","","","","","","","","174","","","","","","[{""stimulus"":""img/red_ll/1.jpg"",""time"":50},{""stimulus"":""img/red_ll/2.jpg"",""time"":103},{""stimulus"":""img/red_ll/3.jpg"",""time"":155},{""stimulus"":""img/red_ll/4.jpg"",""time"":202},{""stimulus"":""img/red_ll/5.jpg"",""time"":264},{""stimulus"":""img/red_ll/6.jpg"",""time"":310},{""stimulus"":""img/red_ll/7.jpg"",""time"":357},{""stimulus"":""img/red_ll/8.jpg"",""time"":403},{""stimulus"":""img/red_ll/9.jpg"",""time"":465},{""stimulus"":""img/red_ll/10.jpg"",""time"":511},{""stimulus"":""img/red_ll/11.jpg"",""time"":557}]","[]"
"image-keyboard-response","109","306519","0.0-5.0-1.52","63ee59dc6e5fbabca14d3d16","bdp_lott","Tue Mar 28 2023 21:22:48 GMT-0400 (Eastern Daylight Time)","484397","green","red","","397","","","","choice","","","img/red_ll/choose11.jpg","1","173","green","0.5","0.5","0.5","l","",""
"animation","110","307124","0.0-5.0-2.52","63ee59dc6e5fbabca14d3d16","bdp_lott","Tue Mar 28 2023 21:22:48 GMT-0400 (Eastern Daylight Time)","484397","green","red","","","","","","","","","","","173","","","","","","[{""stimulus"":""img/green_ll/1.jpg"",""time"":51},{""stimulus"":""img/green_ll/2.jpg"",""time"":101},{""stimulus"":""img/green_ll/3.jpg"",""time"":157},{""stimulus"":""img/green_ll/4.jpg"",""time"":203},{""stimulus"":""img/green_ll/5.jpg"",""time"":265},{""stimulus"":""img/green_ll/6.jpg"",""time"":311},{""stimulus"":""img/green_ll/7.jpg"",""time"":357},{""stimulus"":""img/green_ll/8.jpg"",""time"":403},{""stimulus"":""img/green_ll/9.jpg"",""time"":465},{""stimulus"":""img/green_ll/10.jpg"",""time"":512},{""stimulus"":""img/green_ll/11.jpg"",""time"":558}]","[]"
"image-keyboard-response","111","307571","0.0-5.0-1.53","63ee59dc6e5fbabca14d3d16","bdp_lott","Tue Mar 28 2023 21:22:48 GMT-0400 (Eastern Daylight Time)","484397","green","red","","447","","","","choice","","","img/green_ll/choose11.jpg","1","172","green","0.5","0.5","0.5","w","",""
"animation","112","308175","0.0-5.0-2.53","63ee59dc6e5fbabca14d3d16","bdp_lott","Tue Mar 28 2023 21:22:48 GMT-0400 (Eastern Daylight Time)","484397","green","red","","","","","","","","","","","172","","","","","","[{""stimulus"":""img/green_wl/1.jpg"",""time"":51},{""stimulus"":""img/green_wl/2.jpg"",""time"":107},{""stimulus"":""img/green_wl/3.jpg"",""time"":153},{""stimulus"":""img/green_wl/4.jpg"",""time"":215},{""stimulus"":""img/green_wl/5.jpg"",""time"":261},{""stimulus"":""img/green_wl/6.jpg"",""time"":307},{""stimulus"":""img/green_wl/7.jpg"",""time"":354},{""stimulus"":""img/green_wl/8.jpg"",""time"":415},{""stimulus"":""img/green_wl/9.jpg"",""time"":462},{""stimulus"":""img/green_wl/10.jpg"",""time"":503},{""stimulus"":""img/green_wl/11.jpg"",""time"":553}]","[]"
"image-keyboard-response","113","308743","0.0-5.0-1.54","63ee59dc6e5fbabca14d3d16","bdp_lott","Tue Mar 28 2023 21:22:48 GMT-0400 (Eastern Daylight Time)","484397","green","red","","568","","","","choice","","","img/green_wl/choose11.jpg","1","171","green","0.5","0.5","0.5","w","",""
"animation","114","309345","0.0-5.0-2.54","63ee59dc6e5fbabca14d3d16","bdp_lott","Tue Mar 28 2023 21:22:48 GMT-0400 (Eastern Daylight Time)","484397","green","red","","","","","","","","","","","171","","","","","","[{""stimulus"":""img/green_wl/1.jpg"",""time"":51},{""stimulus"":""img/green_wl/2.jpg"",""time"":110},{""stimulus"":""img/green_wl/3.jpg"",""time"":156},{""stimulus"":""img/green_wl/4.jpg"",""time"":202},{""stimulus"":""img/green_wl/5.jpg"",""time"":264},{""stimulus"":""img/green_wl/6.jpg"",""time"":310},{""stimulus"":""img/green_wl/7.jpg"",""time"":356},{""stimulus"":""img/green_wl/8.jpg"",""time"":402},{""stimulus"":""img/green_wl/9.jpg"",""time"":463},{""stimulus"":""img/green_wl/10.jpg"",""time"":510},{""stimulus"":""img/green_wl/11.jpg"",""time"":556}]","[]"
"image-keyboard-response","115","309873","0.0-5.0-1.55","63ee59dc6e5fbabca14d3d16","bdp_lott","Tue Mar 28 2023 21:22:48 GMT-0400 (Eastern Daylight Time)","484397","green","red","","528","","","","choice","","","img/green_wl/choose11.jpg","1","170","green","0.5","0.5","0.5","l","",""
"animation","116","310488","0.0-5.0-2.55","63ee59dc6e5fbabca14d3d16","bdp_lott","Tue Mar 28 2023 21:22:48 GMT-0400 (Eastern Daylight Time)","484397","green","red","","","","","","","","","","","170","","","","","","[{""stimulus"":""img/green_ll/1.jpg"",""time"":51},{""stimulus"":""img/green_ll/2.jpg"",""time"":105},{""stimulus"":""img/green_ll/3.jpg"",""time"":152},{""stimulus"":""img/green_ll/4.jpg"",""time"":214},{""stimulus"":""img/green_ll/5.jpg"",""time"":260},{""stimulus"":""img/green_ll/6.jpg"",""time"":306},{""stimulus"":""img/green_ll/7.jpg"",""time"":353},{""stimulus"":""img/green_ll/8.jpg"",""time"":415},{""stimulus"":""img/green_ll/9.jpg"",""time"":461},{""stimulus"":""img/green_ll/10.jpg"",""time"":507},{""stimulus"":""img/green_ll/11.jpg"",""time"":554}]","[]"
"image-keyboard-response","117","311023","0.0-5.0-1.56","63ee59dc6e5fbabca14d3d16","bdp_lott","Tue Mar 28 2023 21:22:48 GMT-0400 (Eastern Daylight Time)","484397","green","red","","534","","","","choice","","","img/green_ll/choose11.jpg","1","169","green","0.5","0.5","0.5","l","",""
"animation","118","311629","0.0-5.0-2.56","63ee59dc6e5fbabca14d3d16","bdp_lott","Tue Mar 28 2023 21:22:48 GMT-0400 (Eastern Daylight Time)","484397","green","red","","","","","","","","","","","169","","","","","","[{""stimulus"":""img/green_ll/1.jpg"",""time"":53},{""stimulus"":""img/green_ll/2.jpg"",""time"":114},{""stimulus"":""img/green_ll/3.jpg"",""time"":160},{""stimulus"":""img/green_ll/4.jpg"",""time"":207},{""stimulus"":""img/green_ll/5.jpg"",""time"":253},{""stimulus"":""img/green_ll/6.jpg"",""time"":314},{""stimulus"":""img/green_ll/7.jpg"",""time"":360},{""stimulus"":""img/green_ll/8.jpg"",""time"":407},{""stimulus"":""img/green_ll/9.jpg"",""time"":453},{""stimulus"":""img/green_ll/10.jpg"",""time"":514},{""stimulus"":""img/green_ll/11.jpg"",""time"":560}]","[]"
"image-keyboard-response","119","312153","0.0-5.0-1.57","63ee59dc6e5fbabca14d3d16","bdp_lott","Tue Mar 28 2023 21:22:48 GMT-0400 (Eastern Daylight Time)","484397","green","red","","523","","","","choice","","","img/green_ll/choose11.jpg","1","168","green","0.5","0.5","0.5","w","",""
"animation","120","312756","0.0-5.0-2.57","63ee59dc6e5fbabca14d3d16","bdp_lott","Tue Mar 28 2023 21:22:48 GMT-0400 (Eastern Daylight Time)","484397","green","red","","","","","","","","","","","168","","","","","","[{""stimulus"":""img/green_wl/1.jpg"",""time"":50},{""stimulus"":""img/green_wl/2.jpg"",""time"":111},{""stimulus"":""img/green_wl/3.jpg"",""time"":157},{""stimulus"":""img/green_wl/4.jpg"",""time"":202},{""stimulus"":""img/green_wl/5.jpg"",""time"":264},{""stimulus"":""img/green_wl/6.jpg"",""time"":311},{""stimulus"":""img/green_wl/7.jpg"",""time"":357},{""stimulus"":""img/green_wl/8.jpg"",""time"":403},{""stimulus"":""img/green_wl/9.jpg"",""time"":465},{""stimulus"":""img/green_wl/10.jpg"",""time"":511},{""stimulus"":""img/green_wl/11.jpg"",""time"":557}]","[]"
"image-keyboard-response","121","313275","0.0-5.0-1.58","63ee59dc6e5fbabca14d3d16","bdp_lott","Tue Mar 28 2023 21:22:48 GMT-0400 (Eastern Daylight Time)","484397","green","red","","518","","","","choice","","","img/green_wl/choose11.jpg","1","167","green","0.5","0.5","0.5","l","",""
"animation","122","313883","0.0-5.0-2.58","63ee59dc6e5fbabca14d3d16","bdp_lott","Tue Mar 28 2023 21:22:48 GMT-0400 (Eastern Daylight Time)","484397","green","red","","","","","","","","","","","167","","","","","","[{""stimulus"":""img/green_ll/1.jpg"",""time"":51},{""stimulus"":""img/green_ll/2.jpg"",""time"":114},{""stimulus"":""img/green_ll/3.jpg"",""time"":160},{""stimulus"":""img/green_ll/4.jpg"",""time"":207},{""stimulus"":""img/green_ll/5.jpg"",""time"":253},{""stimulus"":""img/green_ll/6.jpg"",""time"":315},{""stimulus"":""img/green_ll/7.jpg"",""time"":361},{""stimulus"":""img/green_ll/8.jpg"",""time"":407},{""stimulus"":""img/green_ll/9.jpg"",""time"":454},{""stimulus"":""img/green_ll/10.jpg"",""time"":515},{""stimulus"":""img/green_ll/11.jpg"",""time"":561}]","[]"
"image-keyboard-response","123","314337","0.0-5.0-1.59","63ee59dc6e5fbabca14d3d16","bdp_lott","Tue Mar 28 2023 21:22:48 GMT-0400 (Eastern Daylight Time)","484397","green","red","","454","","","","choice","","","img/green_ll/choose11.jpg","1","166","green","0.5","0.5","0.5","l","",""
"animation","124","314941","0.0-5.0-2.59","63ee59dc6e5fbabca14d3d16","bdp_lott","Tue Mar 28 2023 21:22:48 GMT-0400 (Eastern Daylight Time)","484397","green","red","","","","","","","","","","","166","","","","","","[{""stimulus"":""img/green_ll/1.jpg"",""time"":51},{""stimulus"":""img/green_ll/2.jpg"",""time"":103},{""stimulus"":""img/green_ll/3.jpg"",""time"":165},{""stimulus"":""img/green_ll/4.jpg"",""time"":211},{""stimulus"":""img/green_ll/5.jpg"",""time"":257},{""stimulus"":""img/green_ll/6.jpg"",""time"":304},{""stimulus"":""img/green_ll/7.jpg"",""time"":355},{""stimulus"":""img/green_ll/8.jpg"",""time"":405},{""stimulus"":""img/green_ll/9.jpg"",""time"":455},{""stimulus"":""img/green_ll/10.jpg"",""time"":505},{""stimulus"":""img/green_ll/11.jpg"",""time"":555}]","[]"
"image-keyboard-response","125","315411","0.0-5.0-1.60","63ee59dc6e5fbabca14d3d16","bdp_lott","Tue Mar 28 2023 21:22:48 GMT-0400 (Eastern Daylight Time)","484397","green","red","","469","","","","choice","","","img/green_ll/choose11.jpg","2","165","red","0.5","0.5","0.5","w","",""
"animation","126","316014","0.0-5.0-2.60","63ee59dc6e5fbabca14d3d16","bdp_lott","Tue Mar 28 2023 21:22:48 GMT-0400 (Eastern Daylight Time)","484397","green","red","","","","","","","","","","","165","","","","","","[{""stimulus"":""img/red_lw/1.jpg"",""time"":51},{""stimulus"":""img/red_lw/2.jpg"",""time"":109},{""stimulus"":""img/red_lw/3.jpg"",""time"":156},{""stimulus"":""img/red_lw/4.jpg"",""time"":202},{""stimulus"":""img/red_lw/5.jpg"",""time"":265},{""stimulus"":""img/red_lw/6.jpg"",""time"":310},{""stimulus"":""img/red_lw/7.jpg"",""time"":357},{""stimulus"":""img/red_lw/8.jpg"",""time"":403},{""stimulus"":""img/red_lw/9.jpg"",""time"":464},{""stimulus"":""img/red_lw/10.jpg"",""time"":511},{""stimulus"":""img/red_lw/11.jpg"",""time"":557}]","[]"
"image-keyboard-response","127","316565","0.0-5.0-1.61","63ee59dc6e5fbabca14d3d16","bdp_lott","Tue Mar 28 2023 21:22:48 GMT-0400 (Eastern Daylight Time)","484397","green","red","","551","","","","choice","","","img/red_lw/choose11.jpg","2","164","red","0.5","0.5","0.5","w","",""
"animation","128","317170","0.0-5.0-2.61","63ee59dc6e5fbabca14d3d16","bdp_lott","Tue Mar 28 2023 21:22:48 GMT-0400 (Eastern Daylight Time)","484397","green","red","","","","","","","","","","","164","","","","","","[{""stimulus"":""img/red_lw/1.jpg"",""time"":50},{""stimulus"":""img/red_lw/2.jpg"",""time"":110},{""stimulus"":""img/red_lw/3.jpg"",""time"":156},{""stimulus"":""img/red_lw/4.jpg"",""time"":202},{""stimulus"":""img/red_lw/5.jpg"",""time"":264},{""stimulus"":""img/red_lw/6.jpg"",""time"":310},{""stimulus"":""img/red_lw/7.jpg"",""time"":357},{""stimulus"":""img/red_lw/8.jpg"",""time"":403},{""stimulus"":""img/red_lw/9.jpg"",""time"":465},{""stimulus"":""img/red_lw/10.jpg"",""time"":512},{""stimulus"":""img/red_lw/11.jpg"",""time"":558}]","[]"
"image-keyboard-response","129","317693","0.0-5.0-1.62","63ee59dc6e5fbabca14d3d16","bdp_lott","Tue Mar 28 2023 21:22:48 GMT-0400 (Eastern Daylight Time)","484397","green","red","","522","","","","choice","","","img/red_lw/choose11.jpg","2","163","red","0.5","0.5","0.5","w","",""
"animation","130","318298","0.0-5.0-2.62","63ee59dc6e5fbabca14d3d16","bdp_lott","Tue Mar 28 2023 21:22:48 GMT-0400 (Eastern Daylight Time)","484397","green","red","","","","","","","","","","","163","","","","","","[{""stimulus"":""img/red_lw/1.jpg"",""time"":51},{""stimulus"":""img/red_lw/2.jpg"",""time"":112},{""stimulus"":""img/red_lw/3.jpg"",""time"":158},{""stimulus"":""img/red_lw/4.jpg"",""time"":205},{""stimulus"":""img/red_lw/5.jpg"",""time"":251},{""stimulus"":""img/red_lw/6.jpg"",""time"":312},{""stimulus"":""img/red_lw/7.jpg"",""time"":359},{""stimulus"":""img/red_lw/8.jpg"",""time"":405},{""stimulus"":""img/red_lw/9.jpg"",""time"":451},{""stimulus"":""img/red_lw/10.jpg"",""time"":513},{""stimulus"":""img/red_lw/11.jpg"",""time"":559}]","[]"
"image-keyboard-response","131","318807","0.0-5.0-1.63","63ee59dc6e5fbabca14d3d16","bdp_lott","Tue Mar 28 2023 21:22:48 GMT-0400 (Eastern Daylight Time)","484397","green","red","","508","","","","choice","","","img/red_lw/choose11.jpg","2","162","red","0.5","0.5","0.5","w","",""
"animation","132","319408","0.0-5.0-2.63","63ee59dc6e5fbabca14d3d16","bdp_lott","Tue Mar 28 2023 21:22:48 GMT-0400 (Eastern Daylight Time)","484397","green","red","","","","","","","","","","","162","","","","","","[{""stimulus"":""img/red_lw/1.jpg"",""time"":52},{""stimulus"":""img/red_lw/2.jpg"",""time"":111},{""stimulus"":""img/red_lw/3.jpg"",""time"":157},{""stimulus"":""img/red_lw/4.jpg"",""time"":204},{""stimulus"":""img/red_lw/5.jpg"",""time"":265},{""stimulus"":""img/red_lw/6.jpg"",""time"":301},{""stimulus"":""img/red_lw/7.jpg"",""time"":353},{""stimulus"":""img/red_lw/8.jpg"",""time"":402},{""stimulus"":""img/red_lw/9.jpg"",""time"":453},{""stimulus"":""img/red_lw/10.jpg"",""time"":502},{""stimulus"":""img/red_lw/11.jpg"",""time"":552}]","[]"
"image-keyboard-response","133","319879","0.0-5.0-1.64","63ee59dc6e5fbabca14d3d16","bdp_lott","Tue Mar 28 2023 21:22:48 GMT-0400 (Eastern Daylight Time)","484397","green","red","","470","","","","choice","","","img/red_lw/choose11.jpg","2","161","red","0.5","0.5","0.5","w","",""
"animation","134","320483","0.0-5.0-2.64","63ee59dc6e5fbabca14d3d16","bdp_lott","Tue Mar 28 2023 21:22:48 GMT-0400 (Eastern Daylight Time)","484397","green","red","","","","","","","","","","","161","","","","","","[{""stimulus"":""img/red_lw/1.jpg"",""time"":51},{""stimulus"":""img/red_lw/2.jpg"",""time"":106},{""stimulus"":""img/red_lw/3.jpg"",""time"":154},{""stimulus"":""img/red_lw/4.jpg"",""time"":201},{""stimulus"":""img/red_lw/5.jpg"",""time"":263},{""stimulus"":""img/red_lw/6.jpg"",""time"":310},{""stimulus"":""img/red_lw/7.jpg"",""time"":356},{""stimulus"":""img/red_lw/8.jpg"",""time"":403},{""stimulus"":""img/red_lw/9.jpg"",""time"":465},{""stimulus"":""img/red_lw/10.jpg"",""time"":511},{""stimulus"":""img/red_lw/11.jpg"",""time"":558}]","[]"
"image-keyboard-response","135","321031","0.0-5.0-1.65","63ee59dc6e5fbabca14d3d16","bdp_lott","Tue Mar 28 2023 21:22:48 GMT-0400 (Eastern Daylight Time)","484397","green","red","","548","","","","choice","","","img/red_lw/choose11.jpg","2","160","red","0.5","0.5","0.5","w","",""
"animation","136","321644","0.0-5.0-2.65","63ee59dc6e5fbabca14d3d16","bdp_lott","Tue Mar 28 2023 21:22:48 GMT-0400 (Eastern Daylight Time)","484397","green","red","","","","","","","","","","","160","","","","","","[{""stimulus"":""img/red_lw/1.jpg"",""time"":52},{""stimulus"":""img/red_lw/2.jpg"",""time"":102},{""stimulus"":""img/red_lw/3.jpg"",""time"":164},{""stimulus"":""img/red_lw/4.jpg"",""time"":211},{""stimulus"":""img/red_lw/5.jpg"",""time"":257},{""stimulus"":""img/red_lw/6.jpg"",""time"":304},{""stimulus"":""img/red_lw/7.jpg"",""time"":366},{""stimulus"":""img/red_lw/8.jpg"",""time"":412},{""stimulus"":""img/red_lw/9.jpg"",""time"":458},{""stimulus"":""img/red_lw/10.jpg"",""time"":505},{""stimulus"":""img/red_lw/11.jpg"",""time"":551}]","[]"
"image-keyboard-response","137","322069","0.0-5.0-1.66","63ee59dc6e5fbabca14d3d16","bdp_lott","Tue Mar 28 2023 21:22:48 GMT-0400 (Eastern Daylight Time)","484397","green","red","","425","","","","choice","","","img/red_lw/choose11.jpg","2","159","red","0.5","0.5","0.5","w","",""
"animation","138","322681","0.0-5.0-2.66","63ee59dc6e5fbabca14d3d16","bdp_lott","Tue Mar 28 2023 21:22:48 GMT-0400 (Eastern Daylight Time)","484397","green","red","","","","","","","","","","","159","","","","","","[{""stimulus"":""img/red_lw/1.jpg"",""time"":51},{""stimulus"":""img/red_lw/2.jpg"",""time"":101},{""stimulus"":""img/red_lw/3.jpg"",""time"":163},{""stimulus"":""img/red_lw/4.jpg"",""time"":209},{""stimulus"":""img/red_lw/5.jpg"",""time"":256},{""stimulus"":""img/red_lw/6.jpg"",""time"":302},{""stimulus"":""img/red_lw/7.jpg"",""time"":365},{""stimulus"":""img/red_lw/8.jpg"",""time"":411},{""stimulus"":""img/red_lw/9.jpg"",""time"":458},{""stimulus"":""img/red_lw/10.jpg"",""time"":504},{""stimulus"":""img/red_lw/11.jpg"",""time"":566}]","[]"
"image-keyboard-response","139","323113","0.0-5.0-1.67","63ee59dc6e5fbabca14d3d16","bdp_lott","Tue Mar 28 2023 21:22:48 GMT-0400 (Eastern Daylight Time)","484397","green","red","","431","","","","choice","","","img/red_lw/choose11.jpg","2","158","red","0.5","0.5","0.5","w","",""
"animation","140","323718","0.0-5.0-2.67","63ee59dc6e5fbabca14d3d16","bdp_lott","Tue Mar 28 2023 21:22:48 GMT-0400 (Eastern Daylight Time)","484397","green","red","","","","","","","","","","","158","","","","","","[{""stimulus"":""img/red_lw/1.jpg"",""time"":51},{""stimulus"":""img/red_lw/2.jpg"",""time"":108},{""stimulus"":""img/red_lw/3.jpg"",""time"":156},{""stimulus"":""img/red_lw/4.jpg"",""time"":203},{""stimulus"":""img/red_lw/5.jpg"",""time"":265},{""stimulus"":""img/red_lw/6.jpg"",""time"":311},{""stimulus"":""img/red_lw/7.jpg"",""time"":351},{""stimulus"":""img/red_lw/8.jpg"",""time"":404},{""stimulus"":""img/red_lw/9.jpg"",""time"":466},{""stimulus"":""img/red_lw/10.jpg"",""time"":513},{""stimulus"":""img/red_lw/11.jpg"",""time"":559}]","[]"
"image-keyboard-response","141","324149","0.0-5.0-1.68","63ee59dc6e5fbabca14d3d16","bdp_lott","Tue Mar 28 2023 21:22:48 GMT-0400 (Eastern Daylight Time)","484397","green","red","","430","","","","choice","","","img/red_lw/choose11.jpg","2","157","red","0.5","0.5","0.5","l","",""
"animation","142","324755","0.0-5.0-2.68","63ee59dc6e5fbabca14d3d16","bdp_lott","Tue Mar 28 2023 21:22:48 GMT-0400 (Eastern Daylight Time)","484397","green","red","","","","","","","","","","","157","","","","","","[{""stimulus"":""img/red_ll/1.jpg"",""time"":66},{""stimulus"":""img/red_ll/2.jpg"",""time"":112},{""stimulus"":""img/red_ll/3.jpg"",""time"":158},{""stimulus"":""img/red_ll/4.jpg"",""time"":204},{""stimulus"":""img/red_ll/5.jpg"",""time"":266},{""stimulus"":""img/red_ll/6.jpg"",""time"":312},{""stimulus"":""img/red_ll/7.jpg"",""time"":358},{""stimulus"":""img/red_ll/8.jpg"",""time"":405},{""stimulus"":""img/red_ll/9.jpg"",""time"":451},{""stimulus"":""img/red_ll/10.jpg"",""time"":514},{""stimulus"":""img/red_ll/11.jpg"",""time"":560}]","[]"
"image-keyboard-response","143","325265","0.0-5.0-1.69","63ee59dc6e5fbabca14d3d16","bdp_lott","Tue Mar 28 2023 21:22:48 GMT-0400 (Eastern Daylight Time)","484397","green","red","","510","","","","choice","","","img/red_ll/choose11.jpg","1","156","green","0.5","0.5","0.5","w","",""
"animation","144","325870","0.0-5.0-2.69","63ee59dc6e5fbabca14d3d16","bdp_lott","Tue Mar 28 2023 21:22:48 GMT-0400 (Eastern Daylight Time)","484397","green","red","","","","","","","","","","","156","","","","","","[{""stimulus"":""img/green_wl/1.jpg"",""time"":51},{""stimulus"":""img/green_wl/2.jpg"",""time"":111},{""stimulus"":""img/green_wl/3.jpg"",""time"":156},{""stimulus"":""img/green_wl/4.jpg"",""time"":202},{""stimulus"":""img/green_wl/5.jpg"",""time"":264},{""stimulus"":""img/green_wl/6.jpg"",""time"":311},{""stimulus"":""img/green_wl/7.jpg"",""time"":357},{""stimulus"":""img/green_wl/8.jpg"",""time"":403},{""stimulus"":""img/green_wl/9.jpg"",""time"":466},{""stimulus"":""img/green_wl/10.jpg"",""time"":501},{""stimulus"":""img/green_wl/11.jpg"",""time"":559}]","[]"
"image-keyboard-response","145","326239","0.0-5.0-1.70","63ee59dc6e5fbabca14d3d16","bdp_lott","Tue Mar 28 2023 21:22:48 GMT-0400 (Eastern Daylight Time)","484397","green","red","","369","","","","choice","","","img/green_wl/choose11.jpg","1","155","green","0.5","0.5","0.5","l","",""
"animation","146","326846","0.0-5.0-2.70","63ee59dc6e5fbabca14d3d16","bdp_lott","Tue Mar 28 2023 21:22:48 GMT-0400 (Eastern Daylight Time)","484397","green","red","","","","","","","","","","","155","","","","","","[{""stimulus"":""img/green_ll/1.jpg"",""time"":65},{""stimulus"":""img/green_ll/2.jpg"",""time"":111},{""stimulus"":""img/green_ll/3.jpg"",""time"":157},{""stimulus"":""img/green_ll/4.jpg"",""time"":204},{""stimulus"":""img/green_ll/5.jpg"",""time"":266},{""stimulus"":""img/green_ll/6.jpg"",""time"":312},{""stimulus"":""img/green_ll/7.jpg"",""time"":359},{""stimulus"":""img/green_ll/8.jpg"",""time"":406},{""stimulus"":""img/green_ll/9.jpg"",""time"":453},{""stimulus"":""img/green_ll/10.jpg"",""time"":514},{""stimulus"":""img/green_ll/11.jpg"",""time"":561}]","[]"
"image-keyboard-response","147","327268","0.0-5.0-1.71","63ee59dc6e5fbabca14d3d16","bdp_lott","Tue Mar 28 2023 21:22:48 GMT-0400 (Eastern Daylight Time)","484397","green","red","","421","","","","choice","","","img/green_ll/choose11.jpg","1","154","green","0.5","0.5","0.5","w","",""
"animation","148","327883","0.0-5.0-2.71","63ee59dc6e5fbabca14d3d16","bdp_lott","Tue Mar 28 2023 21:22:48 GMT-0400 (Eastern Daylight Time)","484397","green","red","","","","","","","","","","","154","","","","","","[{""stimulus"":""img/green_wl/1.jpg"",""time"":51},{""stimulus"":""img/green_wl/2.jpg"",""time"":105},{""stimulus"":""img/green_wl/3.jpg"",""time"":151},{""stimulus"":""img/green_wl/4.jpg"",""time"":213},{""stimulus"":""img/green_wl/5.jpg"",""time"":260},{""stimulus"":""img/green_wl/6.jpg"",""time"":306},{""stimulus"":""img/green_wl/7.jpg"",""time"":353},{""stimulus"":""img/green_wl/8.jpg"",""time"":415},{""stimulus"":""img/green_wl/9.jpg"",""time"":460},{""stimulus"":""img/green_wl/10.jpg"",""time"":508},{""stimulus"":""img/green_wl/11.jpg"",""time"":554}]","[]"
"image-keyboard-response","149","328261","0.0-5.0-1.72","63ee59dc6e5fbabca14d3d16","bdp_lott","Tue Mar 28 2023 21:22:48 GMT-0400 (Eastern Daylight Time)","484397","green","red","","378","","","","choice","","","img/green_wl/choose11.jpg","1","153","green","0.5","0.5","0.5","w","",""
"animation","150","328873","0.0-5.0-2.72","63ee59dc6e5fbabca14d3d16","bdp_lott","Tue Mar 28 2023 21:22:48 GMT-0400 (Eastern Daylight Time)","484397","green","red","","","","","","","","","","","153","","","","","","[{""stimulus"":""img/green_wl/1.jpg"",""time"":51},{""stimulus"":""img/green_wl/2.jpg"",""time"":101},{""stimulus"":""img/green_wl/3.jpg"",""time"":165},{""stimulus"":""img/green_wl/4.jpg"",""time"":210},{""stimulus"":""img/green_wl/5.jpg"",""time"":256},{""stimulus"":""img/green_wl/6.jpg"",""time"":303},{""stimulus"":""img/green_wl/7.jpg"",""time"":365},{""stimulus"":""img/green_wl/8.jpg"",""time"":412},{""stimulus"":""img/green_wl/9.jpg"",""time"":457},{""stimulus"":""img/green_wl/10.jpg"",""time"":504},{""stimulus"":""img/green_wl/11.jpg"",""time"":566}]","[]"
"image-keyboard-response","151","329237","0.0-5.0-1.73","63ee59dc6e5fbabca14d3d16","bdp_lott","Tue Mar 28 2023 21:22:48 GMT-0400 (Eastern Daylight Time)","484397","green","red","","364","","","","choice","","","img/green_wl/choose11.jpg","1","152","green","0.5","0.5","0.5","l","",""
"animation","152","329849","0.0-5.0-2.73","63ee59dc6e5fbabca14d3d16","bdp_lott","Tue Mar 28 2023 21:22:48 GMT-0400 (Eastern Daylight Time)","484397","green","red","","","","","","","","","","","152","","","","","","[{""stimulus"":""img/green_ll/1.jpg"",""time"":51},{""stimulus"":""img/green_ll/2.jpg"",""time"":101},{""stimulus"":""img/green_ll/3.jpg"",""time"":163},{""stimulus"":""img/green_ll/4.jpg"",""time"":210},{""stimulus"":""img/green_ll/5.jpg"",""time"":256},{""stimulus"":""img/green_ll/6.jpg"",""time"":302},{""stimulus"":""img/green_ll/7.jpg"",""time"":365},{""stimulus"":""img/green_ll/8.jpg"",""time"":411},{""stimulus"":""img/green_ll/9.jpg"",""time"":457},{""stimulus"":""img/green_ll/10.jpg"",""time"":504},{""stimulus"":""img/green_ll/11.jpg"",""time"":566}]","[]"
"image-keyboard-response","153","330255","0.0-5.0-1.74","63ee59dc6e5fbabca14d3d16","bdp_lott","Tue Mar 28 2023 21:22:48 GMT-0400 (Eastern Daylight Time)","484397","green","red","","405","","","","choice","","","img/green_ll/choose11.jpg","1","151","green","0.5","0.5","0.5","w","",""
"animation","154","330856","0.0-5.0-2.74","63ee59dc6e5fbabca14d3d16","bdp_lott","Tue Mar 28 2023 21:22:48 GMT-0400 (Eastern Daylight Time)","484397","green","red","","","","","","","","","","","151","","","","","","[{""stimulus"":""img/green_wl/1.jpg"",""time"":51},{""stimulus"":""img/green_wl/2.jpg"",""time"":106},{""stimulus"":""img/green_wl/3.jpg"",""time"":153},{""stimulus"":""img/green_wl/4.jpg"",""time"":215},{""stimulus"":""img/green_wl/5.jpg"",""time"":261},{""stimulus"":""img/green_wl/6.jpg"",""time"":308},{""stimulus"":""img/green_wl/7.jpg"",""time"":354},{""stimulus"":""img/green_wl/8.jpg"",""time"":416},{""stimulus"":""img/green_wl/9.jpg"",""time"":463},{""stimulus"":""img/green_wl/10.jpg"",""time"":509},{""stimulus"":""img/green_wl/11.jpg"",""time"":555}]","[]"
"image-keyboard-response","155","331245","0.0-5.0-1.75","63ee59dc6e5fbabca14d3d16","bdp_lott","Tue Mar 28 2023 21:22:48 GMT-0400 (Eastern Daylight Time)","484397","green","red","","388","","","","choice","","","img/green_wl/choose11.jpg","1","150","green","0.5","0.5","0.5","w","",""
"animation","156","331847","0.0-5.0-2.75","63ee59dc6e5fbabca14d3d16","bdp_lott","Tue Mar 28 2023 21:22:48 GMT-0400 (Eastern Daylight Time)","484397","green","red","","","","","","","","","","","150","","","","","","[{""stimulus"":""img/green_wl/1.jpg"",""time"":51},{""stimulus"":""img/green_wl/2.jpg"",""time"":107},{""stimulus"":""img/green_wl/3.jpg"",""time"":153},{""stimulus"":""img/green_wl/4.jpg"",""time"":215},{""stimulus"":""img/green_wl/5.jpg"",""time"":261},{""stimulus"":""img/green_wl/6.jpg"",""time"":307},{""stimulus"":""img/green_wl/7.jpg"",""time"":354},{""stimulus"":""img/green_wl/8.jpg"",""time"":416},{""stimulus"":""img/green_wl/9.jpg"",""time"":462},{""stimulus"":""img/green_wl/10.jpg"",""time"":509},{""stimulus"":""img/green_wl/11.jpg"",""time"":555}]","[]"
"image-keyboard-response","157","332269","0.0-5.0-1.76","63ee59dc6e5fbabca14d3d16","bdp_lott","Tue Mar 28 2023 21:22:48 GMT-0400 (Eastern Daylight Time)","484397","green","red","","422","","","","choice","","","img/green_wl/choose11.jpg","1","149","green","0.5","0.1","0.5","l","",""
"animation","158","332884","0.0-5.0-2.76","63ee59dc6e5fbabca14d3d16","bdp_lott","Tue Mar 28 2023 21:22:48 GMT-0400 (Eastern Daylight Time)","484397","green","red","","","","","","","","","","","149","","","","","","[{""stimulus"":""img/green_ll/1.jpg"",""time"":50},{""stimulus"":""img/green_ll/2.jpg"",""time"":104},{""stimulus"":""img/green_ll/3.jpg"",""time"":150},{""stimulus"":""img/green_ll/4.jpg"",""time"":212},{""stimulus"":""img/green_ll/5.jpg"",""time"":258},{""stimulus"":""img/green_ll/6.jpg"",""time"":305},{""stimulus"":""img/green_ll/7.jpg"",""time"":352},{""stimulus"":""img/green_ll/8.jpg"",""time"":414},{""stimulus"":""img/green_ll/9.jpg"",""time"":460},{""stimulus"":""img/green_ll/10.jpg"",""time"":500},{""stimulus"":""img/green_ll/11.jpg"",""time"":552}]","[]"
"image-keyboard-response","159","333318","0.0-5.0-1.77","63ee59dc6e5fbabca14d3d16","bdp_lott","Tue Mar 28 2023 21:22:48 GMT-0400 (Eastern Daylight Time)","484397","green","red","","432","","","","choice","","","img/green_ll/choose11.jpg","1","148","green","0.5","0.1","0.5","l","",""
"animation","160","333921","0.0-5.0-2.77","63ee59dc6e5fbabca14d3d16","bdp_lott","Tue Mar 28 2023 21:22:48 GMT-0400 (Eastern Daylight Time)","484397","green","red","","","","","","","","","","","148","","","","","","[{""stimulus"":""img/green_ll/1.jpg"",""time"":51},{""stimulus"":""img/green_ll/2.jpg"",""time"":103},{""stimulus"":""img/green_ll/3.jpg"",""time"":155},{""stimulus"":""img/green_ll/4.jpg"",""time"":202},{""stimulus"":""img/green_ll/5.jpg"",""time"":251},{""stimulus"":""img/green_ll/6.jpg"",""time"":310},{""stimulus"":""img/green_ll/7.jpg"",""time"":356},{""stimulus"":""img/green_ll/8.jpg"",""time"":402},{""stimulus"":""img/green_ll/9.jpg"",""time"":464},{""stimulus"":""img/green_ll/10.jpg"",""time"":510},{""stimulus"":""img/green_ll/11.jpg"",""time"":557}]","[]"
"image-keyboard-response","161","334728","0.0-5.0-1.78","63ee59dc6e5fbabca14d3d16","bdp_lott","Tue Mar 28 2023 21:22:48 GMT-0400 (Eastern Daylight Time)","484397","green","red","","806","","","","choice","","","img/green_ll/choose11.jpg","2","147","red","0.5","0.1","0.1","l","",""
"animation","162","335329","0.0-5.0-2.78","63ee59dc6e5fbabca14d3d16","bdp_lott","Tue Mar 28 2023 21:22:48 GMT-0400 (Eastern Daylight Time)","484397","green","red","","","","","","","","","","","147","","","","","","[{""stimulus"":""img/red_ll/1.jpg"",""time"":50},{""stimulus"":""img/red_ll/2.jpg"",""time"":106},{""stimulus"":""img/red_ll/3.jpg"",""time"":152},{""stimulus"":""img/red_ll/4.jpg"",""time"":214},{""stimulus"":""img/red_ll/5.jpg"",""time"":261},{""stimulus"":""img/red_ll/6.jpg"",""time"":307},{""stimulus"":""img/red_ll/7.jpg"",""time"":353},{""stimulus"":""img/red_ll/8.jpg"",""time"":416},{""stimulus"":""img/red_ll/9.jpg"",""time"":462},{""stimulus"":""img/red_ll/10.jpg"",""time"":509},{""stimulus"":""img/red_ll/11.jpg"",""time"":555}]","[]"
"image-keyboard-response","163","335783","0.0-5.0-1.79","63ee59dc6e5fbabca14d3d16","bdp_lott","Tue Mar 28 2023 21:22:48 GMT-0400 (Eastern Daylight Time)","484397","green","red","","453","","","","choice","","","img/red_ll/choose11.jpg","1","146","green","0.5","0.1","0.5","w","",""
"animation","164","336396","0.0-5.0-2.79","63ee59dc6e5fbabca14d3d16","bdp_lott","Tue Mar 28 2023 21:22:48 GMT-0400 (Eastern Daylight Time)","484397","green","red","","","","","","","","","","","146","","","","","","[{""stimulus"":""img/green_wl/1.jpg"",""time"":51},{""stimulus"":""img/green_wl/2.jpg"",""time"":103},{""stimulus"":""img/green_wl/3.jpg"",""time"":166},{""stimulus"":""img/green_wl/4.jpg"",""time"":213},{""stimulus"":""img/green_wl/5.jpg"",""time"":257},{""stimulus"":""img/green_wl/6.jpg"",""time"":304},{""stimulus"":""img/green_wl/7.jpg"",""time"":366},{""stimulus"":""img/green_wl/8.jpg"",""time"":412},{""stimulus"":""img/green_wl/9.jpg"",""time"":459},{""stimulus"":""img/green_wl/10.jpg"",""time"":505},{""stimulus"":""img/green_wl/11.jpg"",""time"":552}]","[]"
"image-keyboard-response","165","336833","0.0-5.0-1.80","63ee59dc6e5fbabca14d3d16","bdp_lott","Tue Mar 28 2023 21:22:48 GMT-0400 (Eastern Daylight Time)","484397","green","red","","436","","","","choice","","","img/green_wl/choose11.jpg","1","145","green","0.5","0.1","0.5","l","",""
"animation","166","337449","0.0-5.0-2.80","63ee59dc6e5fbabca14d3d16","bdp_lott","Tue Mar 28 2023 21:22:48 GMT-0400 (Eastern Daylight Time)","484397","green","red","","","","","","","","","","","145","","","","","","[{""stimulus"":""img/green_ll/1.jpg"",""time"":51},{""stimulus"":""img/green_ll/2.jpg"",""time"":106},{""stimulus"":""img/green_ll/3.jpg"",""time"":152},{""stimulus"":""img/green_ll/4.jpg"",""time"":214},{""stimulus"":""img/green_ll/5.jpg"",""time"":260},{""stimulus"":""img/green_ll/6.jpg"",""time"":306},{""stimulus"":""img/green_ll/7.jpg"",""time"":353},{""stimulus"":""img/green_ll/8.jpg"",""time"":415},{""stimulus"":""img/green_ll/9.jpg"",""time"":461},{""stimulus"":""img/green_ll/10.jpg"",""time"":508},{""stimulus"":""img/green_ll/11.jpg"",""time"":554}]","[]"
"image-keyboard-response","167","337919","0.0-5.0-1.81","63ee59dc6e5fbabca14d3d16","bdp_lott","Tue Mar 28 2023 21:22:48 GMT-0400 (Eastern Daylight Time)","484397","green","red","","470","","","","choice","","","img/green_ll/choose11.jpg","1","144","green","0.5","0.1","0.5","l","",""
"animation","168","338532","0.0-5.0-2.81","63ee59dc6e5fbabca14d3d16","bdp_lott","Tue Mar 28 2023 21:22:48 GMT-0400 (Eastern Daylight Time)","484397","green","red","","","","","","","","","","","144","","","","","","[{""stimulus"":""img/green_ll/1.jpg"",""time"":50},{""stimulus"":""img/green_ll/2.jpg"",""time"":101},{""stimulus"":""img/green_ll/3.jpg"",""time"":163},{""stimulus"":""img/green_ll/4.jpg"",""time"":209},{""stimulus"":""img/green_ll/5.jpg"",""time"":256},{""stimulus"":""img/green_ll/6.jpg"",""time"":303},{""stimulus"":""img/green_ll/7.jpg"",""time"":365},{""stimulus"":""img/green_ll/8.jpg"",""time"":411},{""stimulus"":""img/green_ll/9.jpg"",""time"":458},{""stimulus"":""img/green_ll/10.jpg"",""time"":504},{""stimulus"":""img/green_ll/11.jpg"",""time"":551}]","[]"
"image-keyboard-response","169","338943","0.0-5.0-1.82","63ee59dc6e5fbabca14d3d16","bdp_lott","Tue Mar 28 2023 21:22:48 GMT-0400 (Eastern Daylight Time)","484397","green","red","","410","","","","choice","","","img/green_ll/choose11.jpg","1","143","green","0.5","0.1","0.5","l","",""
"animation","170","339553","0.0-5.0-2.82","63ee59dc6e5fbabca14d3d16","bdp_lott","Tue Mar 28 2023 21:22:48 GMT-0400 (Eastern Daylight Time)","484397","green","red","","","","","","","","","","","143","","","","","","[{""stimulus"":""img/green_ll/1.jpg"",""time"":51},{""stimulus"":""img/green_ll/2.jpg"",""time"":105},{""stimulus"":""img/green_ll/3.jpg"",""time"":161},{""stimulus"":""img/green_ll/4.jpg"",""time"":207},{""stimulus"":""img/green_ll/5.jpg"",""time"":254},{""stimulus"":""img/green_ll/6.jpg"",""time"":300},{""stimulus"":""img/green_ll/7.jpg"",""time"":362},{""stimulus"":""img/green_ll/8.jpg"",""time"":409},{""stimulus"":""img/green_ll/9.jpg"",""time"":455},{""stimulus"":""img/green_ll/10.jpg"",""time"":502},{""stimulus"":""img/green_ll/11.jpg"",""time"":564}]","[]"
"image-keyboard-response","171","340055","0.0-5.0-1.83","63ee59dc6e5fbabca14d3d16","bdp_lott","Tue Mar 28 2023 21:22:48 GMT-0400 (Eastern Daylight Time)","484397","green","red","","501","","","","choice","","","img/green_ll/choose11.jpg","2","142","red","0.5","0.1","0.1","l","",""
"animation","172","340668","0.0-5.0-2.83","63ee59dc6e5fbabca14d3d16","bdp_lott","Tue Mar 28 2023 21:22:48 GMT-0400 (Eastern Daylight Time)","484397","green","red","","","","","","","","","","","142","","","","","","[{""stimulus"":""img/red_ll/1.jpg"",""time"":51},{""stimulus"":""img/red_ll/2.jpg"",""time"":103},{""stimulus"":""img/red_ll/3.jpg"",""time"":164},{""stimulus"":""img/red_ll/4.jpg"",""time"":211},{""stimulus"":""img/red_ll/5.jpg"",""time"":257},{""stimulus"":""img/red_ll/6.jpg"",""time"":304},{""stimulus"":""img/red_ll/7.jpg"",""time"":366},{""stimulus"":""img/red_ll/8.jpg"",""time"":412},{""stimulus"":""img/red_ll/9.jpg"",""time"":458},{""stimulus"":""img/red_ll/10.jpg"",""time"":505},{""stimulus"":""img/red_ll/11.jpg"",""time"":551}]","[]"
"image-keyboard-response","173","341081","0.0-5.0-1.84","63ee59dc6e5fbabca14d3d16","bdp_lott","Tue Mar 28 2023 21:22:48 GMT-0400 (Eastern Daylight Time)","484397","green","red","","413","","","","choice","","","img/red_ll/choose11.jpg","1","141","green","0.5","0.1","0.5","l","",""
"animation","174","341690","0.0-5.0-2.84","63ee59dc6e5fbabca14d3d16","bdp_lott","Tue Mar 28 2023 21:22:48 GMT-0400 (Eastern Daylight Time)","484397","green","red","","","","","","","","","","","141","","","","","","[{""stimulus"":""img/green_ll/1.jpg"",""time"":52},{""stimulus"":""img/green_ll/2.jpg"",""time"":104},{""stimulus"":""img/green_ll/3.jpg"",""time"":161},{""stimulus"":""img/green_ll/4.jpg"",""time"":207},{""stimulus"":""img/green_ll/5.jpg"",""time"":254},{""stimulus"":""img/green_ll/6.jpg"",""time"":316},{""stimulus"":""img/green_ll/7.jpg"",""time"":362},{""stimulus"":""img/green_ll/8.jpg"",""time"":409},{""stimulus"":""img/green_ll/9.jpg"",""time"":455},{""stimulus"":""img/green_ll/10.jpg"",""time"":502},{""stimulus"":""img/green_ll/11.jpg"",""time"":563}]","[]"
"image-keyboard-response","175","342137","0.0-5.0-1.85","63ee59dc6e5fbabca14d3d16","bdp_lott","Tue Mar 28 2023 21:22:48 GMT-0400 (Eastern Daylight Time)","484397","green","red","","446","","","","choice","","","img/green_ll/choose11.jpg","2","140","red","0.5","0.1","0.1","l","",""
"animation","176","342743","0.0-5.0-2.85","63ee59dc6e5fbabca14d3d16","bdp_lott","Tue Mar 28 2023 21:22:48 GMT-0400 (Eastern Daylight Time)","484397","green","red","","","","","","","","","","","140","","","","","","[{""stimulus"":""img/red_ll/1.jpg"",""time"":50},{""stimulus"":""img/red_ll/2.jpg"",""time"":110},{""stimulus"":""img/red_ll/3.jpg"",""time"":157},{""stimulus"":""img/red_ll/4.jpg"",""time"":203},{""stimulus"":""img/red_ll/5.jpg"",""time"":265},{""stimulus"":""img/red_ll/6.jpg"",""time"":312},{""stimulus"":""img/red_ll/7.jpg"",""time"":358},{""stimulus"":""img/red_ll/8.jpg"",""time"":404},{""stimulus"":""img/red_ll/9.jpg"",""time"":450},{""stimulus"":""img/red_ll/10.jpg"",""time"":512},{""stimulus"":""img/red_ll/11.jpg"",""time"":559}]","[]"
"image-keyboard-response","177","343121","0.0-5.0-1.86","63ee59dc6e5fbabca14d3d16","bdp_lott","Tue Mar 28 2023 21:22:48 GMT-0400 (Eastern Daylight Time)","484397","green","red","","378","","","","choice","","","img/red_ll/choose11.jpg","2","139","red","0.5","0.1","0.1","w","",""
"animation","178","343733","0.0-5.0-2.86","63ee59dc6e5fbabca14d3d16","bdp_lott","Tue Mar 28 2023 21:22:48 GMT-0400 (Eastern Daylight Time)","484397","green","red","","","","","","","","","","","139","","","","","","[{""stimulus"":""img/red_lw/1.jpg"",""time"":52},{""stimulus"":""img/red_lw/2.jpg"",""time"":102},{""stimulus"":""img/red_lw/3.jpg"",""time"":164},{""stimulus"":""img/red_lw/4.jpg"",""time"":211},{""stimulus"":""img/red_lw/5.jpg"",""time"":257},{""stimulus"":""img/red_lw/6.jpg"",""time"":303},{""stimulus"":""img/red_lw/7.jpg"",""time"":365},{""stimulus"":""img/red_lw/8.jpg"",""time"":412},{""stimulus"":""img/red_lw/9.jpg"",""time"":458},{""stimulus"":""img/red_lw/10.jpg"",""time"":504},{""stimulus"":""img/red_lw/11.jpg"",""time"":566}]","[]"
"image-keyboard-response","179","344133","0.0-5.0-1.87","63ee59dc6e5fbabca14d3d16","bdp_lott","Tue Mar 28 2023 21:22:48 GMT-0400 (Eastern Daylight Time)","484397","green","red","","399","","","","choice","","","img/red_lw/choose11.jpg","2","138","red","0.5","0.1","0.1","l","",""
"animation","180","344738","0.0-5.0-2.87","63ee59dc6e5fbabca14d3d16","bdp_lott","Tue Mar 28 2023 21:22:48 GMT-0400 (Eastern Daylight Time)","484397","green","red","","","","","","","","","","","138","","","","","","[{""stimulus"":""img/red_ll/1.jpg"",""time"":51},{""stimulus"":""img/red_ll/2.jpg"",""time"":109},{""stimulus"":""img/red_ll/3.jpg"",""time"":156},{""stimulus"":""img/red_ll/4.jpg"",""time"":203},{""stimulus"":""img/red_ll/5.jpg"",""time"":265},{""stimulus"":""img/red_ll/6.jpg"",""time"":311},{""stimulus"":""img/red_ll/7.jpg"",""time"":358},{""stimulus"":""img/red_ll/8.jpg"",""time"":404},{""stimulus"":""img/red_ll/9.jpg"",""time"":466},{""stimulus"":""img/red_ll/10.jpg"",""time"":512},{""stimulus"":""img/red_ll/11.jpg"",""time"":559}]","[]"
"image-keyboard-response","181","345113","0.0-5.0-1.88","63ee59dc6e5fbabca14d3d16","bdp_lott","Tue Mar 28 2023 21:22:48 GMT-0400 (Eastern Daylight Time)","484397","green","red","","374","","","","choice","","","img/red_ll/choose11.jpg","2","137","red","0.5","0.1","0.1","l","",""
"animation","182","345728","0.0-5.0-2.88","63ee59dc6e5fbabca14d3d16","bdp_lott","Tue Mar 28 2023 21:22:48 GMT-0400 (Eastern Daylight Time)","484397","green","red","","","","","","","","","","","137","","","","","","[{""stimulus"":""img/red_ll/1.jpg"",""time"":52},{""stimulus"":""img/red_ll/2.jpg"",""time"":105},{""stimulus"":""img/red_ll/3.jpg"",""time"":151},{""stimulus"":""img/red_ll/4.jpg"",""time"":214},{""stimulus"":""img/red_ll/5.jpg"",""time"":260},{""stimulus"":""img/red_ll/6.jpg"",""time"":306},{""stimulus"":""img/red_ll/7.jpg"",""time"":353},{""stimulus"":""img/red_ll/8.jpg"",""time"":414},{""stimulus"":""img/red_ll/9.jpg"",""time"":461},{""stimulus"":""img/red_ll/10.jpg"",""time"":507},{""stimulus"":""img/red_ll/11.jpg"",""time"":553}]","[]"
"image-keyboard-response","183","345930","0.0-5.0-1.89","63ee59dc6e5fbabca14d3d16","bdp_lott","Tue Mar 28 2023 21:22:48 GMT-0400 (Eastern Daylight Time)","484397","green","red","","200","","","","choice","","","img/red_ll/choose11.jpg","1","136","green","0.5","0.1","0.5","l","",""
"animation","184","346532","0.0-5.0-2.89","63ee59dc6e5fbabca14d3d16","bdp_lott","Tue Mar 28 2023 21:22:48 GMT-0400 (Eastern Daylight Time)","484397","green","red","","","","","","","","","","","136","","","","","","[{""stimulus"":""img/green_ll/1.jpg"",""time"":50},{""stimulus"":""img/green_ll/2.jpg"",""time"":107},{""stimulus"":""img/green_ll/3.jpg"",""time"":153},{""stimulus"":""img/green_ll/4.jpg"",""time"":215},{""stimulus"":""img/green_ll/5.jpg"",""time"":262},{""stimulus"":""img/green_ll/6.jpg"",""time"":308},{""stimulus"":""img/green_ll/7.jpg"",""time"":354},{""stimulus"":""img/green_ll/8.jpg"",""time"":401},{""stimulus"":""img/green_ll/9.jpg"",""time"":463},{""stimulus"":""img/green_ll/10.jpg"",""time"":510},{""stimulus"":""img/green_ll/11.jpg"",""time"":556}]","[]"
"image-keyboard-response","185","347089","0.0-5.0-1.90","63ee59dc6e5fbabca14d3d16","bdp_lott","Tue Mar 28 2023 21:22:48 GMT-0400 (Eastern Daylight Time)","484397","green","red","","556","","","","choice","","","img/green_ll/choose11.jpg","2","135","red","0.5","0.1","0.1","l","",""
"animation","186","347690","0.0-5.0-2.90","63ee59dc6e5fbabca14d3d16","bdp_lott","Tue Mar 28 2023 21:22:48 GMT-0400 (Eastern Daylight Time)","484397","green","red","","","","","","","","","","","135","","","","","","[{""stimulus"":""img/red_ll/1.jpg"",""time"":60},{""stimulus"":""img/red_ll/2.jpg"",""time"":105},{""stimulus"":""img/red_ll/3.jpg"",""time"":153},{""stimulus"":""img/red_ll/4.jpg"",""time"":214},{""stimulus"":""img/red_ll/5.jpg"",""time"":261},{""stimulus"":""img/red_ll/6.jpg"",""time"":307},{""stimulus"":""img/red_ll/7.jpg"",""time"":354},{""stimulus"":""img/red_ll/8.jpg"",""time"":416},{""stimulus"":""img/red_ll/9.jpg"",""time"":452},{""stimulus"":""img/red_ll/10.jpg"",""time"":502},{""stimulus"":""img/red_ll/11.jpg"",""time"":552}]","[]"
"image-keyboard-response","187","348002","0.0-5.0-1.91","63ee59dc6e5fbabca14d3d16","bdp_lott","Tue Mar 28 2023 21:22:48 GMT-0400 (Eastern Daylight Time)","484397","green","red","","311","","","","choice","","","img/red_ll/choose11.jpg","1","134","green","0.5","0.1","0.5","w","",""
"animation","188","348605","0.0-5.0-2.91","63ee59dc6e5fbabca14d3d16","bdp_lott","Tue Mar 28 2023 21:22:48 GMT-0400 (Eastern Daylight Time)","484397","green","red","","","","","","","","","","","134","","","","","","[{""stimulus"":""img/green_wl/1.jpg"",""time"":51},{""stimulus"":""img/green_wl/2.jpg"",""time"":108},{""stimulus"":""img/green_wl/3.jpg"",""time"":154},{""stimulus"":""img/green_wl/4.jpg"",""time"":216},{""stimulus"":""img/green_wl/5.jpg"",""time"":262},{""stimulus"":""img/green_wl/6.jpg"",""time"":309},{""stimulus"":""img/green_wl/7.jpg"",""time"":355},{""stimulus"":""img/green_wl/8.jpg"",""time"":402},{""stimulus"":""img/green_wl/9.jpg"",""time"":463},{""stimulus"":""img/green_wl/10.jpg"",""time"":510},{""stimulus"":""img/green_wl/11.jpg"",""time"":557}]","[]"
"image-keyboard-response","189","348909","0.0-5.0-1.92","63ee59dc6e5fbabca14d3d16","bdp_lott","Tue Mar 28 2023 21:22:48 GMT-0400 (Eastern Daylight Time)","484397","green","red","","304","","","","choice","","","img/green_wl/choose11.jpg","2","133","red","0.5","0.1","0.1","l","",""
