"trial_type","trial_index","time_elapsed","internal_node_id","subject_id","task","startTime","totalTime","fairMachine","unfairMachine","view_history","rt","event","trial","time","trialtype","success","stimulus","key_press","roundsLeft","chosen","pFairMachWin","pUnfairMachWin","pTrialWin","outcome","animation_sequence","responses"
"pavlovia","0","2","0.0-0.0","5d69d7e23aed95001b1aa05c","bdp_lott","Sat Apr 15 2023 17:12:58 GMT-0400 (Eastern Daylight Time)","379416","red","green","","","","","","","","","","","","","","","","",""
"instructions","1","3785","0.0-1.0","5d69d7e23aed95001b1aa05c","bdp_lott","Sat Apr 15 2023 17:12:58 GMT-0400 (Eastern Daylight Time)","379416","red","green","[{""page_index"":0,""viewing_time"":3783}]","3783","","","","","","","","","","","","","","",""
"","","","","5d69d7e23aed95001b1aa05c","bdp_lott","Sat Apr 15 2023 17:12:58 GMT-0400 (Eastern Daylight Time)","379416","red","green","","","fullscreenenter","2","8566","fullscreenenter","","","","","","","","","","",""
"fullscreen","2","9564","0.0-2.0","5d69d7e23aed95001b1aa05c","bdp_lott","Sat Apr 15 2023 17:12:58 GMT-0400 (Eastern Daylight Time)","379416","red","green","","","","","","","true","","","","","","","","","",""
"instructions","3","33632","0.0-4.0","5d69d7e23aed95001b1aa05c","bdp_lott","Sat Apr 15 2023 17:12:58 GMT-0400 (Eastern Daylight Time)","379416","red","green","[{""page_index"":0,""viewing_time"":24067}]","24067","","","","","","","","","","","","","","",""
"image-keyboard-response","4","39801","0.0-5.0-1.0","5d69d7e23aed95001b1aa05c","bdp_lott","Sat Apr 15 2023 17:12:58 GMT-0400 (Eastern Daylight Time)","379416","red","green","","6169","","","","choice","","img/red_ll/initchoose11.jpg","1","225","green","0.5","0.5","0.5","l","",""
"animation","5","40413","0.0-5.0-2.0","5d69d7e23aed95001b1aa05c","bdp_lott","Sat Apr 15 2023 17:12:58 GMT-0400 (Eastern Daylight Time)","379416","red","green","","","","","","","","","","225","","","","","","[{""stimulus"":""img/green_ll/1.jpg"",""time"":51},{""stimulus"":""img/green_ll/2.jpg"",""time"":116},{""stimulus"":""img/green_ll/3.jpg"",""time"":163},{""stimulus"":""img/green_ll/4.jpg"",""time"":209},{""stimulus"":""img/green_ll/5.jpg"",""time"":256},{""stimulus"":""img/green_ll/6.jpg"",""time"":301},{""stimulus"":""img/green_ll/7.jpg"",""time"":364},{""stimulus"":""img/green_ll/8.jpg"",""time"":410},{""stimulus"":""img/green_ll/9.jpg"",""time"":457},{""stimulus"":""img/green_ll/10.jpg"",""time"":504},{""stimulus"":""img/green_ll/11.jpg"",""time"":565}]","[]"
"image-keyboard-response","6","44074","0.0-5.0-1.1","5d69d7e23aed95001b1aa05c","bdp_lott","Sat Apr 15 2023 17:12:58 GMT-0400 (Eastern Daylight Time)","379416","red","green","","3660","","","","choice","","img/green_ll/choose11.jpg","1","224","green","0.5","0.5","0.5","l","",""
"animation","7","44681","0.0-5.0-2.1","5d69d7e23aed95001b1aa05c","bdp_lott","Sat Apr 15 2023 17:12:58 GMT-0400 (Eastern Daylight Time)","379416","red","green","","","","","","","","","","224","","","","","","[{""stimulus"":""img/green_ll/1.jpg"",""time"":52},{""stimulus"":""img/green_ll/2.jpg"",""time"":100},{""stimulus"":""img/green_ll/3.jpg"",""time"":155},{""stimulus"":""img/green_ll/4.jpg"",""time"":203},{""stimulus"":""img/green_ll/5.jpg"",""time"":265},{""stimulus"":""img/green_ll/6.jpg"",""time"":312},{""stimulus"":""img/green_ll/7.jpg"",""time"":359},{""stimulus"":""img/green_ll/8.jpg"",""time"":406},{""stimulus"":""img/green_ll/9.jpg"",""time"":453},{""stimulus"":""img/green_ll/10.jpg"",""time"":515},{""stimulus"":""img/green_ll/11.jpg"",""time"":561}]","[]"
"image-keyboard-response","8","45799","0.0-5.0-1.2","5d69d7e23aed95001b1aa05c","bdp_lott","Sat Apr 15 2023 17:12:58 GMT-0400 (Eastern Daylight Time)","379416","red","green","","1118","","","","choice","","img/green_ll/choose11.jpg","2","223","red","0.5","0.5","0.5","l","",""
"animation","9","46405","0.0-5.0-2.2","5d69d7e23aed95001b1aa05c","bdp_lott","Sat Apr 15 2023 17:12:58 GMT-0400 (Eastern Daylight Time)","379416","red","green","","","","","","","","","","223","","","","","","[{""stimulus"":""img/red_ll/1.jpg"",""time"":51},{""stimulus"":""img/red_ll/2.jpg"",""time"":101},{""stimulus"":""img/red_ll/3.jpg"",""time"":154},{""stimulus"":""img/red_ll/4.jpg"",""time"":201},{""stimulus"":""img/red_ll/5.jpg"",""time"":263},{""stimulus"":""img/red_ll/6.jpg"",""time"":310},{""stimulus"":""img/red_ll/7.jpg"",""time"":356},{""stimulus"":""img/red_ll/8.jpg"",""time"":403},{""stimulus"":""img/red_ll/9.jpg"",""time"":466},{""stimulus"":""img/red_ll/10.jpg"",""time"":512},{""stimulus"":""img/red_ll/11.jpg"",""time"":559}]","[]"
"image-keyboard-response","10","47623","0.0-5.0-1.3","5d69d7e23aed95001b1aa05c","bdp_lott","Sat Apr 15 2023 17:12:58 GMT-0400 (Eastern Daylight Time)","379416","red","green","","1218","","","","choice","","img/red_ll/choose11.jpg","2","222","red","0.5","0.5","0.5","l","",""
"animation","11","48236","0.0-5.0-2.3","5d69d7e23aed95001b1aa05c","bdp_lott","Sat Apr 15 2023 17:12:58 GMT-0400 (Eastern Daylight Time)","379416","red","green","","","","","","","","","","222","","","","","","[{""stimulus"":""img/red_ll/1.jpg"",""time"":52},{""stimulus"":""img/red_ll/2.jpg"",""time"":101},{""stimulus"":""img/red_ll/3.jpg"",""time"":163},{""stimulus"":""img/red_ll/4.jpg"",""time"":209},{""stimulus"":""img/red_ll/5.jpg"",""time"":255},{""stimulus"":""img/red_ll/6.jpg"",""time"":301},{""stimulus"":""img/red_ll/7.jpg"",""time"":363},{""stimulus"":""img/red_ll/8.jpg"",""time"":410},{""stimulus"":""img/red_ll/9.jpg"",""time"":456},{""stimulus"":""img/red_ll/10.jpg"",""time"":503},{""stimulus"":""img/red_ll/11.jpg"",""time"":566}]","[]"
"image-keyboard-response","12","49162","0.0-5.0-1.4","5d69d7e23aed95001b1aa05c","bdp_lott","Sat Apr 15 2023 17:12:58 GMT-0400 (Eastern Daylight Time)","379416","red","green","","925","","","","choice","","img/red_ll/choose11.jpg","2","221","red","0.5","0.5","0.5","l","",""
"animation","13","49775","0.0-5.0-2.4","5d69d7e23aed95001b1aa05c","bdp_lott","Sat Apr 15 2023 17:12:58 GMT-0400 (Eastern Daylight Time)","379416","red","green","","","","","","","","","","221","","","","","","[{""stimulus"":""img/red_ll/1.jpg"",""time"":53},{""stimulus"":""img/red_ll/2.jpg"",""time"":115},{""stimulus"":""img/red_ll/3.jpg"",""time"":162},{""stimulus"":""img/red_ll/4.jpg"",""time"":209},{""stimulus"":""img/red_ll/5.jpg"",""time"":255},{""stimulus"":""img/red_ll/6.jpg"",""time"":302},{""stimulus"":""img/red_ll/7.jpg"",""time"":364},{""stimulus"":""img/red_ll/8.jpg"",""time"":410},{""stimulus"":""img/red_ll/9.jpg"",""time"":457},{""stimulus"":""img/red_ll/10.jpg"",""time"":504},{""stimulus"":""img/red_ll/11.jpg"",""time"":551}]","[]"
"image-keyboard-response","14","51610","0.0-5.0-1.5","5d69d7e23aed95001b1aa05c","bdp_lott","Sat Apr 15 2023 17:12:58 GMT-0400 (Eastern Daylight Time)","379416","red","green","","1834","","","","choice","","img/red_ll/choose11.jpg","1","220","green","0.5","0.5","0.5","w","",""
"animation","15","52225","0.0-5.0-2.5","5d69d7e23aed95001b1aa05c","bdp_lott","Sat Apr 15 2023 17:12:58 GMT-0400 (Eastern Daylight Time)","379416","red","green","","","","","","","","","","220","","","","","","[{""stimulus"":""img/green_wl/1.jpg"",""time"":51},{""stimulus"":""img/green_wl/2.jpg"",""time"":101},{""stimulus"":""img/green_wl/3.jpg"",""time"":152},{""stimulus"":""img/green_wl/4.jpg"",""time"":213},{""stimulus"":""img/green_wl/5.jpg"",""time"":260},{""stimulus"":""img/green_wl/6.jpg"",""time"":306},{""stimulus"":""img/green_wl/7.jpg"",""time"":352},{""stimulus"":""img/green_wl/8.jpg"",""time"":414},{""stimulus"":""img/green_wl/9.jpg"",""time"":460},{""stimulus"":""img/green_wl/10.jpg"",""time"":507},{""stimulus"":""img/green_wl/11.jpg"",""time"":553}]","[]"
"image-keyboard-response","16","55544","0.0-5.0-1.6","5d69d7e23aed95001b1aa05c","bdp_lott","Sat Apr 15 2023 17:12:58 GMT-0400 (Eastern Daylight Time)","379416","red","green","","3318","","","","choice","","img/green_wl/choose11.jpg","2","219","red","0.5","0.5","0.5","w","",""
"animation","17","56145","0.0-5.0-2.6","5d69d7e23aed95001b1aa05c","bdp_lott","Sat Apr 15 2023 17:12:58 GMT-0400 (Eastern Daylight Time)","379416","red","green","","","","","","","","","","219","","","","","","[{""stimulus"":""img/red_ww/1.jpg"",""time"":51},{""stimulus"":""img/red_ww/2.jpg"",""time"":101},{""stimulus"":""img/red_ww/3.jpg"",""time"":158},{""stimulus"":""img/red_ww/4.jpg"",""time"":205},{""stimulus"":""img/red_ww/5.jpg"",""time"":252},{""stimulus"":""img/red_ww/6.jpg"",""time"":315},{""stimulus"":""img/red_ww/7.jpg"",""time"":362},{""stimulus"":""img/red_ww/8.jpg"",""time"":408},{""stimulus"":""img/red_ww/9.jpg"",""time"":456},{""stimulus"":""img/red_ww/10.jpg"",""time"":503},{""stimulus"":""img/red_ww/11.jpg"",""time"":551}]","[]"
"image-keyboard-response","18","59689","0.0-5.0-1.7","5d69d7e23aed95001b1aa05c","bdp_lott","Sat Apr 15 2023 17:12:58 GMT-0400 (Eastern Daylight Time)","379416","red","green","","3544","","","","choice","","img/red_ww/choose11.jpg","1","218","green","0.5","0.5","0.5","l","",""
"animation","19","60290","0.0-5.0-2.7","5d69d7e23aed95001b1aa05c","bdp_lott","Sat Apr 15 2023 17:12:58 GMT-0400 (Eastern Daylight Time)","379416","red","green","","","","","","","","","","218","","","","","","[{""stimulus"":""img/green_lw/1.jpg"",""time"":51},{""stimulus"":""img/green_lw/2.jpg"",""time"":101},{""stimulus"":""img/green_lw/3.jpg"",""time"":154},{""stimulus"":""img/green_lw/4.jpg"",""time"":201},{""stimulus"":""img/green_lw/5.jpg"",""time"":265},{""stimulus"":""img/green_lw/6.jpg"",""time"":312},{""stimulus"":""img/green_lw/7.jpg"",""time"":361},{""stimulus"":""img/green_lw/8.jpg"",""time"":407},{""stimulus"":""img/green_lw/9.jpg"",""time"":454},{""stimulus"":""img/green_lw/10.jpg"",""time"":515},{""stimulus"":""img/green_lw/11.jpg"",""time"":562}]","[]"
"image-keyboard-response","20","61209","0.0-5.0-1.8","5d69d7e23aed95001b1aa05c","bdp_lott","Sat Apr 15 2023 17:12:58 GMT-0400 (Eastern Daylight Time)","379416","red","green","","918","","","","choice","","img/green_lw/choose11.jpg","2","217","red","0.5","0.5","0.5","l","",""
"animation","21","61818","0.0-5.0-2.8","5d69d7e23aed95001b1aa05c","bdp_lott","Sat Apr 15 2023 17:12:58 GMT-0400 (Eastern Daylight Time)","379416","red","green","","","","","","","","","","217","","","","","","[{""stimulus"":""img/red_ll/1.jpg"",""time"":51},{""stimulus"":""img/red_ll/2.jpg"",""time"":112},{""stimulus"":""img/red_ll/3.jpg"",""time"":159},{""stimulus"":""img/red_ll/4.jpg"",""time"":206},{""stimulus"":""img/red_ll/5.jpg"",""time"":253},{""stimulus"":""img/red_ll/6.jpg"",""time"":315},{""stimulus"":""img/red_ll/7.jpg"",""time"":362},{""stimulus"":""img/red_ll/8.jpg"",""time"":408},{""stimulus"":""img/red_ll/9.jpg"",""time"":455},{""stimulus"":""img/red_ll/10.jpg"",""time"":502},{""stimulus"":""img/red_ll/11.jpg"",""time"":563}]","[]"
"image-keyboard-response","22","65241","0.0-5.0-1.9","5d69d7e23aed95001b1aa05c","bdp_lott","Sat Apr 15 2023 17:12:58 GMT-0400 (Eastern Daylight Time)","379416","red","green","","3422","","","","choice","","img/red_ll/choose11.jpg","2","216","red","0.5","0.5","0.5","w","",""
"animation","23","65856","0.0-5.0-2.9","5d69d7e23aed95001b1aa05c","bdp_lott","Sat Apr 15 2023 17:12:58 GMT-0400 (Eastern Daylight Time)","379416","red","green","","","","","","","","","","216","","","","","","[{""stimulus"":""img/red_lw/1.jpg"",""time"":54},{""stimulus"":""img/red_lw/2.jpg"",""time"":101},{""stimulus"":""img/red_lw/3.jpg"",""time"":163},{""stimulus"":""img/red_lw/4.jpg"",""time"":209},{""stimulus"":""img/red_lw/5.jpg"",""time"":256},{""stimulus"":""img/red_lw/6.jpg"",""time"":302},{""stimulus"":""img/red_lw/7.jpg"",""time"":365},{""stimulus"":""img/red_lw/8.jpg"",""time"":412},{""stimulus"":""img/red_lw/9.jpg"",""time"":459},{""stimulus"":""img/red_lw/10.jpg"",""time"":505},{""stimulus"":""img/red_lw/11.jpg"",""time"":551}]","[]"
"image-keyboard-response","24","66608","0.0-5.0-1.10","5d69d7e23aed95001b1aa05c","bdp_lott","Sat Apr 15 2023 17:12:58 GMT-0400 (Eastern Daylight Time)","379416","red","green","","751","","","","choice","","img/red_lw/choose11.jpg","1","215","green","0.5","0.5","0.5","w","",""
"animation","25","67209","0.0-5.0-2.10","5d69d7e23aed95001b1aa05c","bdp_lott","Sat Apr 15 2023 17:12:58 GMT-0400 (Eastern Daylight Time)","379416","red","green","","","","","","","","","","215","","","","","","[{""stimulus"":""img/green_ww/1.jpg"",""time"":50},{""stimulus"":""img/green_ww/2.jpg"",""time"":101},{""stimulus"":""img/green_ww/3.jpg"",""time"":165},{""stimulus"":""img/green_ww/4.jpg"",""time"":213},{""stimulus"":""img/green_ww/5.jpg"",""time"":260},{""stimulus"":""img/green_ww/6.jpg"",""time"":307},{""stimulus"":""img/green_ww/7.jpg"",""time"":353},{""stimulus"":""img/green_ww/8.jpg"",""time"":415},{""stimulus"":""img/green_ww/9.jpg"",""time"":461},{""stimulus"":""img/green_ww/10.jpg"",""time"":508},{""stimulus"":""img/green_ww/11.jpg"",""time"":556}]","[]"
"image-keyboard-response","26","70225","0.0-5.0-1.11","5d69d7e23aed95001b1aa05c","bdp_lott","Sat Apr 15 2023 17:12:58 GMT-0400 (Eastern Daylight Time)","379416","red","green","","3016","","","","choice","","img/green_ww/choose11.jpg","1","214","green","0.5","0.5","0.5","w","",""
"animation","27","70826","0.0-5.0-2.11","5d69d7e23aed95001b1aa05c","bdp_lott","Sat Apr 15 2023 17:12:58 GMT-0400 (Eastern Daylight Time)","379416","red","green","","","","","","","","","","214","","","","","","[{""stimulus"":""img/green_ww/1.jpg"",""time"":51},{""stimulus"":""img/green_ww/2.jpg"",""time"":105},{""stimulus"":""img/green_ww/3.jpg"",""time"":152},{""stimulus"":""img/green_ww/4.jpg"",""time"":214},{""stimulus"":""img/green_ww/5.jpg"",""time"":260},{""stimulus"":""img/green_ww/6.jpg"",""time"":306},{""stimulus"":""img/green_ww/7.jpg"",""time"":352},{""stimulus"":""img/green_ww/8.jpg"",""time"":414},{""stimulus"":""img/green_ww/9.jpg"",""time"":461},{""stimulus"":""img/green_ww/10.jpg"",""time"":508},{""stimulus"":""img/green_ww/11.jpg"",""time"":551}]","[]"
"image-keyboard-response","28","72119","0.0-5.0-1.12","5d69d7e23aed95001b1aa05c","bdp_lott","Sat Apr 15 2023 17:12:58 GMT-0400 (Eastern Daylight Time)","379416","red","green","","1292","","","","choice","","img/green_ww/choose11.jpg","2","213","red","0.5","0.5","0.5","l","",""
"animation","29","72732","0.0-5.0-2.12","5d69d7e23aed95001b1aa05c","bdp_lott","Sat Apr 15 2023 17:12:58 GMT-0400 (Eastern Daylight Time)","379416","red","green","","","","","","","","","","213","","","","","","[{""stimulus"":""img/red_wl/1.jpg"",""time"":51},{""stimulus"":""img/red_wl/2.jpg"",""time"":116},{""stimulus"":""img/red_wl/3.jpg"",""time"":162},{""stimulus"":""img/red_wl/4.jpg"",""time"":209},{""stimulus"":""img/red_wl/5.jpg"",""time"":255},{""stimulus"":""img/red_wl/6.jpg"",""time"":302},{""stimulus"":""img/red_wl/7.jpg"",""time"":364},{""stimulus"":""img/red_wl/8.jpg"",""time"":411},{""stimulus"":""img/red_wl/9.jpg"",""time"":458},{""stimulus"":""img/red_wl/10.jpg"",""time"":505},{""stimulus"":""img/red_wl/11.jpg"",""time"":552}]","[]"
"image-keyboard-response","30","73666","0.0-5.0-1.13","5d69d7e23aed95001b1aa05c","bdp_lott","Sat Apr 15 2023 17:12:58 GMT-0400 (Eastern Daylight Time)","379416","red","green","","933","","","","choice","","img/red_wl/choose11.jpg","1","212","green","0.5","0.5","0.5","l","",""
"animation","31","74269","0.0-5.0-2.13","5d69d7e23aed95001b1aa05c","bdp_lott","Sat Apr 15 2023 17:12:58 GMT-0400 (Eastern Daylight Time)","379416","red","green","","","","","","","","","","212","","","","","","[{""stimulus"":""img/green_ll/1.jpg"",""time"":51},{""stimulus"":""img/green_ll/2.jpg"",""time"":105},{""stimulus"":""img/green_ll/3.jpg"",""time"":152},{""stimulus"":""img/green_ll/4.jpg"",""time"":214},{""stimulus"":""img/green_ll/5.jpg"",""time"":262},{""stimulus"":""img/green_ll/6.jpg"",""time"":308},{""stimulus"":""img/green_ll/7.jpg"",""time"":355},{""stimulus"":""img/green_ll/8.jpg"",""time"":401},{""stimulus"":""img/green_ll/9.jpg"",""time"":464},{""stimulus"":""img/green_ll/10.jpg"",""time"":511},{""stimulus"":""img/green_ll/11.jpg"",""time"":557}]","[]"
"image-keyboard-response","32","76210","0.0-5.0-1.14","5d69d7e23aed95001b1aa05c","bdp_lott","Sat Apr 15 2023 17:12:58 GMT-0400 (Eastern Daylight Time)","379416","red","green","","1941","","","","choice","","img/green_ll/choose11.jpg","1","211","green","0.5","0.5","0.5","w","",""
"animation","33","76819","0.0-5.0-2.14","5d69d7e23aed95001b1aa05c","bdp_lott","Sat Apr 15 2023 17:12:58 GMT-0400 (Eastern Daylight Time)","379416","red","green","","","","","","","","","","211","","","","","","[{""stimulus"":""img/green_wl/1.jpg"",""time"":51},{""stimulus"":""img/green_wl/2.jpg"",""time"":101},{""stimulus"":""img/green_wl/3.jpg"",""time"":158},{""stimulus"":""img/green_wl/4.jpg"",""time"":201},{""stimulus"":""img/green_wl/5.jpg"",""time"":251},{""stimulus"":""img/green_wl/6.jpg"",""time"":315},{""stimulus"":""img/green_wl/7.jpg"",""time"":361},{""stimulus"":""img/green_wl/8.jpg"",""time"":407},{""stimulus"":""img/green_wl/9.jpg"",""time"":454},{""stimulus"":""img/green_wl/10.jpg"",""time"":501},{""stimulus"":""img/green_wl/11.jpg"",""time"":561}]","[]"
"image-keyboard-response","34","78235","0.0-5.0-1.15","5d69d7e23aed95001b1aa05c","bdp_lott","Sat Apr 15 2023 17:12:58 GMT-0400 (Eastern Daylight Time)","379416","red","green","","1416","","","","choice","","img/green_wl/choose11.jpg","1","210","green","0.5","0.5","0.5","w","",""
"animation","35","78836","0.0-5.0-2.15","5d69d7e23aed95001b1aa05c","bdp_lott","Sat Apr 15 2023 17:12:58 GMT-0400 (Eastern Daylight Time)","379416","red","green","","","","","","","","","","210","","","","","","[{""stimulus"":""img/green_wl/1.jpg"",""time"":59},{""stimulus"":""img/green_wl/2.jpg"",""time"":101},{""stimulus"":""img/green_wl/3.jpg"",""time"":151},{""stimulus"":""img/green_wl/4.jpg"",""time"":213},{""stimulus"":""img/green_wl/5.jpg"",""time"":261},{""stimulus"":""img/green_wl/6.jpg"",""time"":306},{""stimulus"":""img/green_wl/7.jpg"",""time"":352},{""stimulus"":""img/green_wl/8.jpg"",""time"":400},{""stimulus"":""img/green_wl/9.jpg"",""time"":462},{""stimulus"":""img/green_wl/10.jpg"",""time"":509},{""stimulus"":""img/green_wl/11.jpg"",""time"":556}]","[]"
"image-keyboard-response","36","79674","0.0-5.0-1.16","5d69d7e23aed95001b1aa05c","bdp_lott","Sat Apr 15 2023 17:12:58 GMT-0400 (Eastern Daylight Time)","379416","red","green","","837","","","","choice","","img/green_wl/choose11.jpg","1","209","green","0.5","0.5","0.5","l","",""
"animation","37","80278","0.0-5.0-2.16","5d69d7e23aed95001b1aa05c","bdp_lott","Sat Apr 15 2023 17:12:58 GMT-0400 (Eastern Daylight Time)","379416","red","green","","","","","","","","","","209","","","","","","[{""stimulus"":""img/green_ll/1.jpg"",""time"":51},{""stimulus"":""img/green_ll/2.jpg"",""time"":101},{""stimulus"":""img/green_ll/3.jpg"",""time"":154},{""stimulus"":""img/green_ll/4.jpg"",""time"":201},{""stimulus"":""img/green_ll/5.jpg"",""time"":263},{""stimulus"":""img/green_ll/6.jpg"",""time"":309},{""stimulus"":""img/green_ll/7.jpg"",""time"":355},{""stimulus"":""img/green_ll/8.jpg"",""time"":402},{""stimulus"":""img/green_ll/9.jpg"",""time"":464},{""stimulus"":""img/green_ll/10.jpg"",""time"":512},{""stimulus"":""img/green_ll/11.jpg"",""time"":558}]","[]"
"image-keyboard-response","38","80904","0.0-5.0-1.17","5d69d7e23aed95001b1aa05c","bdp_lott","Sat Apr 15 2023 17:12:58 GMT-0400 (Eastern Daylight Time)","379416","red","green","","625","","","","choice","","img/green_ll/choose11.jpg","1","208","green","0.5","0.5","0.5","l","",""
"animation","39","81506","0.0-5.0-2.17","5d69d7e23aed95001b1aa05c","bdp_lott","Sat Apr 15 2023 17:12:58 GMT-0400 (Eastern Daylight Time)","379416","red","green","","","","","","","","","","208","","","","","","[{""stimulus"":""img/green_ll/1.jpg"",""time"":59},{""stimulus"":""img/green_ll/2.jpg"",""time"":100},{""stimulus"":""img/green_ll/3.jpg"",""time"":150},{""stimulus"":""img/green_ll/4.jpg"",""time"":201},{""stimulus"":""img/green_ll/5.jpg"",""time"":251},{""stimulus"":""img/green_ll/6.jpg"",""time"":311},{""stimulus"":""img/green_ll/7.jpg"",""time"":357},{""stimulus"":""img/green_ll/8.jpg"",""time"":403},{""stimulus"":""img/green_ll/9.jpg"",""time"":465},{""stimulus"":""img/green_ll/10.jpg"",""time"":513},{""stimulus"":""img/green_ll/11.jpg"",""time"":559}]","[]"
"image-keyboard-response","40","82104","0.0-5.0-1.18","5d69d7e23aed95001b1aa05c","bdp_lott","Sat Apr 15 2023 17:12:58 GMT-0400 (Eastern Daylight Time)","379416","red","green","","598","","","","choice","","img/green_ll/choose11.jpg","1","207","green","0.5","0.5","0.5","w","",""
"animation","41","82717","0.0-5.0-2.18","5d69d7e23aed95001b1aa05c","bdp_lott","Sat Apr 15 2023 17:12:58 GMT-0400 (Eastern Daylight Time)","379416","red","green","","","","","","","","","","207","","","","","","[{""stimulus"":""img/green_wl/1.jpg"",""time"":52},{""stimulus"":""img/green_wl/2.jpg"",""time"":101},{""stimulus"":""img/green_wl/3.jpg"",""time"":167},{""stimulus"":""img/green_wl/4.jpg"",""time"":201},{""stimulus"":""img/green_wl/5.jpg"",""time"":260},{""stimulus"":""img/green_wl/6.jpg"",""time"":306},{""stimulus"":""img/green_wl/7.jpg"",""time"":353},{""stimulus"":""img/green_wl/8.jpg"",""time"":414},{""stimulus"":""img/green_wl/9.jpg"",""time"":459},{""stimulus"":""img/green_wl/10.jpg"",""time"":505},{""stimulus"":""img/green_wl/11.jpg"",""time"":552}]","[]"
"image-keyboard-response","42","83505","0.0-5.0-1.19","5d69d7e23aed95001b1aa05c","bdp_lott","Sat Apr 15 2023 17:12:58 GMT-0400 (Eastern Daylight Time)","379416","red","green","","788","","","","choice","","img/green_wl/choose11.jpg","1","206","green","0.5","0.5","0.5","l","",""
"animation","43","84114","0.0-5.0-2.19","5d69d7e23aed95001b1aa05c","bdp_lott","Sat Apr 15 2023 17:12:58 GMT-0400 (Eastern Daylight Time)","379416","red","green","","","","","","","","","","206","","","","","","[{""stimulus"":""img/green_ll/1.jpg"",""time"":66},{""stimulus"":""img/green_ll/2.jpg"",""time"":113},{""stimulus"":""img/green_ll/3.jpg"",""time"":150},{""stimulus"":""img/green_ll/4.jpg"",""time"":205},{""stimulus"":""img/green_ll/5.jpg"",""time"":252},{""stimulus"":""img/green_ll/6.jpg"",""time"":313},{""stimulus"":""img/green_ll/7.jpg"",""time"":360},{""stimulus"":""img/green_ll/8.jpg"",""time"":406},{""stimulus"":""img/green_ll/9.jpg"",""time"":452},{""stimulus"":""img/green_ll/10.jpg"",""time"":501},{""stimulus"":""img/green_ll/11.jpg"",""time"":562}]","[]"
"image-keyboard-response","44","84793","0.0-5.0-1.20","5d69d7e23aed95001b1aa05c","bdp_lott","Sat Apr 15 2023 17:12:58 GMT-0400 (Eastern Daylight Time)","379416","red","green","","678","","","","choice","","img/green_ll/choose11.jpg","1","205","green","0.5","0.5","0.5","w","",""
"animation","45","85406","0.0-5.0-2.20","5d69d7e23aed95001b1aa05c","bdp_lott","Sat Apr 15 2023 17:12:58 GMT-0400 (Eastern Daylight Time)","379416","red","green","","","","","","","","","","205","","","","","","[{""stimulus"":""img/green_wl/1.jpg"",""time"":51},{""stimulus"":""img/green_wl/2.jpg"",""time"":100},{""stimulus"":""img/green_wl/3.jpg"",""time"":162},{""stimulus"":""img/green_wl/4.jpg"",""time"":209},{""stimulus"":""img/green_wl/5.jpg"",""time"":255},{""stimulus"":""img/green_wl/6.jpg"",""time"":301},{""stimulus"":""img/green_wl/7.jpg"",""time"":364},{""stimulus"":""img/green_wl/8.jpg"",""time"":400},{""stimulus"":""img/green_wl/9.jpg"",""time"":456},{""stimulus"":""img/green_wl/10.jpg"",""time"":502},{""stimulus"":""img/green_wl/11.jpg"",""time"":565}]","[]"
"image-keyboard-response","46","86131","0.0-5.0-1.21","5d69d7e23aed95001b1aa05c","bdp_lott","Sat Apr 15 2023 17:12:58 GMT-0400 (Eastern Daylight Time)","379416","red","green","","724","","","","choice","","img/green_wl/choose11.jpg","1","204","green","0.5","0.5","0.5","l","",""
"animation","47","86737","0.0-5.0-2.21","5d69d7e23aed95001b1aa05c","bdp_lott","Sat Apr 15 2023 17:12:58 GMT-0400 (Eastern Daylight Time)","379416","red","green","","","","","","","","","","204","","","","","","[{""stimulus"":""img/green_ll/1.jpg"",""time"":51},{""stimulus"":""img/green_ll/2.jpg"",""time"":101},{""stimulus"":""img/green_ll/3.jpg"",""time"":159},{""stimulus"":""img/green_ll/4.jpg"",""time"":205},{""stimulus"":""img/green_ll/5.jpg"",""time"":252},{""stimulus"":""img/green_ll/6.jpg"",""time"":313},{""stimulus"":""img/green_ll/7.jpg"",""time"":359},{""stimulus"":""img/green_ll/8.jpg"",""time"":405},{""stimulus"":""img/green_ll/9.jpg"",""time"":450},{""stimulus"":""img/green_ll/10.jpg"",""time"":513},{""stimulus"":""img/green_ll/11.jpg"",""time"":560}]","[]"
"image-keyboard-response","48","87303","0.0-5.0-1.22","5d69d7e23aed95001b1aa05c","bdp_lott","Sat Apr 15 2023 17:12:58 GMT-0400 (Eastern Daylight Time)","379416","red","green","","565","","","","choice","","img/green_ll/choose11.jpg","1","203","green","0.5","0.5","0.5","l","",""
"animation","49","87904","0.0-5.0-2.22","5d69d7e23aed95001b1aa05c","bdp_lott","Sat Apr 15 2023 17:12:58 GMT-0400 (Eastern Daylight Time)","379416","red","green","","","","","","","","","","203","","","","","","[{""stimulus"":""img/green_ll/1.jpg"",""time"":54},{""stimulus"":""img/green_ll/2.jpg"",""time"":101},{""stimulus"":""img/green_ll/3.jpg"",""time"":164},{""stimulus"":""img/green_ll/4.jpg"",""time"":209},{""stimulus"":""img/green_ll/5.jpg"",""time"":255},{""stimulus"":""img/green_ll/6.jpg"",""time"":302},{""stimulus"":""img/green_ll/7.jpg"",""time"":364},{""stimulus"":""img/green_ll/8.jpg"",""time"":401},{""stimulus"":""img/green_ll/9.jpg"",""time"":458},{""stimulus"":""img/green_ll/10.jpg"",""time"":504},{""stimulus"":""img/green_ll/11.jpg"",""time"":565}]","[]"
"image-keyboard-response","50","88386","0.0-5.0-1.23","5d69d7e23aed95001b1aa05c","bdp_lott","Sat Apr 15 2023 17:12:58 GMT-0400 (Eastern Daylight Time)","379416","red","green","","481","","","","choice","","img/green_ll/choose11.jpg","1","202","green","0.5","0.5","0.5","l","",""
"animation","51","88998","0.0-5.0-2.23","5d69d7e23aed95001b1aa05c","bdp_lott","Sat Apr 15 2023 17:12:58 GMT-0400 (Eastern Daylight Time)","379416","red","green","","","","","","","","","","202","","","","","","[{""stimulus"":""img/green_ll/1.jpg"",""time"":54},{""stimulus"":""img/green_ll/2.jpg"",""time"":116},{""stimulus"":""img/green_ll/3.jpg"",""time"":162},{""stimulus"":""img/green_ll/4.jpg"",""time"":207},{""stimulus"":""img/green_ll/5.jpg"",""time"":251},{""stimulus"":""img/green_ll/6.jpg"",""time"":301},{""stimulus"":""img/green_ll/7.jpg"",""time"":364},{""stimulus"":""img/green_ll/8.jpg"",""time"":401},{""stimulus"":""img/green_ll/9.jpg"",""time"":457},{""stimulus"":""img/green_ll/10.jpg"",""time"":504},{""stimulus"":""img/green_ll/11.jpg"",""time"":566}]","[]"
"image-keyboard-response","52","89519","0.0-5.0-1.24","5d69d7e23aed95001b1aa05c","bdp_lott","Sat Apr 15 2023 17:12:58 GMT-0400 (Eastern Daylight Time)","379416","red","green","","520","","","","choice","","img/green_ll/choose11.jpg","1","201","green","0.5","0.5","0.5","l","",""
"animation","53","90132","0.0-5.0-2.24","5d69d7e23aed95001b1aa05c","bdp_lott","Sat Apr 15 2023 17:12:58 GMT-0400 (Eastern Daylight Time)","379416","red","green","","","","","","","","","","201","","","","","","[{""stimulus"":""img/green_ll/1.jpg"",""time"":51},{""stimulus"":""img/green_ll/2.jpg"",""time"":101},{""stimulus"":""img/green_ll/3.jpg"",""time"":161},{""stimulus"":""img/green_ll/4.jpg"",""time"":201},{""stimulus"":""img/green_ll/5.jpg"",""time"":253},{""stimulus"":""img/green_ll/6.jpg"",""time"":301},{""stimulus"":""img/green_ll/7.jpg"",""time"":363},{""stimulus"":""img/green_ll/8.jpg"",""time"":410},{""stimulus"":""img/green_ll/9.jpg"",""time"":457},{""stimulus"":""img/green_ll/10.jpg"",""time"":504},{""stimulus"":""img/green_ll/11.jpg"",""time"":566}]","[]"
"image-keyboard-response","54","90689","0.0-5.0-1.25","5d69d7e23aed95001b1aa05c","bdp_lott","Sat Apr 15 2023 17:12:58 GMT-0400 (Eastern Daylight Time)","379416","red","green","","556","","","","choice","","img/green_ll/choose11.jpg","2","200","red","0.5","0.5","0.5","l","",""
"animation","55","91296","0.0-5.0-2.25","5d69d7e23aed95001b1aa05c","bdp_lott","Sat Apr 15 2023 17:12:58 GMT-0400 (Eastern Daylight Time)","379416","red","green","","","","","","","","","","200","","","","","","[{""stimulus"":""img/red_ll/1.jpg"",""time"":50},{""stimulus"":""img/red_ll/2.jpg"",""time"":109},{""stimulus"":""img/red_ll/3.jpg"",""time"":156},{""stimulus"":""img/red_ll/4.jpg"",""time"":200},{""stimulus"":""img/red_ll/5.jpg"",""time"":264},{""stimulus"":""img/red_ll/6.jpg"",""time"":311},{""stimulus"":""img/red_ll/7.jpg"",""time"":357},{""stimulus"":""img/red_ll/8.jpg"",""time"":405},{""stimulus"":""img/red_ll/9.jpg"",""time"":451},{""stimulus"":""img/red_ll/10.jpg"",""time"":500},{""stimulus"":""img/red_ll/11.jpg"",""time"":560}]","[]"
"image-keyboard-response","56","91617","0.0-5.0-1.26","5d69d7e23aed95001b1aa05c","bdp_lott","Sat Apr 15 2023 17:12:58 GMT-0400 (Eastern Daylight Time)","379416","red","green","","320","","","","choice","","img/red_ll/choose11.jpg","2","199","red","0.5","0.5","0.5","w","",""
"animation","57","92225","0.0-5.0-2.26","5d69d7e23aed95001b1aa05c","bdp_lott","Sat Apr 15 2023 17:12:58 GMT-0400 (Eastern Daylight Time)","379416","red","green","","","","","","","","","","199","","","","","","[{""stimulus"":""img/red_lw/1.jpg"",""time"":51},{""stimulus"":""img/red_lw/2.jpg"",""time"":114},{""stimulus"":""img/red_lw/3.jpg"",""time"":161},{""stimulus"":""img/red_lw/4.jpg"",""time"":201},{""stimulus"":""img/red_lw/5.jpg"",""time"":252},{""stimulus"":""img/red_lw/6.jpg"",""time"":314},{""stimulus"":""img/red_lw/7.jpg"",""time"":361},{""stimulus"":""img/red_lw/8.jpg"",""time"":401},{""stimulus"":""img/red_lw/9.jpg"",""time"":454},{""stimulus"":""img/red_lw/10.jpg"",""time"":515},{""stimulus"":""img/red_lw/11.jpg"",""time"":561}]","[]"
"image-keyboard-response","58","93410","0.0-5.0-1.27","5d69d7e23aed95001b1aa05c","bdp_lott","Sat Apr 15 2023 17:12:58 GMT-0400 (Eastern Daylight Time)","379416","red","green","","1184","","","","choice","","img/red_lw/choose11.jpg","1","198","green","0.5","0.5","0.5","l","",""
"animation","59","94012","0.0-5.0-2.27","5d69d7e23aed95001b1aa05c","bdp_lott","Sat Apr 15 2023 17:12:58 GMT-0400 (Eastern Daylight Time)","379416","red","green","","","","","","","","","","198","","","","","","[{""stimulus"":""img/green_lw/1.jpg"",""time"":51},{""stimulus"":""img/green_lw/2.jpg"",""time"":102},{""stimulus"":""img/green_lw/3.jpg"",""time"":164},{""stimulus"":""img/green_lw/4.jpg"",""time"":210},{""stimulus"":""img/green_lw/5.jpg"",""time"":251},{""stimulus"":""img/green_lw/6.jpg"",""time"":305},{""stimulus"":""img/green_lw/7.jpg"",""time"":352},{""stimulus"":""img/green_lw/8.jpg"",""time"":414},{""stimulus"":""img/green_lw/9.jpg"",""time"":460},{""stimulus"":""img/green_lw/10.jpg"",""time"":507},{""stimulus"":""img/green_lw/11.jpg"",""time"":552}]","[]"
"image-keyboard-response","60","94633","0.0-5.0-1.28","5d69d7e23aed95001b1aa05c","bdp_lott","Sat Apr 15 2023 17:12:58 GMT-0400 (Eastern Daylight Time)","379416","red","green","","621","","","","choice","","img/green_lw/choose11.jpg","1","197","green","0.5","0.5","0.5","l","",""
"animation","61","95234","0.0-5.0-2.28","5d69d7e23aed95001b1aa05c","bdp_lott","Sat Apr 15 2023 17:12:58 GMT-0400 (Eastern Daylight Time)","379416","red","green","","","","","","","","","","197","","","","","","[{""stimulus"":""img/green_lw/1.jpg"",""time"":52},{""stimulus"":""img/green_lw/2.jpg"",""time"":103},{""stimulus"":""img/green_lw/3.jpg"",""time"":151},{""stimulus"":""img/green_lw/4.jpg"",""time"":212},{""stimulus"":""img/green_lw/5.jpg"",""time"":251},{""stimulus"":""img/green_lw/6.jpg"",""time"":301},{""stimulus"":""img/green_lw/7.jpg"",""time"":351},{""stimulus"":""img/green_lw/8.jpg"",""time"":414},{""stimulus"":""img/green_lw/9.jpg"",""time"":451},{""stimulus"":""img/green_lw/10.jpg"",""time"":508},{""stimulus"":""img/green_lw/11.jpg"",""time"":552}]","[]"
"image-keyboard-response","62","95713","0.0-5.0-1.29","5d69d7e23aed95001b1aa05c","bdp_lott","Sat Apr 15 2023 17:12:58 GMT-0400 (Eastern Daylight Time)","379416","red","green","","478","","","","choice","","img/green_lw/choose11.jpg","2","196","red","0.5","0.5","0.5","w","",""
"animation","63","96319","0.0-5.0-2.29","5d69d7e23aed95001b1aa05c","bdp_lott","Sat Apr 15 2023 17:12:58 GMT-0400 (Eastern Daylight Time)","379416","red","green","","","","","","","","","","196","","","","","","[{""stimulus"":""img/red_lw/1.jpg"",""time"":62},{""stimulus"":""img/red_lw/2.jpg"",""time"":112},{""stimulus"":""img/red_lw/3.jpg"",""time"":158},{""stimulus"":""img/red_lw/4.jpg"",""time"":204},{""stimulus"":""img/red_lw/5.jpg"",""time"":252},{""stimulus"":""img/red_lw/6.jpg"",""time"":313},{""stimulus"":""img/red_lw/7.jpg"",""time"":361},{""stimulus"":""img/red_lw/8.jpg"",""time"":407},{""stimulus"":""img/red_lw/9.jpg"",""time"":452},{""stimulus"":""img/red_lw/10.jpg"",""time"":514},{""stimulus"":""img/red_lw/11.jpg"",""time"":560}]","[]"
"image-keyboard-response","64","97120","0.0-5.0-1.30","5d69d7e23aed95001b1aa05c","bdp_lott","Sat Apr 15 2023 17:12:58 GMT-0400 (Eastern Daylight Time)","379416","red","green","","800","","","","choice","","img/red_lw/choose11.jpg","2","195","red","0.5","0.5","0.5","w","",""
"animation","65","97721","0.0-5.0-2.30","5d69d7e23aed95001b1aa05c","bdp_lott","Sat Apr 15 2023 17:12:58 GMT-0400 (Eastern Daylight Time)","379416","red","green","","","","","","","","","","195","","","","","","[{""stimulus"":""img/red_lw/1.jpg"",""time"":51},{""stimulus"":""img/red_lw/2.jpg"",""time"":101},{""stimulus"":""img/red_lw/3.jpg"",""time"":150},{""stimulus"":""img/red_lw/4.jpg"",""time"":201},{""stimulus"":""img/red_lw/5.jpg"",""time"":257},{""stimulus"":""img/red_lw/6.jpg"",""time"":304},{""stimulus"":""img/red_lw/7.jpg"",""time"":366},{""stimulus"":""img/red_lw/8.jpg"",""time"":413},{""stimulus"":""img/red_lw/9.jpg"",""time"":451},{""stimulus"":""img/red_lw/10.jpg"",""time"":507},{""stimulus"":""img/red_lw/11.jpg"",""time"":553}]","[]"
"image-keyboard-response","66","98481","0.0-5.0-1.31","5d69d7e23aed95001b1aa05c","bdp_lott","Sat Apr 15 2023 17:12:58 GMT-0400 (Eastern Daylight Time)","379416","red","green","","759","","","","choice","","img/red_lw/choose11.jpg","2","194","red","0.5","0.5","0.5","l","",""
"animation","67","99087","0.0-5.0-2.31","5d69d7e23aed95001b1aa05c","bdp_lott","Sat Apr 15 2023 17:12:58 GMT-0400 (Eastern Daylight Time)","379416","red","green","","","","","","","","","","194","","","","","","[{""stimulus"":""img/red_ll/1.jpg"",""time"":50},{""stimulus"":""img/red_ll/2.jpg"",""time"":108},{""stimulus"":""img/red_ll/3.jpg"",""time"":155},{""stimulus"":""img/red_ll/4.jpg"",""time"":201},{""stimulus"":""img/red_ll/5.jpg"",""time"":264},{""stimulus"":""img/red_ll/6.jpg"",""time"":310},{""stimulus"":""img/red_ll/7.jpg"",""time"":357},{""stimulus"":""img/red_ll/8.jpg"",""time"":404},{""stimulus"":""img/red_ll/9.jpg"",""time"":450},{""stimulus"":""img/red_ll/10.jpg"",""time"":512},{""stimulus"":""img/red_ll/11.jpg"",""time"":559}]","[]"
"image-keyboard-response","68","101329","0.0-5.0-1.32","5d69d7e23aed95001b1aa05c","bdp_lott","Sat Apr 15 2023 17:12:58 GMT-0400 (Eastern Daylight Time)","379416","red","green","","2242","","","","choice","","img/red_ll/choose11.jpg","2","193","red","0.5","0.5","0.5","w","",""
"animation","69","101935","0.0-5.0-2.32","5d69d7e23aed95001b1aa05c","bdp_lott","Sat Apr 15 2023 17:12:58 GMT-0400 (Eastern Daylight Time)","379416","red","green","","","","","","","","","","193","","","","","","[{""stimulus"":""img/red_lw/1.jpg"",""time"":52},{""stimulus"":""img/red_lw/2.jpg"",""time"":107},{""stimulus"":""img/red_lw/3.jpg"",""time"":154},{""stimulus"":""img/red_lw/4.jpg"",""time"":216},{""stimulus"":""img/red_lw/5.jpg"",""time"":263},{""stimulus"":""img/red_lw/6.jpg"",""time"":301},{""stimulus"":""img/red_lw/7.jpg"",""time"":352},{""stimulus"":""img/red_lw/8.jpg"",""time"":402},{""stimulus"":""img/red_lw/9.jpg"",""time"":465},{""stimulus"":""img/red_lw/10.jpg"",""time"":512},{""stimulus"":""img/red_lw/11.jpg"",""time"":558}]","[]"
"image-keyboard-response","70","105601","0.0-5.0-1.33","5d69d7e23aed95001b1aa05c","bdp_lott","Sat Apr 15 2023 17:12:58 GMT-0400 (Eastern Daylight Time)","379416","red","green","","3666","","","","choice","","img/red_lw/choose11.jpg","2","192","red","0.5","0.5","0.5","l","",""
"animation","71","106214","0.0-5.0-2.33","5d69d7e23aed95001b1aa05c","bdp_lott","Sat Apr 15 2023 17:12:58 GMT-0400 (Eastern Daylight Time)","379416","red","green","","","","","","","","","","192","","","","","","[{""stimulus"":""img/red_ll/1.jpg"",""time"":52},{""stimulus"":""img/red_ll/2.jpg"",""time"":101},{""stimulus"":""img/red_ll/3.jpg"",""time"":164},{""stimulus"":""img/red_ll/4.jpg"",""time"":211},{""stimulus"":""img/red_ll/5.jpg"",""time"":257},{""stimulus"":""img/red_ll/6.jpg"",""time"":303},{""stimulus"":""img/red_ll/7.jpg"",""time"":364},{""stimulus"":""img/red_ll/8.jpg"",""time"":410},{""stimulus"":""img/red_ll/9.jpg"",""time"":456},{""stimulus"":""img/red_ll/10.jpg"",""time"":502},{""stimulus"":""img/red_ll/11.jpg"",""time"":565}]","[]"
"image-keyboard-response","72","106785","0.0-5.0-1.34","5d69d7e23aed95001b1aa05c","bdp_lott","Sat Apr 15 2023 17:12:58 GMT-0400 (Eastern Daylight Time)","379416","red","green","","571","","","","choice","","img/red_ll/choose11.jpg","1","191","green","0.5","0.5","0.5","w","",""
"animation","73","107390","0.0-5.0-2.34","5d69d7e23aed95001b1aa05c","bdp_lott","Sat Apr 15 2023 17:12:58 GMT-0400 (Eastern Daylight Time)","379416","red","green","","","","","","","","","","191","","","","","","[{""stimulus"":""img/green_wl/1.jpg"",""time"":60},{""stimulus"":""img/green_wl/2.jpg"",""time"":107},{""stimulus"":""img/green_wl/3.jpg"",""time"":153},{""stimulus"":""img/green_wl/4.jpg"",""time"":215},{""stimulus"":""img/green_wl/5.jpg"",""time"":261},{""stimulus"":""img/green_wl/6.jpg"",""time"":308},{""stimulus"":""img/green_wl/7.jpg"",""time"":355},{""stimulus"":""img/green_wl/8.jpg"",""time"":401},{""stimulus"":""img/green_wl/9.jpg"",""time"":464},{""stimulus"":""img/green_wl/10.jpg"",""time"":500},{""stimulus"":""img/green_wl/11.jpg"",""time"":558}]","[]"
"image-keyboard-response","74","109002","0.0-5.0-1.35","5d69d7e23aed95001b1aa05c","bdp_lott","Sat Apr 15 2023 17:12:58 GMT-0400 (Eastern Daylight Time)","379416","red","green","","1611","","","","choice","","img/green_wl/choose11.jpg","1","190","green","0.5","0.5","0.5","l","",""
"animation","75","109611","0.0-5.0-2.35","5d69d7e23aed95001b1aa05c","bdp_lott","Sat Apr 15 2023 17:12:58 GMT-0400 (Eastern Daylight Time)","379416","red","green","","","","","","","","","","190","","","","","","[{""stimulus"":""img/green_ll/1.jpg"",""time"":63},{""stimulus"":""img/green_ll/2.jpg"",""time"":110},{""stimulus"":""img/green_ll/3.jpg"",""time"":156},{""stimulus"":""img/green_ll/4.jpg"",""time"":203},{""stimulus"":""img/green_ll/5.jpg"",""time"":265},{""stimulus"":""img/green_ll/6.jpg"",""time"":313},{""stimulus"":""img/green_ll/7.jpg"",""time"":361},{""stimulus"":""img/green_ll/8.jpg"",""time"":407},{""stimulus"":""img/green_ll/9.jpg"",""time"":453},{""stimulus"":""img/green_ll/10.jpg"",""time"":514},{""stimulus"":""img/green_ll/11.jpg"",""time"":561}]","[]"
"image-keyboard-response","76","110065","0.0-5.0-1.36","5d69d7e23aed95001b1aa05c","bdp_lott","Sat Apr 15 2023 17:12:58 GMT-0400 (Eastern Daylight Time)","379416","red","green","","454","","","","choice","","img/green_ll/choose11.jpg","1","189","green","0.5","0.5","0.5","w","",""
"animation","77","110681","0.0-5.0-2.36","5d69d7e23aed95001b1aa05c","bdp_lott","Sat Apr 15 2023 17:12:58 GMT-0400 (Eastern Daylight Time)","379416","red","green","","","","","","","","","","189","","","","","","[{""stimulus"":""img/green_wl/1.jpg"",""time"":56},{""stimulus"":""img/green_wl/2.jpg"",""time"":100},{""stimulus"":""img/green_wl/3.jpg"",""time"":166},{""stimulus"":""img/green_wl/4.jpg"",""time"":213},{""stimulus"":""img/green_wl/5.jpg"",""time"":260},{""stimulus"":""img/green_wl/6.jpg"",""time"":307},{""stimulus"":""img/green_wl/7.jpg"",""time"":353},{""stimulus"":""img/green_wl/8.jpg"",""time"":415},{""stimulus"":""img/green_wl/9.jpg"",""time"":462},{""stimulus"":""img/green_wl/10.jpg"",""time"":508},{""stimulus"":""img/green_wl/11.jpg"",""time"":555}]","[]"
"image-keyboard-response","78","111375","0.0-5.0-1.37","5d69d7e23aed95001b1aa05c","bdp_lott","Sat Apr 15 2023 17:12:58 GMT-0400 (Eastern Daylight Time)","379416","red","green","","693","","","","choice","","img/green_wl/choose11.jpg","1","188","green","0.5","0.5","0.5","l","",""
"animation","79","111984","0.0-5.0-2.37","5d69d7e23aed95001b1aa05c","bdp_lott","Sat Apr 15 2023 17:12:58 GMT-0400 (Eastern Daylight Time)","379416","red","green","","","","","","","","","","188","","","","","","[{""stimulus"":""img/green_ll/1.jpg"",""time"":52},{""stimulus"":""img/green_ll/2.jpg"",""time"":114},{""stimulus"":""img/green_ll/3.jpg"",""time"":161},{""stimulus"":""img/green_ll/4.jpg"",""time"":207},{""stimulus"":""img/green_ll/5.jpg"",""time"":253},{""stimulus"":""img/green_ll/6.jpg"",""time"":314},{""stimulus"":""img/green_ll/7.jpg"",""time"":361},{""stimulus"":""img/green_ll/8.jpg"",""time"":407},{""stimulus"":""img/green_ll/9.jpg"",""time"":454},{""stimulus"":""img/green_ll/10.jpg"",""time"":516},{""stimulus"":""img/green_ll/11.jpg"",""time"":563}]","[]"
"image-keyboard-response","80","112474","0.0-5.0-1.38","5d69d7e23aed95001b1aa05c","bdp_lott","Sat Apr 15 2023 17:12:58 GMT-0400 (Eastern Daylight Time)","379416","red","green","","490","","","","choice","","img/green_ll/choose11.jpg","1","187","green","0.5","0.5","0.5","l","",""
"animation","81","113086","0.0-5.0-2.38","5d69d7e23aed95001b1aa05c","bdp_lott","Sat Apr 15 2023 17:12:58 GMT-0400 (Eastern Daylight Time)","379416","red","green","","","","","","","","","","187","","","","","","[{""stimulus"":""img/green_ll/1.jpg"",""time"":52},{""stimulus"":""img/green_ll/2.jpg"",""time"":101},{""stimulus"":""img/green_ll/3.jpg"",""time"":162},{""stimulus"":""img/green_ll/4.jpg"",""time"":209},{""stimulus"":""img/green_ll/5.jpg"",""time"":256},{""stimulus"":""img/green_ll/6.jpg"",""time"":303},{""stimulus"":""img/green_ll/7.jpg"",""time"":365},{""stimulus"":""img/green_ll/8.jpg"",""time"":410},{""stimulus"":""img/green_ll/9.jpg"",""time"":457},{""stimulus"":""img/green_ll/10.jpg"",""time"":504},{""stimulus"":""img/green_ll/11.jpg"",""time"":565}]","[]"
"image-keyboard-response","82","113595","0.0-5.0-1.39","5d69d7e23aed95001b1aa05c","bdp_lott","Sat Apr 15 2023 17:12:58 GMT-0400 (Eastern Daylight Time)","379416","red","green","","508","","","","choice","","img/green_ll/choose11.jpg","1","186","green","0.5","0.5","0.5","w","",""
"animation","83","114206","0.0-5.0-2.39","5d69d7e23aed95001b1aa05c","bdp_lott","Sat Apr 15 2023 17:12:58 GMT-0400 (Eastern Daylight Time)","379416","red","green","","","","","","","","","","186","","","","","","[{""stimulus"":""img/green_wl/1.jpg"",""time"":53},{""stimulus"":""img/green_wl/2.jpg"",""time"":101},{""stimulus"":""img/green_wl/3.jpg"",""time"":156},{""stimulus"":""img/green_wl/4.jpg"",""time"":201},{""stimulus"":""img/green_wl/5.jpg"",""time"":254},{""stimulus"":""img/green_wl/6.jpg"",""time"":316},{""stimulus"":""img/green_wl/7.jpg"",""time"":363},{""stimulus"":""img/green_wl/8.jpg"",""time"":409},{""stimulus"":""img/green_wl/9.jpg"",""time"":451},{""stimulus"":""img/green_wl/10.jpg"",""time"":502},{""stimulus"":""img/green_wl/11.jpg"",""time"":564}]","[]"
"image-keyboard-response","84","114911","0.0-5.0-1.40","5d69d7e23aed95001b1aa05c","bdp_lott","Sat Apr 15 2023 17:12:58 GMT-0400 (Eastern Daylight Time)","379416","red","green","","705","","","","choice","","img/green_wl/choose11.jpg","1","185","green","0.5","0.5","0.5","l","",""
"animation","85","115526","0.0-5.0-2.40","5d69d7e23aed95001b1aa05c","bdp_lott","Sat Apr 15 2023 17:12:58 GMT-0400 (Eastern Daylight Time)","379416","red","green","","","","","","","","","","185","","","","","","[{""stimulus"":""img/green_ll/1.jpg"",""time"":55},{""stimulus"":""img/green_ll/2.jpg"",""time"":102},{""stimulus"":""img/green_ll/3.jpg"",""time"":151},{""stimulus"":""img/green_ll/4.jpg"",""time"":210},{""stimulus"":""img/green_ll/5.jpg"",""time"":257},{""stimulus"":""img/green_ll/6.jpg"",""time"":303},{""stimulus"":""img/green_ll/7.jpg"",""time"":365},{""stimulus"":""img/green_ll/8.jpg"",""time"":412},{""stimulus"":""img/green_ll/9.jpg"",""time"":459},{""stimulus"":""img/green_ll/10.jpg"",""time"":506},{""stimulus"":""img/green_ll/11.jpg"",""time"":553}]","[]"
"image-keyboard-response","86","116027","0.0-5.0-1.41","5d69d7e23aed95001b1aa05c","bdp_lott","Sat Apr 15 2023 17:12:58 GMT-0400 (Eastern Daylight Time)","379416","red","green","","501","","","","choice","","img/green_ll/choose11.jpg","1","184","green","0.5","0.5","0.5","w","",""
"animation","87","116630","0.0-5.0-2.41","5d69d7e23aed95001b1aa05c","bdp_lott","Sat Apr 15 2023 17:12:58 GMT-0400 (Eastern Daylight Time)","379416","red","green","","","","","","","","","","184","","","","","","[{""stimulus"":""img/green_wl/1.jpg"",""time"":59},{""stimulus"":""img/green_wl/2.jpg"",""time"":106},{""stimulus"":""img/green_wl/3.jpg"",""time"":152},{""stimulus"":""img/green_wl/4.jpg"",""time"":214},{""stimulus"":""img/green_wl/5.jpg"",""time"":261},{""stimulus"":""img/green_wl/6.jpg"",""time"":308},{""stimulus"":""img/green_wl/7.jpg"",""time"":355},{""stimulus"":""img/green_wl/8.jpg"",""time"":401},{""stimulus"":""img/green_wl/9.jpg"",""time"":464},{""stimulus"":""img/green_wl/10.jpg"",""time"":510},{""stimulus"":""img/green_wl/11.jpg"",""time"":557}]","[]"
"image-keyboard-response","88","117130","0.0-5.0-1.42","5d69d7e23aed95001b1aa05c","bdp_lott","Sat Apr 15 2023 17:12:58 GMT-0400 (Eastern Daylight Time)","379416","red","green","","499","","","","choice","","img/green_wl/choose11.jpg","1","183","green","0.5","0.5","0.5","l","",""
"animation","89","117735","0.0-5.0-2.42","5d69d7e23aed95001b1aa05c","bdp_lott","Sat Apr 15 2023 17:12:58 GMT-0400 (Eastern Daylight Time)","379416","red","green","","","","","","","","","","183","","","","","","[{""stimulus"":""img/green_ll/1.jpg"",""time"":51},{""stimulus"":""img/green_ll/2.jpg"",""time"":106},{""stimulus"":""img/green_ll/3.jpg"",""time"":153},{""stimulus"":""img/green_ll/4.jpg"",""time"":215},{""stimulus"":""img/green_ll/5.jpg"",""time"":261},{""stimulus"":""img/green_ll/6.jpg"",""time"":301},{""stimulus"":""img/green_ll/7.jpg"",""time"":354},{""stimulus"":""img/green_ll/8.jpg"",""time"":402},{""stimulus"":""img/green_ll/9.jpg"",""time"":465},{""stimulus"":""img/green_ll/10.jpg"",""time"":512},{""stimulus"":""img/green_ll/11.jpg"",""time"":558}]","[]"
"image-keyboard-response","90","118449","0.0-5.0-1.43","5d69d7e23aed95001b1aa05c","bdp_lott","Sat Apr 15 2023 17:12:58 GMT-0400 (Eastern Daylight Time)","379416","red","green","","714","","","","choice","","img/green_ll/choose11.jpg","2","182","red","0.5","0.5","0.5","l","",""
"animation","91","119057","0.0-5.0-2.43","5d69d7e23aed95001b1aa05c","bdp_lott","Sat Apr 15 2023 17:12:58 GMT-0400 (Eastern Daylight Time)","379416","red","green","","","","","","","","","","182","","","","","","[{""stimulus"":""img/red_ll/1.jpg"",""time"":51},{""stimulus"":""img/red_ll/2.jpg"",""time"":110},{""stimulus"":""img/red_ll/3.jpg"",""time"":151},{""stimulus"":""img/red_ll/4.jpg"",""time"":204},{""stimulus"":""img/red_ll/5.jpg"",""time"":251},{""stimulus"":""img/red_ll/6.jpg"",""time"":313},{""stimulus"":""img/red_ll/7.jpg"",""time"":359},{""stimulus"":""img/red_ll/8.jpg"",""time"":406},{""stimulus"":""img/red_ll/9.jpg"",""time"":453},{""stimulus"":""img/red_ll/10.jpg"",""time"":514},{""stimulus"":""img/red_ll/11.jpg"",""time"":561}]","[]"
"image-keyboard-response","92","119402","0.0-5.0-1.44","5d69d7e23aed95001b1aa05c","bdp_lott","Sat Apr 15 2023 17:12:58 GMT-0400 (Eastern Daylight Time)","379416","red","green","","344","","","","choice","","img/red_ll/choose11.jpg","2","181","red","0.5","0.5","0.5","l","",""
"animation","93","120003","0.0-5.0-2.44","5d69d7e23aed95001b1aa05c","bdp_lott","Sat Apr 15 2023 17:12:58 GMT-0400 (Eastern Daylight Time)","379416","red","green","","","","","","","","","","181","","","","","","[{""stimulus"":""img/red_ll/1.jpg"",""time"":51},{""stimulus"":""img/red_ll/2.jpg"",""time"":105},{""stimulus"":""img/red_ll/3.jpg"",""time"":152},{""stimulus"":""img/red_ll/4.jpg"",""time"":213},{""stimulus"":""img/red_ll/5.jpg"",""time"":259},{""stimulus"":""img/red_ll/6.jpg"",""time"":301},{""stimulus"":""img/red_ll/7.jpg"",""time"":351},{""stimulus"":""img/red_ll/8.jpg"",""time"":414},{""stimulus"":""img/red_ll/9.jpg"",""time"":461},{""stimulus"":""img/red_ll/10.jpg"",""time"":507},{""stimulus"":""img/red_ll/11.jpg"",""time"":554}]","[]"
"image-keyboard-response","94","120385","0.0-5.0-1.45","5d69d7e23aed95001b1aa05c","bdp_lott","Sat Apr 15 2023 17:12:58 GMT-0400 (Eastern Daylight Time)","379416","red","green","","381","","","","choice","","img/red_ll/choose11.jpg","2","180","red","0.5","0.5","0.5","w","",""
"animation","95","120999","0.0-5.0-2.45","5d69d7e23aed95001b1aa05c","bdp_lott","Sat Apr 15 2023 17:12:58 GMT-0400 (Eastern Daylight Time)","379416","red","green","","","","","","","","","","180","","","","","","[{""stimulus"":""img/red_lw/1.jpg"",""time"":50},{""stimulus"":""img/red_lw/2.jpg"",""time"":115},{""stimulus"":""img/red_lw/3.jpg"",""time"":161},{""stimulus"":""img/red_lw/4.jpg"",""time"":208},{""stimulus"":""img/red_lw/5.jpg"",""time"":254},{""stimulus"":""img/red_lw/6.jpg"",""time"":301},{""stimulus"":""img/red_lw/7.jpg"",""time"":364},{""stimulus"":""img/red_lw/8.jpg"",""time"":411},{""stimulus"":""img/red_lw/9.jpg"",""time"":458},{""stimulus"":""img/red_lw/10.jpg"",""time"":501},{""stimulus"":""img/red_lw/11.jpg"",""time"":551}]","[]"
"image-keyboard-response","96","121632","0.0-5.0-1.46","5d69d7e23aed95001b1aa05c","bdp_lott","Sat Apr 15 2023 17:12:58 GMT-0400 (Eastern Daylight Time)","379416","red","green","","632","","","","choice","","img/red_lw/choose11.jpg","1","179","green","0.5","0.5","0.5","l","",""
"animation","97","122233","0.0-5.0-2.46","5d69d7e23aed95001b1aa05c","bdp_lott","Sat Apr 15 2023 17:12:58 GMT-0400 (Eastern Daylight Time)","379416","red","green","","","","","","","","","","179","","","","","","[{""stimulus"":""img/green_lw/1.jpg"",""time"":65},{""stimulus"":""img/green_lw/2.jpg"",""time"":101},{""stimulus"":""img/green_lw/3.jpg"",""time"":158},{""stimulus"":""img/green_lw/4.jpg"",""time"":205},{""stimulus"":""img/green_lw/5.jpg"",""time"":253},{""stimulus"":""img/green_lw/6.jpg"",""time"":314},{""stimulus"":""img/green_lw/7.jpg"",""time"":361},{""stimulus"":""img/green_lw/8.jpg"",""time"":408},{""stimulus"":""img/green_lw/9.jpg"",""time"":455},{""stimulus"":""img/green_lw/10.jpg"",""time"":501},{""stimulus"":""img/green_lw/11.jpg"",""time"":564}]","[]"
"image-keyboard-response","98","122569","0.0-5.0-1.47","5d69d7e23aed95001b1aa05c","bdp_lott","Sat Apr 15 2023 17:12:58 GMT-0400 (Eastern Daylight Time)","379416","red","green","","336","","","","choice","","img/green_lw/choose11.jpg","1","178","green","0.5","0.5","0.5","l","",""
"animation","99","123174","0.0-5.0-2.47","5d69d7e23aed95001b1aa05c","bdp_lott","Sat Apr 15 2023 17:12:58 GMT-0400 (Eastern Daylight Time)","379416","red","green","","","","","","","","","","178","","","","","","[{""stimulus"":""img/green_lw/1.jpg"",""time"":62},{""stimulus"":""img/green_lw/2.jpg"",""time"":101},{""stimulus"":""img/green_lw/3.jpg"",""time"":154},{""stimulus"":""img/green_lw/4.jpg"",""time"":215},{""stimulus"":""img/green_lw/5.jpg"",""time"":262},{""stimulus"":""img/green_lw/6.jpg"",""time"":309},{""stimulus"":""img/green_lw/7.jpg"",""time"":356},{""stimulus"":""img/green_lw/8.jpg"",""time"":403},{""stimulus"":""img/green_lw/9.jpg"",""time"":464},{""stimulus"":""img/green_lw/10.jpg"",""time"":511},{""stimulus"":""img/green_lw/11.jpg"",""time"":557}]","[]"
"image-keyboard-response","100","123560","0.0-5.0-1.48","5d69d7e23aed95001b1aa05c","bdp_lott","Sat Apr 15 2023 17:12:58 GMT-0400 (Eastern Daylight Time)","379416","red","green","","385","","","","choice","","img/green_lw/choose11.jpg","1","177","green","0.5","0.5","0.5","l","",""
"animation","101","124168","0.0-5.0-2.48","5d69d7e23aed95001b1aa05c","bdp_lott","Sat Apr 15 2023 17:12:58 GMT-0400 (Eastern Daylight Time)","379416","red","green","","","","","","","","","","177","","","","","","[{""stimulus"":""img/green_lw/1.jpg"",""time"":51},{""stimulus"":""img/green_lw/2.jpg"",""time"":111},{""stimulus"":""img/green_lw/3.jpg"",""time"":157},{""stimulus"":""img/green_lw/4.jpg"",""time"":205},{""stimulus"":""img/green_lw/5.jpg"",""time"":251},{""stimulus"":""img/green_lw/6.jpg"",""time"":314},{""stimulus"":""img/green_lw/7.jpg"",""time"":361},{""stimulus"":""img/green_lw/8.jpg"",""time"":401},{""stimulus"":""img/green_lw/9.jpg"",""time"":453},{""stimulus"":""img/green_lw/10.jpg"",""time"":515},{""stimulus"":""img/green_lw/11.jpg"",""time"":561}]","[]"
"image-keyboard-response","102","124577","0.0-5.0-1.49","5d69d7e23aed95001b1aa05c","bdp_lott","Sat Apr 15 2023 17:12:58 GMT-0400 (Eastern Daylight Time)","379416","red","green","","409","","","","choice","","img/green_lw/choose11.jpg","1","176","green","0.5","0.5","0.5","l","",""
"animation","103","125183","0.0-5.0-2.49","5d69d7e23aed95001b1aa05c","bdp_lott","Sat Apr 15 2023 17:12:58 GMT-0400 (Eastern Daylight Time)","379416","red","green","","","","","","","","","","176","","","","","","[{""stimulus"":""img/green_lw/1.jpg"",""time"":56},{""stimulus"":""img/green_lw/2.jpg"",""time"":100},{""stimulus"":""img/green_lw/3.jpg"",""time"":150},{""stimulus"":""img/green_lw/4.jpg"",""time"":213},{""stimulus"":""img/green_lw/5.jpg"",""time"":251},{""stimulus"":""img/green_lw/6.jpg"",""time"":308},{""stimulus"":""img/green_lw/7.jpg"",""time"":355},{""stimulus"":""img/green_lw/8.jpg"",""time"":402},{""stimulus"":""img/green_lw/9.jpg"",""time"":465},{""stimulus"":""img/green_lw/10.jpg"",""time"":511},{""stimulus"":""img/green_lw/11.jpg"",""time"":557}]","[]"
"image-keyboard-response","104","126162","0.0-5.0-1.50","5d69d7e23aed95001b1aa05c","bdp_lott","Sat Apr 15 2023 17:12:58 GMT-0400 (Eastern Daylight Time)","379416","red","green","","978","","","","choice","","img/green_lw/choose11.jpg","1","175","green","0.5","0.5","0.5","l","",""
"animation","105","126768","0.0-5.0-2.50","5d69d7e23aed95001b1aa05c","bdp_lott","Sat Apr 15 2023 17:12:58 GMT-0400 (Eastern Daylight Time)","379416","red","green","","","","","","","","","","175","","","","","","[{""stimulus"":""img/green_lw/1.jpg"",""time"":63},{""stimulus"":""img/green_lw/2.jpg"",""time"":101},{""stimulus"":""img/green_lw/3.jpg"",""time"":157},{""stimulus"":""img/green_lw/4.jpg"",""time"":203},{""stimulus"":""img/green_lw/5.jpg"",""time"":265},{""stimulus"":""img/green_lw/6.jpg"",""time"":312},{""stimulus"":""img/green_lw/7.jpg"",""time"":359},{""stimulus"":""img/green_lw/8.jpg"",""time"":406},{""stimulus"":""img/green_lw/9.jpg"",""time"":452},{""stimulus"":""img/green_lw/10.jpg"",""time"":514},{""stimulus"":""img/green_lw/11.jpg"",""time"":561}]","[]"
"image-keyboard-response","106","127385","0.0-5.0-1.51","5d69d7e23aed95001b1aa05c","bdp_lott","Sat Apr 15 2023 17:12:58 GMT-0400 (Eastern Daylight Time)","379416","red","green","","617","","","","choice","","img/green_lw/choose11.jpg","1","174","green","0.5","0.5","0.5","l","",""
"animation","107","127999","0.0-5.0-2.51","5d69d7e23aed95001b1aa05c","bdp_lott","Sat Apr 15 2023 17:12:58 GMT-0400 (Eastern Daylight Time)","379416","red","green","","","","","","","","","","174","","","","","","[{""stimulus"":""img/green_lw/1.jpg"",""time"":52},{""stimulus"":""img/green_lw/2.jpg"",""time"":101},{""stimulus"":""img/green_lw/3.jpg"",""time"":161},{""stimulus"":""img/green_lw/4.jpg"",""time"":208},{""stimulus"":""img/green_lw/5.jpg"",""time"":252},{""stimulus"":""img/green_lw/6.jpg"",""time"":302},{""stimulus"":""img/green_lw/7.jpg"",""time"":351},{""stimulus"":""img/green_lw/8.jpg"",""time"":413},{""stimulus"":""img/green_lw/9.jpg"",""time"":459},{""stimulus"":""img/green_lw/10.jpg"",""time"":505},{""stimulus"":""img/green_lw/11.jpg"",""time"":552}]","[]"
"image-keyboard-response","108","128466","0.0-5.0-1.52","5d69d7e23aed95001b1aa05c","bdp_lott","Sat Apr 15 2023 17:12:58 GMT-0400 (Eastern Daylight Time)","379416","red","green","","466","","","","choice","","img/green_lw/choose11.jpg","1","173","green","0.5","0.5","0.5","l","",""
"animation","109","129071","0.0-5.0-2.52","5d69d7e23aed95001b1aa05c","bdp_lott","Sat Apr 15 2023 17:12:58 GMT-0400 (Eastern Daylight Time)","379416","red","green","","","","","","","","","","173","","","","","","[{""stimulus"":""img/green_lw/1.jpg"",""time"":61},{""stimulus"":""img/green_lw/2.jpg"",""time"":102},{""stimulus"":""img/green_lw/3.jpg"",""time"":154},{""stimulus"":""img/green_lw/4.jpg"",""time"":201},{""stimulus"":""img/green_lw/5.jpg"",""time"":262},{""stimulus"":""img/green_lw/6.jpg"",""time"":309},{""stimulus"":""img/green_lw/7.jpg"",""time"":356},{""stimulus"":""img/green_lw/8.jpg"",""time"":402},{""stimulus"":""img/green_lw/9.jpg"",""time"":466},{""stimulus"":""img/green_lw/10.jpg"",""time"":512},{""stimulus"":""img/green_lw/11.jpg"",""time"":559}]","[]"
"image-keyboard-response","110","131433","0.0-5.0-1.53","5d69d7e23aed95001b1aa05c","bdp_lott","Sat Apr 15 2023 17:12:58 GMT-0400 (Eastern Daylight Time)","379416","red","green","","2361","","","","choice","","img/green_lw/choose11.jpg","1","172","green","0.5","0.5","0.5","l","",""
"animation","111","132041","0.0-5.0-2.53","5d69d7e23aed95001b1aa05c","bdp_lott","Sat Apr 15 2023 17:12:58 GMT-0400 (Eastern Daylight Time)","379416","red","green","","","","","","","","","","172","","","","","","[{""stimulus"":""img/green_lw/1.jpg"",""time"":51},{""stimulus"":""img/green_lw/2.jpg"",""time"":101},{""stimulus"":""img/green_lw/3.jpg"",""time"":153},{""stimulus"":""img/green_lw/4.jpg"",""time"":201},{""stimulus"":""img/green_lw/5.jpg"",""time"":264},{""stimulus"":""img/green_lw/6.jpg"",""time"":311},{""stimulus"":""img/green_lw/7.jpg"",""time"":358},{""stimulus"":""img/green_lw/8.jpg"",""time"":404},{""stimulus"":""img/green_lw/9.jpg"",""time"":451},{""stimulus"":""img/green_lw/10.jpg"",""time"":512},{""stimulus"":""img/green_lw/11.jpg"",""time"":560}]","[]"
"image-keyboard-response","112","132569","0.0-5.0-1.54","5d69d7e23aed95001b1aa05c","bdp_lott","Sat Apr 15 2023 17:12:58 GMT-0400 (Eastern Daylight Time)","379416","red","green","","527","","","","choice","","img/green_lw/choose11.jpg","2","171","red","0.5","0.5","0.5","w","",""
"animation","113","133174","0.0-5.0-2.54","5d69d7e23aed95001b1aa05c","bdp_lott","Sat Apr 15 2023 17:12:58 GMT-0400 (Eastern Daylight Time)","379416","red","green","","","","","","","","","","171","","","","","","[{""stimulus"":""img/red_lw/1.jpg"",""time"":60},{""stimulus"":""img/red_lw/2.jpg"",""time"":107},{""stimulus"":""img/red_lw/3.jpg"",""time"":154},{""stimulus"":""img/red_lw/4.jpg"",""time"":202},{""stimulus"":""img/red_lw/5.jpg"",""time"":265},{""stimulus"":""img/red_lw/6.jpg"",""time"":312},{""stimulus"":""img/red_lw/7.jpg"",""time"":358},{""stimulus"":""img/red_lw/8.jpg"",""time"":405},{""stimulus"":""img/red_lw/9.jpg"",""time"":466},{""stimulus"":""img/red_lw/10.jpg"",""time"":512},{""stimulus"":""img/red_lw/11.jpg"",""time"":558}]","[]"
"image-keyboard-response","114","133793","0.0-5.0-1.55","5d69d7e23aed95001b1aa05c","bdp_lott","Sat Apr 15 2023 17:12:58 GMT-0400 (Eastern Daylight Time)","379416","red","green","","619","","","","choice","","img/red_lw/choose11.jpg","1","170","green","0.5","0.5","0.5","l","",""
"animation","115","134401","0.0-5.0-2.55","5d69d7e23aed95001b1aa05c","bdp_lott","Sat Apr 15 2023 17:12:58 GMT-0400 (Eastern Daylight Time)","379416","red","green","","","","","","","","","","170","","","","","","[{""stimulus"":""img/green_lw/1.jpg"",""time"":51},{""stimulus"":""img/green_lw/2.jpg"",""time"":111},{""stimulus"":""img/green_lw/3.jpg"",""time"":150},{""stimulus"":""img/green_lw/4.jpg"",""time"":204},{""stimulus"":""img/green_lw/5.jpg"",""time"":250},{""stimulus"":""img/green_lw/6.jpg"",""time"":312},{""stimulus"":""img/green_lw/7.jpg"",""time"":358},{""stimulus"":""img/green_lw/8.jpg"",""time"":406},{""stimulus"":""img/green_lw/9.jpg"",""time"":452},{""stimulus"":""img/green_lw/10.jpg"",""time"":514},{""stimulus"":""img/green_lw/11.jpg"",""time"":560}]","[]"
"image-keyboard-response","116","134816","0.0-5.0-1.56","5d69d7e23aed95001b1aa05c","bdp_lott","Sat Apr 15 2023 17:12:58 GMT-0400 (Eastern Daylight Time)","379416","red","green","","414","","","","choice","","img/green_lw/choose11.jpg","1","169","green","0.5","0.5","0.5","l","",""
"animation","117","135417","0.0-5.0-2.56","5d69d7e23aed95001b1aa05c","bdp_lott","Sat Apr 15 2023 17:12:58 GMT-0400 (Eastern Daylight Time)","379416","red","green","","","","","","","","","","169","","","","","","[{""stimulus"":""img/green_lw/1.jpg"",""time"":51},{""stimulus"":""img/green_lw/2.jpg"",""time"":112},{""stimulus"":""img/green_lw/3.jpg"",""time"":151},{""stimulus"":""img/green_lw/4.jpg"",""time"":201},{""stimulus"":""img/green_lw/5.jpg"",""time"":251},{""stimulus"":""img/green_lw/6.jpg"",""time"":314},{""stimulus"":""img/green_lw/7.jpg"",""time"":361},{""stimulus"":""img/green_lw/8.jpg"",""time"":407},{""stimulus"":""img/green_lw/9.jpg"",""time"":454},{""stimulus"":""img/green_lw/10.jpg"",""time"":501},{""stimulus"":""img/green_lw/11.jpg"",""time"":562}]","[]"
"image-keyboard-response","118","135810","0.0-5.0-1.57","5d69d7e23aed95001b1aa05c","bdp_lott","Sat Apr 15 2023 17:12:58 GMT-0400 (Eastern Daylight Time)","379416","red","green","","393","","","","choice","","img/green_lw/choose11.jpg","1","168","green","0.5","0.5","0.5","l","",""
"animation","119","136420","0.0-5.0-2.57","5d69d7e23aed95001b1aa05c","bdp_lott","Sat Apr 15 2023 17:12:58 GMT-0400 (Eastern Daylight Time)","379416","red","green","","","","","","","","","","168","","","","","","[{""stimulus"":""img/green_lw/1.jpg"",""time"":52},{""stimulus"":""img/green_lw/2.jpg"",""time"":101},{""stimulus"":""img/green_lw/3.jpg"",""time"":159},{""stimulus"":""img/green_lw/4.jpg"",""time"":206},{""stimulus"":""img/green_lw/5.jpg"",""time"":253},{""stimulus"":""img/green_lw/6.jpg"",""time"":301},{""stimulus"":""img/green_lw/7.jpg"",""time"":360},{""stimulus"":""img/green_lw/8.jpg"",""time"":407},{""stimulus"":""img/green_lw/9.jpg"",""time"":451},{""stimulus"":""img/green_lw/10.jpg"",""time"":516},{""stimulus"":""img/green_lw/11.jpg"",""time"":563}]","[]"
"image-keyboard-response","120","136841","0.0-5.0-1.58","5d69d7e23aed95001b1aa05c","bdp_lott","Sat Apr 15 2023 17:12:58 GMT-0400 (Eastern Daylight Time)","379416","red","green","","421","","","","choice","","img/green_lw/choose11.jpg","1","167","green","0.5","0.5","0.5","l","",""
"animation","121","137446","0.0-5.0-2.58","5d69d7e23aed95001b1aa05c","bdp_lott","Sat Apr 15 2023 17:12:58 GMT-0400 (Eastern Daylight Time)","379416","red","green","","","","","","","","","","167","","","","","","[{""stimulus"":""img/green_lw/1.jpg"",""time"":60},{""stimulus"":""img/green_lw/2.jpg"",""time"":107},{""stimulus"":""img/green_lw/3.jpg"",""time"":150},{""stimulus"":""img/green_lw/4.jpg"",""time"":201},{""stimulus"":""img/green_lw/5.jpg"",""time"":263},{""stimulus"":""img/green_lw/6.jpg"",""time"":311},{""stimulus"":""img/green_lw/7.jpg"",""time"":357},{""stimulus"":""img/green_lw/8.jpg"",""time"":404},{""stimulus"":""img/green_lw/9.jpg"",""time"":465},{""stimulus"":""img/green_lw/10.jpg"",""time"":512},{""stimulus"":""img/green_lw/11.jpg"",""time"":550}]","[]"
"image-keyboard-response","122","138385","0.0-5.0-1.59","5d69d7e23aed95001b1aa05c","bdp_lott","Sat Apr 15 2023 17:12:58 GMT-0400 (Eastern Daylight Time)","379416","red","green","","939","","","","choice","","img/green_lw/choose11.jpg","1","166","green","0.5","0.5","0.5","l","",""
"animation","123","138986","0.0-5.0-2.59","5d69d7e23aed95001b1aa05c","bdp_lott","Sat Apr 15 2023 17:12:58 GMT-0400 (Eastern Daylight Time)","379416","red","green","","","","","","","","","","166","","","","","","[{""stimulus"":""img/green_lw/1.jpg"",""time"":50},{""stimulus"":""img/green_lw/2.jpg"",""time"":102},{""stimulus"":""img/green_lw/3.jpg"",""time"":164},{""stimulus"":""img/green_lw/4.jpg"",""time"":210},{""stimulus"":""img/green_lw/5.jpg"",""time"":258},{""stimulus"":""img/green_lw/6.jpg"",""time"":304},{""stimulus"":""img/green_lw/7.jpg"",""time"":351},{""stimulus"":""img/green_lw/8.jpg"",""time"":412},{""stimulus"":""img/green_lw/9.jpg"",""time"":459},{""stimulus"":""img/green_lw/10.jpg"",""time"":506},{""stimulus"":""img/green_lw/11.jpg"",""time"":553}]","[]"
"image-keyboard-response","124","139399","0.0-5.0-1.60","5d69d7e23aed95001b1aa05c","bdp_lott","Sat Apr 15 2023 17:12:58 GMT-0400 (Eastern Daylight Time)","379416","red","green","","412","","","","choice","","img/green_lw/choose11.jpg","1","165","green","0.5","0.5","0.5","l","",""
"animation","125","140000","0.0-5.0-2.60","5d69d7e23aed95001b1aa05c","bdp_lott","Sat Apr 15 2023 17:12:58 GMT-0400 (Eastern Daylight Time)","379416","red","green","","","","","","","","","","165","","","","","","[{""stimulus"":""img/green_lw/1.jpg"",""time"":52},{""stimulus"":""img/green_lw/2.jpg"",""time"":114},{""stimulus"":""img/green_lw/3.jpg"",""time"":160},{""stimulus"":""img/green_lw/4.jpg"",""time"":208},{""stimulus"":""img/green_lw/5.jpg"",""time"":255},{""stimulus"":""img/green_lw/6.jpg"",""time"":301},{""stimulus"":""img/green_lw/7.jpg"",""time"":364},{""stimulus"":""img/green_lw/8.jpg"",""time"":411},{""stimulus"":""img/green_lw/9.jpg"",""time"":458},{""stimulus"":""img/green_lw/10.jpg"",""time"":505},{""stimulus"":""img/green_lw/11.jpg"",""time"":552}]","[]"
"image-keyboard-response","126","140953","0.0-5.0-1.61","5d69d7e23aed95001b1aa05c","bdp_lott","Sat Apr 15 2023 17:12:58 GMT-0400 (Eastern Daylight Time)","379416","red","green","","952","","","","choice","","img/green_lw/choose11.jpg","1","164","green","0.5","0.5","0.5","w","",""
"animation","127","141563","0.0-5.0-2.61","5d69d7e23aed95001b1aa05c","bdp_lott","Sat Apr 15 2023 17:12:58 GMT-0400 (Eastern Daylight Time)","379416","red","green","","","","","","","","","","164","","","","","","[{""stimulus"":""img/green_ww/1.jpg"",""time"":51},{""stimulus"":""img/green_ww/2.jpg"",""time"":116},{""stimulus"":""img/green_ww/3.jpg"",""time"":163},{""stimulus"":""img/green_ww/4.jpg"",""time"":210},{""stimulus"":""img/green_ww/5.jpg"",""time"":255},{""stimulus"":""img/green_ww/6.jpg"",""time"":301},{""stimulus"":""img/green_ww/7.jpg"",""time"":363},{""stimulus"":""img/green_ww/8.jpg"",""time"":409},{""stimulus"":""img/green_ww/9.jpg"",""time"":455},{""stimulus"":""img/green_ww/10.jpg"",""time"":502},{""stimulus"":""img/green_ww/11.jpg"",""time"":564}]","[]"
"image-keyboard-response","128","143090","0.0-5.0-1.62","5d69d7e23aed95001b1aa05c","bdp_lott","Sat Apr 15 2023 17:12:58 GMT-0400 (Eastern Daylight Time)","379416","red","green","","1526","","","","choice","","img/green_ww/choose11.jpg","2","163","red","0.5","0.5","0.5","w","",""
"animation","129","143694","0.0-5.0-2.62","5d69d7e23aed95001b1aa05c","bdp_lott","Sat Apr 15 2023 17:12:58 GMT-0400 (Eastern Daylight Time)","379416","red","green","","","","","","","","","","163","","","","","","[{""stimulus"":""img/red_ww/1.jpg"",""time"":62},{""stimulus"":""img/red_ww/2.jpg"",""time"":101},{""stimulus"":""img/red_ww/3.jpg"",""time"":156},{""stimulus"":""img/red_ww/4.jpg"",""time"":202},{""stimulus"":""img/red_ww/5.jpg"",""time"":264},{""stimulus"":""img/red_ww/6.jpg"",""time"":310},{""stimulus"":""img/red_ww/7.jpg"",""time"":351},{""stimulus"":""img/red_ww/8.jpg"",""time"":401},{""stimulus"":""img/red_ww/9.jpg"",""time"":465},{""stimulus"":""img/red_ww/10.jpg"",""time"":501},{""stimulus"":""img/red_ww/11.jpg"",""time"":558}]","[]"
"image-keyboard-response","130","144465","0.0-5.0-1.63","5d69d7e23aed95001b1aa05c","bdp_lott","Sat Apr 15 2023 17:12:58 GMT-0400 (Eastern Daylight Time)","379416","red","green","","770","","","","choice","","img/red_ww/choose11.jpg","2","162","red","0.5","0.5","0.5","l","",""
"animation","131","145075","0.0-5.0-2.63","5d69d7e23aed95001b1aa05c","bdp_lott","Sat Apr 15 2023 17:12:58 GMT-0400 (Eastern Daylight Time)","379416","red","green","","","","","","","","","","162","","","","","","[{""stimulus"":""img/red_wl/1.jpg"",""time"":51},{""stimulus"":""img/red_wl/2.jpg"",""time"":113},{""stimulus"":""img/red_wl/3.jpg"",""time"":158},{""stimulus"":""img/red_wl/4.jpg"",""time"":206},{""stimulus"":""img/red_wl/5.jpg"",""time"":253},{""stimulus"":""img/red_wl/6.jpg"",""time"":316},{""stimulus"":""img/red_wl/7.jpg"",""time"":362},{""stimulus"":""img/red_wl/8.jpg"",""time"":401},{""stimulus"":""img/red_wl/9.jpg"",""time"":454},{""stimulus"":""img/red_wl/10.jpg"",""time"":501},{""stimulus"":""img/red_wl/11.jpg"",""time"":551}]","[]"
"image-keyboard-response","132","147544","0.0-5.0-1.64","5d69d7e23aed95001b1aa05c","bdp_lott","Sat Apr 15 2023 17:12:58 GMT-0400 (Eastern Daylight Time)","379416","red","green","","2469","","","","choice","","img/red_wl/choose11.jpg","2","161","red","0.5","0.5","0.5","l","",""
"animation","133","148146","0.0-5.0-2.64","5d69d7e23aed95001b1aa05c","bdp_lott","Sat Apr 15 2023 17:12:58 GMT-0400 (Eastern Daylight Time)","379416","red","green","","","","","","","","","","161","","","","","","[{""stimulus"":""img/red_wl/1.jpg"",""time"":51},{""stimulus"":""img/red_wl/2.jpg"",""time"":107},{""stimulus"":""img/red_wl/3.jpg"",""time"":154},{""stimulus"":""img/red_wl/4.jpg"",""time"":202},{""stimulus"":""img/red_wl/5.jpg"",""time"":264},{""stimulus"":""img/red_wl/6.jpg"",""time"":310},{""stimulus"":""img/red_wl/7.jpg"",""time"":351},{""stimulus"":""img/red_wl/8.jpg"",""time"":404},{""stimulus"":""img/red_wl/9.jpg"",""time"":451},{""stimulus"":""img/red_wl/10.jpg"",""time"":513},{""stimulus"":""img/red_wl/11.jpg"",""time"":559}]","[]"
"image-keyboard-response","134","148609","0.0-5.0-1.65","5d69d7e23aed95001b1aa05c","bdp_lott","Sat Apr 15 2023 17:12:58 GMT-0400 (Eastern Daylight Time)","379416","red","green","","462","","","","choice","","img/red_wl/choose11.jpg","2","160","red","0.5","0.5","0.5","w","",""
"animation","135","149222","0.0-5.0-2.65","5d69d7e23aed95001b1aa05c","bdp_lott","Sat Apr 15 2023 17:12:58 GMT-0400 (Eastern Daylight Time)","379416","red","green","","","","","","","","","","160","","","","","","[{""stimulus"":""img/red_ww/1.jpg"",""time"":52},{""stimulus"":""img/red_ww/2.jpg"",""time"":100},{""stimulus"":""img/red_ww/3.jpg"",""time"":161},{""stimulus"":""img/red_ww/4.jpg"",""time"":207},{""stimulus"":""img/red_ww/5.jpg"",""time"":254},{""stimulus"":""img/red_ww/6.jpg"",""time"":300},{""stimulus"":""img/red_ww/7.jpg"",""time"":363},{""stimulus"":""img/red_ww/8.jpg"",""time"":410},{""stimulus"":""img/red_ww/9.jpg"",""time"":457},{""stimulus"":""img/red_ww/10.jpg"",""time"":503},{""stimulus"":""img/red_ww/11.jpg"",""time"":565}]","[]"
"image-keyboard-response","136","151145","0.0-5.0-1.66","5d69d7e23aed95001b1aa05c","bdp_lott","Sat Apr 15 2023 17:12:58 GMT-0400 (Eastern Daylight Time)","379416","red","green","","1923","","","","choice","","img/red_ww/choose11.jpg","1","159","green","0.5","0.5","0.5","w","",""
"animation","137","151758","0.0-5.0-2.66","5d69d7e23aed95001b1aa05c","bdp_lott","Sat Apr 15 2023 17:12:58 GMT-0400 (Eastern Daylight Time)","379416","red","green","","","","","","","","","","159","","","","","","[{""stimulus"":""img/green_ww/1.jpg"",""time"":53},{""stimulus"":""img/green_ww/2.jpg"",""time"":101},{""stimulus"":""img/green_ww/3.jpg"",""time"":162},{""stimulus"":""img/green_ww/4.jpg"",""time"":208},{""stimulus"":""img/green_ww/5.jpg"",""time"":255},{""stimulus"":""img/green_ww/6.jpg"",""time"":302},{""stimulus"":""img/green_ww/7.jpg"",""time"":364},{""stimulus"":""img/green_ww/8.jpg"",""time"":411},{""stimulus"":""img/green_ww/9.jpg"",""time"":459},{""stimulus"":""img/green_ww/10.jpg"",""time"":505},{""stimulus"":""img/green_ww/11.jpg"",""time"":551}]","[]"
"image-keyboard-response","138","152768","0.0-5.0-1.67","5d69d7e23aed95001b1aa05c","bdp_lott","Sat Apr 15 2023 17:12:58 GMT-0400 (Eastern Daylight Time)","379416","red","green","","1009","","","","choice","","img/green_ww/choose11.jpg","2","158","red","0.5","0.5","0.5","w","",""
"animation","139","153370","0.0-5.0-2.67","5d69d7e23aed95001b1aa05c","bdp_lott","Sat Apr 15 2023 17:12:58 GMT-0400 (Eastern Daylight Time)","379416","red","green","","","","","","","","","","158","","","","","","[{""stimulus"":""img/red_ww/1.jpg"",""time"":51},{""stimulus"":""img/red_ww/2.jpg"",""time"":106},{""stimulus"":""img/red_ww/3.jpg"",""time"":152},{""stimulus"":""img/red_ww/4.jpg"",""time"":214},{""stimulus"":""img/red_ww/5.jpg"",""time"":261},{""stimulus"":""img/red_ww/6.jpg"",""time"":308},{""stimulus"":""img/red_ww/7.jpg"",""time"":356},{""stimulus"":""img/red_ww/8.jpg"",""time"":403},{""stimulus"":""img/red_ww/9.jpg"",""time"":465},{""stimulus"":""img/red_ww/10.jpg"",""time"":511},{""stimulus"":""img/red_ww/11.jpg"",""time"":551}]","[]"
"image-keyboard-response","140","154041","0.0-5.0-1.68","5d69d7e23aed95001b1aa05c","bdp_lott","Sat Apr 15 2023 17:12:58 GMT-0400 (Eastern Daylight Time)","379416","red","green","","670","","","","choice","","img/red_ww/choose11.jpg","1","157","green","0.5","0.5","0.5","w","",""
"animation","141","154644","0.0-5.0-2.68","5d69d7e23aed95001b1aa05c","bdp_lott","Sat Apr 15 2023 17:12:58 GMT-0400 (Eastern Daylight Time)","379416","red","green","","","","","","","","","","157","","","","","","[{""stimulus"":""img/green_ww/1.jpg"",""time"":50},{""stimulus"":""img/green_ww/2.jpg"",""time"":101},{""stimulus"":""img/green_ww/3.jpg"",""time"":152},{""stimulus"":""img/green_ww/4.jpg"",""time"":205},{""stimulus"":""img/green_ww/5.jpg"",""time"":260},{""stimulus"":""img/green_ww/6.jpg"",""time"":306},{""stimulus"":""img/green_ww/7.jpg"",""time"":353},{""stimulus"":""img/green_ww/8.jpg"",""time"":415},{""stimulus"":""img/green_ww/9.jpg"",""time"":451},{""stimulus"":""img/green_ww/10.jpg"",""time"":509},{""stimulus"":""img/green_ww/11.jpg"",""time"":550}]","[]"
"image-keyboard-response","142","155160","0.0-5.0-1.69","5d69d7e23aed95001b1aa05c","bdp_lott","Sat Apr 15 2023 17:12:58 GMT-0400 (Eastern Daylight Time)","379416","red","green","","515","","","","choice","","img/green_ww/choose11.jpg","2","156","red","0.5","0.5","0.5","l","",""
"animation","143","155760","0.0-5.0-2.69","5d69d7e23aed95001b1aa05c","bdp_lott","Sat Apr 15 2023 17:12:58 GMT-0400 (Eastern Daylight Time)","379416","red","green","","","","","","","","","","156","","","","","","[{""stimulus"":""img/red_wl/1.jpg"",""time"":58},{""stimulus"":""img/red_wl/2.jpg"",""time"":100},{""stimulus"":""img/red_wl/3.jpg"",""time"":153},{""stimulus"":""img/red_wl/4.jpg"",""time"":215},{""stimulus"":""img/red_wl/5.jpg"",""time"":250},{""stimulus"":""img/red_wl/6.jpg"",""time"":308},{""stimulus"":""img/red_wl/7.jpg"",""time"":354},{""stimulus"":""img/red_wl/8.jpg"",""time"":401},{""stimulus"":""img/red_wl/9.jpg"",""time"":463},{""stimulus"":""img/red_wl/10.jpg"",""time"":509},{""stimulus"":""img/red_wl/11.jpg"",""time"":555}]","[]"
"image-keyboard-response","144","156326","0.0-5.0-1.70","5d69d7e23aed95001b1aa05c","bdp_lott","Sat Apr 15 2023 17:12:58 GMT-0400 (Eastern Daylight Time)","379416","red","green","","565","","","","choice","","img/red_wl/choose11.jpg","1","155","green","0.5","0.5","0.5","w","",""
"animation","145","156936","0.0-5.0-2.70","5d69d7e23aed95001b1aa05c","bdp_lott","Sat Apr 15 2023 17:12:58 GMT-0400 (Eastern Daylight Time)","379416","red","green","","","","","","","","","","155","","","","","","[{""stimulus"":""img/green_wl/1.jpg"",""time"":51},{""stimulus"":""img/green_wl/2.jpg"",""time"":102},{""stimulus"":""img/green_wl/3.jpg"",""time"":152},{""stimulus"":""img/green_wl/4.jpg"",""time"":201},{""stimulus"":""img/green_wl/5.jpg"",""time"":256},{""stimulus"":""img/green_wl/6.jpg"",""time"":317},{""stimulus"":""img/green_wl/7.jpg"",""time"":364},{""stimulus"":""img/green_wl/8.jpg"",""time"":410},{""stimulus"":""img/green_wl/9.jpg"",""time"":457},{""stimulus"":""img/green_wl/10.jpg"",""time"":503},{""stimulus"":""img/green_wl/11.jpg"",""time"":552}]","[]"
"image-keyboard-response","146","157585","0.0-5.0-1.71","5d69d7e23aed95001b1aa05c","bdp_lott","Sat Apr 15 2023 17:12:58 GMT-0400 (Eastern Daylight Time)","379416","red","green","","648","","","","choice","","img/green_wl/choose11.jpg","1","154","green","0.5","0.5","0.5","l","",""
"animation","147","158193","0.0-5.0-2.71","5d69d7e23aed95001b1aa05c","bdp_lott","Sat Apr 15 2023 17:12:58 GMT-0400 (Eastern Daylight Time)","379416","red","green","","","","","","","","","","154","","","","","","[{""stimulus"":""img/green_ll/1.jpg"",""time"":51},{""stimulus"":""img/green_ll/2.jpg"",""time"":114},{""stimulus"":""img/green_ll/3.jpg"",""time"":161},{""stimulus"":""img/green_ll/4.jpg"",""time"":207},{""stimulus"":""img/green_ll/5.jpg"",""time"":253},{""stimulus"":""img/green_ll/6.jpg"",""time"":315},{""stimulus"":""img/green_ll/7.jpg"",""time"":361},{""stimulus"":""img/green_ll/8.jpg"",""time"":408},{""stimulus"":""img/green_ll/9.jpg"",""time"":454},{""stimulus"":""img/green_ll/10.jpg"",""time"":515},{""stimulus"":""img/green_ll/11.jpg"",""time"":562}]","[]"
"image-keyboard-response","148","159233","0.0-5.0-1.72","5d69d7e23aed95001b1aa05c","bdp_lott","Sat Apr 15 2023 17:12:58 GMT-0400 (Eastern Daylight Time)","379416","red","green","","1040","","","","choice","","img/green_ll/choose11.jpg","1","153","green","0.5","0.5","0.5","l","",""
"animation","149","159838","0.0-5.0-2.72","5d69d7e23aed95001b1aa05c","bdp_lott","Sat Apr 15 2023 17:12:58 GMT-0400 (Eastern Daylight Time)","379416","red","green","","","","","","","","","","153","","","","","","[{""stimulus"":""img/green_ll/1.jpg"",""time"":52},{""stimulus"":""img/green_ll/2.jpg"",""time"":100},{""stimulus"":""img/green_ll/3.jpg"",""time"":151},{""stimulus"":""img/green_ll/4.jpg"",""time"":202},{""stimulus"":""img/green_ll/5.jpg"",""time"":264},{""stimulus"":""img/green_ll/6.jpg"",""time"":311},{""stimulus"":""img/green_ll/7.jpg"",""time"":357},{""stimulus"":""img/green_ll/8.jpg"",""time"":404},{""stimulus"":""img/green_ll/9.jpg"",""time"":451},{""stimulus"":""img/green_ll/10.jpg"",""time"":512},{""stimulus"":""img/green_ll/11.jpg"",""time"":559}]","[]"
"image-keyboard-response","150","160192","0.0-5.0-1.73","5d69d7e23aed95001b1aa05c","bdp_lott","Sat Apr 15 2023 17:12:58 GMT-0400 (Eastern Daylight Time)","379416","red","green","","354","","","","choice","","img/green_ll/choose11.jpg","1","152","green","0.5","0.5","0.5","l","",""
"animation","151","160803","0.0-5.0-2.73","5d69d7e23aed95001b1aa05c","bdp_lott","Sat Apr 15 2023 17:12:58 GMT-0400 (Eastern Daylight Time)","379416","red","green","","","","","","","","","","152","","","","","","[{""stimulus"":""img/green_ll/1.jpg"",""time"":51},{""stimulus"":""img/green_ll/2.jpg"",""time"":113},{""stimulus"":""img/green_ll/3.jpg"",""time"":159},{""stimulus"":""img/green_ll/4.jpg"",""time"":206},{""stimulus"":""img/green_ll/5.jpg"",""time"":253},{""stimulus"":""img/green_ll/6.jpg"",""time"":315},{""stimulus"":""img/green_ll/7.jpg"",""time"":362},{""stimulus"":""img/green_ll/8.jpg"",""time"":408},{""stimulus"":""img/green_ll/9.jpg"",""time"":454},{""stimulus"":""img/green_ll/10.jpg"",""time"":500},{""stimulus"":""img/green_ll/11.jpg"",""time"":562}]","[]"
"image-keyboard-response","152","161257","0.0-5.0-1.74","5d69d7e23aed95001b1aa05c","bdp_lott","Sat Apr 15 2023 17:12:58 GMT-0400 (Eastern Daylight Time)","379416","red","green","","454","","","","choice","","img/green_ll/choose11.jpg","1","151","green","0.5","0.5","0.5","w","",""
"animation","153","161859","0.0-5.0-2.74","5d69d7e23aed95001b1aa05c","bdp_lott","Sat Apr 15 2023 17:12:58 GMT-0400 (Eastern Daylight Time)","379416","red","green","","","","","","","","","","151","","","","","","[{""stimulus"":""img/green_wl/1.jpg"",""time"":62},{""stimulus"":""img/green_wl/2.jpg"",""time"":103},{""stimulus"":""img/green_wl/3.jpg"",""time"":152},{""stimulus"":""img/green_wl/4.jpg"",""time"":213},{""stimulus"":""img/green_wl/5.jpg"",""time"":260},{""stimulus"":""img/green_wl/6.jpg"",""time"":306},{""stimulus"":""img/green_wl/7.jpg"",""time"":353},{""stimulus"":""img/green_wl/8.jpg"",""time"":414},{""stimulus"":""img/green_wl/9.jpg"",""time"":462},{""stimulus"":""img/green_wl/10.jpg"",""time"":508},{""stimulus"":""img/green_wl/11.jpg"",""time"":555}]","[]"
"image-keyboard-response","154","162377","0.0-5.0-1.75","5d69d7e23aed95001b1aa05c","bdp_lott","Sat Apr 15 2023 17:12:58 GMT-0400 (Eastern Daylight Time)","379416","red","green","","518","","","","choice","","img/green_wl/choose11.jpg","1","150","green","0.5","0.5","0.5","w","",""
"animation","155","162979","0.0-5.0-2.75","5d69d7e23aed95001b1aa05c","bdp_lott","Sat Apr 15 2023 17:12:58 GMT-0400 (Eastern Daylight Time)","379416","red","green","","","","","","","","","","150","","","","","","[{""stimulus"":""img/green_wl/1.jpg"",""time"":50},{""stimulus"":""img/green_wl/2.jpg"",""time"":101},{""stimulus"":""img/green_wl/3.jpg"",""time"":152},{""stimulus"":""img/green_wl/4.jpg"",""time"":214},{""stimulus"":""img/green_wl/5.jpg"",""time"":260},{""stimulus"":""img/green_wl/6.jpg"",""time"":307},{""stimulus"":""img/green_wl/7.jpg"",""time"":354},{""stimulus"":""img/green_wl/8.jpg"",""time"":416},{""stimulus"":""img/green_wl/9.jpg"",""time"":462},{""stimulus"":""img/green_wl/10.jpg"",""time"":509},{""stimulus"":""img/green_wl/11.jpg"",""time"":556}]","[]"
"image-keyboard-response","156","164049","0.0-5.0-1.76","5d69d7e23aed95001b1aa05c","bdp_lott","Sat Apr 15 2023 17:12:58 GMT-0400 (Eastern Daylight Time)","379416","red","green","","1069","","","","choice","","img/green_wl/choose11.jpg","1","149","green","0.5","0.1","0.1","l","",""
"animation","157","164650","0.0-5.0-2.76","5d69d7e23aed95001b1aa05c","bdp_lott","Sat Apr 15 2023 17:12:58 GMT-0400 (Eastern Daylight Time)","379416","red","green","","","","","","","","","","149","","","","","","[{""stimulus"":""img/green_ll/1.jpg"",""time"":57},{""stimulus"":""img/green_ll/2.jpg"",""time"":101},{""stimulus"":""img/green_ll/3.jpg"",""time"":151},{""stimulus"":""img/green_ll/4.jpg"",""time"":201},{""stimulus"":""img/green_ll/5.jpg"",""time"":251},{""stimulus"":""img/green_ll/6.jpg"",""time"":306},{""stimulus"":""img/green_ll/7.jpg"",""time"":352},{""stimulus"":""img/green_ll/8.jpg"",""time"":400},{""stimulus"":""img/green_ll/9.jpg"",""time"":461},{""stimulus"":""img/green_ll/10.jpg"",""time"":508},{""stimulus"":""img/green_ll/11.jpg"",""time"":555}]","[]"
"image-keyboard-response","158","165066","0.0-5.0-1.77","5d69d7e23aed95001b1aa05c","bdp_lott","Sat Apr 15 2023 17:12:58 GMT-0400 (Eastern Daylight Time)","379416","red","green","","415","","","","choice","","img/green_ll/choose11.jpg","1","148","green","0.5","0.1","0.1","l","",""
"animation","159","165673","0.0-5.0-2.77","5d69d7e23aed95001b1aa05c","bdp_lott","Sat Apr 15 2023 17:12:58 GMT-0400 (Eastern Daylight Time)","379416","red","green","","","","","","","","","","148","","","","","","[{""stimulus"":""img/green_ll/1.jpg"",""time"":66},{""stimulus"":""img/green_ll/2.jpg"",""time"":112},{""stimulus"":""img/green_ll/3.jpg"",""time"":151},{""stimulus"":""img/green_ll/4.jpg"",""time"":203},{""stimulus"":""img/green_ll/5.jpg"",""time"":265},{""stimulus"":""img/green_ll/6.jpg"",""time"":312},{""stimulus"":""img/green_ll/7.jpg"",""time"":350},{""stimulus"":""img/green_ll/8.jpg"",""time"":405},{""stimulus"":""img/green_ll/9.jpg"",""time"":452},{""stimulus"":""img/green_ll/10.jpg"",""time"":514},{""stimulus"":""img/green_ll/11.jpg"",""time"":560}]","[]"
"image-keyboard-response","160","166112","0.0-5.0-1.78","5d69d7e23aed95001b1aa05c","bdp_lott","Sat Apr 15 2023 17:12:58 GMT-0400 (Eastern Daylight Time)","379416","red","green","","439","","","","choice","","img/green_ll/choose11.jpg","1","147","green","0.5","0.1","0.1","l","",""
"animation","161","166727","0.0-5.0-2.78","5d69d7e23aed95001b1aa05c","bdp_lott","Sat Apr 15 2023 17:12:58 GMT-0400 (Eastern Daylight Time)","379416","red","green","","","","","","","","","","147","","","","","","[{""stimulus"":""img/green_ll/1.jpg"",""time"":58},{""stimulus"":""img/green_ll/2.jpg"",""time"":101},{""stimulus"":""img/green_ll/3.jpg"",""time"":166},{""stimulus"":""img/green_ll/4.jpg"",""time"":212},{""stimulus"":""img/green_ll/5.jpg"",""time"":259},{""stimulus"":""img/green_ll/6.jpg"",""time"":301},{""stimulus"":""img/green_ll/7.jpg"",""time"":351},{""stimulus"":""img/green_ll/8.jpg"",""time"":415},{""stimulus"":""img/green_ll/9.jpg"",""time"":461},{""stimulus"":""img/green_ll/10.jpg"",""time"":508},{""stimulus"":""img/green_ll/11.jpg"",""time"":554}]","[]"
"image-keyboard-response","162","167200","0.0-5.0-1.79","5d69d7e23aed95001b1aa05c","bdp_lott","Sat Apr 15 2023 17:12:58 GMT-0400 (Eastern Daylight Time)","379416","red","green","","472","","","","choice","","img/green_ll/choose11.jpg","1","146","green","0.5","0.1","0.1","l","",""
"animation","163","167803","0.0-5.0-2.79","5d69d7e23aed95001b1aa05c","bdp_lott","Sat Apr 15 2023 17:12:58 GMT-0400 (Eastern Daylight Time)","379416","red","green","","","","","","","","","","146","","","","","","[{""stimulus"":""img/green_ll/1.jpg"",""time"":59},{""stimulus"":""img/green_ll/2.jpg"",""time"":102},{""stimulus"":""img/green_ll/3.jpg"",""time"":152},{""stimulus"":""img/green_ll/4.jpg"",""time"":215},{""stimulus"":""img/green_ll/5.jpg"",""time"":261},{""stimulus"":""img/green_ll/6.jpg"",""time"":308},{""stimulus"":""img/green_ll/7.jpg"",""time"":353},{""stimulus"":""img/green_ll/8.jpg"",""time"":416},{""stimulus"":""img/green_ll/9.jpg"",""time"":462},{""stimulus"":""img/green_ll/10.jpg"",""time"":510},{""stimulus"":""img/green_ll/11.jpg"",""time"":556}]","[]"
"image-keyboard-response","164","168519","0.0-5.0-1.80","5d69d7e23aed95001b1aa05c","bdp_lott","Sat Apr 15 2023 17:12:58 GMT-0400 (Eastern Daylight Time)","379416","red","green","","714","","","","choice","","img/green_ll/choose11.jpg","1","145","green","0.5","0.1","0.1","l","",""
"animation","165","169123","0.0-5.0-2.80","5d69d7e23aed95001b1aa05c","bdp_lott","Sat Apr 15 2023 17:12:58 GMT-0400 (Eastern Daylight Time)","379416","red","green","","","","","","","","","","145","","","","","","[{""stimulus"":""img/green_ll/1.jpg"",""time"":50},{""stimulus"":""img/green_ll/2.jpg"",""time"":107},{""stimulus"":""img/green_ll/3.jpg"",""time"":154},{""stimulus"":""img/green_ll/4.jpg"",""time"":201},{""stimulus"":""img/green_ll/5.jpg"",""time"":264},{""stimulus"":""img/green_ll/6.jpg"",""time"":310},{""stimulus"":""img/green_ll/7.jpg"",""time"":356},{""stimulus"":""img/green_ll/8.jpg"",""time"":400},{""stimulus"":""img/green_ll/9.jpg"",""time"":451},{""stimulus"":""img/green_ll/10.jpg"",""time"":512},{""stimulus"":""img/green_ll/11.jpg"",""time"":558}]","[]"
"image-keyboard-response","166","169447","0.0-5.0-1.81","5d69d7e23aed95001b1aa05c","bdp_lott","Sat Apr 15 2023 17:12:58 GMT-0400 (Eastern Daylight Time)","379416","red","green","","323","","","","choice","","img/green_ll/choose11.jpg","1","144","green","0.5","0.1","0.1","l","",""
"animation","167","170055","0.0-5.0-2.81","5d69d7e23aed95001b1aa05c","bdp_lott","Sat Apr 15 2023 17:12:58 GMT-0400 (Eastern Daylight Time)","379416","red","green","","","","","","","","","","144","","","","","","[{""stimulus"":""img/green_ll/1.jpg"",""time"":66},{""stimulus"":""img/green_ll/2.jpg"",""time"":101},{""stimulus"":""img/green_ll/3.jpg"",""time"":157},{""stimulus"":""img/green_ll/4.jpg"",""time"":204},{""stimulus"":""img/green_ll/5.jpg"",""time"":251},{""stimulus"":""img/green_ll/6.jpg"",""time"":314},{""stimulus"":""img/green_ll/7.jpg"",""time"":359},{""stimulus"":""img/green_ll/8.jpg"",""time"":406},{""stimulus"":""img/green_ll/9.jpg"",""time"":452},{""stimulus"":""img/green_ll/10.jpg"",""time"":516},{""stimulus"":""img/green_ll/11.jpg"",""time"":562}]","[]"
"image-keyboard-response","168","170686","0.0-5.0-1.82","5d69d7e23aed95001b1aa05c","bdp_lott","Sat Apr 15 2023 17:12:58 GMT-0400 (Eastern Daylight Time)","379416","red","green","","631","","","","choice","","img/green_ll/choose11.jpg","1","143","green","0.5","0.1","0.1","l","",""
"animation","169","171298","0.0-5.0-2.82","5d69d7e23aed95001b1aa05c","bdp_lott","Sat Apr 15 2023 17:12:58 GMT-0400 (Eastern Daylight Time)","379416","red","green","","","","","","","","","","143","","","","","","[{""stimulus"":""img/green_ll/1.jpg"",""time"":51},{""stimulus"":""img/green_ll/2.jpg"",""time"":114},{""stimulus"":""img/green_ll/3.jpg"",""time"":160},{""stimulus"":""img/green_ll/4.jpg"",""time"":208},{""stimulus"":""img/green_ll/5.jpg"",""time"":255},{""stimulus"":""img/green_ll/6.jpg"",""time"":302},{""stimulus"":""img/green_ll/7.jpg"",""time"":365},{""stimulus"":""img/green_ll/8.jpg"",""time"":411},{""stimulus"":""img/green_ll/9.jpg"",""time"":457},{""stimulus"":""img/green_ll/10.jpg"",""time"":501},{""stimulus"":""img/green_ll/11.jpg"",""time"":550}]","[]"
"image-keyboard-response","170","171960","0.0-5.0-1.83","5d69d7e23aed95001b1aa05c","bdp_lott","Sat Apr 15 2023 17:12:58 GMT-0400 (Eastern Daylight Time)","379416","red","green","","662","","","","choice","","img/green_ll/choose11.jpg","1","142","green","0.5","0.1","0.1","l","",""
"animation","171","172573","0.0-5.0-2.83","5d69d7e23aed95001b1aa05c","bdp_lott","Sat Apr 15 2023 17:12:58 GMT-0400 (Eastern Daylight Time)","379416","red","green","","","","","","","","","","142","","","","","","[{""stimulus"":""img/green_ll/1.jpg"",""time"":53},{""stimulus"":""img/green_ll/2.jpg"",""time"":101},{""stimulus"":""img/green_ll/3.jpg"",""time"":162},{""stimulus"":""img/green_ll/4.jpg"",""time"":207},{""stimulus"":""img/green_ll/5.jpg"",""time"":256},{""stimulus"":""img/green_ll/6.jpg"",""time"":304},{""stimulus"":""img/green_ll/7.jpg"",""time"":364},{""stimulus"":""img/green_ll/8.jpg"",""time"":410},{""stimulus"":""img/green_ll/9.jpg"",""time"":450},{""stimulus"":""img/green_ll/10.jpg"",""time"":503},{""stimulus"":""img/green_ll/11.jpg"",""time"":565}]","[]"
"image-keyboard-response","172","172991","0.0-5.0-1.84","5d69d7e23aed95001b1aa05c","bdp_lott","Sat Apr 15 2023 17:12:58 GMT-0400 (Eastern Daylight Time)","379416","red","green","","417","","","","choice","","img/green_ll/choose11.jpg","1","141","green","0.5","0.1","0.1","l","",""
"animation","173","173599","0.0-5.0-2.84","5d69d7e23aed95001b1aa05c","bdp_lott","Sat Apr 15 2023 17:12:58 GMT-0400 (Eastern Daylight Time)","379416","red","green","","","","","","","","","","141","","","","","","[{""stimulus"":""img/green_ll/1.jpg"",""time"":64},{""stimulus"":""img/green_ll/2.jpg"",""time"":101},{""stimulus"":""img/green_ll/3.jpg"",""time"":158},{""stimulus"":""img/green_ll/4.jpg"",""time"":202},{""stimulus"":""img/green_ll/5.jpg"",""time"":252},{""stimulus"":""img/green_ll/6.jpg"",""time"":314},{""stimulus"":""img/green_ll/7.jpg"",""time"":360},{""stimulus"":""img/green_ll/8.jpg"",""time"":406},{""stimulus"":""img/green_ll/9.jpg"",""time"":452},{""stimulus"":""img/green_ll/10.jpg"",""time"":513},{""stimulus"":""img/green_ll/11.jpg"",""time"":550}]","[]"
"image-keyboard-response","174","174040","0.0-5.0-1.85","5d69d7e23aed95001b1aa05c","bdp_lott","Sat Apr 15 2023 17:12:58 GMT-0400 (Eastern Daylight Time)","379416","red","green","","440","","","","choice","","img/green_ll/choose11.jpg","1","140","green","0.5","0.1","0.1","l","",""
"animation","175","174655","0.0-5.0-2.85","5d69d7e23aed95001b1aa05c","bdp_lott","Sat Apr 15 2023 17:12:58 GMT-0400 (Eastern Daylight Time)","379416","red","green","","","","","","","","","","140","","","","","","[{""stimulus"":""img/green_ll/1.jpg"",""time"":57},{""stimulus"":""img/green_ll/2.jpg"",""time"":104},{""stimulus"":""img/green_ll/3.jpg"",""time"":165},{""stimulus"":""img/green_ll/4.jpg"",""time"":211},{""stimulus"":""img/green_ll/5.jpg"",""time"":256},{""stimulus"":""img/green_ll/6.jpg"",""time"":301},{""stimulus"":""img/green_ll/7.jpg"",""time"":365},{""stimulus"":""img/green_ll/8.jpg"",""time"":412},{""stimulus"":""img/green_ll/9.jpg"",""time"":459},{""stimulus"":""img/green_ll/10.jpg"",""time"":506},{""stimulus"":""img/green_ll/11.jpg"",""time"":553}]","[]"
"image-keyboard-response","176","175055","0.0-5.0-1.86","5d69d7e23aed95001b1aa05c","bdp_lott","Sat Apr 15 2023 17:12:58 GMT-0400 (Eastern Daylight Time)","379416","red","green","","399","","","","choice","","img/green_ll/choose11.jpg","1","139","green","0.5","0.1","0.1","l","",""
"animation","177","175664","0.0-5.0-2.86","5d69d7e23aed95001b1aa05c","bdp_lott","Sat Apr 15 2023 17:12:58 GMT-0400 (Eastern Daylight Time)","379416","red","green","","","","","","","","","","139","","","","","","[{""stimulus"":""img/green_ll/1.jpg"",""time"":51},{""stimulus"":""img/green_ll/2.jpg"",""time"":113},{""stimulus"":""img/green_ll/3.jpg"",""time"":159},{""stimulus"":""img/green_ll/4.jpg"",""time"":206},{""stimulus"":""img/green_ll/5.jpg"",""time"":253},{""stimulus"":""img/green_ll/6.jpg"",""time"":316},{""stimulus"":""img/green_ll/7.jpg"",""time"":362},{""stimulus"":""img/green_ll/8.jpg"",""time"":402},{""stimulus"":""img/green_ll/9.jpg"",""time"":455},{""stimulus"":""img/green_ll/10.jpg"",""time"":501},{""stimulus"":""img/green_ll/11.jpg"",""time"":563}]","[]"
"image-keyboard-response","178","176144","0.0-5.0-1.87","5d69d7e23aed95001b1aa05c","bdp_lott","Sat Apr 15 2023 17:12:58 GMT-0400 (Eastern Daylight Time)","379416","red","green","","479","","","","choice","","img/green_ll/choose11.jpg","1","138","green","0.5","0.1","0.1","l","",""
"animation","179","176753","0.0-5.0-2.87","5d69d7e23aed95001b1aa05c","bdp_lott","Sat Apr 15 2023 17:12:58 GMT-0400 (Eastern Daylight Time)","379416","red","green","","","","","","","","","","138","","","","","","[{""stimulus"":""img/green_ll/1.jpg"",""time"":63},{""stimulus"":""img/green_ll/2.jpg"",""time"":100},{""stimulus"":""img/green_ll/3.jpg"",""time"":156},{""stimulus"":""img/green_ll/4.jpg"",""time"":203},{""stimulus"":""img/green_ll/5.jpg"",""time"":266},{""stimulus"":""img/green_ll/6.jpg"",""time"":312},{""stimulus"":""img/green_ll/7.jpg"",""time"":357},{""stimulus"":""img/green_ll/8.jpg"",""time"":401},{""stimulus"":""img/green_ll/9.jpg"",""time"":452},{""stimulus"":""img/green_ll/10.jpg"",""time"":515},{""stimulus"":""img/green_ll/11.jpg"",""time"":562}]","[]"
"image-keyboard-response","180","177881","0.0-5.0-1.88","5d69d7e23aed95001b1aa05c","bdp_lott","Sat Apr 15 2023 17:12:58 GMT-0400 (Eastern Daylight Time)","379416","red","green","","1128","","","","choice","","img/green_ll/choose11.jpg","1","137","green","0.5","0.1","0.1","l","",""
"animation","181","178487","0.0-5.0-2.88","5d69d7e23aed95001b1aa05c","bdp_lott","Sat Apr 15 2023 17:12:58 GMT-0400 (Eastern Daylight Time)","379416","red","green","","","","","","","","","","137","","","","","","[{""stimulus"":""img/green_ll/1.jpg"",""time"":52},{""stimulus"":""img/green_ll/2.jpg"",""time"":100},{""stimulus"":""img/green_ll/3.jpg"",""time"":154},{""stimulus"":""img/green_ll/4.jpg"",""time"":201},{""stimulus"":""img/green_ll/5.jpg"",""time"":264},{""stimulus"":""img/green_ll/6.jpg"",""time"":310},{""stimulus"":""img/green_ll/7.jpg"",""time"":351},{""stimulus"":""img/green_ll/8.jpg"",""time"":401},{""stimulus"":""img/green_ll/9.jpg"",""time"":451},{""stimulus"":""img/green_ll/10.jpg"",""time"":512},{""stimulus"":""img/green_ll/11.jpg"",""time"":560}]","[]"
"image-keyboard-response","182","178906","0.0-5.0-1.89","5d69d7e23aed95001b1aa05c","bdp_lott","Sat Apr 15 2023 17:12:58 GMT-0400 (Eastern Daylight Time)","379416","red","green","","418","","","","choice","","img/green_ll/choose11.jpg","1","136","green","0.5","0.1","0.1","l","",""
"animation","183","179512","0.0-5.0-2.89","5d69d7e23aed95001b1aa05c","bdp_lott","Sat Apr 15 2023 17:12:58 GMT-0400 (Eastern Daylight Time)","379416","red","green","","","","","","","","","","136","","","","","","[{""stimulus"":""img/green_ll/1.jpg"",""time"":51},{""stimulus"":""img/green_ll/2.jpg"",""time"":100},{""stimulus"":""img/green_ll/3.jpg"",""time"":160},{""stimulus"":""img/green_ll/4.jpg"",""time"":206},{""stimulus"":""img/green_ll/5.jpg"",""time"":251},{""stimulus"":""img/green_ll/6.jpg"",""time"":316},{""stimulus"":""img/green_ll/7.jpg"",""time"":362},{""stimulus"":""img/green_ll/8.jpg"",""time"":407},{""stimulus"":""img/green_ll/9.jpg"",""time"":454},{""stimulus"":""img/green_ll/10.jpg"",""time"":514},{""stimulus"":""img/green_ll/11.jpg"",""time"":560}]","[]"
"image-keyboard-response","184","180273","0.0-5.0-1.90","5d69d7e23aed95001b1aa05c","bdp_lott","Sat Apr 15 2023 17:12:58 GMT-0400 (Eastern Daylight Time)","379416","red","green","","760","","","","choice","","img/green_ll/choose11.jpg","1","135","green","0.5","0.1","0.1","l","",""
"animation","185","180874","0.0-5.0-2.90","5d69d7e23aed95001b1aa05c","bdp_lott","Sat Apr 15 2023 17:12:58 GMT-0400 (Eastern Daylight Time)","379416","red","green","","","","","","","","","","135","","","","","","[{""stimulus"":""img/green_ll/1.jpg"",""time"":51},{""stimulus"":""img/green_ll/2.jpg"",""time"":109},{""stimulus"":""img/green_ll/3.jpg"",""time"":156},{""stimulus"":""img/green_ll/4.jpg"",""time"":202},{""stimulus"":""img/green_ll/5.jpg"",""time"":264},{""stimulus"":""img/green_ll/6.jpg"",""time"":310},{""stimulus"":""img/green_ll/7.jpg"",""time"":357},{""stimulus"":""img/green_ll/8.jpg"",""time"":401},{""stimulus"":""img/green_ll/9.jpg"",""time"":466},{""stimulus"":""img/green_ll/10.jpg"",""time"":512},{""stimulus"":""img/green_ll/11.jpg"",""time"":559}]","[]"
"image-keyboard-response","186","181376","0.0-5.0-1.91","5d69d7e23aed95001b1aa05c","bdp_lott","Sat Apr 15 2023 17:12:58 GMT-0400 (Eastern Daylight Time)","379416","red","green","","501","","","","choice","","img/green_ll/choose11.jpg","1","134","green","0.5","0.1","0.1","l","",""
"animation","187","181978","0.0-5.0-2.91","5d69d7e23aed95001b1aa05c","bdp_lott","Sat Apr 15 2023 17:12:58 GMT-0400 (Eastern Daylight Time)","379416","red","green","","","","","","","","","","134","","","","","","[{""stimulus"":""img/green_ll/1.jpg"",""time"":52},{""stimulus"":""img/green_ll/2.jpg"",""time"":101},{""stimulus"":""img/green_ll/3.jpg"",""time"":152},{""stimulus"":""img/green_ll/4.jpg"",""time"":204},{""stimulus"":""img/green_ll/5.jpg"",""time"":261},{""stimulus"":""img/green_ll/6.jpg"",""time"":307},{""stimulus"":""img/green_ll/7.jpg"",""time"":354},{""stimulus"":""img/green_ll/8.jpg"",""time"":416},{""stimulus"":""img/green_ll/9.jpg"",""time"":451},{""stimulus"":""img/green_ll/10.jpg"",""time"":509},{""stimulus"":""img/green_ll/11.jpg"",""time"":556}]","[]"
"image-keyboard-response","188","182417","0.0-5.0-1.92","5d69d7e23aed95001b1aa05c","bdp_lott","Sat Apr 15 2023 17:12:58 GMT-0400 (Eastern Daylight Time)","379416","red","green","","439","","","","choice","","img/green_ll/choose11.jpg","1","133","green","0.5","0.1","0.1","l","",""
"animation","189","183019","0.0-5.0-2.92","5d69d7e23aed95001b1aa05c","bdp_lott","Sat Apr 15 2023 17:12:58 GMT-0400 (Eastern Daylight Time)","379416","red","green","","","","","","","","","","133","","","","","","[{""stimulus"":""img/green_ll/1.jpg"",""time"":58},{""stimulus"":""img/green_ll/2.jpg"",""time"":104},{""stimulus"":""img/green_ll/3.jpg"",""time"":152},{""stimulus"":""img/green_ll/4.jpg"",""time"":212},{""stimulus"":""img/green_ll/5.jpg"",""time"":259},{""stimulus"":""img/green_ll/6.jpg"",""time"":306},{""stimulus"":""img/green_ll/7.jpg"",""time"":353},{""stimulus"":""img/green_ll/8.jpg"",""time"":416},{""stimulus"":""img/green_ll/9.jpg"",""time"":462},{""stimulus"":""img/green_ll/10.jpg"",""time"":508},{""stimulus"":""img/green_ll/11.jpg"",""time"":555}]","[]"
"image-keyboard-response","190","184503","0.0-5.0-1.93","5d69d7e23aed95001b1aa05c","bdp_lott","Sat Apr 15 2023 17:12:58 GMT-0400 (Eastern Daylight Time)","379416","red","green","","1484","","","","choice","","img/green_ll/choose11.jpg","1","132","green","0.5","0.1","0.1","l","",""
