"trial_type","trial_index","time_elapsed","internal_node_id","subject_id","task","startTime","totalTime","fairMachine","unfairMachine","view_history","rt","event","trial","time","trialtype","success","stimulus","key_press","roundsLeft","chosen","pFairMachWin","pUnfairMachWin","pTrialWin","outcome","animation_sequence","responses"
"pavlovia","0","11","0.0-0.0","580777dd827ca10001db494b","bdp_lott","Sun Mar 26 2023 01:54:12 GMT-0400 (Eastern Daylight Time)","317993","green","red","","","","","","","","","","","","","","","","",""
"instructions","1","4231","0.0-1.0","580777dd827ca10001db494b","bdp_lott","Sun Mar 26 2023 01:54:12 GMT-0400 (Eastern Daylight Time)","317993","green","red","[{""page_index"":0,""viewing_time"":4217}]","4218","","","","","","","","","","","","","","",""
"","","","","580777dd827ca10001db494b","bdp_lott","Sun Mar 26 2023 01:54:12 GMT-0400 (Eastern Daylight Time)","317993","green","red","","","fullscreenenter","2","8358","fullscreenenter","","","","","","","","","","",""
"fullscreen","2","9314","0.0-2.0","580777dd827ca10001db494b","bdp_lott","Sun Mar 26 2023 01:54:12 GMT-0400 (Eastern Daylight Time)","317993","green","red","","","","","","","true","","","","","","","","","",""
"instructions","3","29930","0.0-4.0","580777dd827ca10001db494b","bdp_lott","Sun Mar 26 2023 01:54:12 GMT-0400 (Eastern Daylight Time)","317993","green","red","[{""page_index"":0,""viewing_time"":20606}]","20606","","","","","","","","","","","","","","",""
"image-keyboard-response","4","31513","0.0-5.0-1.0","580777dd827ca10001db494b","bdp_lott","Sun Mar 26 2023 01:54:12 GMT-0400 (Eastern Daylight Time)","317993","green","red","","1578","","","","choice","","img/red_ll/initchoose11.jpg","1","225","green","0.5","0.5","0.5","l","",""
"animation","5","32115","0.0-5.0-2.0","580777dd827ca10001db494b","bdp_lott","Sun Mar 26 2023 01:54:12 GMT-0400 (Eastern Daylight Time)","317993","green","red","","","","","","","","","","225","","","","","","[{""stimulus"":""img/green_ll/1.jpg"",""time"":52},{""stimulus"":""img/green_ll/2.jpg"",""time"":102},{""stimulus"":""img/green_ll/3.jpg"",""time"":152},{""stimulus"":""img/green_ll/4.jpg"",""time"":204},{""stimulus"":""img/green_ll/5.jpg"",""time"":251},{""stimulus"":""img/green_ll/6.jpg"",""time"":302},{""stimulus"":""img/green_ll/7.jpg"",""time"":351},{""stimulus"":""img/green_ll/8.jpg"",""time"":401},{""stimulus"":""img/green_ll/9.jpg"",""time"":452},{""stimulus"":""img/green_ll/10.jpg"",""time"":502},{""stimulus"":""img/green_ll/11.jpg"",""time"":555}]","[]"
"image-keyboard-response","6","33143","0.0-5.0-1.1","580777dd827ca10001db494b","bdp_lott","Sun Mar 26 2023 01:54:12 GMT-0400 (Eastern Daylight Time)","317993","green","red","","1026","","","","choice","","img/green_ll/choose11.jpg","2","224","red","0.5","0.5","0.5","l","",""
"animation","7","33745","0.0-5.0-2.1","580777dd827ca10001db494b","bdp_lott","Sun Mar 26 2023 01:54:12 GMT-0400 (Eastern Daylight Time)","317993","green","red","","","","","","","","","","224","","","","","","[{""stimulus"":""img/red_ll/1.jpg"",""time"":52},{""stimulus"":""img/red_ll/2.jpg"",""time"":102},{""stimulus"":""img/red_ll/3.jpg"",""time"":151},{""stimulus"":""img/red_ll/4.jpg"",""time"":201},{""stimulus"":""img/red_ll/5.jpg"",""time"":251},{""stimulus"":""img/red_ll/6.jpg"",""time"":301},{""stimulus"":""img/red_ll/7.jpg"",""time"":351},{""stimulus"":""img/red_ll/8.jpg"",""time"":401},{""stimulus"":""img/red_ll/9.jpg"",""time"":451},{""stimulus"":""img/red_ll/10.jpg"",""time"":501},{""stimulus"":""img/red_ll/11.jpg"",""time"":551}]","[]"
"image-keyboard-response","8","36077","0.0-5.0-1.2","580777dd827ca10001db494b","bdp_lott","Sun Mar 26 2023 01:54:12 GMT-0400 (Eastern Daylight Time)","317993","green","red","","2328","","","","choice","","img/red_ll/choose11.jpg","2","223","red","0.5","0.5","0.5","l","",""
"animation","9","36682","0.0-5.0-2.2","580777dd827ca10001db494b","bdp_lott","Sun Mar 26 2023 01:54:12 GMT-0400 (Eastern Daylight Time)","317993","green","red","","","","","","","","","","223","","","","","","[{""stimulus"":""img/red_ll/1.jpg"",""time"":51},{""stimulus"":""img/red_ll/2.jpg"",""time"":101},{""stimulus"":""img/red_ll/3.jpg"",""time"":151},{""stimulus"":""img/red_ll/4.jpg"",""time"":200},{""stimulus"":""img/red_ll/5.jpg"",""time"":250},{""stimulus"":""img/red_ll/6.jpg"",""time"":300},{""stimulus"":""img/red_ll/7.jpg"",""time"":351},{""stimulus"":""img/red_ll/8.jpg"",""time"":401},{""stimulus"":""img/red_ll/9.jpg"",""time"":451},{""stimulus"":""img/red_ll/10.jpg"",""time"":501},{""stimulus"":""img/red_ll/11.jpg"",""time"":550}]","[]"
"image-keyboard-response","10","39037","0.0-5.0-1.3","580777dd827ca10001db494b","bdp_lott","Sun Mar 26 2023 01:54:12 GMT-0400 (Eastern Daylight Time)","317993","green","red","","2354","","","","choice","","img/red_ll/choose11.jpg","2","222","red","0.5","0.5","0.5","w","",""
"animation","11","39639","0.0-5.0-2.3","580777dd827ca10001db494b","bdp_lott","Sun Mar 26 2023 01:54:12 GMT-0400 (Eastern Daylight Time)","317993","green","red","","","","","","","","","","222","","","","","","[{""stimulus"":""img/red_lw/1.jpg"",""time"":51},{""stimulus"":""img/red_lw/2.jpg"",""time"":101},{""stimulus"":""img/red_lw/3.jpg"",""time"":151},{""stimulus"":""img/red_lw/4.jpg"",""time"":201},{""stimulus"":""img/red_lw/5.jpg"",""time"":252},{""stimulus"":""img/red_lw/6.jpg"",""time"":301},{""stimulus"":""img/red_lw/7.jpg"",""time"":351},{""stimulus"":""img/red_lw/8.jpg"",""time"":401},{""stimulus"":""img/red_lw/9.jpg"",""time"":451},{""stimulus"":""img/red_lw/10.jpg"",""time"":501},{""stimulus"":""img/red_lw/11.jpg"",""time"":551}]","[]"
"image-keyboard-response","12","40777","0.0-5.0-1.4","580777dd827ca10001db494b","bdp_lott","Sun Mar 26 2023 01:54:12 GMT-0400 (Eastern Daylight Time)","317993","green","red","","1135","","","","choice","","img/red_lw/choose11.jpg","2","221","red","0.5","0.5","0.5","l","",""
"animation","13","41379","0.0-5.0-2.4","580777dd827ca10001db494b","bdp_lott","Sun Mar 26 2023 01:54:12 GMT-0400 (Eastern Daylight Time)","317993","green","red","","","","","","","","","","221","","","","","","[{""stimulus"":""img/red_ll/1.jpg"",""time"":52},{""stimulus"":""img/red_ll/2.jpg"",""time"":101},{""stimulus"":""img/red_ll/3.jpg"",""time"":151},{""stimulus"":""img/red_ll/4.jpg"",""time"":201},{""stimulus"":""img/red_ll/5.jpg"",""time"":251},{""stimulus"":""img/red_ll/6.jpg"",""time"":301},{""stimulus"":""img/red_ll/7.jpg"",""time"":351},{""stimulus"":""img/red_ll/8.jpg"",""time"":401},{""stimulus"":""img/red_ll/9.jpg"",""time"":452},{""stimulus"":""img/red_ll/10.jpg"",""time"":501},{""stimulus"":""img/red_ll/11.jpg"",""time"":551}]","[]"
"image-keyboard-response","14","41963","0.0-5.0-1.5","580777dd827ca10001db494b","bdp_lott","Sun Mar 26 2023 01:54:12 GMT-0400 (Eastern Daylight Time)","317993","green","red","","583","","","","choice","","img/red_ll/choose11.jpg","1","220","green","0.5","0.5","0.5","l","",""
"animation","15","42564","0.0-5.0-2.5","580777dd827ca10001db494b","bdp_lott","Sun Mar 26 2023 01:54:12 GMT-0400 (Eastern Daylight Time)","317993","green","red","","","","","","","","","","220","","","","","","[{""stimulus"":""img/green_ll/1.jpg"",""time"":51},{""stimulus"":""img/green_ll/2.jpg"",""time"":101},{""stimulus"":""img/green_ll/3.jpg"",""time"":151},{""stimulus"":""img/green_ll/4.jpg"",""time"":201},{""stimulus"":""img/green_ll/5.jpg"",""time"":251},{""stimulus"":""img/green_ll/6.jpg"",""time"":302},{""stimulus"":""img/green_ll/7.jpg"",""time"":351},{""stimulus"":""img/green_ll/8.jpg"",""time"":401},{""stimulus"":""img/green_ll/9.jpg"",""time"":451},{""stimulus"":""img/green_ll/10.jpg"",""time"":501},{""stimulus"":""img/green_ll/11.jpg"",""time"":551}]","[]"
"image-keyboard-response","16","43869","0.0-5.0-1.6","580777dd827ca10001db494b","bdp_lott","Sun Mar 26 2023 01:54:12 GMT-0400 (Eastern Daylight Time)","317993","green","red","","1303","","","","choice","","img/green_ll/choose11.jpg","2","219","red","0.5","0.5","0.5","w","",""
"animation","17","44471","0.0-5.0-2.6","580777dd827ca10001db494b","bdp_lott","Sun Mar 26 2023 01:54:12 GMT-0400 (Eastern Daylight Time)","317993","green","red","","","","","","","","","","219","","","","","","[{""stimulus"":""img/red_lw/1.jpg"",""time"":51},{""stimulus"":""img/red_lw/2.jpg"",""time"":101},{""stimulus"":""img/red_lw/3.jpg"",""time"":152},{""stimulus"":""img/red_lw/4.jpg"",""time"":202},{""stimulus"":""img/red_lw/5.jpg"",""time"":252},{""stimulus"":""img/red_lw/6.jpg"",""time"":301},{""stimulus"":""img/red_lw/7.jpg"",""time"":352},{""stimulus"":""img/red_lw/8.jpg"",""time"":402},{""stimulus"":""img/red_lw/9.jpg"",""time"":451},{""stimulus"":""img/red_lw/10.jpg"",""time"":502},{""stimulus"":""img/red_lw/11.jpg"",""time"":551}]","[]"
"image-keyboard-response","18","45562","0.0-5.0-1.7","580777dd827ca10001db494b","bdp_lott","Sun Mar 26 2023 01:54:12 GMT-0400 (Eastern Daylight Time)","317993","green","red","","1089","","","","choice","","img/red_lw/choose11.jpg","2","218","red","0.5","0.5","0.5","w","",""
"animation","19","46164","0.0-5.0-2.7","580777dd827ca10001db494b","bdp_lott","Sun Mar 26 2023 01:54:12 GMT-0400 (Eastern Daylight Time)","317993","green","red","","","","","","","","","","218","","","","","","[{""stimulus"":""img/red_lw/1.jpg"",""time"":51},{""stimulus"":""img/red_lw/2.jpg"",""time"":102},{""stimulus"":""img/red_lw/3.jpg"",""time"":151},{""stimulus"":""img/red_lw/4.jpg"",""time"":201},{""stimulus"":""img/red_lw/5.jpg"",""time"":251},{""stimulus"":""img/red_lw/6.jpg"",""time"":301},{""stimulus"":""img/red_lw/7.jpg"",""time"":352},{""stimulus"":""img/red_lw/8.jpg"",""time"":402},{""stimulus"":""img/red_lw/9.jpg"",""time"":452},{""stimulus"":""img/red_lw/10.jpg"",""time"":502},{""stimulus"":""img/red_lw/11.jpg"",""time"":551}]","[]"
"image-keyboard-response","20","47177","0.0-5.0-1.8","580777dd827ca10001db494b","bdp_lott","Sun Mar 26 2023 01:54:12 GMT-0400 (Eastern Daylight Time)","317993","green","red","","1012","","","","choice","","img/red_lw/choose11.jpg","2","217","red","0.5","0.5","0.5","l","",""
"animation","21","47778","0.0-5.0-2.8","580777dd827ca10001db494b","bdp_lott","Sun Mar 26 2023 01:54:12 GMT-0400 (Eastern Daylight Time)","317993","green","red","","","","","","","","","","217","","","","","","[{""stimulus"":""img/red_ll/1.jpg"",""time"":51},{""stimulus"":""img/red_ll/2.jpg"",""time"":101},{""stimulus"":""img/red_ll/3.jpg"",""time"":150},{""stimulus"":""img/red_ll/4.jpg"",""time"":200},{""stimulus"":""img/red_ll/5.jpg"",""time"":251},{""stimulus"":""img/red_ll/6.jpg"",""time"":301},{""stimulus"":""img/red_ll/7.jpg"",""time"":350},{""stimulus"":""img/red_ll/8.jpg"",""time"":400},{""stimulus"":""img/red_ll/9.jpg"",""time"":450},{""stimulus"":""img/red_ll/10.jpg"",""time"":501},{""stimulus"":""img/red_ll/11.jpg"",""time"":550}]","[]"
"image-keyboard-response","22","48305","0.0-5.0-1.9","580777dd827ca10001db494b","bdp_lott","Sun Mar 26 2023 01:54:12 GMT-0400 (Eastern Daylight Time)","317993","green","red","","525","","","","choice","","img/red_ll/choose11.jpg","1","216","green","0.5","0.5","0.5","w","",""
"animation","23","48906","0.0-5.0-2.9","580777dd827ca10001db494b","bdp_lott","Sun Mar 26 2023 01:54:12 GMT-0400 (Eastern Daylight Time)","317993","green","red","","","","","","","","","","216","","","","","","[{""stimulus"":""img/green_wl/1.jpg"",""time"":51},{""stimulus"":""img/green_wl/2.jpg"",""time"":101},{""stimulus"":""img/green_wl/3.jpg"",""time"":150},{""stimulus"":""img/green_wl/4.jpg"",""time"":201},{""stimulus"":""img/green_wl/5.jpg"",""time"":251},{""stimulus"":""img/green_wl/6.jpg"",""time"":301},{""stimulus"":""img/green_wl/7.jpg"",""time"":351},{""stimulus"":""img/green_wl/8.jpg"",""time"":401},{""stimulus"":""img/green_wl/9.jpg"",""time"":451},{""stimulus"":""img/green_wl/10.jpg"",""time"":501},{""stimulus"":""img/green_wl/11.jpg"",""time"":551}]","[]"
"image-keyboard-response","24","50251","0.0-5.0-1.10","580777dd827ca10001db494b","bdp_lott","Sun Mar 26 2023 01:54:12 GMT-0400 (Eastern Daylight Time)","317993","green","red","","1343","","","","choice","","img/green_wl/choose11.jpg","2","215","red","0.5","0.5","0.5","w","",""
"animation","25","50852","0.0-5.0-2.10","580777dd827ca10001db494b","bdp_lott","Sun Mar 26 2023 01:54:12 GMT-0400 (Eastern Daylight Time)","317993","green","red","","","","","","","","","","215","","","","","","[{""stimulus"":""img/red_ww/1.jpg"",""time"":52},{""stimulus"":""img/red_ww/2.jpg"",""time"":101},{""stimulus"":""img/red_ww/3.jpg"",""time"":152},{""stimulus"":""img/red_ww/4.jpg"",""time"":201},{""stimulus"":""img/red_ww/5.jpg"",""time"":251},{""stimulus"":""img/red_ww/6.jpg"",""time"":302},{""stimulus"":""img/red_ww/7.jpg"",""time"":352},{""stimulus"":""img/red_ww/8.jpg"",""time"":401},{""stimulus"":""img/red_ww/9.jpg"",""time"":452},{""stimulus"":""img/red_ww/10.jpg"",""time"":501},{""stimulus"":""img/red_ww/11.jpg"",""time"":552}]","[]"
"image-keyboard-response","26","51806","0.0-5.0-1.11","580777dd827ca10001db494b","bdp_lott","Sun Mar 26 2023 01:54:12 GMT-0400 (Eastern Daylight Time)","317993","green","red","","953","","","","choice","","img/red_ww/choose11.jpg","1","214","green","0.5","0.5","0.5","w","",""
"animation","27","52413","0.0-5.0-2.11","580777dd827ca10001db494b","bdp_lott","Sun Mar 26 2023 01:54:12 GMT-0400 (Eastern Daylight Time)","317993","green","red","","","","","","","","","","214","","","","","","[{""stimulus"":""img/green_ww/1.jpg"",""time"":51},{""stimulus"":""img/green_ww/2.jpg"",""time"":102},{""stimulus"":""img/green_ww/3.jpg"",""time"":152},{""stimulus"":""img/green_ww/4.jpg"",""time"":201},{""stimulus"":""img/green_ww/5.jpg"",""time"":251},{""stimulus"":""img/green_ww/6.jpg"",""time"":301},{""stimulus"":""img/green_ww/7.jpg"",""time"":352},{""stimulus"":""img/green_ww/8.jpg"",""time"":401},{""stimulus"":""img/green_ww/9.jpg"",""time"":451},{""stimulus"":""img/green_ww/10.jpg"",""time"":501},{""stimulus"":""img/green_ww/11.jpg"",""time"":551}]","[]"
"image-keyboard-response","28","53121","0.0-5.0-1.12","580777dd827ca10001db494b","bdp_lott","Sun Mar 26 2023 01:54:12 GMT-0400 (Eastern Daylight Time)","317993","green","red","","707","","","","choice","","img/green_ww/choose11.jpg","2","213","red","0.5","0.5","0.5","w","",""
"animation","29","53723","0.0-5.0-2.12","580777dd827ca10001db494b","bdp_lott","Sun Mar 26 2023 01:54:12 GMT-0400 (Eastern Daylight Time)","317993","green","red","","","","","","","","","","213","","","","","","[{""stimulus"":""img/red_ww/1.jpg"",""time"":52},{""stimulus"":""img/red_ww/2.jpg"",""time"":102},{""stimulus"":""img/red_ww/3.jpg"",""time"":152},{""stimulus"":""img/red_ww/4.jpg"",""time"":202},{""stimulus"":""img/red_ww/5.jpg"",""time"":252},{""stimulus"":""img/red_ww/6.jpg"",""time"":302},{""stimulus"":""img/red_ww/7.jpg"",""time"":352},{""stimulus"":""img/red_ww/8.jpg"",""time"":402},{""stimulus"":""img/red_ww/9.jpg"",""time"":452},{""stimulus"":""img/red_ww/10.jpg"",""time"":505},{""stimulus"":""img/red_ww/11.jpg"",""time"":551}]","[]"
"image-keyboard-response","30","54436","0.0-5.0-1.13","580777dd827ca10001db494b","bdp_lott","Sun Mar 26 2023 01:54:12 GMT-0400 (Eastern Daylight Time)","317993","green","red","","712","","","","choice","","img/red_ww/choose11.jpg","1","212","green","0.5","0.5","0.5","w","",""
"animation","31","55037","0.0-5.0-2.13","580777dd827ca10001db494b","bdp_lott","Sun Mar 26 2023 01:54:12 GMT-0400 (Eastern Daylight Time)","317993","green","red","","","","","","","","","","212","","","","","","[{""stimulus"":""img/green_ww/1.jpg"",""time"":51},{""stimulus"":""img/green_ww/2.jpg"",""time"":101},{""stimulus"":""img/green_ww/3.jpg"",""time"":151},{""stimulus"":""img/green_ww/4.jpg"",""time"":201},{""stimulus"":""img/green_ww/5.jpg"",""time"":251},{""stimulus"":""img/green_ww/6.jpg"",""time"":301},{""stimulus"":""img/green_ww/7.jpg"",""time"":351},{""stimulus"":""img/green_ww/8.jpg"",""time"":401},{""stimulus"":""img/green_ww/9.jpg"",""time"":451},{""stimulus"":""img/green_ww/10.jpg"",""time"":501},{""stimulus"":""img/green_ww/11.jpg"",""time"":551}]","[]"
"image-keyboard-response","32","55727","0.0-5.0-1.14","580777dd827ca10001db494b","bdp_lott","Sun Mar 26 2023 01:54:12 GMT-0400 (Eastern Daylight Time)","317993","green","red","","688","","","","choice","","img/green_ww/choose11.jpg","2","211","red","0.5","0.5","0.5","l","",""
"animation","33","56328","0.0-5.0-2.14","580777dd827ca10001db494b","bdp_lott","Sun Mar 26 2023 01:54:12 GMT-0400 (Eastern Daylight Time)","317993","green","red","","","","","","","","","","211","","","","","","[{""stimulus"":""img/red_wl/1.jpg"",""time"":52},{""stimulus"":""img/red_wl/2.jpg"",""time"":101},{""stimulus"":""img/red_wl/3.jpg"",""time"":151},{""stimulus"":""img/red_wl/4.jpg"",""time"":201},{""stimulus"":""img/red_wl/5.jpg"",""time"":251},{""stimulus"":""img/red_wl/6.jpg"",""time"":301},{""stimulus"":""img/red_wl/7.jpg"",""time"":351},{""stimulus"":""img/red_wl/8.jpg"",""time"":401},{""stimulus"":""img/red_wl/9.jpg"",""time"":451},{""stimulus"":""img/red_wl/10.jpg"",""time"":501},{""stimulus"":""img/red_wl/11.jpg"",""time"":551}]","[]"
"image-keyboard-response","34","57177","0.0-5.0-1.15","580777dd827ca10001db494b","bdp_lott","Sun Mar 26 2023 01:54:12 GMT-0400 (Eastern Daylight Time)","317993","green","red","","847","","","","choice","","img/red_wl/choose11.jpg","2","210","red","0.5","0.5","0.5","l","",""
"animation","35","57779","0.0-5.0-2.15","580777dd827ca10001db494b","bdp_lott","Sun Mar 26 2023 01:54:12 GMT-0400 (Eastern Daylight Time)","317993","green","red","","","","","","","","","","210","","","","","","[{""stimulus"":""img/red_wl/1.jpg"",""time"":52},{""stimulus"":""img/red_wl/2.jpg"",""time"":101},{""stimulus"":""img/red_wl/3.jpg"",""time"":152},{""stimulus"":""img/red_wl/4.jpg"",""time"":202},{""stimulus"":""img/red_wl/5.jpg"",""time"":251},{""stimulus"":""img/red_wl/6.jpg"",""time"":302},{""stimulus"":""img/red_wl/7.jpg"",""time"":352},{""stimulus"":""img/red_wl/8.jpg"",""time"":401},{""stimulus"":""img/red_wl/9.jpg"",""time"":452},{""stimulus"":""img/red_wl/10.jpg"",""time"":502},{""stimulus"":""img/red_wl/11.jpg"",""time"":552}]","[]"
"image-keyboard-response","36","58663","0.0-5.0-1.16","580777dd827ca10001db494b","bdp_lott","Sun Mar 26 2023 01:54:12 GMT-0400 (Eastern Daylight Time)","317993","green","red","","882","","","","choice","","img/red_wl/choose11.jpg","1","209","green","0.5","0.5","0.5","l","",""
"animation","37","59264","0.0-5.0-2.16","580777dd827ca10001db494b","bdp_lott","Sun Mar 26 2023 01:54:12 GMT-0400 (Eastern Daylight Time)","317993","green","red","","","","","","","","","","209","","","","","","[{""stimulus"":""img/green_ll/1.jpg"",""time"":51},{""stimulus"":""img/green_ll/2.jpg"",""time"":101},{""stimulus"":""img/green_ll/3.jpg"",""time"":151},{""stimulus"":""img/green_ll/4.jpg"",""time"":201},{""stimulus"":""img/green_ll/5.jpg"",""time"":251},{""stimulus"":""img/green_ll/6.jpg"",""time"":301},{""stimulus"":""img/green_ll/7.jpg"",""time"":350},{""stimulus"":""img/green_ll/8.jpg"",""time"":401},{""stimulus"":""img/green_ll/9.jpg"",""time"":450},{""stimulus"":""img/green_ll/10.jpg"",""time"":500},{""stimulus"":""img/green_ll/11.jpg"",""time"":551}]","[]"
"image-keyboard-response","38","59935","0.0-5.0-1.17","580777dd827ca10001db494b","bdp_lott","Sun Mar 26 2023 01:54:12 GMT-0400 (Eastern Daylight Time)","317993","green","red","","668","","","","choice","","img/green_ll/choose11.jpg","1","208","green","0.5","0.5","0.5","l","",""
"animation","39","60536","0.0-5.0-2.17","580777dd827ca10001db494b","bdp_lott","Sun Mar 26 2023 01:54:12 GMT-0400 (Eastern Daylight Time)","317993","green","red","","","","","","","","","","208","","","","","","[{""stimulus"":""img/green_ll/1.jpg"",""time"":52},{""stimulus"":""img/green_ll/2.jpg"",""time"":101},{""stimulus"":""img/green_ll/3.jpg"",""time"":151},{""stimulus"":""img/green_ll/4.jpg"",""time"":201},{""stimulus"":""img/green_ll/5.jpg"",""time"":251},{""stimulus"":""img/green_ll/6.jpg"",""time"":301},{""stimulus"":""img/green_ll/7.jpg"",""time"":351},{""stimulus"":""img/green_ll/8.jpg"",""time"":401},{""stimulus"":""img/green_ll/9.jpg"",""time"":451},{""stimulus"":""img/green_ll/10.jpg"",""time"":501},{""stimulus"":""img/green_ll/11.jpg"",""time"":551}]","[]"
"image-keyboard-response","40","61231","0.0-5.0-1.18","580777dd827ca10001db494b","bdp_lott","Sun Mar 26 2023 01:54:12 GMT-0400 (Eastern Daylight Time)","317993","green","red","","693","","","","choice","","img/green_ll/choose11.jpg","2","207","red","0.5","0.5","0.5","w","",""
"animation","41","61832","0.0-5.0-2.18","580777dd827ca10001db494b","bdp_lott","Sun Mar 26 2023 01:54:12 GMT-0400 (Eastern Daylight Time)","317993","green","red","","","","","","","","","","207","","","","","","[{""stimulus"":""img/red_lw/1.jpg"",""time"":51},{""stimulus"":""img/red_lw/2.jpg"",""time"":101},{""stimulus"":""img/red_lw/3.jpg"",""time"":151},{""stimulus"":""img/red_lw/4.jpg"",""time"":201},{""stimulus"":""img/red_lw/5.jpg"",""time"":251},{""stimulus"":""img/red_lw/6.jpg"",""time"":301},{""stimulus"":""img/red_lw/7.jpg"",""time"":351},{""stimulus"":""img/red_lw/8.jpg"",""time"":401},{""stimulus"":""img/red_lw/9.jpg"",""time"":451},{""stimulus"":""img/red_lw/10.jpg"",""time"":501},{""stimulus"":""img/red_lw/11.jpg"",""time"":551}]","[]"
"image-keyboard-response","42","62520","0.0-5.0-1.19","580777dd827ca10001db494b","bdp_lott","Sun Mar 26 2023 01:54:12 GMT-0400 (Eastern Daylight Time)","317993","green","red","","687","","","","choice","","img/red_lw/choose11.jpg","1","206","green","0.5","0.5","0.5","l","",""
"animation","43","63121","0.0-5.0-2.19","580777dd827ca10001db494b","bdp_lott","Sun Mar 26 2023 01:54:12 GMT-0400 (Eastern Daylight Time)","317993","green","red","","","","","","","","","","206","","","","","","[{""stimulus"":""img/green_lw/1.jpg"",""time"":51},{""stimulus"":""img/green_lw/2.jpg"",""time"":101},{""stimulus"":""img/green_lw/3.jpg"",""time"":151},{""stimulus"":""img/green_lw/4.jpg"",""time"":201},{""stimulus"":""img/green_lw/5.jpg"",""time"":251},{""stimulus"":""img/green_lw/6.jpg"",""time"":301},{""stimulus"":""img/green_lw/7.jpg"",""time"":351},{""stimulus"":""img/green_lw/8.jpg"",""time"":401},{""stimulus"":""img/green_lw/9.jpg"",""time"":451},{""stimulus"":""img/green_lw/10.jpg"",""time"":501},{""stimulus"":""img/green_lw/11.jpg"",""time"":551}]","[]"
"image-keyboard-response","44","63901","0.0-5.0-1.20","580777dd827ca10001db494b","bdp_lott","Sun Mar 26 2023 01:54:12 GMT-0400 (Eastern Daylight Time)","317993","green","red","","778","","","","choice","","img/green_lw/choose11.jpg","1","205","green","0.5","0.5","0.5","w","",""
"animation","45","64502","0.0-5.0-2.20","580777dd827ca10001db494b","bdp_lott","Sun Mar 26 2023 01:54:12 GMT-0400 (Eastern Daylight Time)","317993","green","red","","","","","","","","","","205","","","","","","[{""stimulus"":""img/green_ww/1.jpg"",""time"":52},{""stimulus"":""img/green_ww/2.jpg"",""time"":102},{""stimulus"":""img/green_ww/3.jpg"",""time"":152},{""stimulus"":""img/green_ww/4.jpg"",""time"":202},{""stimulus"":""img/green_ww/5.jpg"",""time"":251},{""stimulus"":""img/green_ww/6.jpg"",""time"":301},{""stimulus"":""img/green_ww/7.jpg"",""time"":351},{""stimulus"":""img/green_ww/8.jpg"",""time"":401},{""stimulus"":""img/green_ww/9.jpg"",""time"":451},{""stimulus"":""img/green_ww/10.jpg"",""time"":501},{""stimulus"":""img/green_ww/11.jpg"",""time"":551}]","[]"
"image-keyboard-response","46","65278","0.0-5.0-1.21","580777dd827ca10001db494b","bdp_lott","Sun Mar 26 2023 01:54:12 GMT-0400 (Eastern Daylight Time)","317993","green","red","","774","","","","choice","","img/green_ww/choose11.jpg","2","204","red","0.5","0.5","0.5","w","",""
"animation","47","65879","0.0-5.0-2.21","580777dd827ca10001db494b","bdp_lott","Sun Mar 26 2023 01:54:12 GMT-0400 (Eastern Daylight Time)","317993","green","red","","","","","","","","","","204","","","","","","[{""stimulus"":""img/red_ww/1.jpg"",""time"":52},{""stimulus"":""img/red_ww/2.jpg"",""time"":101},{""stimulus"":""img/red_ww/3.jpg"",""time"":151},{""stimulus"":""img/red_ww/4.jpg"",""time"":201},{""stimulus"":""img/red_ww/5.jpg"",""time"":252},{""stimulus"":""img/red_ww/6.jpg"",""time"":301},{""stimulus"":""img/red_ww/7.jpg"",""time"":351},{""stimulus"":""img/red_ww/8.jpg"",""time"":401},{""stimulus"":""img/red_ww/9.jpg"",""time"":451},{""stimulus"":""img/red_ww/10.jpg"",""time"":501},{""stimulus"":""img/red_ww/11.jpg"",""time"":551}]","[]"
"image-keyboard-response","48","66564","0.0-5.0-1.22","580777dd827ca10001db494b","bdp_lott","Sun Mar 26 2023 01:54:12 GMT-0400 (Eastern Daylight Time)","317993","green","red","","684","","","","choice","","img/red_ww/choose11.jpg","1","203","green","0.5","0.5","0.5","l","",""
"animation","49","67165","0.0-5.0-2.22","580777dd827ca10001db494b","bdp_lott","Sun Mar 26 2023 01:54:12 GMT-0400 (Eastern Daylight Time)","317993","green","red","","","","","","","","","","203","","","","","","[{""stimulus"":""img/green_lw/1.jpg"",""time"":51},{""stimulus"":""img/green_lw/2.jpg"",""time"":101},{""stimulus"":""img/green_lw/3.jpg"",""time"":151},{""stimulus"":""img/green_lw/4.jpg"",""time"":201},{""stimulus"":""img/green_lw/5.jpg"",""time"":251},{""stimulus"":""img/green_lw/6.jpg"",""time"":301},{""stimulus"":""img/green_lw/7.jpg"",""time"":351},{""stimulus"":""img/green_lw/8.jpg"",""time"":401},{""stimulus"":""img/green_lw/9.jpg"",""time"":451},{""stimulus"":""img/green_lw/10.jpg"",""time"":501},{""stimulus"":""img/green_lw/11.jpg"",""time"":551}]","[]"
"image-keyboard-response","50","68057","0.0-5.0-1.23","580777dd827ca10001db494b","bdp_lott","Sun Mar 26 2023 01:54:12 GMT-0400 (Eastern Daylight Time)","317993","green","red","","890","","","","choice","","img/green_lw/choose11.jpg","1","202","green","0.5","0.5","0.5","w","",""
"animation","51","68659","0.0-5.0-2.23","580777dd827ca10001db494b","bdp_lott","Sun Mar 26 2023 01:54:12 GMT-0400 (Eastern Daylight Time)","317993","green","red","","","","","","","","","","202","","","","","","[{""stimulus"":""img/green_ww/1.jpg"",""time"":52},{""stimulus"":""img/green_ww/2.jpg"",""time"":101},{""stimulus"":""img/green_ww/3.jpg"",""time"":151},{""stimulus"":""img/green_ww/4.jpg"",""time"":201},{""stimulus"":""img/green_ww/5.jpg"",""time"":251},{""stimulus"":""img/green_ww/6.jpg"",""time"":301},{""stimulus"":""img/green_ww/7.jpg"",""time"":351},{""stimulus"":""img/green_ww/8.jpg"",""time"":401},{""stimulus"":""img/green_ww/9.jpg"",""time"":451},{""stimulus"":""img/green_ww/10.jpg"",""time"":501},{""stimulus"":""img/green_ww/11.jpg"",""time"":551}]","[]"
"image-keyboard-response","52","69328","0.0-5.0-1.24","580777dd827ca10001db494b","bdp_lott","Sun Mar 26 2023 01:54:12 GMT-0400 (Eastern Daylight Time)","317993","green","red","","666","","","","choice","","img/green_ww/choose11.jpg","2","201","red","0.5","0.5","0.5","w","",""
"animation","53","69929","0.0-5.0-2.24","580777dd827ca10001db494b","bdp_lott","Sun Mar 26 2023 01:54:12 GMT-0400 (Eastern Daylight Time)","317993","green","red","","","","","","","","","","201","","","","","","[{""stimulus"":""img/red_ww/1.jpg"",""time"":52},{""stimulus"":""img/red_ww/2.jpg"",""time"":101},{""stimulus"":""img/red_ww/3.jpg"",""time"":151},{""stimulus"":""img/red_ww/4.jpg"",""time"":202},{""stimulus"":""img/red_ww/5.jpg"",""time"":252},{""stimulus"":""img/red_ww/6.jpg"",""time"":302},{""stimulus"":""img/red_ww/7.jpg"",""time"":351},{""stimulus"":""img/red_ww/8.jpg"",""time"":402},{""stimulus"":""img/red_ww/9.jpg"",""time"":451},{""stimulus"":""img/red_ww/10.jpg"",""time"":501},{""stimulus"":""img/red_ww/11.jpg"",""time"":552}]","[]"
"image-keyboard-response","54","70625","0.0-5.0-1.25","580777dd827ca10001db494b","bdp_lott","Sun Mar 26 2023 01:54:12 GMT-0400 (Eastern Daylight Time)","317993","green","red","","689","","","","choice","","img/red_ww/choose11.jpg","1","200","green","0.5","0.5","0.5","w","",""
"animation","55","71226","0.0-5.0-2.25","580777dd827ca10001db494b","bdp_lott","Sun Mar 26 2023 01:54:12 GMT-0400 (Eastern Daylight Time)","317993","green","red","","","","","","","","","","200","","","","","","[{""stimulus"":""img/green_ww/1.jpg"",""time"":51},{""stimulus"":""img/green_ww/2.jpg"",""time"":101},{""stimulus"":""img/green_ww/3.jpg"",""time"":151},{""stimulus"":""img/green_ww/4.jpg"",""time"":201},{""stimulus"":""img/green_ww/5.jpg"",""time"":251},{""stimulus"":""img/green_ww/6.jpg"",""time"":301},{""stimulus"":""img/green_ww/7.jpg"",""time"":351},{""stimulus"":""img/green_ww/8.jpg"",""time"":401},{""stimulus"":""img/green_ww/9.jpg"",""time"":451},{""stimulus"":""img/green_ww/10.jpg"",""time"":501},{""stimulus"":""img/green_ww/11.jpg"",""time"":551}]","[]"
"image-keyboard-response","56","71864","0.0-5.0-1.26","580777dd827ca10001db494b","bdp_lott","Sun Mar 26 2023 01:54:12 GMT-0400 (Eastern Daylight Time)","317993","green","red","","635","","","","choice","","img/green_ww/choose11.jpg","2","199","red","0.5","0.5","0.5","l","",""
"animation","57","72464","0.0-5.0-2.26","580777dd827ca10001db494b","bdp_lott","Sun Mar 26 2023 01:54:12 GMT-0400 (Eastern Daylight Time)","317993","green","red","","","","","","","","","","199","","","","","","[{""stimulus"":""img/red_wl/1.jpg"",""time"":52},{""stimulus"":""img/red_wl/2.jpg"",""time"":101},{""stimulus"":""img/red_wl/3.jpg"",""time"":152},{""stimulus"":""img/red_wl/4.jpg"",""time"":202},{""stimulus"":""img/red_wl/5.jpg"",""time"":252},{""stimulus"":""img/red_wl/6.jpg"",""time"":301},{""stimulus"":""img/red_wl/7.jpg"",""time"":352},{""stimulus"":""img/red_wl/8.jpg"",""time"":402},{""stimulus"":""img/red_wl/9.jpg"",""time"":452},{""stimulus"":""img/red_wl/10.jpg"",""time"":502},{""stimulus"":""img/red_wl/11.jpg"",""time"":552}]","[]"
"image-keyboard-response","58","73060","0.0-5.0-1.27","580777dd827ca10001db494b","bdp_lott","Sun Mar 26 2023 01:54:12 GMT-0400 (Eastern Daylight Time)","317993","green","red","","595","","","","choice","","img/red_wl/choose11.jpg","2","198","red","0.5","0.5","0.5","l","",""
"animation","59","73662","0.0-5.0-2.27","580777dd827ca10001db494b","bdp_lott","Sun Mar 26 2023 01:54:12 GMT-0400 (Eastern Daylight Time)","317993","green","red","","","","","","","","","","198","","","","","","[{""stimulus"":""img/red_wl/1.jpg"",""time"":52},{""stimulus"":""img/red_wl/2.jpg"",""time"":101},{""stimulus"":""img/red_wl/3.jpg"",""time"":152},{""stimulus"":""img/red_wl/4.jpg"",""time"":201},{""stimulus"":""img/red_wl/5.jpg"",""time"":252},{""stimulus"":""img/red_wl/6.jpg"",""time"":302},{""stimulus"":""img/red_wl/7.jpg"",""time"":352},{""stimulus"":""img/red_wl/8.jpg"",""time"":402},{""stimulus"":""img/red_wl/9.jpg"",""time"":452},{""stimulus"":""img/red_wl/10.jpg"",""time"":502},{""stimulus"":""img/red_wl/11.jpg"",""time"":551}]","[]"
"image-keyboard-response","60","74157","0.0-5.0-1.28","580777dd827ca10001db494b","bdp_lott","Sun Mar 26 2023 01:54:12 GMT-0400 (Eastern Daylight Time)","317993","green","red","","493","","","","choice","","img/red_wl/choose11.jpg","2","197","red","0.5","0.5","0.5","l","",""
"animation","61","74758","0.0-5.0-2.28","580777dd827ca10001db494b","bdp_lott","Sun Mar 26 2023 01:54:12 GMT-0400 (Eastern Daylight Time)","317993","green","red","","","","","","","","","","197","","","","","","[{""stimulus"":""img/red_wl/1.jpg"",""time"":52},{""stimulus"":""img/red_wl/2.jpg"",""time"":101},{""stimulus"":""img/red_wl/3.jpg"",""time"":151},{""stimulus"":""img/red_wl/4.jpg"",""time"":202},{""stimulus"":""img/red_wl/5.jpg"",""time"":252},{""stimulus"":""img/red_wl/6.jpg"",""time"":302},{""stimulus"":""img/red_wl/7.jpg"",""time"":352},{""stimulus"":""img/red_wl/8.jpg"",""time"":402},{""stimulus"":""img/red_wl/9.jpg"",""time"":452},{""stimulus"":""img/red_wl/10.jpg"",""time"":502},{""stimulus"":""img/red_wl/11.jpg"",""time"":552}]","[]"
"image-keyboard-response","62","75210","0.0-5.0-1.29","580777dd827ca10001db494b","bdp_lott","Sun Mar 26 2023 01:54:12 GMT-0400 (Eastern Daylight Time)","317993","green","red","","450","","","","choice","","img/red_wl/choose11.jpg","1","196","green","0.5","0.5","0.5","l","",""
"animation","63","75811","0.0-5.0-2.29","580777dd827ca10001db494b","bdp_lott","Sun Mar 26 2023 01:54:12 GMT-0400 (Eastern Daylight Time)","317993","green","red","","","","","","","","","","196","","","","","","[{""stimulus"":""img/green_ll/1.jpg"",""time"":52},{""stimulus"":""img/green_ll/2.jpg"",""time"":101},{""stimulus"":""img/green_ll/3.jpg"",""time"":152},{""stimulus"":""img/green_ll/4.jpg"",""time"":202},{""stimulus"":""img/green_ll/5.jpg"",""time"":252},{""stimulus"":""img/green_ll/6.jpg"",""time"":302},{""stimulus"":""img/green_ll/7.jpg"",""time"":352},{""stimulus"":""img/green_ll/8.jpg"",""time"":401},{""stimulus"":""img/green_ll/9.jpg"",""time"":452},{""stimulus"":""img/green_ll/10.jpg"",""time"":502},{""stimulus"":""img/green_ll/11.jpg"",""time"":551}]","[]"
"image-keyboard-response","64","77626","0.0-5.0-1.30","580777dd827ca10001db494b","bdp_lott","Sun Mar 26 2023 01:54:12 GMT-0400 (Eastern Daylight Time)","317993","green","red","","1814","","","","choice","","img/green_ll/choose11.jpg","1","195","green","0.5","0.5","0.5","w","",""
"animation","65","78227","0.0-5.0-2.30","580777dd827ca10001db494b","bdp_lott","Sun Mar 26 2023 01:54:12 GMT-0400 (Eastern Daylight Time)","317993","green","red","","","","","","","","","","195","","","","","","[{""stimulus"":""img/green_wl/1.jpg"",""time"":51},{""stimulus"":""img/green_wl/2.jpg"",""time"":101},{""stimulus"":""img/green_wl/3.jpg"",""time"":151},{""stimulus"":""img/green_wl/4.jpg"",""time"":201},{""stimulus"":""img/green_wl/5.jpg"",""time"":251},{""stimulus"":""img/green_wl/6.jpg"",""time"":301},{""stimulus"":""img/green_wl/7.jpg"",""time"":352},{""stimulus"":""img/green_wl/8.jpg"",""time"":401},{""stimulus"":""img/green_wl/9.jpg"",""time"":451},{""stimulus"":""img/green_wl/10.jpg"",""time"":501},{""stimulus"":""img/green_wl/11.jpg"",""time"":551}]","[]"
"image-keyboard-response","66","78734","0.0-5.0-1.31","580777dd827ca10001db494b","bdp_lott","Sun Mar 26 2023 01:54:12 GMT-0400 (Eastern Daylight Time)","317993","green","red","","504","","","","choice","","img/green_wl/choose11.jpg","2","194","red","0.5","0.5","0.5","l","",""
"animation","67","79335","0.0-5.0-2.31","580777dd827ca10001db494b","bdp_lott","Sun Mar 26 2023 01:54:12 GMT-0400 (Eastern Daylight Time)","317993","green","red","","","","","","","","","","194","","","","","","[{""stimulus"":""img/red_wl/1.jpg"",""time"":51},{""stimulus"":""img/red_wl/2.jpg"",""time"":101},{""stimulus"":""img/red_wl/3.jpg"",""time"":151},{""stimulus"":""img/red_wl/4.jpg"",""time"":201},{""stimulus"":""img/red_wl/5.jpg"",""time"":250},{""stimulus"":""img/red_wl/6.jpg"",""time"":300},{""stimulus"":""img/red_wl/7.jpg"",""time"":350},{""stimulus"":""img/red_wl/8.jpg"",""time"":401},{""stimulus"":""img/red_wl/9.jpg"",""time"":451},{""stimulus"":""img/red_wl/10.jpg"",""time"":501},{""stimulus"":""img/red_wl/11.jpg"",""time"":551}]","[]"
"image-keyboard-response","68","80111","0.0-5.0-1.32","580777dd827ca10001db494b","bdp_lott","Sun Mar 26 2023 01:54:12 GMT-0400 (Eastern Daylight Time)","317993","green","red","","774","","","","choice","","img/red_wl/choose11.jpg","2","193","red","0.5","0.5","0.5","l","",""
"animation","69","80730","0.0-5.0-2.32","580777dd827ca10001db494b","bdp_lott","Sun Mar 26 2023 01:54:12 GMT-0400 (Eastern Daylight Time)","317993","green","red","","","","","","","","","","193","","","","","","[{""stimulus"":""img/red_wl/1.jpg"",""time"":51},{""stimulus"":""img/red_wl/2.jpg"",""time"":101},{""stimulus"":""img/red_wl/3.jpg"",""time"":151},{""stimulus"":""img/red_wl/4.jpg"",""time"":201},{""stimulus"":""img/red_wl/5.jpg"",""time"":250},{""stimulus"":""img/red_wl/6.jpg"",""time"":301},{""stimulus"":""img/red_wl/7.jpg"",""time"":350},{""stimulus"":""img/red_wl/8.jpg"",""time"":400},{""stimulus"":""img/red_wl/9.jpg"",""time"":450},{""stimulus"":""img/red_wl/10.jpg"",""time"":501},{""stimulus"":""img/red_wl/11.jpg"",""time"":551}]","[]"
"image-keyboard-response","70","81269","0.0-5.0-1.33","580777dd827ca10001db494b","bdp_lott","Sun Mar 26 2023 01:54:12 GMT-0400 (Eastern Daylight Time)","317993","green","red","","537","","","","choice","","img/red_wl/choose11.jpg","1","192","green","0.5","0.5","0.5","w","",""
"animation","71","81871","0.0-5.0-2.33","580777dd827ca10001db494b","bdp_lott","Sun Mar 26 2023 01:54:12 GMT-0400 (Eastern Daylight Time)","317993","green","red","","","","","","","","","","192","","","","","","[{""stimulus"":""img/green_wl/1.jpg"",""time"":52},{""stimulus"":""img/green_wl/2.jpg"",""time"":101},{""stimulus"":""img/green_wl/3.jpg"",""time"":151},{""stimulus"":""img/green_wl/4.jpg"",""time"":201},{""stimulus"":""img/green_wl/5.jpg"",""time"":251},{""stimulus"":""img/green_wl/6.jpg"",""time"":301},{""stimulus"":""img/green_wl/7.jpg"",""time"":351},{""stimulus"":""img/green_wl/8.jpg"",""time"":401},{""stimulus"":""img/green_wl/9.jpg"",""time"":451},{""stimulus"":""img/green_wl/10.jpg"",""time"":501},{""stimulus"":""img/green_wl/11.jpg"",""time"":551}]","[]"
"image-keyboard-response","72","82642","0.0-5.0-1.34","580777dd827ca10001db494b","bdp_lott","Sun Mar 26 2023 01:54:12 GMT-0400 (Eastern Daylight Time)","317993","green","red","","770","","","","choice","","img/green_wl/choose11.jpg","1","191","green","0.5","0.5","0.5","w","",""
"animation","73","83243","0.0-5.0-2.34","580777dd827ca10001db494b","bdp_lott","Sun Mar 26 2023 01:54:12 GMT-0400 (Eastern Daylight Time)","317993","green","red","","","","","","","","","","191","","","","","","[{""stimulus"":""img/green_wl/1.jpg"",""time"":51},{""stimulus"":""img/green_wl/2.jpg"",""time"":101},{""stimulus"":""img/green_wl/3.jpg"",""time"":151},{""stimulus"":""img/green_wl/4.jpg"",""time"":201},{""stimulus"":""img/green_wl/5.jpg"",""time"":251},{""stimulus"":""img/green_wl/6.jpg"",""time"":301},{""stimulus"":""img/green_wl/7.jpg"",""time"":351},{""stimulus"":""img/green_wl/8.jpg"",""time"":401},{""stimulus"":""img/green_wl/9.jpg"",""time"":451},{""stimulus"":""img/green_wl/10.jpg"",""time"":501},{""stimulus"":""img/green_wl/11.jpg"",""time"":551}]","[]"
"image-keyboard-response","74","83950","0.0-5.0-1.35","580777dd827ca10001db494b","bdp_lott","Sun Mar 26 2023 01:54:12 GMT-0400 (Eastern Daylight Time)","317993","green","red","","705","","","","choice","","img/green_wl/choose11.jpg","2","190","red","0.5","0.5","0.5","l","",""
"animation","75","84551","0.0-5.0-2.35","580777dd827ca10001db494b","bdp_lott","Sun Mar 26 2023 01:54:12 GMT-0400 (Eastern Daylight Time)","317993","green","red","","","","","","","","","","190","","","","","","[{""stimulus"":""img/red_wl/1.jpg"",""time"":52},{""stimulus"":""img/red_wl/2.jpg"",""time"":102},{""stimulus"":""img/red_wl/3.jpg"",""time"":152},{""stimulus"":""img/red_wl/4.jpg"",""time"":201},{""stimulus"":""img/red_wl/5.jpg"",""time"":252},{""stimulus"":""img/red_wl/6.jpg"",""time"":302},{""stimulus"":""img/red_wl/7.jpg"",""time"":352},{""stimulus"":""img/red_wl/8.jpg"",""time"":402},{""stimulus"":""img/red_wl/9.jpg"",""time"":452},{""stimulus"":""img/red_wl/10.jpg"",""time"":502},{""stimulus"":""img/red_wl/11.jpg"",""time"":552}]","[]"
"image-keyboard-response","76","85225","0.0-5.0-1.36","580777dd827ca10001db494b","bdp_lott","Sun Mar 26 2023 01:54:12 GMT-0400 (Eastern Daylight Time)","317993","green","red","","672","","","","choice","","img/red_wl/choose11.jpg","1","189","green","0.5","0.5","0.5","l","",""
"animation","77","85826","0.0-5.0-2.36","580777dd827ca10001db494b","bdp_lott","Sun Mar 26 2023 01:54:12 GMT-0400 (Eastern Daylight Time)","317993","green","red","","","","","","","","","","189","","","","","","[{""stimulus"":""img/green_ll/1.jpg"",""time"":52},{""stimulus"":""img/green_ll/2.jpg"",""time"":102},{""stimulus"":""img/green_ll/3.jpg"",""time"":151},{""stimulus"":""img/green_ll/4.jpg"",""time"":201},{""stimulus"":""img/green_ll/5.jpg"",""time"":251},{""stimulus"":""img/green_ll/6.jpg"",""time"":301},{""stimulus"":""img/green_ll/7.jpg"",""time"":351},{""stimulus"":""img/green_ll/8.jpg"",""time"":401},{""stimulus"":""img/green_ll/9.jpg"",""time"":451},{""stimulus"":""img/green_ll/10.jpg"",""time"":501},{""stimulus"":""img/green_ll/11.jpg"",""time"":551}]","[]"
"image-keyboard-response","78","86572","0.0-5.0-1.37","580777dd827ca10001db494b","bdp_lott","Sun Mar 26 2023 01:54:12 GMT-0400 (Eastern Daylight Time)","317993","green","red","","743","","","","choice","","img/green_ll/choose11.jpg","2","188","red","0.5","0.5","0.5","l","",""
"animation","79","87173","0.0-5.0-2.37","580777dd827ca10001db494b","bdp_lott","Sun Mar 26 2023 01:54:12 GMT-0400 (Eastern Daylight Time)","317993","green","red","","","","","","","","","","188","","","","","","[{""stimulus"":""img/red_ll/1.jpg"",""time"":52},{""stimulus"":""img/red_ll/2.jpg"",""time"":101},{""stimulus"":""img/red_ll/3.jpg"",""time"":151},{""stimulus"":""img/red_ll/4.jpg"",""time"":201},{""stimulus"":""img/red_ll/5.jpg"",""time"":251},{""stimulus"":""img/red_ll/6.jpg"",""time"":301},{""stimulus"":""img/red_ll/7.jpg"",""time"":351},{""stimulus"":""img/red_ll/8.jpg"",""time"":401},{""stimulus"":""img/red_ll/9.jpg"",""time"":451},{""stimulus"":""img/red_ll/10.jpg"",""time"":501},{""stimulus"":""img/red_ll/11.jpg"",""time"":551}]","[]"
"image-keyboard-response","80","87908","0.0-5.0-1.38","580777dd827ca10001db494b","bdp_lott","Sun Mar 26 2023 01:54:12 GMT-0400 (Eastern Daylight Time)","317993","green","red","","732","","","","choice","","img/red_ll/choose11.jpg","1","187","green","0.5","0.5","0.5","w","",""
"animation","81","88509","0.0-5.0-2.38","580777dd827ca10001db494b","bdp_lott","Sun Mar 26 2023 01:54:12 GMT-0400 (Eastern Daylight Time)","317993","green","red","","","","","","","","","","187","","","","","","[{""stimulus"":""img/green_wl/1.jpg"",""time"":51},{""stimulus"":""img/green_wl/2.jpg"",""time"":101},{""stimulus"":""img/green_wl/3.jpg"",""time"":151},{""stimulus"":""img/green_wl/4.jpg"",""time"":201},{""stimulus"":""img/green_wl/5.jpg"",""time"":251},{""stimulus"":""img/green_wl/6.jpg"",""time"":301},{""stimulus"":""img/green_wl/7.jpg"",""time"":351},{""stimulus"":""img/green_wl/8.jpg"",""time"":400},{""stimulus"":""img/green_wl/9.jpg"",""time"":451},{""stimulus"":""img/green_wl/10.jpg"",""time"":501},{""stimulus"":""img/green_wl/11.jpg"",""time"":553}]","[]"
"image-keyboard-response","82","89134","0.0-5.0-1.39","580777dd827ca10001db494b","bdp_lott","Sun Mar 26 2023 01:54:12 GMT-0400 (Eastern Daylight Time)","317993","green","red","","624","","","","choice","","img/green_wl/choose11.jpg","1","186","green","0.5","0.5","0.5","l","",""
"animation","83","89735","0.0-5.0-2.39","580777dd827ca10001db494b","bdp_lott","Sun Mar 26 2023 01:54:12 GMT-0400 (Eastern Daylight Time)","317993","green","red","","","","","","","","","","186","","","","","","[{""stimulus"":""img/green_ll/1.jpg"",""time"":52},{""stimulus"":""img/green_ll/2.jpg"",""time"":101},{""stimulus"":""img/green_ll/3.jpg"",""time"":151},{""stimulus"":""img/green_ll/4.jpg"",""time"":201},{""stimulus"":""img/green_ll/5.jpg"",""time"":251},{""stimulus"":""img/green_ll/6.jpg"",""time"":301},{""stimulus"":""img/green_ll/7.jpg"",""time"":351},{""stimulus"":""img/green_ll/8.jpg"",""time"":401},{""stimulus"":""img/green_ll/9.jpg"",""time"":451},{""stimulus"":""img/green_ll/10.jpg"",""time"":501},{""stimulus"":""img/green_ll/11.jpg"",""time"":551}]","[]"
"image-keyboard-response","84","90640","0.0-5.0-1.40","580777dd827ca10001db494b","bdp_lott","Sun Mar 26 2023 01:54:12 GMT-0400 (Eastern Daylight Time)","317993","green","red","","902","","","","choice","","img/green_ll/choose11.jpg","1","185","green","0.5","0.5","0.5","l","",""
"animation","85","91241","0.0-5.0-2.40","580777dd827ca10001db494b","bdp_lott","Sun Mar 26 2023 01:54:12 GMT-0400 (Eastern Daylight Time)","317993","green","red","","","","","","","","","","185","","","","","","[{""stimulus"":""img/green_ll/1.jpg"",""time"":51},{""stimulus"":""img/green_ll/2.jpg"",""time"":101},{""stimulus"":""img/green_ll/3.jpg"",""time"":151},{""stimulus"":""img/green_ll/4.jpg"",""time"":200},{""stimulus"":""img/green_ll/5.jpg"",""time"":251},{""stimulus"":""img/green_ll/6.jpg"",""time"":301},{""stimulus"":""img/green_ll/7.jpg"",""time"":351},{""stimulus"":""img/green_ll/8.jpg"",""time"":401},{""stimulus"":""img/green_ll/9.jpg"",""time"":451},{""stimulus"":""img/green_ll/10.jpg"",""time"":500},{""stimulus"":""img/green_ll/11.jpg"",""time"":551}]","[]"
"image-keyboard-response","86","91787","0.0-5.0-1.41","580777dd827ca10001db494b","bdp_lott","Sun Mar 26 2023 01:54:12 GMT-0400 (Eastern Daylight Time)","317993","green","red","","544","","","","choice","","img/green_ll/choose11.jpg","2","184","red","0.5","0.5","0.5","l","",""
"animation","87","92388","0.0-5.0-2.41","580777dd827ca10001db494b","bdp_lott","Sun Mar 26 2023 01:54:12 GMT-0400 (Eastern Daylight Time)","317993","green","red","","","","","","","","","","184","","","","","","[{""stimulus"":""img/red_ll/1.jpg"",""time"":51},{""stimulus"":""img/red_ll/2.jpg"",""time"":101},{""stimulus"":""img/red_ll/3.jpg"",""time"":151},{""stimulus"":""img/red_ll/4.jpg"",""time"":201},{""stimulus"":""img/red_ll/5.jpg"",""time"":251},{""stimulus"":""img/red_ll/6.jpg"",""time"":301},{""stimulus"":""img/red_ll/7.jpg"",""time"":351},{""stimulus"":""img/red_ll/8.jpg"",""time"":401},{""stimulus"":""img/red_ll/9.jpg"",""time"":451},{""stimulus"":""img/red_ll/10.jpg"",""time"":501},{""stimulus"":""img/red_ll/11.jpg"",""time"":551}]","[]"
"image-keyboard-response","88","93038","0.0-5.0-1.42","580777dd827ca10001db494b","bdp_lott","Sun Mar 26 2023 01:54:12 GMT-0400 (Eastern Daylight Time)","317993","green","red","","647","","","","choice","","img/red_ll/choose11.jpg","1","183","green","0.5","0.5","0.5","l","",""
"animation","89","93639","0.0-5.0-2.42","580777dd827ca10001db494b","bdp_lott","Sun Mar 26 2023 01:54:12 GMT-0400 (Eastern Daylight Time)","317993","green","red","","","","","","","","","","183","","","","","","[{""stimulus"":""img/green_ll/1.jpg"",""time"":52},{""stimulus"":""img/green_ll/2.jpg"",""time"":101},{""stimulus"":""img/green_ll/3.jpg"",""time"":151},{""stimulus"":""img/green_ll/4.jpg"",""time"":201},{""stimulus"":""img/green_ll/5.jpg"",""time"":251},{""stimulus"":""img/green_ll/6.jpg"",""time"":301},{""stimulus"":""img/green_ll/7.jpg"",""time"":351},{""stimulus"":""img/green_ll/8.jpg"",""time"":401},{""stimulus"":""img/green_ll/9.jpg"",""time"":451},{""stimulus"":""img/green_ll/10.jpg"",""time"":501},{""stimulus"":""img/green_ll/11.jpg"",""time"":551}]","[]"
"image-keyboard-response","90","94289","0.0-5.0-1.43","580777dd827ca10001db494b","bdp_lott","Sun Mar 26 2023 01:54:12 GMT-0400 (Eastern Daylight Time)","317993","green","red","","649","","","","choice","","img/green_ll/choose11.jpg","1","182","green","0.5","0.5","0.5","w","",""
"animation","91","94890","0.0-5.0-2.43","580777dd827ca10001db494b","bdp_lott","Sun Mar 26 2023 01:54:12 GMT-0400 (Eastern Daylight Time)","317993","green","red","","","","","","","","","","182","","","","","","[{""stimulus"":""img/green_wl/1.jpg"",""time"":51},{""stimulus"":""img/green_wl/2.jpg"",""time"":101},{""stimulus"":""img/green_wl/3.jpg"",""time"":151},{""stimulus"":""img/green_wl/4.jpg"",""time"":201},{""stimulus"":""img/green_wl/5.jpg"",""time"":251},{""stimulus"":""img/green_wl/6.jpg"",""time"":301},{""stimulus"":""img/green_wl/7.jpg"",""time"":351},{""stimulus"":""img/green_wl/8.jpg"",""time"":401},{""stimulus"":""img/green_wl/9.jpg"",""time"":451},{""stimulus"":""img/green_wl/10.jpg"",""time"":501},{""stimulus"":""img/green_wl/11.jpg"",""time"":551}]","[]"
"image-keyboard-response","92","95765","0.0-5.0-1.44","580777dd827ca10001db494b","bdp_lott","Sun Mar 26 2023 01:54:12 GMT-0400 (Eastern Daylight Time)","317993","green","red","","872","","","","choice","","img/green_wl/choose11.jpg","1","181","green","0.5","0.5","0.5","l","",""
"animation","93","96366","0.0-5.0-2.44","580777dd827ca10001db494b","bdp_lott","Sun Mar 26 2023 01:54:12 GMT-0400 (Eastern Daylight Time)","317993","green","red","","","","","","","","","","181","","","","","","[{""stimulus"":""img/green_ll/1.jpg"",""time"":52},{""stimulus"":""img/green_ll/2.jpg"",""time"":102},{""stimulus"":""img/green_ll/3.jpg"",""time"":151},{""stimulus"":""img/green_ll/4.jpg"",""time"":202},{""stimulus"":""img/green_ll/5.jpg"",""time"":252},{""stimulus"":""img/green_ll/6.jpg"",""time"":302},{""stimulus"":""img/green_ll/7.jpg"",""time"":351},{""stimulus"":""img/green_ll/8.jpg"",""time"":402},{""stimulus"":""img/green_ll/9.jpg"",""time"":452},{""stimulus"":""img/green_ll/10.jpg"",""time"":501},{""stimulus"":""img/green_ll/11.jpg"",""time"":551}]","[]"
"image-keyboard-response","94","97023","0.0-5.0-1.45","580777dd827ca10001db494b","bdp_lott","Sun Mar 26 2023 01:54:12 GMT-0400 (Eastern Daylight Time)","317993","green","red","","655","","","","choice","","img/green_ll/choose11.jpg","2","180","red","0.5","0.5","0.5","l","",""
"animation","95","97624","0.0-5.0-2.45","580777dd827ca10001db494b","bdp_lott","Sun Mar 26 2023 01:54:12 GMT-0400 (Eastern Daylight Time)","317993","green","red","","","","","","","","","","180","","","","","","[{""stimulus"":""img/red_ll/1.jpg"",""time"":51},{""stimulus"":""img/red_ll/2.jpg"",""time"":101},{""stimulus"":""img/red_ll/3.jpg"",""time"":151},{""stimulus"":""img/red_ll/4.jpg"",""time"":201},{""stimulus"":""img/red_ll/5.jpg"",""time"":251},{""stimulus"":""img/red_ll/6.jpg"",""time"":301},{""stimulus"":""img/red_ll/7.jpg"",""time"":351},{""stimulus"":""img/red_ll/8.jpg"",""time"":401},{""stimulus"":""img/red_ll/9.jpg"",""time"":452},{""stimulus"":""img/red_ll/10.jpg"",""time"":501},{""stimulus"":""img/red_ll/11.jpg"",""time"":551}]","[]"
"image-keyboard-response","96","98294","0.0-5.0-1.46","580777dd827ca10001db494b","bdp_lott","Sun Mar 26 2023 01:54:12 GMT-0400 (Eastern Daylight Time)","317993","green","red","","668","","","","choice","","img/red_ll/choose11.jpg","2","179","red","0.5","0.5","0.5","w","",""
"animation","97","98895","0.0-5.0-2.46","580777dd827ca10001db494b","bdp_lott","Sun Mar 26 2023 01:54:12 GMT-0400 (Eastern Daylight Time)","317993","green","red","","","","","","","","","","179","","","","","","[{""stimulus"":""img/red_lw/1.jpg"",""time"":51},{""stimulus"":""img/red_lw/2.jpg"",""time"":101},{""stimulus"":""img/red_lw/3.jpg"",""time"":150},{""stimulus"":""img/red_lw/4.jpg"",""time"":201},{""stimulus"":""img/red_lw/5.jpg"",""time"":251},{""stimulus"":""img/red_lw/6.jpg"",""time"":301},{""stimulus"":""img/red_lw/7.jpg"",""time"":351},{""stimulus"":""img/red_lw/8.jpg"",""time"":401},{""stimulus"":""img/red_lw/9.jpg"",""time"":451},{""stimulus"":""img/red_lw/10.jpg"",""time"":501},{""stimulus"":""img/red_lw/11.jpg"",""time"":551}]","[]"
"image-keyboard-response","98","99576","0.0-5.0-1.47","580777dd827ca10001db494b","bdp_lott","Sun Mar 26 2023 01:54:12 GMT-0400 (Eastern Daylight Time)","317993","green","red","","678","","","","choice","","img/red_lw/choose11.jpg","1","178","green","0.5","0.5","0.5","w","",""
"animation","99","100177","0.0-5.0-2.47","580777dd827ca10001db494b","bdp_lott","Sun Mar 26 2023 01:54:12 GMT-0400 (Eastern Daylight Time)","317993","green","red","","","","","","","","","","178","","","","","","[{""stimulus"":""img/green_ww/1.jpg"",""time"":52},{""stimulus"":""img/green_ww/2.jpg"",""time"":101},{""stimulus"":""img/green_ww/3.jpg"",""time"":152},{""stimulus"":""img/green_ww/4.jpg"",""time"":201},{""stimulus"":""img/green_ww/5.jpg"",""time"":251},{""stimulus"":""img/green_ww/6.jpg"",""time"":301},{""stimulus"":""img/green_ww/7.jpg"",""time"":351},{""stimulus"":""img/green_ww/8.jpg"",""time"":401},{""stimulus"":""img/green_ww/9.jpg"",""time"":452},{""stimulus"":""img/green_ww/10.jpg"",""time"":502},{""stimulus"":""img/green_ww/11.jpg"",""time"":552}]","[]"
"image-keyboard-response","100","100762","0.0-5.0-1.48","580777dd827ca10001db494b","bdp_lott","Sun Mar 26 2023 01:54:12 GMT-0400 (Eastern Daylight Time)","317993","green","red","","582","","","","choice","","img/green_ww/choose11.jpg","2","177","red","0.5","0.5","0.5","w","",""
"animation","101","101363","0.0-5.0-2.48","580777dd827ca10001db494b","bdp_lott","Sun Mar 26 2023 01:54:12 GMT-0400 (Eastern Daylight Time)","317993","green","red","","","","","","","","","","177","","","","","","[{""stimulus"":""img/red_ww/1.jpg"",""time"":52},{""stimulus"":""img/red_ww/2.jpg"",""time"":101},{""stimulus"":""img/red_ww/3.jpg"",""time"":151},{""stimulus"":""img/red_ww/4.jpg"",""time"":201},{""stimulus"":""img/red_ww/5.jpg"",""time"":251},{""stimulus"":""img/red_ww/6.jpg"",""time"":301},{""stimulus"":""img/red_ww/7.jpg"",""time"":351},{""stimulus"":""img/red_ww/8.jpg"",""time"":401},{""stimulus"":""img/red_ww/9.jpg"",""time"":451},{""stimulus"":""img/red_ww/10.jpg"",""time"":501},{""stimulus"":""img/red_ww/11.jpg"",""time"":551}]","[]"
"image-keyboard-response","102","101992","0.0-5.0-1.49","580777dd827ca10001db494b","bdp_lott","Sun Mar 26 2023 01:54:12 GMT-0400 (Eastern Daylight Time)","317993","green","red","","627","","","","choice","","img/red_ww/choose11.jpg","1","176","green","0.5","0.5","0.5","w","",""
"animation","103","102593","0.0-5.0-2.49","580777dd827ca10001db494b","bdp_lott","Sun Mar 26 2023 01:54:12 GMT-0400 (Eastern Daylight Time)","317993","green","red","","","","","","","","","","176","","","","","","[{""stimulus"":""img/green_ww/1.jpg"",""time"":51},{""stimulus"":""img/green_ww/2.jpg"",""time"":101},{""stimulus"":""img/green_ww/3.jpg"",""time"":151},{""stimulus"":""img/green_ww/4.jpg"",""time"":201},{""stimulus"":""img/green_ww/5.jpg"",""time"":251},{""stimulus"":""img/green_ww/6.jpg"",""time"":301},{""stimulus"":""img/green_ww/7.jpg"",""time"":351},{""stimulus"":""img/green_ww/8.jpg"",""time"":401},{""stimulus"":""img/green_ww/9.jpg"",""time"":451},{""stimulus"":""img/green_ww/10.jpg"",""time"":501},{""stimulus"":""img/green_ww/11.jpg"",""time"":551}]","[]"
"image-keyboard-response","104","103216","0.0-5.0-1.50","580777dd827ca10001db494b","bdp_lott","Sun Mar 26 2023 01:54:12 GMT-0400 (Eastern Daylight Time)","317993","green","red","","621","","","","choice","","img/green_ww/choose11.jpg","2","175","red","0.5","0.5","0.5","w","",""
"animation","105","103818","0.0-5.0-2.50","580777dd827ca10001db494b","bdp_lott","Sun Mar 26 2023 01:54:12 GMT-0400 (Eastern Daylight Time)","317993","green","red","","","","","","","","","","175","","","","","","[{""stimulus"":""img/red_ww/1.jpg"",""time"":52},{""stimulus"":""img/red_ww/2.jpg"",""time"":101},{""stimulus"":""img/red_ww/3.jpg"",""time"":151},{""stimulus"":""img/red_ww/4.jpg"",""time"":201},{""stimulus"":""img/red_ww/5.jpg"",""time"":251},{""stimulus"":""img/red_ww/6.jpg"",""time"":301},{""stimulus"":""img/red_ww/7.jpg"",""time"":351},{""stimulus"":""img/red_ww/8.jpg"",""time"":401},{""stimulus"":""img/red_ww/9.jpg"",""time"":451},{""stimulus"":""img/red_ww/10.jpg"",""time"":501},{""stimulus"":""img/red_ww/11.jpg"",""time"":552}]","[]"
"image-keyboard-response","106","104453","0.0-5.0-1.51","580777dd827ca10001db494b","bdp_lott","Sun Mar 26 2023 01:54:12 GMT-0400 (Eastern Daylight Time)","317993","green","red","","633","","","","choice","","img/red_ww/choose11.jpg","1","174","green","0.5","0.5","0.5","w","",""
"animation","107","105057","0.0-5.0-2.51","580777dd827ca10001db494b","bdp_lott","Sun Mar 26 2023 01:54:12 GMT-0400 (Eastern Daylight Time)","317993","green","red","","","","","","","","","","174","","","","","","[{""stimulus"":""img/green_ww/1.jpg"",""time"":52},{""stimulus"":""img/green_ww/2.jpg"",""time"":101},{""stimulus"":""img/green_ww/3.jpg"",""time"":151},{""stimulus"":""img/green_ww/4.jpg"",""time"":201},{""stimulus"":""img/green_ww/5.jpg"",""time"":252},{""stimulus"":""img/green_ww/6.jpg"",""time"":301},{""stimulus"":""img/green_ww/7.jpg"",""time"":351},{""stimulus"":""img/green_ww/8.jpg"",""time"":401},{""stimulus"":""img/green_ww/9.jpg"",""time"":451},{""stimulus"":""img/green_ww/10.jpg"",""time"":501},{""stimulus"":""img/green_ww/11.jpg"",""time"":551}]","[]"
"image-keyboard-response","108","105900","0.0-5.0-1.52","580777dd827ca10001db494b","bdp_lott","Sun Mar 26 2023 01:54:12 GMT-0400 (Eastern Daylight Time)","317993","green","red","","841","","","","choice","","img/green_ww/choose11.jpg","2","173","red","0.5","0.5","0.5","w","",""
"animation","109","106501","0.0-5.0-2.52","580777dd827ca10001db494b","bdp_lott","Sun Mar 26 2023 01:54:12 GMT-0400 (Eastern Daylight Time)","317993","green","red","","","","","","","","","","173","","","","","","[{""stimulus"":""img/red_ww/1.jpg"",""time"":52},{""stimulus"":""img/red_ww/2.jpg"",""time"":102},{""stimulus"":""img/red_ww/3.jpg"",""time"":152},{""stimulus"":""img/red_ww/4.jpg"",""time"":202},{""stimulus"":""img/red_ww/5.jpg"",""time"":252},{""stimulus"":""img/red_ww/6.jpg"",""time"":302},{""stimulus"":""img/red_ww/7.jpg"",""time"":352},{""stimulus"":""img/red_ww/8.jpg"",""time"":402},{""stimulus"":""img/red_ww/9.jpg"",""time"":452},{""stimulus"":""img/red_ww/10.jpg"",""time"":501},{""stimulus"":""img/red_ww/11.jpg"",""time"":552}]","[]"
"image-keyboard-response","110","107094","0.0-5.0-1.53","580777dd827ca10001db494b","bdp_lott","Sun Mar 26 2023 01:54:12 GMT-0400 (Eastern Daylight Time)","317993","green","red","","591","","","","choice","","img/red_ww/choose11.jpg","1","172","green","0.5","0.5","0.5","l","",""
"animation","111","107695","0.0-5.0-2.53","580777dd827ca10001db494b","bdp_lott","Sun Mar 26 2023 01:54:12 GMT-0400 (Eastern Daylight Time)","317993","green","red","","","","","","","","","","172","","","","","","[{""stimulus"":""img/green_lw/1.jpg"",""time"":52},{""stimulus"":""img/green_lw/2.jpg"",""time"":102},{""stimulus"":""img/green_lw/3.jpg"",""time"":151},{""stimulus"":""img/green_lw/4.jpg"",""time"":202},{""stimulus"":""img/green_lw/5.jpg"",""time"":252},{""stimulus"":""img/green_lw/6.jpg"",""time"":302},{""stimulus"":""img/green_lw/7.jpg"",""time"":352},{""stimulus"":""img/green_lw/8.jpg"",""time"":402},{""stimulus"":""img/green_lw/9.jpg"",""time"":452},{""stimulus"":""img/green_lw/10.jpg"",""time"":502},{""stimulus"":""img/green_lw/11.jpg"",""time"":552}]","[]"
"image-keyboard-response","112","108495","0.0-5.0-1.54","580777dd827ca10001db494b","bdp_lott","Sun Mar 26 2023 01:54:12 GMT-0400 (Eastern Daylight Time)","317993","green","red","","798","","","","choice","","img/green_lw/choose11.jpg","1","171","green","0.5","0.5","0.5","l","",""
"animation","113","109095","0.0-5.0-2.54","580777dd827ca10001db494b","bdp_lott","Sun Mar 26 2023 01:54:12 GMT-0400 (Eastern Daylight Time)","317993","green","red","","","","","","","","","","171","","","","","","[{""stimulus"":""img/green_lw/1.jpg"",""time"":51},{""stimulus"":""img/green_lw/2.jpg"",""time"":101},{""stimulus"":""img/green_lw/3.jpg"",""time"":151},{""stimulus"":""img/green_lw/4.jpg"",""time"":201},{""stimulus"":""img/green_lw/5.jpg"",""time"":251},{""stimulus"":""img/green_lw/6.jpg"",""time"":301},{""stimulus"":""img/green_lw/7.jpg"",""time"":351},{""stimulus"":""img/green_lw/8.jpg"",""time"":401},{""stimulus"":""img/green_lw/9.jpg"",""time"":451},{""stimulus"":""img/green_lw/10.jpg"",""time"":501},{""stimulus"":""img/green_lw/11.jpg"",""time"":551}]","[]"
"image-keyboard-response","114","109827","0.0-5.0-1.55","580777dd827ca10001db494b","bdp_lott","Sun Mar 26 2023 01:54:12 GMT-0400 (Eastern Daylight Time)","317993","green","red","","731","","","","choice","","img/green_lw/choose11.jpg","1","170","green","0.5","0.5","0.5","l","",""
"animation","115","110428","0.0-5.0-2.55","580777dd827ca10001db494b","bdp_lott","Sun Mar 26 2023 01:54:12 GMT-0400 (Eastern Daylight Time)","317993","green","red","","","","","","","","","","170","","","","","","[{""stimulus"":""img/green_lw/1.jpg"",""time"":51},{""stimulus"":""img/green_lw/2.jpg"",""time"":101},{""stimulus"":""img/green_lw/3.jpg"",""time"":151},{""stimulus"":""img/green_lw/4.jpg"",""time"":201},{""stimulus"":""img/green_lw/5.jpg"",""time"":252},{""stimulus"":""img/green_lw/6.jpg"",""time"":301},{""stimulus"":""img/green_lw/7.jpg"",""time"":351},{""stimulus"":""img/green_lw/8.jpg"",""time"":401},{""stimulus"":""img/green_lw/9.jpg"",""time"":451},{""stimulus"":""img/green_lw/10.jpg"",""time"":501},{""stimulus"":""img/green_lw/11.jpg"",""time"":551}]","[]"
"image-keyboard-response","116","111151","0.0-5.0-1.56","580777dd827ca10001db494b","bdp_lott","Sun Mar 26 2023 01:54:12 GMT-0400 (Eastern Daylight Time)","317993","green","red","","720","","","","choice","","img/green_lw/choose11.jpg","1","169","green","0.5","0.5","0.5","w","",""
"animation","117","111752","0.0-5.0-2.56","580777dd827ca10001db494b","bdp_lott","Sun Mar 26 2023 01:54:12 GMT-0400 (Eastern Daylight Time)","317993","green","red","","","","","","","","","","169","","","","","","[{""stimulus"":""img/green_ww/1.jpg"",""time"":52},{""stimulus"":""img/green_ww/2.jpg"",""time"":102},{""stimulus"":""img/green_ww/3.jpg"",""time"":152},{""stimulus"":""img/green_ww/4.jpg"",""time"":202},{""stimulus"":""img/green_ww/5.jpg"",""time"":252},{""stimulus"":""img/green_ww/6.jpg"",""time"":302},{""stimulus"":""img/green_ww/7.jpg"",""time"":351},{""stimulus"":""img/green_ww/8.jpg"",""time"":402},{""stimulus"":""img/green_ww/9.jpg"",""time"":452},{""stimulus"":""img/green_ww/10.jpg"",""time"":502},{""stimulus"":""img/green_ww/11.jpg"",""time"":552}]","[]"
"image-keyboard-response","118","112290","0.0-5.0-1.57","580777dd827ca10001db494b","bdp_lott","Sun Mar 26 2023 01:54:12 GMT-0400 (Eastern Daylight Time)","317993","green","red","","536","","","","choice","","img/green_ww/choose11.jpg","2","168","red","0.5","0.5","0.5","w","",""
"animation","119","112891","0.0-5.0-2.57","580777dd827ca10001db494b","bdp_lott","Sun Mar 26 2023 01:54:12 GMT-0400 (Eastern Daylight Time)","317993","green","red","","","","","","","","","","168","","","","","","[{""stimulus"":""img/red_ww/1.jpg"",""time"":52},{""stimulus"":""img/red_ww/2.jpg"",""time"":102},{""stimulus"":""img/red_ww/3.jpg"",""time"":152},{""stimulus"":""img/red_ww/4.jpg"",""time"":202},{""stimulus"":""img/red_ww/5.jpg"",""time"":252},{""stimulus"":""img/red_ww/6.jpg"",""time"":302},{""stimulus"":""img/red_ww/7.jpg"",""time"":352},{""stimulus"":""img/red_ww/8.jpg"",""time"":402},{""stimulus"":""img/red_ww/9.jpg"",""time"":452},{""stimulus"":""img/red_ww/10.jpg"",""time"":502},{""stimulus"":""img/red_ww/11.jpg"",""time"":552}]","[]"
"image-keyboard-response","120","113457","0.0-5.0-1.58","580777dd827ca10001db494b","bdp_lott","Sun Mar 26 2023 01:54:12 GMT-0400 (Eastern Daylight Time)","317993","green","red","","564","","","","choice","","img/red_ww/choose11.jpg","1","167","green","0.5","0.5","0.5","w","",""
"animation","121","114058","0.0-5.0-2.58","580777dd827ca10001db494b","bdp_lott","Sun Mar 26 2023 01:54:12 GMT-0400 (Eastern Daylight Time)","317993","green","red","","","","","","","","","","167","","","","","","[{""stimulus"":""img/green_ww/1.jpg"",""time"":51},{""stimulus"":""img/green_ww/2.jpg"",""time"":101},{""stimulus"":""img/green_ww/3.jpg"",""time"":151},{""stimulus"":""img/green_ww/4.jpg"",""time"":201},{""stimulus"":""img/green_ww/5.jpg"",""time"":251},{""stimulus"":""img/green_ww/6.jpg"",""time"":301},{""stimulus"":""img/green_ww/7.jpg"",""time"":351},{""stimulus"":""img/green_ww/8.jpg"",""time"":401},{""stimulus"":""img/green_ww/9.jpg"",""time"":451},{""stimulus"":""img/green_ww/10.jpg"",""time"":501},{""stimulus"":""img/green_ww/11.jpg"",""time"":551}]","[]"
"image-keyboard-response","122","114643","0.0-5.0-1.59","580777dd827ca10001db494b","bdp_lott","Sun Mar 26 2023 01:54:12 GMT-0400 (Eastern Daylight Time)","317993","green","red","","582","","","","choice","","img/green_ww/choose11.jpg","2","166","red","0.5","0.5","0.5","w","",""
"animation","123","115244","0.0-5.0-2.59","580777dd827ca10001db494b","bdp_lott","Sun Mar 26 2023 01:54:12 GMT-0400 (Eastern Daylight Time)","317993","green","red","","","","","","","","","","166","","","","","","[{""stimulus"":""img/red_ww/1.jpg"",""time"":51},{""stimulus"":""img/red_ww/2.jpg"",""time"":101},{""stimulus"":""img/red_ww/3.jpg"",""time"":151},{""stimulus"":""img/red_ww/4.jpg"",""time"":201},{""stimulus"":""img/red_ww/5.jpg"",""time"":251},{""stimulus"":""img/red_ww/6.jpg"",""time"":301},{""stimulus"":""img/red_ww/7.jpg"",""time"":351},{""stimulus"":""img/red_ww/8.jpg"",""time"":401},{""stimulus"":""img/red_ww/9.jpg"",""time"":451},{""stimulus"":""img/red_ww/10.jpg"",""time"":501},{""stimulus"":""img/red_ww/11.jpg"",""time"":551}]","[]"
"image-keyboard-response","124","115838","0.0-5.0-1.60","580777dd827ca10001db494b","bdp_lott","Sun Mar 26 2023 01:54:12 GMT-0400 (Eastern Daylight Time)","317993","green","red","","593","","","","choice","","img/red_ww/choose11.jpg","1","165","green","0.5","0.5","0.5","w","",""
"animation","125","116439","0.0-5.0-2.60","580777dd827ca10001db494b","bdp_lott","Sun Mar 26 2023 01:54:12 GMT-0400 (Eastern Daylight Time)","317993","green","red","","","","","","","","","","165","","","","","","[{""stimulus"":""img/green_ww/1.jpg"",""time"":51},{""stimulus"":""img/green_ww/2.jpg"",""time"":101},{""stimulus"":""img/green_ww/3.jpg"",""time"":151},{""stimulus"":""img/green_ww/4.jpg"",""time"":201},{""stimulus"":""img/green_ww/5.jpg"",""time"":251},{""stimulus"":""img/green_ww/6.jpg"",""time"":301},{""stimulus"":""img/green_ww/7.jpg"",""time"":351},{""stimulus"":""img/green_ww/8.jpg"",""time"":401},{""stimulus"":""img/green_ww/9.jpg"",""time"":451},{""stimulus"":""img/green_ww/10.jpg"",""time"":501},{""stimulus"":""img/green_ww/11.jpg"",""time"":551}]","[]"
"image-keyboard-response","126","117027","0.0-5.0-1.61","580777dd827ca10001db494b","bdp_lott","Sun Mar 26 2023 01:54:12 GMT-0400 (Eastern Daylight Time)","317993","green","red","","587","","","","choice","","img/green_ww/choose11.jpg","2","164","red","0.5","0.5","0.5","w","",""
"animation","127","117629","0.0-5.0-2.61","580777dd827ca10001db494b","bdp_lott","Sun Mar 26 2023 01:54:12 GMT-0400 (Eastern Daylight Time)","317993","green","red","","","","","","","","","","164","","","","","","[{""stimulus"":""img/red_ww/1.jpg"",""time"":51},{""stimulus"":""img/red_ww/2.jpg"",""time"":102},{""stimulus"":""img/red_ww/3.jpg"",""time"":151},{""stimulus"":""img/red_ww/4.jpg"",""time"":202},{""stimulus"":""img/red_ww/5.jpg"",""time"":252},{""stimulus"":""img/red_ww/6.jpg"",""time"":302},{""stimulus"":""img/red_ww/7.jpg"",""time"":352},{""stimulus"":""img/red_ww/8.jpg"",""time"":402},{""stimulus"":""img/red_ww/9.jpg"",""time"":452},{""stimulus"":""img/red_ww/10.jpg"",""time"":502},{""stimulus"":""img/red_ww/11.jpg"",""time"":552}]","[]"
"image-keyboard-response","128","118246","0.0-5.0-1.62","580777dd827ca10001db494b","bdp_lott","Sun Mar 26 2023 01:54:12 GMT-0400 (Eastern Daylight Time)","317993","green","red","","616","","","","choice","","img/red_ww/choose11.jpg","1","163","green","0.5","0.5","0.5","w","",""
"animation","129","118847","0.0-5.0-2.62","580777dd827ca10001db494b","bdp_lott","Sun Mar 26 2023 01:54:12 GMT-0400 (Eastern Daylight Time)","317993","green","red","","","","","","","","","","163","","","","","","[{""stimulus"":""img/green_ww/1.jpg"",""time"":52},{""stimulus"":""img/green_ww/2.jpg"",""time"":101},{""stimulus"":""img/green_ww/3.jpg"",""time"":151},{""stimulus"":""img/green_ww/4.jpg"",""time"":201},{""stimulus"":""img/green_ww/5.jpg"",""time"":251},{""stimulus"":""img/green_ww/6.jpg"",""time"":301},{""stimulus"":""img/green_ww/7.jpg"",""time"":351},{""stimulus"":""img/green_ww/8.jpg"",""time"":401},{""stimulus"":""img/green_ww/9.jpg"",""time"":451},{""stimulus"":""img/green_ww/10.jpg"",""time"":501},{""stimulus"":""img/green_ww/11.jpg"",""time"":551}]","[]"
"image-keyboard-response","130","119460","0.0-5.0-1.63","580777dd827ca10001db494b","bdp_lott","Sun Mar 26 2023 01:54:12 GMT-0400 (Eastern Daylight Time)","317993","green","red","","609","","","","choice","","img/green_ww/choose11.jpg","2","162","red","0.5","0.5","0.5","w","",""
"animation","131","120061","0.0-5.0-2.63","580777dd827ca10001db494b","bdp_lott","Sun Mar 26 2023 01:54:12 GMT-0400 (Eastern Daylight Time)","317993","green","red","","","","","","","","","","162","","","","","","[{""stimulus"":""img/red_ww/1.jpg"",""time"":54},{""stimulus"":""img/red_ww/2.jpg"",""time"":101},{""stimulus"":""img/red_ww/3.jpg"",""time"":152},{""stimulus"":""img/red_ww/4.jpg"",""time"":202},{""stimulus"":""img/red_ww/5.jpg"",""time"":252},{""stimulus"":""img/red_ww/6.jpg"",""time"":302},{""stimulus"":""img/red_ww/7.jpg"",""time"":352},{""stimulus"":""img/red_ww/8.jpg"",""time"":402},{""stimulus"":""img/red_ww/9.jpg"",""time"":452},{""stimulus"":""img/red_ww/10.jpg"",""time"":502},{""stimulus"":""img/red_ww/11.jpg"",""time"":551}]","[]"
"image-keyboard-response","132","120627","0.0-5.0-1.64","580777dd827ca10001db494b","bdp_lott","Sun Mar 26 2023 01:54:12 GMT-0400 (Eastern Daylight Time)","317993","green","red","","564","","","","choice","","img/red_ww/choose11.jpg","1","161","green","0.5","0.5","0.5","w","",""
"animation","133","121227","0.0-5.0-2.64","580777dd827ca10001db494b","bdp_lott","Sun Mar 26 2023 01:54:12 GMT-0400 (Eastern Daylight Time)","317993","green","red","","","","","","","","","","161","","","","","","[{""stimulus"":""img/green_ww/1.jpg"",""time"":52},{""stimulus"":""img/green_ww/2.jpg"",""time"":102},{""stimulus"":""img/green_ww/3.jpg"",""time"":151},{""stimulus"":""img/green_ww/4.jpg"",""time"":201},{""stimulus"":""img/green_ww/5.jpg"",""time"":252},{""stimulus"":""img/green_ww/6.jpg"",""time"":301},{""stimulus"":""img/green_ww/7.jpg"",""time"":351},{""stimulus"":""img/green_ww/8.jpg"",""time"":401},{""stimulus"":""img/green_ww/9.jpg"",""time"":451},{""stimulus"":""img/green_ww/10.jpg"",""time"":501},{""stimulus"":""img/green_ww/11.jpg"",""time"":551}]","[]"
"image-keyboard-response","134","121818","0.0-5.0-1.65","580777dd827ca10001db494b","bdp_lott","Sun Mar 26 2023 01:54:12 GMT-0400 (Eastern Daylight Time)","317993","green","red","","588","","","","choice","","img/green_ww/choose11.jpg","2","160","red","0.5","0.5","0.5","w","",""
"animation","135","122419","0.0-5.0-2.65","580777dd827ca10001db494b","bdp_lott","Sun Mar 26 2023 01:54:12 GMT-0400 (Eastern Daylight Time)","317993","green","red","","","","","","","","","","160","","","","","","[{""stimulus"":""img/red_ww/1.jpg"",""time"":52},{""stimulus"":""img/red_ww/2.jpg"",""time"":101},{""stimulus"":""img/red_ww/3.jpg"",""time"":151},{""stimulus"":""img/red_ww/4.jpg"",""time"":201},{""stimulus"":""img/red_ww/5.jpg"",""time"":251},{""stimulus"":""img/red_ww/6.jpg"",""time"":301},{""stimulus"":""img/red_ww/7.jpg"",""time"":351},{""stimulus"":""img/red_ww/8.jpg"",""time"":401},{""stimulus"":""img/red_ww/9.jpg"",""time"":451},{""stimulus"":""img/red_ww/10.jpg"",""time"":501},{""stimulus"":""img/red_ww/11.jpg"",""time"":551}]","[]"
"image-keyboard-response","136","122975","0.0-5.0-1.66","580777dd827ca10001db494b","bdp_lott","Sun Mar 26 2023 01:54:12 GMT-0400 (Eastern Daylight Time)","317993","green","red","","553","","","","choice","","img/red_ww/choose11.jpg","1","159","green","0.5","0.5","0.5","l","",""
"animation","137","123576","0.0-5.0-2.66","580777dd827ca10001db494b","bdp_lott","Sun Mar 26 2023 01:54:12 GMT-0400 (Eastern Daylight Time)","317993","green","red","","","","","","","","","","159","","","","","","[{""stimulus"":""img/green_lw/1.jpg"",""time"":52},{""stimulus"":""img/green_lw/2.jpg"",""time"":101},{""stimulus"":""img/green_lw/3.jpg"",""time"":151},{""stimulus"":""img/green_lw/4.jpg"",""time"":201},{""stimulus"":""img/green_lw/5.jpg"",""time"":251},{""stimulus"":""img/green_lw/6.jpg"",""time"":301},{""stimulus"":""img/green_lw/7.jpg"",""time"":351},{""stimulus"":""img/green_lw/8.jpg"",""time"":401},{""stimulus"":""img/green_lw/9.jpg"",""time"":451},{""stimulus"":""img/green_lw/10.jpg"",""time"":501},{""stimulus"":""img/green_lw/11.jpg"",""time"":551}]","[]"
"image-keyboard-response","138","124366","0.0-5.0-1.67","580777dd827ca10001db494b","bdp_lott","Sun Mar 26 2023 01:54:12 GMT-0400 (Eastern Daylight Time)","317993","green","red","","787","","","","choice","","img/green_lw/choose11.jpg","1","158","green","0.5","0.5","0.5","l","",""
"animation","139","124967","0.0-5.0-2.67","580777dd827ca10001db494b","bdp_lott","Sun Mar 26 2023 01:54:12 GMT-0400 (Eastern Daylight Time)","317993","green","red","","","","","","","","","","158","","","","","","[{""stimulus"":""img/green_lw/1.jpg"",""time"":52},{""stimulus"":""img/green_lw/2.jpg"",""time"":101},{""stimulus"":""img/green_lw/3.jpg"",""time"":153},{""stimulus"":""img/green_lw/4.jpg"",""time"":201},{""stimulus"":""img/green_lw/5.jpg"",""time"":251},{""stimulus"":""img/green_lw/6.jpg"",""time"":301},{""stimulus"":""img/green_lw/7.jpg"",""time"":351},{""stimulus"":""img/green_lw/8.jpg"",""time"":401},{""stimulus"":""img/green_lw/9.jpg"",""time"":451},{""stimulus"":""img/green_lw/10.jpg"",""time"":501},{""stimulus"":""img/green_lw/11.jpg"",""time"":551}]","[]"
"image-keyboard-response","140","125462","0.0-5.0-1.68","580777dd827ca10001db494b","bdp_lott","Sun Mar 26 2023 01:54:12 GMT-0400 (Eastern Daylight Time)","317993","green","red","","493","","","","choice","","img/green_lw/choose11.jpg","1","157","green","0.5","0.5","0.5","w","",""
"animation","141","126062","0.0-5.0-2.68","580777dd827ca10001db494b","bdp_lott","Sun Mar 26 2023 01:54:12 GMT-0400 (Eastern Daylight Time)","317993","green","red","","","","","","","","","","157","","","","","","[{""stimulus"":""img/green_ww/1.jpg"",""time"":51},{""stimulus"":""img/green_ww/2.jpg"",""time"":101},{""stimulus"":""img/green_ww/3.jpg"",""time"":151},{""stimulus"":""img/green_ww/4.jpg"",""time"":201},{""stimulus"":""img/green_ww/5.jpg"",""time"":251},{""stimulus"":""img/green_ww/6.jpg"",""time"":301},{""stimulus"":""img/green_ww/7.jpg"",""time"":351},{""stimulus"":""img/green_ww/8.jpg"",""time"":401},{""stimulus"":""img/green_ww/9.jpg"",""time"":451},{""stimulus"":""img/green_ww/10.jpg"",""time"":501},{""stimulus"":""img/green_ww/11.jpg"",""time"":551}]","[]"
"image-keyboard-response","142","126568","0.0-5.0-1.69","580777dd827ca10001db494b","bdp_lott","Sun Mar 26 2023 01:54:12 GMT-0400 (Eastern Daylight Time)","317993","green","red","","503","","","","choice","","img/green_ww/choose11.jpg","2","156","red","0.5","0.5","0.5","l","",""
"animation","143","127169","0.0-5.0-2.69","580777dd827ca10001db494b","bdp_lott","Sun Mar 26 2023 01:54:12 GMT-0400 (Eastern Daylight Time)","317993","green","red","","","","","","","","","","156","","","","","","[{""stimulus"":""img/red_wl/1.jpg"",""time"":51},{""stimulus"":""img/red_wl/2.jpg"",""time"":101},{""stimulus"":""img/red_wl/3.jpg"",""time"":151},{""stimulus"":""img/red_wl/4.jpg"",""time"":201},{""stimulus"":""img/red_wl/5.jpg"",""time"":251},{""stimulus"":""img/red_wl/6.jpg"",""time"":301},{""stimulus"":""img/red_wl/7.jpg"",""time"":351},{""stimulus"":""img/red_wl/8.jpg"",""time"":401},{""stimulus"":""img/red_wl/9.jpg"",""time"":452},{""stimulus"":""img/red_wl/10.jpg"",""time"":501},{""stimulus"":""img/red_wl/11.jpg"",""time"":551}]","[]"
"image-keyboard-response","144","127791","0.0-5.0-1.70","580777dd827ca10001db494b","bdp_lott","Sun Mar 26 2023 01:54:12 GMT-0400 (Eastern Daylight Time)","317993","green","red","","621","","","","choice","","img/red_wl/choose11.jpg","2","155","red","0.5","0.5","0.5","w","",""
"animation","145","128393","0.0-5.0-2.70","580777dd827ca10001db494b","bdp_lott","Sun Mar 26 2023 01:54:12 GMT-0400 (Eastern Daylight Time)","317993","green","red","","","","","","","","","","155","","","","","","[{""stimulus"":""img/red_ww/1.jpg"",""time"":51},{""stimulus"":""img/red_ww/2.jpg"",""time"":102},{""stimulus"":""img/red_ww/3.jpg"",""time"":152},{""stimulus"":""img/red_ww/4.jpg"",""time"":202},{""stimulus"":""img/red_ww/5.jpg"",""time"":252},{""stimulus"":""img/red_ww/6.jpg"",""time"":301},{""stimulus"":""img/red_ww/7.jpg"",""time"":352},{""stimulus"":""img/red_ww/8.jpg"",""time"":401},{""stimulus"":""img/red_ww/9.jpg"",""time"":451},{""stimulus"":""img/red_ww/10.jpg"",""time"":501},{""stimulus"":""img/red_ww/11.jpg"",""time"":551}]","[]"
"image-keyboard-response","146","129045","0.0-5.0-1.71","580777dd827ca10001db494b","bdp_lott","Sun Mar 26 2023 01:54:12 GMT-0400 (Eastern Daylight Time)","317993","green","red","","651","","","","choice","","img/red_ww/choose11.jpg","1","154","green","0.5","0.5","0.5","l","",""
"animation","147","129646","0.0-5.0-2.71","580777dd827ca10001db494b","bdp_lott","Sun Mar 26 2023 01:54:12 GMT-0400 (Eastern Daylight Time)","317993","green","red","","","","","","","","","","154","","","","","","[{""stimulus"":""img/green_lw/1.jpg"",""time"":52},{""stimulus"":""img/green_lw/2.jpg"",""time"":102},{""stimulus"":""img/green_lw/3.jpg"",""time"":152},{""stimulus"":""img/green_lw/4.jpg"",""time"":202},{""stimulus"":""img/green_lw/5.jpg"",""time"":252},{""stimulus"":""img/green_lw/6.jpg"",""time"":301},{""stimulus"":""img/green_lw/7.jpg"",""time"":351},{""stimulus"":""img/green_lw/8.jpg"",""time"":401},{""stimulus"":""img/green_lw/9.jpg"",""time"":451},{""stimulus"":""img/green_lw/10.jpg"",""time"":501},{""stimulus"":""img/green_lw/11.jpg"",""time"":552}]","[]"
"image-keyboard-response","148","130383","0.0-5.0-1.72","580777dd827ca10001db494b","bdp_lott","Sun Mar 26 2023 01:54:12 GMT-0400 (Eastern Daylight Time)","317993","green","red","","734","","","","choice","","img/green_lw/choose11.jpg","1","153","green","0.5","0.5","0.5","l","",""
"animation","149","130984","0.0-5.0-2.72","580777dd827ca10001db494b","bdp_lott","Sun Mar 26 2023 01:54:12 GMT-0400 (Eastern Daylight Time)","317993","green","red","","","","","","","","","","153","","","","","","[{""stimulus"":""img/green_lw/1.jpg"",""time"":52},{""stimulus"":""img/green_lw/2.jpg"",""time"":101},{""stimulus"":""img/green_lw/3.jpg"",""time"":151},{""stimulus"":""img/green_lw/4.jpg"",""time"":201},{""stimulus"":""img/green_lw/5.jpg"",""time"":251},{""stimulus"":""img/green_lw/6.jpg"",""time"":301},{""stimulus"":""img/green_lw/7.jpg"",""time"":351},{""stimulus"":""img/green_lw/8.jpg"",""time"":401},{""stimulus"":""img/green_lw/9.jpg"",""time"":451},{""stimulus"":""img/green_lw/10.jpg"",""time"":501},{""stimulus"":""img/green_lw/11.jpg"",""time"":551}]","[]"
"image-keyboard-response","150","131475","0.0-5.0-1.73","580777dd827ca10001db494b","bdp_lott","Sun Mar 26 2023 01:54:12 GMT-0400 (Eastern Daylight Time)","317993","green","red","","489","","","","choice","","img/green_lw/choose11.jpg","1","152","green","0.5","0.5","0.5","w","",""
"animation","151","132076","0.0-5.0-2.73","580777dd827ca10001db494b","bdp_lott","Sun Mar 26 2023 01:54:12 GMT-0400 (Eastern Daylight Time)","317993","green","red","","","","","","","","","","152","","","","","","[{""stimulus"":""img/green_ww/1.jpg"",""time"":51},{""stimulus"":""img/green_ww/2.jpg"",""time"":101},{""stimulus"":""img/green_ww/3.jpg"",""time"":150},{""stimulus"":""img/green_ww/4.jpg"",""time"":200},{""stimulus"":""img/green_ww/5.jpg"",""time"":251},{""stimulus"":""img/green_ww/6.jpg"",""time"":301},{""stimulus"":""img/green_ww/7.jpg"",""time"":351},{""stimulus"":""img/green_ww/8.jpg"",""time"":401},{""stimulus"":""img/green_ww/9.jpg"",""time"":451},{""stimulus"":""img/green_ww/10.jpg"",""time"":500},{""stimulus"":""img/green_ww/11.jpg"",""time"":551}]","[]"
"image-keyboard-response","152","132580","0.0-5.0-1.74","580777dd827ca10001db494b","bdp_lott","Sun Mar 26 2023 01:54:12 GMT-0400 (Eastern Daylight Time)","317993","green","red","","503","","","","choice","","img/green_ww/choose11.jpg","2","151","red","0.5","0.5","0.5","l","",""
"animation","153","133181","0.0-5.0-2.74","580777dd827ca10001db494b","bdp_lott","Sun Mar 26 2023 01:54:12 GMT-0400 (Eastern Daylight Time)","317993","green","red","","","","","","","","","","151","","","","","","[{""stimulus"":""img/red_wl/1.jpg"",""time"":51},{""stimulus"":""img/red_wl/2.jpg"",""time"":101},{""stimulus"":""img/red_wl/3.jpg"",""time"":151},{""stimulus"":""img/red_wl/4.jpg"",""time"":201},{""stimulus"":""img/red_wl/5.jpg"",""time"":251},{""stimulus"":""img/red_wl/6.jpg"",""time"":301},{""stimulus"":""img/red_wl/7.jpg"",""time"":351},{""stimulus"":""img/red_wl/8.jpg"",""time"":401},{""stimulus"":""img/red_wl/9.jpg"",""time"":451},{""stimulus"":""img/red_wl/10.jpg"",""time"":501},{""stimulus"":""img/red_wl/11.jpg"",""time"":551}]","[]"
"image-keyboard-response","154","133785","0.0-5.0-1.75","580777dd827ca10001db494b","bdp_lott","Sun Mar 26 2023 01:54:12 GMT-0400 (Eastern Daylight Time)","317993","green","red","","601","","","","choice","","img/red_wl/choose11.jpg","2","150","red","0.5","0.5","0.5","w","",""
"animation","155","134386","0.0-5.0-2.75","580777dd827ca10001db494b","bdp_lott","Sun Mar 26 2023 01:54:12 GMT-0400 (Eastern Daylight Time)","317993","green","red","","","","","","","","","","150","","","","","","[{""stimulus"":""img/red_ww/1.jpg"",""time"":51},{""stimulus"":""img/red_ww/2.jpg"",""time"":101},{""stimulus"":""img/red_ww/3.jpg"",""time"":151},{""stimulus"":""img/red_ww/4.jpg"",""time"":201},{""stimulus"":""img/red_ww/5.jpg"",""time"":251},{""stimulus"":""img/red_ww/6.jpg"",""time"":301},{""stimulus"":""img/red_ww/7.jpg"",""time"":351},{""stimulus"":""img/red_ww/8.jpg"",""time"":401},{""stimulus"":""img/red_ww/9.jpg"",""time"":451},{""stimulus"":""img/red_ww/10.jpg"",""time"":501},{""stimulus"":""img/red_ww/11.jpg"",""time"":551}]","[]"
"image-keyboard-response","156","134829","0.0-5.0-1.76","580777dd827ca10001db494b","bdp_lott","Sun Mar 26 2023 01:54:12 GMT-0400 (Eastern Daylight Time)","317993","green","red","","440","","","","choice","","img/red_ww/choose11.jpg","2","149","red","0.5","0.1","0.1","l","",""
"animation","157","135430","0.0-5.0-2.76","580777dd827ca10001db494b","bdp_lott","Sun Mar 26 2023 01:54:12 GMT-0400 (Eastern Daylight Time)","317993","green","red","","","","","","","","","","149","","","","","","[{""stimulus"":""img/red_wl/1.jpg"",""time"":51},{""stimulus"":""img/red_wl/2.jpg"",""time"":101},{""stimulus"":""img/red_wl/3.jpg"",""time"":151},{""stimulus"":""img/red_wl/4.jpg"",""time"":201},{""stimulus"":""img/red_wl/5.jpg"",""time"":251},{""stimulus"":""img/red_wl/6.jpg"",""time"":301},{""stimulus"":""img/red_wl/7.jpg"",""time"":351},{""stimulus"":""img/red_wl/8.jpg"",""time"":401},{""stimulus"":""img/red_wl/9.jpg"",""time"":451},{""stimulus"":""img/red_wl/10.jpg"",""time"":501},{""stimulus"":""img/red_wl/11.jpg"",""time"":551}]","[]"
"image-keyboard-response","158","136050","0.0-5.0-1.77","580777dd827ca10001db494b","bdp_lott","Sun Mar 26 2023 01:54:12 GMT-0400 (Eastern Daylight Time)","317993","green","red","","617","","","","choice","","img/red_wl/choose11.jpg","1","148","green","0.5","0.1","0.5","l","",""
"animation","159","136651","0.0-5.0-2.77","580777dd827ca10001db494b","bdp_lott","Sun Mar 26 2023 01:54:12 GMT-0400 (Eastern Daylight Time)","317993","green","red","","","","","","","","","","148","","","","","","[{""stimulus"":""img/green_ll/1.jpg"",""time"":51},{""stimulus"":""img/green_ll/2.jpg"",""time"":101},{""stimulus"":""img/green_ll/3.jpg"",""time"":151},{""stimulus"":""img/green_ll/4.jpg"",""time"":201},{""stimulus"":""img/green_ll/5.jpg"",""time"":251},{""stimulus"":""img/green_ll/6.jpg"",""time"":300},{""stimulus"":""img/green_ll/7.jpg"",""time"":351},{""stimulus"":""img/green_ll/8.jpg"",""time"":401},{""stimulus"":""img/green_ll/9.jpg"",""time"":451},{""stimulus"":""img/green_ll/10.jpg"",""time"":501},{""stimulus"":""img/green_ll/11.jpg"",""time"":551}]","[]"
"image-keyboard-response","160","137045","0.0-5.0-1.78","580777dd827ca10001db494b","bdp_lott","Sun Mar 26 2023 01:54:12 GMT-0400 (Eastern Daylight Time)","317993","green","red","","393","","","","choice","","img/green_ll/choose11.jpg","1","147","green","0.5","0.1","0.5","w","",""
"animation","161","137646","0.0-5.0-2.78","580777dd827ca10001db494b","bdp_lott","Sun Mar 26 2023 01:54:12 GMT-0400 (Eastern Daylight Time)","317993","green","red","","","","","","","","","","147","","","","","","[{""stimulus"":""img/green_wl/1.jpg"",""time"":51},{""stimulus"":""img/green_wl/2.jpg"",""time"":101},{""stimulus"":""img/green_wl/3.jpg"",""time"":151},{""stimulus"":""img/green_wl/4.jpg"",""time"":201},{""stimulus"":""img/green_wl/5.jpg"",""time"":251},{""stimulus"":""img/green_wl/6.jpg"",""time"":301},{""stimulus"":""img/green_wl/7.jpg"",""time"":351},{""stimulus"":""img/green_wl/8.jpg"",""time"":401},{""stimulus"":""img/green_wl/9.jpg"",""time"":451},{""stimulus"":""img/green_wl/10.jpg"",""time"":501},{""stimulus"":""img/green_wl/11.jpg"",""time"":551}]","[]"
"image-keyboard-response","162","138193","0.0-5.0-1.79","580777dd827ca10001db494b","bdp_lott","Sun Mar 26 2023 01:54:12 GMT-0400 (Eastern Daylight Time)","317993","green","red","","544","","","","choice","","img/green_wl/choose11.jpg","2","146","red","0.5","0.1","0.1","l","",""
"animation","163","138794","0.0-5.0-2.79","580777dd827ca10001db494b","bdp_lott","Sun Mar 26 2023 01:54:12 GMT-0400 (Eastern Daylight Time)","317993","green","red","","","","","","","","","","146","","","","","","[{""stimulus"":""img/red_wl/1.jpg"",""time"":51},{""stimulus"":""img/red_wl/2.jpg"",""time"":101},{""stimulus"":""img/red_wl/3.jpg"",""time"":151},{""stimulus"":""img/red_wl/4.jpg"",""time"":202},{""stimulus"":""img/red_wl/5.jpg"",""time"":252},{""stimulus"":""img/red_wl/6.jpg"",""time"":301},{""stimulus"":""img/red_wl/7.jpg"",""time"":352},{""stimulus"":""img/red_wl/8.jpg"",""time"":402},{""stimulus"":""img/red_wl/9.jpg"",""time"":452},{""stimulus"":""img/red_wl/10.jpg"",""time"":501},{""stimulus"":""img/red_wl/11.jpg"",""time"":552}]","[]"
"image-keyboard-response","164","139632","0.0-5.0-1.80","580777dd827ca10001db494b","bdp_lott","Sun Mar 26 2023 01:54:12 GMT-0400 (Eastern Daylight Time)","317993","green","red","","837","","","","choice","","img/red_wl/choose11.jpg","1","145","green","0.5","0.1","0.5","w","",""
"animation","165","140233","0.0-5.0-2.80","580777dd827ca10001db494b","bdp_lott","Sun Mar 26 2023 01:54:12 GMT-0400 (Eastern Daylight Time)","317993","green","red","","","","","","","","","","145","","","","","","[{""stimulus"":""img/green_wl/1.jpg"",""time"":52},{""stimulus"":""img/green_wl/2.jpg"",""time"":101},{""stimulus"":""img/green_wl/3.jpg"",""time"":151},{""stimulus"":""img/green_wl/4.jpg"",""time"":201},{""stimulus"":""img/green_wl/5.jpg"",""time"":252},{""stimulus"":""img/green_wl/6.jpg"",""time"":301},{""stimulus"":""img/green_wl/7.jpg"",""time"":351},{""stimulus"":""img/green_wl/8.jpg"",""time"":401},{""stimulus"":""img/green_wl/9.jpg"",""time"":451},{""stimulus"":""img/green_wl/10.jpg"",""time"":501},{""stimulus"":""img/green_wl/11.jpg"",""time"":551}]","[]"
"image-keyboard-response","166","141401","0.0-5.0-1.81","580777dd827ca10001db494b","bdp_lott","Sun Mar 26 2023 01:54:12 GMT-0400 (Eastern Daylight Time)","317993","green","red","","1166","","","","choice","","img/green_wl/choose11.jpg","1","144","green","0.5","0.1","0.5","w","",""
"animation","167","142003","0.0-5.0-2.81","580777dd827ca10001db494b","bdp_lott","Sun Mar 26 2023 01:54:12 GMT-0400 (Eastern Daylight Time)","317993","green","red","","","","","","","","","","144","","","","","","[{""stimulus"":""img/green_wl/1.jpg"",""time"":51},{""stimulus"":""img/green_wl/2.jpg"",""time"":101},{""stimulus"":""img/green_wl/3.jpg"",""time"":151},{""stimulus"":""img/green_wl/4.jpg"",""time"":201},{""stimulus"":""img/green_wl/5.jpg"",""time"":251},{""stimulus"":""img/green_wl/6.jpg"",""time"":301},{""stimulus"":""img/green_wl/7.jpg"",""time"":351},{""stimulus"":""img/green_wl/8.jpg"",""time"":401},{""stimulus"":""img/green_wl/9.jpg"",""time"":450},{""stimulus"":""img/green_wl/10.jpg"",""time"":500},{""stimulus"":""img/green_wl/11.jpg"",""time"":550}]","[]"
"image-keyboard-response","168","142827","0.0-5.0-1.82","580777dd827ca10001db494b","bdp_lott","Sun Mar 26 2023 01:54:12 GMT-0400 (Eastern Daylight Time)","317993","green","red","","822","","","","choice","","img/green_wl/choose11.jpg","1","143","green","0.5","0.1","0.5","l","",""
"animation","169","143428","0.0-5.0-2.82","580777dd827ca10001db494b","bdp_lott","Sun Mar 26 2023 01:54:12 GMT-0400 (Eastern Daylight Time)","317993","green","red","","","","","","","","","","143","","","","","","[{""stimulus"":""img/green_ll/1.jpg"",""time"":51},{""stimulus"":""img/green_ll/2.jpg"",""time"":101},{""stimulus"":""img/green_ll/3.jpg"",""time"":151},{""stimulus"":""img/green_ll/4.jpg"",""time"":201},{""stimulus"":""img/green_ll/5.jpg"",""time"":251},{""stimulus"":""img/green_ll/6.jpg"",""time"":301},{""stimulus"":""img/green_ll/7.jpg"",""time"":351},{""stimulus"":""img/green_ll/8.jpg"",""time"":401},{""stimulus"":""img/green_ll/9.jpg"",""time"":451},{""stimulus"":""img/green_ll/10.jpg"",""time"":501},{""stimulus"":""img/green_ll/11.jpg"",""time"":551}]","[]"
"image-keyboard-response","170","144022","0.0-5.0-1.83","580777dd827ca10001db494b","bdp_lott","Sun Mar 26 2023 01:54:12 GMT-0400 (Eastern Daylight Time)","317993","green","red","","592","","","","choice","","img/green_ll/choose11.jpg","2","142","red","0.5","0.1","0.1","w","",""
"animation","171","144623","0.0-5.0-2.83","580777dd827ca10001db494b","bdp_lott","Sun Mar 26 2023 01:54:12 GMT-0400 (Eastern Daylight Time)","317993","green","red","","","","","","","","","","142","","","","","","[{""stimulus"":""img/red_lw/1.jpg"",""time"":52},{""stimulus"":""img/red_lw/2.jpg"",""time"":102},{""stimulus"":""img/red_lw/3.jpg"",""time"":151},{""stimulus"":""img/red_lw/4.jpg"",""time"":201},{""stimulus"":""img/red_lw/5.jpg"",""time"":251},{""stimulus"":""img/red_lw/6.jpg"",""time"":301},{""stimulus"":""img/red_lw/7.jpg"",""time"":351},{""stimulus"":""img/red_lw/8.jpg"",""time"":401},{""stimulus"":""img/red_lw/9.jpg"",""time"":451},{""stimulus"":""img/red_lw/10.jpg"",""time"":501},{""stimulus"":""img/red_lw/11.jpg"",""time"":551}]","[]"
"image-keyboard-response","172","145521","0.0-5.0-1.84","580777dd827ca10001db494b","bdp_lott","Sun Mar 26 2023 01:54:12 GMT-0400 (Eastern Daylight Time)","317993","green","red","","894","","","","choice","","img/red_lw/choose11.jpg","2","141","red","0.5","0.1","0.1","l","",""
"animation","173","146122","0.0-5.0-2.84","580777dd827ca10001db494b","bdp_lott","Sun Mar 26 2023 01:54:12 GMT-0400 (Eastern Daylight Time)","317993","green","red","","","","","","","","","","141","","","","","","[{""stimulus"":""img/red_ll/1.jpg"",""time"":52},{""stimulus"":""img/red_ll/2.jpg"",""time"":102},{""stimulus"":""img/red_ll/3.jpg"",""time"":151},{""stimulus"":""img/red_ll/4.jpg"",""time"":201},{""stimulus"":""img/red_ll/5.jpg"",""time"":251},{""stimulus"":""img/red_ll/6.jpg"",""time"":302},{""stimulus"":""img/red_ll/7.jpg"",""time"":351},{""stimulus"":""img/red_ll/8.jpg"",""time"":402},{""stimulus"":""img/red_ll/9.jpg"",""time"":452},{""stimulus"":""img/red_ll/10.jpg"",""time"":501},{""stimulus"":""img/red_ll/11.jpg"",""time"":552}]","[]"
"image-keyboard-response","174","146780","0.0-5.0-1.85","580777dd827ca10001db494b","bdp_lott","Sun Mar 26 2023 01:54:12 GMT-0400 (Eastern Daylight Time)","317993","green","red","","656","","","","choice","","img/red_ll/choose11.jpg","1","140","green","0.5","0.1","0.5","w","",""
"animation","175","147381","0.0-5.0-2.85","580777dd827ca10001db494b","bdp_lott","Sun Mar 26 2023 01:54:12 GMT-0400 (Eastern Daylight Time)","317993","green","red","","","","","","","","","","140","","","","","","[{""stimulus"":""img/green_wl/1.jpg"",""time"":52},{""stimulus"":""img/green_wl/2.jpg"",""time"":102},{""stimulus"":""img/green_wl/3.jpg"",""time"":152},{""stimulus"":""img/green_wl/4.jpg"",""time"":201},{""stimulus"":""img/green_wl/5.jpg"",""time"":252},{""stimulus"":""img/green_wl/6.jpg"",""time"":302},{""stimulus"":""img/green_wl/7.jpg"",""time"":352},{""stimulus"":""img/green_wl/8.jpg"",""time"":402},{""stimulus"":""img/green_wl/9.jpg"",""time"":452},{""stimulus"":""img/green_wl/10.jpg"",""time"":502},{""stimulus"":""img/green_wl/11.jpg"",""time"":552}]","[]"
"image-keyboard-response","176","148049","0.0-5.0-1.86","580777dd827ca10001db494b","bdp_lott","Sun Mar 26 2023 01:54:12 GMT-0400 (Eastern Daylight Time)","317993","green","red","","666","","","","choice","","img/green_wl/choose11.jpg","2","139","red","0.5","0.1","0.1","l","",""
"animation","177","148650","0.0-5.0-2.86","580777dd827ca10001db494b","bdp_lott","Sun Mar 26 2023 01:54:12 GMT-0400 (Eastern Daylight Time)","317993","green","red","","","","","","","","","","139","","","","","","[{""stimulus"":""img/red_wl/1.jpg"",""time"":51},{""stimulus"":""img/red_wl/2.jpg"",""time"":101},{""stimulus"":""img/red_wl/3.jpg"",""time"":151},{""stimulus"":""img/red_wl/4.jpg"",""time"":201},{""stimulus"":""img/red_wl/5.jpg"",""time"":251},{""stimulus"":""img/red_wl/6.jpg"",""time"":301},{""stimulus"":""img/red_wl/7.jpg"",""time"":352},{""stimulus"":""img/red_wl/8.jpg"",""time"":402},{""stimulus"":""img/red_wl/9.jpg"",""time"":451},{""stimulus"":""img/red_wl/10.jpg"",""time"":502},{""stimulus"":""img/red_wl/11.jpg"",""time"":552}]","[]"
"image-keyboard-response","178","149261","0.0-5.0-1.87","580777dd827ca10001db494b","bdp_lott","Sun Mar 26 2023 01:54:12 GMT-0400 (Eastern Daylight Time)","317993","green","red","","610","","","","choice","","img/red_wl/choose11.jpg","1","138","green","0.5","0.1","0.5","w","",""
"animation","179","149862","0.0-5.0-2.87","580777dd827ca10001db494b","bdp_lott","Sun Mar 26 2023 01:54:12 GMT-0400 (Eastern Daylight Time)","317993","green","red","","","","","","","","","","138","","","","","","[{""stimulus"":""img/green_wl/1.jpg"",""time"":51},{""stimulus"":""img/green_wl/2.jpg"",""time"":101},{""stimulus"":""img/green_wl/3.jpg"",""time"":151},{""stimulus"":""img/green_wl/4.jpg"",""time"":201},{""stimulus"":""img/green_wl/5.jpg"",""time"":251},{""stimulus"":""img/green_wl/6.jpg"",""time"":301},{""stimulus"":""img/green_wl/7.jpg"",""time"":351},{""stimulus"":""img/green_wl/8.jpg"",""time"":401},{""stimulus"":""img/green_wl/9.jpg"",""time"":451},{""stimulus"":""img/green_wl/10.jpg"",""time"":501},{""stimulus"":""img/green_wl/11.jpg"",""time"":551}]","[]"
"image-keyboard-response","180","150490","0.0-5.0-1.88","580777dd827ca10001db494b","bdp_lott","Sun Mar 26 2023 01:54:12 GMT-0400 (Eastern Daylight Time)","317993","green","red","","626","","","","choice","","img/green_wl/choose11.jpg","1","137","green","0.5","0.1","0.5","l","",""
"animation","181","151091","0.0-5.0-2.88","580777dd827ca10001db494b","bdp_lott","Sun Mar 26 2023 01:54:12 GMT-0400 (Eastern Daylight Time)","317993","green","red","","","","","","","","","","137","","","","","","[{""stimulus"":""img/green_ll/1.jpg"",""time"":52},{""stimulus"":""img/green_ll/2.jpg"",""time"":101},{""stimulus"":""img/green_ll/3.jpg"",""time"":151},{""stimulus"":""img/green_ll/4.jpg"",""time"":201},{""stimulus"":""img/green_ll/5.jpg"",""time"":251},{""stimulus"":""img/green_ll/6.jpg"",""time"":301},{""stimulus"":""img/green_ll/7.jpg"",""time"":352},{""stimulus"":""img/green_ll/8.jpg"",""time"":401},{""stimulus"":""img/green_ll/9.jpg"",""time"":452},{""stimulus"":""img/green_ll/10.jpg"",""time"":501},{""stimulus"":""img/green_ll/11.jpg"",""time"":552}]","[]"
"image-keyboard-response","182","151829","0.0-5.0-1.89","580777dd827ca10001db494b","bdp_lott","Sun Mar 26 2023 01:54:12 GMT-0400 (Eastern Daylight Time)","317993","green","red","","736","","","","choice","","img/green_ll/choose11.jpg","1","136","green","0.5","0.1","0.5","l","",""
"animation","183","152430","0.0-5.0-2.89","580777dd827ca10001db494b","bdp_lott","Sun Mar 26 2023 01:54:12 GMT-0400 (Eastern Daylight Time)","317993","green","red","","","","","","","","","","136","","","","","","[{""stimulus"":""img/green_ll/1.jpg"",""time"":52},{""stimulus"":""img/green_ll/2.jpg"",""time"":101},{""stimulus"":""img/green_ll/3.jpg"",""time"":151},{""stimulus"":""img/green_ll/4.jpg"",""time"":201},{""stimulus"":""img/green_ll/5.jpg"",""time"":251},{""stimulus"":""img/green_ll/6.jpg"",""time"":301},{""stimulus"":""img/green_ll/7.jpg"",""time"":352},{""stimulus"":""img/green_ll/8.jpg"",""time"":402},{""stimulus"":""img/green_ll/9.jpg"",""time"":452},{""stimulus"":""img/green_ll/10.jpg"",""time"":502},{""stimulus"":""img/green_ll/11.jpg"",""time"":552}]","[]"
"image-keyboard-response","184","153023","0.0-5.0-1.90","580777dd827ca10001db494b","bdp_lott","Sun Mar 26 2023 01:54:12 GMT-0400 (Eastern Daylight Time)","317993","green","red","","591","","","","choice","","img/green_ll/choose11.jpg","1","135","green","0.5","0.1","0.5","l","",""
"animation","185","153625","0.0-5.0-2.90","580777dd827ca10001db494b","bdp_lott","Sun Mar 26 2023 01:54:12 GMT-0400 (Eastern Daylight Time)","317993","green","red","","","","","","","","","","135","","","","","","[{""stimulus"":""img/green_ll/1.jpg"",""time"":52},{""stimulus"":""img/green_ll/2.jpg"",""time"":101},{""stimulus"":""img/green_ll/3.jpg"",""time"":151},{""stimulus"":""img/green_ll/4.jpg"",""time"":201},{""stimulus"":""img/green_ll/5.jpg"",""time"":251},{""stimulus"":""img/green_ll/6.jpg"",""time"":301},{""stimulus"":""img/green_ll/7.jpg"",""time"":351},{""stimulus"":""img/green_ll/8.jpg"",""time"":401},{""stimulus"":""img/green_ll/9.jpg"",""time"":452},{""stimulus"":""img/green_ll/10.jpg"",""time"":501},{""stimulus"":""img/green_ll/11.jpg"",""time"":551}]","[]"
"image-keyboard-response","186","154174","0.0-5.0-1.91","580777dd827ca10001db494b","bdp_lott","Sun Mar 26 2023 01:54:12 GMT-0400 (Eastern Daylight Time)","317993","green","red","","548","","","","choice","","img/green_ll/choose11.jpg","2","134","red","0.5","0.1","0.1","l","",""
"animation","187","154775","0.0-5.0-2.91","580777dd827ca10001db494b","bdp_lott","Sun Mar 26 2023 01:54:12 GMT-0400 (Eastern Daylight Time)","317993","green","red","","","","","","","","","","134","","","","","","[{""stimulus"":""img/red_ll/1.jpg"",""time"":52},{""stimulus"":""img/red_ll/2.jpg"",""time"":101},{""stimulus"":""img/red_ll/3.jpg"",""time"":151},{""stimulus"":""img/red_ll/4.jpg"",""time"":201},{""stimulus"":""img/red_ll/5.jpg"",""time"":251},{""stimulus"":""img/red_ll/6.jpg"",""time"":301},{""stimulus"":""img/red_ll/7.jpg"",""time"":351},{""stimulus"":""img/red_ll/8.jpg"",""time"":401},{""stimulus"":""img/red_ll/9.jpg"",""time"":451},{""stimulus"":""img/red_ll/10.jpg"",""time"":501},{""stimulus"":""img/red_ll/11.jpg"",""time"":551}]","[]"
"image-keyboard-response","188","155379","0.0-5.0-1.92","580777dd827ca10001db494b","bdp_lott","Sun Mar 26 2023 01:54:12 GMT-0400 (Eastern Daylight Time)","317993","green","red","","601","","","","choice","","img/red_ll/choose11.jpg","1","133","green","0.5","0.1","0.5","w","",""
"animation","189","155980","0.0-5.0-2.92","580777dd827ca10001db494b","bdp_lott","Sun Mar 26 2023 01:54:12 GMT-0400 (Eastern Daylight Time)","317993","green","red","","","","","","","","","","133","","","","","","[{""stimulus"":""img/green_wl/1.jpg"",""time"":52},{""stimulus"":""img/green_wl/2.jpg"",""time"":102},{""stimulus"":""img/green_wl/3.jpg"",""time"":151},{""stimulus"":""img/green_wl/4.jpg"",""time"":201},{""stimulus"":""img/green_wl/5.jpg"",""time"":251},{""stimulus"":""img/green_wl/6.jpg"",""time"":301},{""stimulus"":""img/green_wl/7.jpg"",""time"":351},{""stimulus"":""img/green_wl/8.jpg"",""time"":401},{""stimulus"":""img/green_wl/9.jpg"",""time"":451},{""stimulus"":""img/green_wl/10.jpg"",""time"":501},{""stimulus"":""img/green_wl/11.jpg"",""time"":551}]","[]"
"image-keyboard-response","190","156551","0.0-5.0-1.93","580777dd827ca10001db494b","bdp_lott","Sun Mar 26 2023 01:54:12 GMT-0400 (Eastern Daylight Time)","317993","green","red","","568","","","","choice","","img/green_wl/choose11.jpg","2","132","red","0.5","0.1","0.1","l","",""
