"event","trial","time","trialtype","subject_id","task","startTime","totalTime","fairMachine","unfairMachine","trial_type","trial_index","time_elapsed","internal_node_id","view_history","rt","success","stimulus","key_press","roundsLeft","chosen","pFairMachWin","pUnfairMachWin","pTrialWin","outcome","animation_sequence","responses"
"focus","0","0","focusevent","631b428359f449b8159625f8","bdp_lott","Mon Mar 27 2023 10:13:46 GMT-0400 (Eastern Daylight Time)","452870","red","green","","","","","","","","","","","","","","","","",""
"","","","","631b428359f449b8159625f8","bdp_lott","Mon Mar 27 2023 10:13:46 GMT-0400 (Eastern Daylight Time)","452870","red","green","pavlovia","0","32","0.0-0.0","","","","","","","","","","","","",""
"","","","","631b428359f449b8159625f8","bdp_lott","Mon Mar 27 2023 10:13:46 GMT-0400 (Eastern Daylight Time)","452870","red","green","instructions","1","6141","0.0-1.0","[{""page_index"":0,""viewing_time"":6106}]","6107","","","","","","","","","","",""
"fullscreenexit","2","11361","fullscreenexit","631b428359f449b8159625f8","bdp_lott","Mon Mar 27 2023 10:13:46 GMT-0400 (Eastern Daylight Time)","452870","red","green","","","","","","","","","","","","","","","","",""
"","","","","631b428359f449b8159625f8","bdp_lott","Mon Mar 27 2023 10:13:46 GMT-0400 (Eastern Daylight Time)","452870","red","green","fullscreen","2","11973","0.0-2.0","","","true","","","","","","","","","",""
"fullscreenexit","3","23542","fullscreenexit","631b428359f449b8159625f8","bdp_lott","Mon Mar 27 2023 10:13:46 GMT-0400 (Eastern Daylight Time)","452870","red","green","","","","","","","","","","","","","","","","",""
"","","","fullscreenfail","631b428359f449b8159625f8","bdp_lott","Mon Mar 27 2023 10:13:46 GMT-0400 (Eastern Daylight Time)","452870","red","green","image-keyboard-response","3","45218","0.0-3.0-0.0","","33240","","","32","","","","","","","",""
"","","","","631b428359f449b8159625f8","bdp_lott","Mon Mar 27 2023 10:13:46 GMT-0400 (Eastern Daylight Time)","452870","red","green","instructions","4","92867","0.0-4.0","[{""page_index"":0,""viewing_time"":47391}]","47392","","","","","","","","","","",""
"","","","choice","631b428359f449b8159625f8","bdp_lott","Mon Mar 27 2023 10:13:46 GMT-0400 (Eastern Daylight Time)","452870","red","green","image-keyboard-response","5","96253","0.0-5.0-1.0","","3381","","img/red_ll/initchoose11.jpg","1","225","green","0.5","0.5","0.5","w","",""
"","","","","631b428359f449b8159625f8","bdp_lott","Mon Mar 27 2023 10:13:46 GMT-0400 (Eastern Daylight Time)","452870","red","green","animation","6","97008","0.0-5.0-2.0","","","","","","225","","","","","","[{""stimulus"":""img/green_wl/1.jpg"",""time"":56},{""stimulus"":""img/green_wl/2.jpg"",""time"":108},{""stimulus"":""img/green_wl/3.jpg"",""time"":172},{""stimulus"":""img/green_wl/4.jpg"",""time"":224},{""stimulus"":""img/green_wl/5.jpg"",""time"":312},{""stimulus"":""img/green_wl/6.jpg"",""time"":375},{""stimulus"":""img/green_wl/7.jpg"",""time"":444},{""stimulus"":""img/green_wl/8.jpg"",""time"":506},{""stimulus"":""img/green_wl/9.jpg"",""time"":569},{""stimulus"":""img/green_wl/10.jpg"",""time"":622},{""stimulus"":""img/green_wl/11.jpg"",""time"":692}]","[]"
"","","","choice","631b428359f449b8159625f8","bdp_lott","Mon Mar 27 2023 10:13:46 GMT-0400 (Eastern Daylight Time)","452870","red","green","image-keyboard-response","7","101528","0.0-5.0-1.1","","4516","","img/green_wl/choose11.jpg","2","224","red","0.5","0.5","0.5","w","",""
"","","","","631b428359f449b8159625f8","bdp_lott","Mon Mar 27 2023 10:13:46 GMT-0400 (Eastern Daylight Time)","452870","red","green","animation","8","102264","0.0-5.0-2.1","","","","","","224","","","","","","[{""stimulus"":""img/red_ww/1.jpg"",""time"":67},{""stimulus"":""img/red_ww/2.jpg"",""time"":135},{""stimulus"":""img/red_ww/3.jpg"",""time"":197},{""stimulus"":""img/red_ww/4.jpg"",""time"":251},{""stimulus"":""img/red_ww/5.jpg"",""time"":314},{""stimulus"":""img/red_ww/6.jpg"",""time"":367},{""stimulus"":""img/red_ww/7.jpg"",""time"":436},{""stimulus"":""img/red_ww/8.jpg"",""time"":498},{""stimulus"":""img/red_ww/9.jpg"",""time"":552},{""stimulus"":""img/red_ww/10.jpg"",""time"":614},{""stimulus"":""img/red_ww/11.jpg"",""time"":668}]","[]"
"","","","choice","631b428359f449b8159625f8","bdp_lott","Mon Mar 27 2023 10:13:46 GMT-0400 (Eastern Daylight Time)","452870","red","green","image-keyboard-response","9","104994","0.0-5.0-1.2","","2725","","img/red_ww/choose11.jpg","1","223","green","0.5","0.5","0.5","w","",""
"","","","","631b428359f449b8159625f8","bdp_lott","Mon Mar 27 2023 10:13:46 GMT-0400 (Eastern Daylight Time)","452870","red","green","animation","10","105722","0.0-5.0-2.2","","","","","","223","","","","","","[{""stimulus"":""img/green_ww/1.jpg"",""time"":63},{""stimulus"":""img/green_ww/2.jpg"",""time"":126},{""stimulus"":""img/green_ww/3.jpg"",""time"":179},{""stimulus"":""img/green_ww/4.jpg"",""time"":241},{""stimulus"":""img/green_ww/5.jpg"",""time"":295},{""stimulus"":""img/green_ww/6.jpg"",""time"":365},{""stimulus"":""img/green_ww/7.jpg"",""time"":426},{""stimulus"":""img/green_ww/8.jpg"",""time"":480},{""stimulus"":""img/green_ww/9.jpg"",""time"":542},{""stimulus"":""img/green_ww/10.jpg"",""time"":595},{""stimulus"":""img/green_ww/11.jpg"",""time"":665}]","[]"
"","","","choice","631b428359f449b8159625f8","bdp_lott","Mon Mar 27 2023 10:13:46 GMT-0400 (Eastern Daylight Time)","452870","red","green","image-keyboard-response","11","107630","0.0-5.0-1.3","","1907","","img/green_ww/choose11.jpg","2","222","red","0.5","0.5","0.5","w","",""
"","","","","631b428359f449b8159625f8","bdp_lott","Mon Mar 27 2023 10:13:46 GMT-0400 (Eastern Daylight Time)","452870","red","green","animation","12","108346","0.0-5.0-2.3","","","","","","222","","","","","","[{""stimulus"":""img/red_ww/1.jpg"",""time"":51},{""stimulus"":""img/red_ww/2.jpg"",""time"":113},{""stimulus"":""img/red_ww/3.jpg"",""time"":167},{""stimulus"":""img/red_ww/4.jpg"",""time"":236},{""stimulus"":""img/red_ww/5.jpg"",""time"":298},{""stimulus"":""img/red_ww/6.jpg"",""time"":352},{""stimulus"":""img/red_ww/7.jpg"",""time"":414},{""stimulus"":""img/red_ww/8.jpg"",""time"":468},{""stimulus"":""img/red_ww/9.jpg"",""time"":539},{""stimulus"":""img/red_ww/10.jpg"",""time"":600},{""stimulus"":""img/red_ww/11.jpg"",""time"":653}]","[]"
"","","","choice","631b428359f449b8159625f8","bdp_lott","Mon Mar 27 2023 10:13:46 GMT-0400 (Eastern Daylight Time)","452870","red","green","image-keyboard-response","13","110391","0.0-5.0-1.4","","2042","","img/red_ww/choose11.jpg","1","221","green","0.5","0.5","0.5","w","",""
"","","","","631b428359f449b8159625f8","bdp_lott","Mon Mar 27 2023 10:13:46 GMT-0400 (Eastern Daylight Time)","452870","red","green","animation","14","111110","0.0-5.0-2.4","","","","","","221","","","","","","[{""stimulus"":""img/green_ww/1.jpg"",""time"":62},{""stimulus"":""img/green_ww/2.jpg"",""time"":116},{""stimulus"":""img/green_ww/3.jpg"",""time"":186},{""stimulus"":""img/green_ww/4.jpg"",""time"":247},{""stimulus"":""img/green_ww/5.jpg"",""time"":301},{""stimulus"":""img/green_ww/6.jpg"",""time"":363},{""stimulus"":""img/green_ww/7.jpg"",""time"":417},{""stimulus"":""img/green_ww/8.jpg"",""time"":487},{""stimulus"":""img/green_ww/9.jpg"",""time"":549},{""stimulus"":""img/green_ww/10.jpg"",""time"":602},{""stimulus"":""img/green_ww/11.jpg"",""time"":665}]","[]"
"","","","choice","631b428359f449b8159625f8","bdp_lott","Mon Mar 27 2023 10:13:46 GMT-0400 (Eastern Daylight Time)","452870","red","green","image-keyboard-response","15","112795","0.0-5.0-1.5","","1684","","img/green_ww/choose11.jpg","2","220","red","0.5","0.5","0.5","w","",""
"","","","","631b428359f449b8159625f8","bdp_lott","Mon Mar 27 2023 10:13:46 GMT-0400 (Eastern Daylight Time)","452870","red","green","animation","16","113501","0.0-5.0-2.5","","","","","","220","","","","","","[{""stimulus"":""img/red_ww/1.jpg"",""time"":52},{""stimulus"":""img/red_ww/2.jpg"",""time"":105},{""stimulus"":""img/red_ww/3.jpg"",""time"":167},{""stimulus"":""img/red_ww/4.jpg"",""time"":221},{""stimulus"":""img/red_ww/5.jpg"",""time"":291},{""stimulus"":""img/red_ww/6.jpg"",""time"":352},{""stimulus"":""img/red_ww/7.jpg"",""time"":405},{""stimulus"":""img/red_ww/8.jpg"",""time"":468},{""stimulus"":""img/red_ww/9.jpg"",""time"":521},{""stimulus"":""img/red_ww/10.jpg"",""time"":598},{""stimulus"":""img/red_ww/11.jpg"",""time"":653}]","[]"
"","","","choice","631b428359f449b8159625f8","bdp_lott","Mon Mar 27 2023 10:13:46 GMT-0400 (Eastern Daylight Time)","452870","red","green","image-keyboard-response","17","115073","0.0-5.0-1.6","","1570","","img/red_ww/choose11.jpg","1","219","green","0.5","0.5","0.5","w","",""
"","","","","631b428359f449b8159625f8","bdp_lott","Mon Mar 27 2023 10:13:46 GMT-0400 (Eastern Daylight Time)","452870","red","green","animation","18","115793","0.0-5.0-2.6","","","","","","219","","","","","","[{""stimulus"":""img/green_ww/1.jpg"",""time"":65},{""stimulus"":""img/green_ww/2.jpg"",""time"":118},{""stimulus"":""img/green_ww/3.jpg"",""time"":181},{""stimulus"":""img/green_ww/4.jpg"",""time"":233},{""stimulus"":""img/green_ww/5.jpg"",""time"":296},{""stimulus"":""img/green_ww/6.jpg"",""time"":349},{""stimulus"":""img/green_ww/7.jpg"",""time"":419},{""stimulus"":""img/green_ww/8.jpg"",""time"":482},{""stimulus"":""img/green_ww/9.jpg"",""time"":535},{""stimulus"":""img/green_ww/10.jpg"",""time"":598},{""stimulus"":""img/green_ww/11.jpg"",""time"":651}]","[]"
"","","","choice","631b428359f449b8159625f8","bdp_lott","Mon Mar 27 2023 10:13:46 GMT-0400 (Eastern Daylight Time)","452870","red","green","image-keyboard-response","19","117237","0.0-5.0-1.7","","1443","","img/green_ww/choose11.jpg","2","218","red","0.5","0.5","0.5","w","",""
"","","","","631b428359f449b8159625f8","bdp_lott","Mon Mar 27 2023 10:13:46 GMT-0400 (Eastern Daylight Time)","452870","red","green","animation","20","117963","0.0-5.0-2.7","","","","","","218","","","","","","[{""stimulus"":""img/red_ww/1.jpg"",""time"":62},{""stimulus"":""img/red_ww/2.jpg"",""time"":124},{""stimulus"":""img/red_ww/3.jpg"",""time"":176},{""stimulus"":""img/red_ww/4.jpg"",""time"":239},{""stimulus"":""img/red_ww/5.jpg"",""time"":293},{""stimulus"":""img/red_ww/6.jpg"",""time"":362},{""stimulus"":""img/red_ww/7.jpg"",""time"":424},{""stimulus"":""img/red_ww/8.jpg"",""time"":478},{""stimulus"":""img/red_ww/9.jpg"",""time"":540},{""stimulus"":""img/red_ww/10.jpg"",""time"":593},{""stimulus"":""img/red_ww/11.jpg"",""time"":664}]","[]"
"","","","choice","631b428359f449b8159625f8","bdp_lott","Mon Mar 27 2023 10:13:46 GMT-0400 (Eastern Daylight Time)","452870","red","green","image-keyboard-response","21","119472","0.0-5.0-1.8","","1507","","img/red_ww/choose11.jpg","1","217","green","0.5","0.5","0.5","l","",""
"","","","","631b428359f449b8159625f8","bdp_lott","Mon Mar 27 2023 10:13:46 GMT-0400 (Eastern Daylight Time)","452870","red","green","animation","22","120187","0.0-5.0-2.8","","","","","","217","","","","","","[{""stimulus"":""img/green_lw/1.jpg"",""time"":51},{""stimulus"":""img/green_lw/2.jpg"",""time"":113},{""stimulus"":""img/green_lw/3.jpg"",""time"":166},{""stimulus"":""img/green_lw/4.jpg"",""time"":236},{""stimulus"":""img/green_lw/5.jpg"",""time"":299},{""stimulus"":""img/green_lw/6.jpg"",""time"":352},{""stimulus"":""img/green_lw/7.jpg"",""time"":415},{""stimulus"":""img/green_lw/8.jpg"",""time"":468},{""stimulus"":""img/green_lw/9.jpg"",""time"":537},{""stimulus"":""img/green_lw/10.jpg"",""time"":599},{""stimulus"":""img/green_lw/11.jpg"",""time"":653}]","[]"
"","","","choice","631b428359f449b8159625f8","bdp_lott","Mon Mar 27 2023 10:13:46 GMT-0400 (Eastern Daylight Time)","452870","red","green","image-keyboard-response","23","122283","0.0-5.0-1.9","","2095","","img/green_lw/choose11.jpg","2","216","red","0.5","0.5","0.5","l","",""
"","","","","631b428359f449b8159625f8","bdp_lott","Mon Mar 27 2023 10:13:46 GMT-0400 (Eastern Daylight Time)","452870","red","green","animation","24","123016","0.0-5.0-2.9","","","","","","216","","","","","","[{""stimulus"":""img/red_ll/1.jpg"",""time"":64},{""stimulus"":""img/red_ll/2.jpg"",""time"":133},{""stimulus"":""img/red_ll/3.jpg"",""time"":195},{""stimulus"":""img/red_ll/4.jpg"",""time"":249},{""stimulus"":""img/red_ll/5.jpg"",""time"":311},{""stimulus"":""img/red_ll/6.jpg"",""time"":364},{""stimulus"":""img/red_ll/7.jpg"",""time"":432},{""stimulus"":""img/red_ll/8.jpg"",""time"":495},{""stimulus"":""img/red_ll/9.jpg"",""time"":549},{""stimulus"":""img/red_ll/10.jpg"",""time"":611},{""stimulus"":""img/red_ll/11.jpg"",""time"":665}]","[]"
"","","","choice","631b428359f449b8159625f8","bdp_lott","Mon Mar 27 2023 10:13:46 GMT-0400 (Eastern Daylight Time)","452870","red","green","image-keyboard-response","25","125379","0.0-5.0-1.10","","2360","","img/red_ll/choose11.jpg","2","215","red","0.5","0.5","0.5","l","",""
"","","","","631b428359f449b8159625f8","bdp_lott","Mon Mar 27 2023 10:13:46 GMT-0400 (Eastern Daylight Time)","452870","red","green","animation","26","126106","0.0-5.0-2.10","","","","","","215","","","","","","[{""stimulus"":""img/red_ll/1.jpg"",""time"":61},{""stimulus"":""img/red_ll/2.jpg"",""time"":124},{""stimulus"":""img/red_ll/3.jpg"",""time"":177},{""stimulus"":""img/red_ll/4.jpg"",""time"":247},{""stimulus"":""img/red_ll/5.jpg"",""time"":309},{""stimulus"":""img/red_ll/6.jpg"",""time"":363},{""stimulus"":""img/red_ll/7.jpg"",""time"":425},{""stimulus"":""img/red_ll/8.jpg"",""time"":479},{""stimulus"":""img/red_ll/9.jpg"",""time"":547},{""stimulus"":""img/red_ll/10.jpg"",""time"":610},{""stimulus"":""img/red_ll/11.jpg"",""time"":664}]","[]"
"","","","choice","631b428359f449b8159625f8","bdp_lott","Mon Mar 27 2023 10:13:46 GMT-0400 (Eastern Daylight Time)","452870","red","green","image-keyboard-response","27","127114","0.0-5.0-1.11","","1006","","img/red_ll/choose11.jpg","1","214","green","0.5","0.5","0.5","w","",""
"","","","","631b428359f449b8159625f8","bdp_lott","Mon Mar 27 2023 10:13:46 GMT-0400 (Eastern Daylight Time)","452870","red","green","animation","28","127833","0.0-5.0-2.11","","","","","","214","","","","","","[{""stimulus"":""img/green_wl/1.jpg"",""time"":64},{""stimulus"":""img/green_wl/2.jpg"",""time"":118},{""stimulus"":""img/green_wl/3.jpg"",""time"":180},{""stimulus"":""img/green_wl/4.jpg"",""time"":234},{""stimulus"":""img/green_wl/5.jpg"",""time"":296},{""stimulus"":""img/green_wl/6.jpg"",""time"":350},{""stimulus"":""img/green_wl/7.jpg"",""time"":418},{""stimulus"":""img/green_wl/8.jpg"",""time"":481},{""stimulus"":""img/green_wl/9.jpg"",""time"":535},{""stimulus"":""img/green_wl/10.jpg"",""time"":597},{""stimulus"":""img/green_wl/11.jpg"",""time"":651}]","[]"
"","","","choice","631b428359f449b8159625f8","bdp_lott","Mon Mar 27 2023 10:13:46 GMT-0400 (Eastern Daylight Time)","452870","red","green","image-keyboard-response","29","129521","0.0-5.0-1.12","","1687","","img/green_wl/choose11.jpg","1","213","green","0.5","0.5","0.5","w","",""
"","","","","631b428359f449b8159625f8","bdp_lott","Mon Mar 27 2023 10:13:46 GMT-0400 (Eastern Daylight Time)","452870","red","green","animation","30","130242","0.0-5.0-2.12","","","","","","213","","","","","","[{""stimulus"":""img/green_wl/1.jpg"",""time"":65},{""stimulus"":""img/green_wl/2.jpg"",""time"":118},{""stimulus"":""img/green_wl/3.jpg"",""time"":181},{""stimulus"":""img/green_wl/4.jpg"",""time"":234},{""stimulus"":""img/green_wl/5.jpg"",""time"":296},{""stimulus"":""img/green_wl/6.jpg"",""time"":350},{""stimulus"":""img/green_wl/7.jpg"",""time"":419},{""stimulus"":""img/green_wl/8.jpg"",""time"":482},{""stimulus"":""img/green_wl/9.jpg"",""time"":535},{""stimulus"":""img/green_wl/10.jpg"",""time"":598},{""stimulus"":""img/green_wl/11.jpg"",""time"":652}]","[]"
"","","","choice","631b428359f449b8159625f8","bdp_lott","Mon Mar 27 2023 10:13:46 GMT-0400 (Eastern Daylight Time)","452870","red","green","image-keyboard-response","31","131681","0.0-5.0-1.13","","1436","","img/green_wl/choose11.jpg","1","212","green","0.5","0.5","0.5","l","",""
"","","","","631b428359f449b8159625f8","bdp_lott","Mon Mar 27 2023 10:13:46 GMT-0400 (Eastern Daylight Time)","452870","red","green","animation","32","132412","0.0-5.0-2.13","","","","","","212","","","","","","[{""stimulus"":""img/green_ll/1.jpg"",""time"":68},{""stimulus"":""img/green_ll/2.jpg"",""time"":130},{""stimulus"":""img/green_ll/3.jpg"",""time"":184},{""stimulus"":""img/green_ll/4.jpg"",""time"":246},{""stimulus"":""img/green_ll/5.jpg"",""time"":300},{""stimulus"":""img/green_ll/6.jpg"",""time"":368},{""stimulus"":""img/green_ll/7.jpg"",""time"":430},{""stimulus"":""img/green_ll/8.jpg"",""time"":484},{""stimulus"":""img/green_ll/9.jpg"",""time"":547},{""stimulus"":""img/green_ll/10.jpg"",""time"":600},{""stimulus"":""img/green_ll/11.jpg"",""time"":669}]","[]"
"","","","choice","631b428359f449b8159625f8","bdp_lott","Mon Mar 27 2023 10:13:46 GMT-0400 (Eastern Daylight Time)","452870","red","green","image-keyboard-response","33","133777","0.0-5.0-1.14","","1365","","img/green_ll/choose11.jpg","2","211","red","0.5","0.5","0.5","l","",""
"","","","","631b428359f449b8159625f8","bdp_lott","Mon Mar 27 2023 10:13:46 GMT-0400 (Eastern Daylight Time)","452870","red","green","animation","34","134490","0.0-5.0-2.14","","","","","","211","","","","","","[{""stimulus"":""img/red_ll/1.jpg"",""time"":55},{""stimulus"":""img/red_ll/2.jpg"",""time"":108},{""stimulus"":""img/red_ll/3.jpg"",""time"":177},{""stimulus"":""img/red_ll/4.jpg"",""time"":239},{""stimulus"":""img/red_ll/5.jpg"",""time"":293},{""stimulus"":""img/red_ll/6.jpg"",""time"":355},{""stimulus"":""img/red_ll/7.jpg"",""time"":409},{""stimulus"":""img/red_ll/8.jpg"",""time"":480},{""stimulus"":""img/red_ll/9.jpg"",""time"":540},{""stimulus"":""img/red_ll/10.jpg"",""time"":594},{""stimulus"":""img/red_ll/11.jpg"",""time"":656}]","[]"
"","","","choice","631b428359f449b8159625f8","bdp_lott","Mon Mar 27 2023 10:13:46 GMT-0400 (Eastern Daylight Time)","452870","red","green","image-keyboard-response","35","135588","0.0-5.0-1.15","","1097","","img/red_ll/choose11.jpg","2","210","red","0.5","0.5","0.5","l","",""
"","","","","631b428359f449b8159625f8","bdp_lott","Mon Mar 27 2023 10:13:46 GMT-0400 (Eastern Daylight Time)","452870","red","green","animation","36","136293","0.0-5.0-2.15","","","","","","210","","","","","","[{""stimulus"":""img/red_ll/1.jpg"",""time"":51},{""stimulus"":""img/red_ll/2.jpg"",""time"":104},{""stimulus"":""img/red_ll/3.jpg"",""time"":173},{""stimulus"":""img/red_ll/4.jpg"",""time"":235},{""stimulus"":""img/red_ll/5.jpg"",""time"":289},{""stimulus"":""img/red_ll/6.jpg"",""time"":351},{""stimulus"":""img/red_ll/7.jpg"",""time"":405},{""stimulus"":""img/red_ll/8.jpg"",""time"":473},{""stimulus"":""img/red_ll/9.jpg"",""time"":536},{""stimulus"":""img/red_ll/10.jpg"",""time"":589},{""stimulus"":""img/red_ll/11.jpg"",""time"":652}]","[]"
"","","","choice","631b428359f449b8159625f8","bdp_lott","Mon Mar 27 2023 10:13:46 GMT-0400 (Eastern Daylight Time)","452870","red","green","image-keyboard-response","37","137545","0.0-5.0-1.16","","1250","","img/red_ll/choose11.jpg","1","209","green","0.5","0.5","0.5","l","",""
"","","","","631b428359f449b8159625f8","bdp_lott","Mon Mar 27 2023 10:13:46 GMT-0400 (Eastern Daylight Time)","452870","red","green","animation","38","138267","0.0-5.0-2.16","","","","","","209","","","","","","[{""stimulus"":""img/green_ll/1.jpg"",""time"":67},{""stimulus"":""img/green_ll/2.jpg"",""time"":121},{""stimulus"":""img/green_ll/3.jpg"",""time"":183},{""stimulus"":""img/green_ll/4.jpg"",""time"":236},{""stimulus"":""img/green_ll/5.jpg"",""time"":299},{""stimulus"":""img/green_ll/6.jpg"",""time"":352},{""stimulus"":""img/green_ll/7.jpg"",""time"":422},{""stimulus"":""img/green_ll/8.jpg"",""time"":484},{""stimulus"":""img/green_ll/9.jpg"",""time"":537},{""stimulus"":""img/green_ll/10.jpg"",""time"":599},{""stimulus"":""img/green_ll/11.jpg"",""time"":653}]","[]"
"","","","choice","631b428359f449b8159625f8","bdp_lott","Mon Mar 27 2023 10:13:46 GMT-0400 (Eastern Daylight Time)","452870","red","green","image-keyboard-response","39","139311","0.0-5.0-1.17","","1042","","img/green_ll/choose11.jpg","1","208","green","0.5","0.5","0.5","w","",""
"","","","","631b428359f449b8159625f8","bdp_lott","Mon Mar 27 2023 10:13:46 GMT-0400 (Eastern Daylight Time)","452870","red","green","animation","40","140054","0.0-5.0-2.17","","","","","","208","","","","","","[{""stimulus"":""img/green_wl/1.jpg"",""time"":61},{""stimulus"":""img/green_wl/2.jpg"",""time"":147},{""stimulus"":""img/green_wl/3.jpg"",""time"":207},{""stimulus"":""img/green_wl/4.jpg"",""time"":260},{""stimulus"":""img/green_wl/5.jpg"",""time"":322},{""stimulus"":""img/green_wl/6.jpg"",""time"":377},{""stimulus"":""img/green_wl/7.jpg"",""time"":440},{""stimulus"":""img/green_wl/8.jpg"",""time"":492},{""stimulus"":""img/green_wl/9.jpg"",""time"":561},{""stimulus"":""img/green_wl/10.jpg"",""time"":623},{""stimulus"":""img/green_wl/11.jpg"",""time"":679}]","[]"
"","","","choice","631b428359f449b8159625f8","bdp_lott","Mon Mar 27 2023 10:13:46 GMT-0400 (Eastern Daylight Time)","452870","red","green","image-keyboard-response","41","141325","0.0-5.0-1.18","","1269","","img/green_wl/choose11.jpg","1","207","green","0.5","0.5","0.5","l","",""
"","","","","631b428359f449b8159625f8","bdp_lott","Mon Mar 27 2023 10:13:46 GMT-0400 (Eastern Daylight Time)","452870","red","green","animation","42","142039","0.0-5.0-2.18","","","","","","207","","","","","","[{""stimulus"":""img/green_ll/1.jpg"",""time"":51},{""stimulus"":""img/green_ll/2.jpg"",""time"":113},{""stimulus"":""img/green_ll/3.jpg"",""time"":167},{""stimulus"":""img/green_ll/4.jpg"",""time"":229},{""stimulus"":""img/green_ll/5.jpg"",""time"":283},{""stimulus"":""img/green_ll/6.jpg"",""time"":353},{""stimulus"":""img/green_ll/7.jpg"",""time"":414},{""stimulus"":""img/green_ll/8.jpg"",""time"":467},{""stimulus"":""img/green_ll/9.jpg"",""time"":529},{""stimulus"":""img/green_ll/10.jpg"",""time"":585},{""stimulus"":""img/green_ll/11.jpg"",""time"":653}]","[]"
"","","","choice","631b428359f449b8159625f8","bdp_lott","Mon Mar 27 2023 10:13:46 GMT-0400 (Eastern Daylight Time)","452870","red","green","image-keyboard-response","43","143239","0.0-5.0-1.19","","1199","","img/green_ll/choose11.jpg","1","206","green","0.5","0.5","0.5","w","",""
"","","","","631b428359f449b8159625f8","bdp_lott","Mon Mar 27 2023 10:13:46 GMT-0400 (Eastern Daylight Time)","452870","red","green","animation","44","143961","0.0-5.0-2.19","","","","","","206","","","","","","[{""stimulus"":""img/green_wl/1.jpg"",""time"":58},{""stimulus"":""img/green_wl/2.jpg"",""time"":120},{""stimulus"":""img/green_wl/3.jpg"",""time"":174},{""stimulus"":""img/green_wl/4.jpg"",""time"":243},{""stimulus"":""img/green_wl/5.jpg"",""time"":305},{""stimulus"":""img/green_wl/6.jpg"",""time"":359},{""stimulus"":""img/green_wl/7.jpg"",""time"":422},{""stimulus"":""img/green_wl/8.jpg"",""time"":475},{""stimulus"":""img/green_wl/9.jpg"",""time"":544},{""stimulus"":""img/green_wl/10.jpg"",""time"":607},{""stimulus"":""img/green_wl/11.jpg"",""time"":660}]","[]"
"","","","choice","631b428359f449b8159625f8","bdp_lott","Mon Mar 27 2023 10:13:46 GMT-0400 (Eastern Daylight Time)","452870","red","green","image-keyboard-response","45","145213","0.0-5.0-1.20","","1251","","img/green_wl/choose11.jpg","1","205","green","0.5","0.5","0.5","w","",""
"","","","","631b428359f449b8159625f8","bdp_lott","Mon Mar 27 2023 10:13:46 GMT-0400 (Eastern Daylight Time)","452870","red","green","animation","46","145921","0.0-5.0-2.20","","","","","","205","","","","","","[{""stimulus"":""img/green_wl/1.jpg"",""time"":53},{""stimulus"":""img/green_wl/2.jpg"",""time"":106},{""stimulus"":""img/green_wl/3.jpg"",""time"":175},{""stimulus"":""img/green_wl/4.jpg"",""time"":238},{""stimulus"":""img/green_wl/5.jpg"",""time"":291},{""stimulus"":""img/green_wl/6.jpg"",""time"":353},{""stimulus"":""img/green_wl/7.jpg"",""time"":407},{""stimulus"":""img/green_wl/8.jpg"",""time"":476},{""stimulus"":""img/green_wl/9.jpg"",""time"":538},{""stimulus"":""img/green_wl/10.jpg"",""time"":593},{""stimulus"":""img/green_wl/11.jpg"",""time"":655}]","[]"
"","","","choice","631b428359f449b8159625f8","bdp_lott","Mon Mar 27 2023 10:13:46 GMT-0400 (Eastern Daylight Time)","452870","red","green","image-keyboard-response","47","147099","0.0-5.0-1.21","","1176","","img/green_wl/choose11.jpg","1","204","green","0.5","0.5","0.5","l","",""
"","","","","631b428359f449b8159625f8","bdp_lott","Mon Mar 27 2023 10:13:46 GMT-0400 (Eastern Daylight Time)","452870","red","green","animation","48","147812","0.0-5.0-2.21","","","","","","204","","","","","","[{""stimulus"":""img/green_ll/1.jpg"",""time"":58},{""stimulus"":""img/green_ll/2.jpg"",""time"":110},{""stimulus"":""img/green_ll/3.jpg"",""time"":173},{""stimulus"":""img/green_ll/4.jpg"",""time"":227},{""stimulus"":""img/green_ll/5.jpg"",""time"":296},{""stimulus"":""img/green_ll/6.jpg"",""time"":358},{""stimulus"":""img/green_ll/7.jpg"",""time"":412},{""stimulus"":""img/green_ll/8.jpg"",""time"":474},{""stimulus"":""img/green_ll/9.jpg"",""time"":528},{""stimulus"":""img/green_ll/10.jpg"",""time"":597},{""stimulus"":""img/green_ll/11.jpg"",""time"":659}]","[]"
"","","","choice","631b428359f449b8159625f8","bdp_lott","Mon Mar 27 2023 10:13:46 GMT-0400 (Eastern Daylight Time)","452870","red","green","image-keyboard-response","49","148730","0.0-5.0-1.22","","917","","img/green_ll/choose11.jpg","1","203","green","0.5","0.5","0.5","w","",""
"","","","","631b428359f449b8159625f8","bdp_lott","Mon Mar 27 2023 10:13:46 GMT-0400 (Eastern Daylight Time)","452870","red","green","animation","50","149464","0.0-5.0-2.22","","","","","","203","","","","","","[{""stimulus"":""img/green_wl/1.jpg"",""time"":70},{""stimulus"":""img/green_wl/2.jpg"",""time"":132},{""stimulus"":""img/green_wl/3.jpg"",""time"":185},{""stimulus"":""img/green_wl/4.jpg"",""time"":247},{""stimulus"":""img/green_wl/5.jpg"",""time"":301},{""stimulus"":""img/green_wl/6.jpg"",""time"":370},{""stimulus"":""img/green_wl/7.jpg"",""time"":433},{""stimulus"":""img/green_wl/8.jpg"",""time"":486},{""stimulus"":""img/green_wl/9.jpg"",""time"":549},{""stimulus"":""img/green_wl/10.jpg"",""time"":603},{""stimulus"":""img/green_wl/11.jpg"",""time"":671}]","[]"
"","","","choice","631b428359f449b8159625f8","bdp_lott","Mon Mar 27 2023 10:13:46 GMT-0400 (Eastern Daylight Time)","452870","red","green","image-keyboard-response","51","150587","0.0-5.0-1.23","","1122","","img/green_wl/choose11.jpg","1","202","green","0.5","0.5","0.5","w","",""
"","","","","631b428359f449b8159625f8","bdp_lott","Mon Mar 27 2023 10:13:46 GMT-0400 (Eastern Daylight Time)","452870","red","green","animation","52","151308","0.0-5.0-2.23","","","","","","202","","","","","","[{""stimulus"":""img/green_wl/1.jpg"",""time"":66},{""stimulus"":""img/green_wl/2.jpg"",""time"":120},{""stimulus"":""img/green_wl/3.jpg"",""time"":182},{""stimulus"":""img/green_wl/4.jpg"",""time"":235},{""stimulus"":""img/green_wl/5.jpg"",""time"":298},{""stimulus"":""img/green_wl/6.jpg"",""time"":351},{""stimulus"":""img/green_wl/7.jpg"",""time"":419},{""stimulus"":""img/green_wl/8.jpg"",""time"":482},{""stimulus"":""img/green_wl/9.jpg"",""time"":535},{""stimulus"":""img/green_wl/10.jpg"",""time"":598},{""stimulus"":""img/green_wl/11.jpg"",""time"":652}]","[]"
"","","","choice","631b428359f449b8159625f8","bdp_lott","Mon Mar 27 2023 10:13:46 GMT-0400 (Eastern Daylight Time)","452870","red","green","image-keyboard-response","53","152270","0.0-5.0-1.24","","961","","img/green_wl/choose11.jpg","1","201","green","0.5","0.5","0.5","w","",""
"","","","","631b428359f449b8159625f8","bdp_lott","Mon Mar 27 2023 10:13:46 GMT-0400 (Eastern Daylight Time)","452870","red","green","animation","54","152992","0.0-5.0-2.24","","","","","","201","","","","","","[{""stimulus"":""img/green_wl/1.jpg"",""time"":59},{""stimulus"":""img/green_wl/2.jpg"",""time"":121},{""stimulus"":""img/green_wl/3.jpg"",""time"":174},{""stimulus"":""img/green_wl/4.jpg"",""time"":243},{""stimulus"":""img/green_wl/5.jpg"",""time"":306},{""stimulus"":""img/green_wl/6.jpg"",""time"":359},{""stimulus"":""img/green_wl/7.jpg"",""time"":421},{""stimulus"":""img/green_wl/8.jpg"",""time"":475},{""stimulus"":""img/green_wl/9.jpg"",""time"":544},{""stimulus"":""img/green_wl/10.jpg"",""time"":606},{""stimulus"":""img/green_wl/11.jpg"",""time"":660}]","[]"
"","","","choice","631b428359f449b8159625f8","bdp_lott","Mon Mar 27 2023 10:13:46 GMT-0400 (Eastern Daylight Time)","452870","red","green","image-keyboard-response","55","153887","0.0-5.0-1.25","","895","","img/green_wl/choose11.jpg","1","200","green","0.5","0.5","0.5","l","",""
"","","","","631b428359f449b8159625f8","bdp_lott","Mon Mar 27 2023 10:13:46 GMT-0400 (Eastern Daylight Time)","452870","red","green","animation","56","154620","0.0-5.0-2.25","","","","","","200","","","","","","[{""stimulus"":""img/green_ll/1.jpg"",""time"":62},{""stimulus"":""img/green_ll/2.jpg"",""time"":131},{""stimulus"":""img/green_ll/3.jpg"",""time"":193},{""stimulus"":""img/green_ll/4.jpg"",""time"":247},{""stimulus"":""img/green_ll/5.jpg"",""time"":310},{""stimulus"":""img/green_ll/6.jpg"",""time"":363},{""stimulus"":""img/green_ll/7.jpg"",""time"":432},{""stimulus"":""img/green_ll/8.jpg"",""time"":495},{""stimulus"":""img/green_ll/9.jpg"",""time"":549},{""stimulus"":""img/green_ll/10.jpg"",""time"":611},{""stimulus"":""img/green_ll/11.jpg"",""time"":665}]","[]"
"","","","choice","631b428359f449b8159625f8","bdp_lott","Mon Mar 27 2023 10:13:46 GMT-0400 (Eastern Daylight Time)","452870","red","green","image-keyboard-response","57","155537","0.0-5.0-1.26","","916","","img/green_ll/choose11.jpg","1","199","green","0.5","0.5","0.5","w","",""
"","","","","631b428359f449b8159625f8","bdp_lott","Mon Mar 27 2023 10:13:46 GMT-0400 (Eastern Daylight Time)","452870","red","green","animation","58","156258","0.0-5.0-2.26","","","","","","199","","","","","","[{""stimulus"":""img/green_wl/1.jpg"",""time"":65},{""stimulus"":""img/green_wl/2.jpg"",""time"":119},{""stimulus"":""img/green_wl/3.jpg"",""time"":188},{""stimulus"":""img/green_wl/4.jpg"",""time"":250},{""stimulus"":""img/green_wl/5.jpg"",""time"":304},{""stimulus"":""img/green_wl/6.jpg"",""time"":373},{""stimulus"":""img/green_wl/7.jpg"",""time"":435},{""stimulus"":""img/green_wl/8.jpg"",""time"":488},{""stimulus"":""img/green_wl/9.jpg"",""time"":552},{""stimulus"":""img/green_wl/10.jpg"",""time"":604},{""stimulus"":""img/green_wl/11.jpg"",""time"":667}]","[]"
"","","","choice","631b428359f449b8159625f8","bdp_lott","Mon Mar 27 2023 10:13:46 GMT-0400 (Eastern Daylight Time)","452870","red","green","image-keyboard-response","59","157081","0.0-5.0-1.27","","822","","img/green_wl/choose11.jpg","1","198","green","0.5","0.5","0.5","w","",""
"","","","","631b428359f449b8159625f8","bdp_lott","Mon Mar 27 2023 10:13:46 GMT-0400 (Eastern Daylight Time)","452870","red","green","animation","60","157808","0.0-5.0-2.27","","","","","","198","","","","","","[{""stimulus"":""img/green_wl/1.jpg"",""time"":58},{""stimulus"":""img/green_wl/2.jpg"",""time"":111},{""stimulus"":""img/green_wl/3.jpg"",""time"":174},{""stimulus"":""img/green_wl/4.jpg"",""time"":227},{""stimulus"":""img/green_wl/5.jpg"",""time"":297},{""stimulus"":""img/green_wl/6.jpg"",""time"":368},{""stimulus"":""img/green_wl/7.jpg"",""time"":427},{""stimulus"":""img/green_wl/8.jpg"",""time"":478},{""stimulus"":""img/green_wl/9.jpg"",""time"":541},{""stimulus"":""img/green_wl/10.jpg"",""time"":594},{""stimulus"":""img/green_wl/11.jpg"",""time"":663}]","[]"
"","","","choice","631b428359f449b8159625f8","bdp_lott","Mon Mar 27 2023 10:13:46 GMT-0400 (Eastern Daylight Time)","452870","red","green","image-keyboard-response","61","158679","0.0-5.0-1.28","","871","","img/green_wl/choose11.jpg","1","197","green","0.5","0.5","0.5","w","",""
"","","","","631b428359f449b8159625f8","bdp_lott","Mon Mar 27 2023 10:13:46 GMT-0400 (Eastern Daylight Time)","452870","red","green","animation","62","159412","0.0-5.0-2.28","","","","","","197","","","","","","[{""stimulus"":""img/green_wl/1.jpg"",""time"":68},{""stimulus"":""img/green_wl/2.jpg"",""time"":130},{""stimulus"":""img/green_wl/3.jpg"",""time"":184},{""stimulus"":""img/green_wl/4.jpg"",""time"":246},{""stimulus"":""img/green_wl/5.jpg"",""time"":300},{""stimulus"":""img/green_wl/6.jpg"",""time"":369},{""stimulus"":""img/green_wl/7.jpg"",""time"":431},{""stimulus"":""img/green_wl/8.jpg"",""time"":484},{""stimulus"":""img/green_wl/9.jpg"",""time"":547},{""stimulus"":""img/green_wl/10.jpg"",""time"":601},{""stimulus"":""img/green_wl/11.jpg"",""time"":670}]","[]"
"","","","choice","631b428359f449b8159625f8","bdp_lott","Mon Mar 27 2023 10:13:46 GMT-0400 (Eastern Daylight Time)","452870","red","green","image-keyboard-response","63","160338","0.0-5.0-1.29","","925","","img/green_wl/choose11.jpg","1","196","green","0.5","0.5","0.5","l","",""
"","","","","631b428359f449b8159625f8","bdp_lott","Mon Mar 27 2023 10:13:46 GMT-0400 (Eastern Daylight Time)","452870","red","green","animation","64","161054","0.0-5.0-2.29","","","","","","196","","","","","","[{""stimulus"":""img/green_ll/1.jpg"",""time"":62},{""stimulus"":""img/green_ll/2.jpg"",""time"":115},{""stimulus"":""img/green_ll/3.jpg"",""time"":178},{""stimulus"":""img/green_ll/4.jpg"",""time"":231},{""stimulus"":""img/green_ll/5.jpg"",""time"":294},{""stimulus"":""img/green_ll/6.jpg"",""time"":348},{""stimulus"":""img/green_ll/7.jpg"",""time"":416},{""stimulus"":""img/green_ll/8.jpg"",""time"":479},{""stimulus"":""img/green_ll/9.jpg"",""time"":531},{""stimulus"":""img/green_ll/10.jpg"",""time"":594},{""stimulus"":""img/green_ll/11.jpg"",""time"":648}]","[]"
"","","","choice","631b428359f449b8159625f8","bdp_lott","Mon Mar 27 2023 10:13:46 GMT-0400 (Eastern Daylight Time)","452870","red","green","image-keyboard-response","65","161981","0.0-5.0-1.30","","926","","img/green_ll/choose11.jpg","1","195","green","0.5","0.5","0.5","l","",""
"","","","","631b428359f449b8159625f8","bdp_lott","Mon Mar 27 2023 10:13:46 GMT-0400 (Eastern Daylight Time)","452870","red","green","animation","66","162691","0.0-5.0-2.30","","","","","","195","","","","","","[{""stimulus"":""img/green_ll/1.jpg"",""time"":55},{""stimulus"":""img/green_ll/2.jpg"",""time"":108},{""stimulus"":""img/green_ll/3.jpg"",""time"":177},{""stimulus"":""img/green_ll/4.jpg"",""time"":240},{""stimulus"":""img/green_ll/5.jpg"",""time"":294},{""stimulus"":""img/green_ll/6.jpg"",""time"":356},{""stimulus"":""img/green_ll/7.jpg"",""time"":409},{""stimulus"":""img/green_ll/8.jpg"",""time"":479},{""stimulus"":""img/green_ll/9.jpg"",""time"":541},{""stimulus"":""img/green_ll/10.jpg"",""time"":595},{""stimulus"":""img/green_ll/11.jpg"",""time"":657}]","[]"
"","","","choice","631b428359f449b8159625f8","bdp_lott","Mon Mar 27 2023 10:13:46 GMT-0400 (Eastern Daylight Time)","452870","red","green","image-keyboard-response","67","163536","0.0-5.0-1.31","","844","","img/green_ll/choose11.jpg","1","194","green","0.5","0.5","0.5","w","",""
"","","","","631b428359f449b8159625f8","bdp_lott","Mon Mar 27 2023 10:13:46 GMT-0400 (Eastern Daylight Time)","452870","red","green","animation","68","164265","0.0-5.0-2.31","","","","","","194","","","","","","[{""stimulus"":""img/green_wl/1.jpg"",""time"":58},{""stimulus"":""img/green_wl/2.jpg"",""time"":126},{""stimulus"":""img/green_wl/3.jpg"",""time"":189},{""stimulus"":""img/green_wl/4.jpg"",""time"":242},{""stimulus"":""img/green_wl/5.jpg"",""time"":305},{""stimulus"":""img/green_wl/6.jpg"",""time"":358},{""stimulus"":""img/green_wl/7.jpg"",""time"":427},{""stimulus"":""img/green_wl/8.jpg"",""time"":490},{""stimulus"":""img/green_wl/9.jpg"",""time"":543},{""stimulus"":""img/green_wl/10.jpg"",""time"":606},{""stimulus"":""img/green_wl/11.jpg"",""time"":660}]","[]"
"","","","choice","631b428359f449b8159625f8","bdp_lott","Mon Mar 27 2023 10:13:46 GMT-0400 (Eastern Daylight Time)","452870","red","green","image-keyboard-response","69","165206","0.0-5.0-1.32","","940","","img/green_wl/choose11.jpg","1","193","green","0.5","0.5","0.5","w","",""
"","","","","631b428359f449b8159625f8","bdp_lott","Mon Mar 27 2023 10:13:46 GMT-0400 (Eastern Daylight Time)","452870","red","green","animation","70","165933","0.0-5.0-2.32","","","","","","193","","","","","","[{""stimulus"":""img/green_wl/1.jpg"",""time"":63},{""stimulus"":""img/green_wl/2.jpg"",""time"":126},{""stimulus"":""img/green_wl/3.jpg"",""time"":179},{""stimulus"":""img/green_wl/4.jpg"",""time"":242},{""stimulus"":""img/green_wl/5.jpg"",""time"":295},{""stimulus"":""img/green_wl/6.jpg"",""time"":364},{""stimulus"":""img/green_wl/7.jpg"",""time"":426},{""stimulus"":""img/green_wl/8.jpg"",""time"":480},{""stimulus"":""img/green_wl/9.jpg"",""time"":542},{""stimulus"":""img/green_wl/10.jpg"",""time"":596},{""stimulus"":""img/green_wl/11.jpg"",""time"":665}]","[]"
"","","","choice","631b428359f449b8159625f8","bdp_lott","Mon Mar 27 2023 10:13:46 GMT-0400 (Eastern Daylight Time)","452870","red","green","image-keyboard-response","71","166850","0.0-5.0-1.33","","916","","img/green_wl/choose11.jpg","1","192","green","0.5","0.5","0.5","w","",""
"","","","","631b428359f449b8159625f8","bdp_lott","Mon Mar 27 2023 10:13:46 GMT-0400 (Eastern Daylight Time)","452870","red","green","animation","72","167579","0.0-5.0-2.33","","","","","","192","","","","","","[{""stimulus"":""img/green_wl/1.jpg"",""time"":54},{""stimulus"":""img/green_wl/2.jpg"",""time"":123},{""stimulus"":""img/green_wl/3.jpg"",""time"":185},{""stimulus"":""img/green_wl/4.jpg"",""time"":239},{""stimulus"":""img/green_wl/5.jpg"",""time"":302},{""stimulus"":""img/green_wl/6.jpg"",""time"":355},{""stimulus"":""img/green_wl/7.jpg"",""time"":424},{""stimulus"":""img/green_wl/8.jpg"",""time"":487},{""stimulus"":""img/green_wl/9.jpg"",""time"":540},{""stimulus"":""img/green_wl/10.jpg"",""time"":603},{""stimulus"":""img/green_wl/11.jpg"",""time"":656}]","[]"
"","","","choice","631b428359f449b8159625f8","bdp_lott","Mon Mar 27 2023 10:13:46 GMT-0400 (Eastern Daylight Time)","452870","red","green","image-keyboard-response","73","168415","0.0-5.0-1.34","","835","","img/green_wl/choose11.jpg","1","191","green","0.5","0.5","0.5","w","",""
"","","","","631b428359f449b8159625f8","bdp_lott","Mon Mar 27 2023 10:13:46 GMT-0400 (Eastern Daylight Time)","452870","red","green","animation","74","169143","0.0-5.0-2.34","","","","","","191","","","","","","[{""stimulus"":""img/green_wl/1.jpg"",""time"":64},{""stimulus"":""img/green_wl/2.jpg"",""time"":126},{""stimulus"":""img/green_wl/3.jpg"",""time"":180},{""stimulus"":""img/green_wl/4.jpg"",""time"":242},{""stimulus"":""img/green_wl/5.jpg"",""time"":296},{""stimulus"":""img/green_wl/6.jpg"",""time"":364},{""stimulus"":""img/green_wl/7.jpg"",""time"":427},{""stimulus"":""img/green_wl/8.jpg"",""time"":481},{""stimulus"":""img/green_wl/9.jpg"",""time"":543},{""stimulus"":""img/green_wl/10.jpg"",""time"":596},{""stimulus"":""img/green_wl/11.jpg"",""time"":666}]","[]"
"","","","choice","631b428359f449b8159625f8","bdp_lott","Mon Mar 27 2023 10:13:46 GMT-0400 (Eastern Daylight Time)","452870","red","green","image-keyboard-response","75","169950","0.0-5.0-1.35","","806","","img/green_wl/choose11.jpg","1","190","green","0.5","0.5","0.5","w","",""
"","","","","631b428359f449b8159625f8","bdp_lott","Mon Mar 27 2023 10:13:46 GMT-0400 (Eastern Daylight Time)","452870","red","green","animation","76","170685","0.0-5.0-2.35","","","","","","190","","","","","","[{""stimulus"":""img/green_wl/1.jpg"",""time"":66},{""stimulus"":""img/green_wl/2.jpg"",""time"":134},{""stimulus"":""img/green_wl/3.jpg"",""time"":198},{""stimulus"":""img/green_wl/4.jpg"",""time"":250},{""stimulus"":""img/green_wl/5.jpg"",""time"":312},{""stimulus"":""img/green_wl/6.jpg"",""time"":366},{""stimulus"":""img/green_wl/7.jpg"",""time"":435},{""stimulus"":""img/green_wl/8.jpg"",""time"":497},{""stimulus"":""img/green_wl/9.jpg"",""time"":551},{""stimulus"":""img/green_wl/10.jpg"",""time"":613},{""stimulus"":""img/green_wl/11.jpg"",""time"":666}]","[]"
"","","","choice","631b428359f449b8159625f8","bdp_lott","Mon Mar 27 2023 10:13:46 GMT-0400 (Eastern Daylight Time)","452870","red","green","image-keyboard-response","77","171593","0.0-5.0-1.36","","906","","img/green_wl/choose11.jpg","1","189","green","0.5","0.5","0.5","l","",""
"","","","","631b428359f449b8159625f8","bdp_lott","Mon Mar 27 2023 10:13:46 GMT-0400 (Eastern Daylight Time)","452870","red","green","animation","78","172306","0.0-5.0-2.36","","","","","","189","","","","","","[{""stimulus"":""img/green_ll/1.jpg"",""time"":58},{""stimulus"":""img/green_ll/2.jpg"",""time"":112},{""stimulus"":""img/green_ll/3.jpg"",""time"":174},{""stimulus"":""img/green_ll/4.jpg"",""time"":228},{""stimulus"":""img/green_ll/5.jpg"",""time"":297},{""stimulus"":""img/green_ll/6.jpg"",""time"":359},{""stimulus"":""img/green_ll/7.jpg"",""time"":412},{""stimulus"":""img/green_ll/8.jpg"",""time"":475},{""stimulus"":""img/green_ll/9.jpg"",""time"":528},{""stimulus"":""img/green_ll/10.jpg"",""time"":597},{""stimulus"":""img/green_ll/11.jpg"",""time"":660}]","[]"
"","","","choice","631b428359f449b8159625f8","bdp_lott","Mon Mar 27 2023 10:13:46 GMT-0400 (Eastern Daylight Time)","452870","red","green","image-keyboard-response","79","173151","0.0-5.0-1.37","","844","","img/green_ll/choose11.jpg","1","188","green","0.5","0.5","0.5","w","",""
"","","","","631b428359f449b8159625f8","bdp_lott","Mon Mar 27 2023 10:13:46 GMT-0400 (Eastern Daylight Time)","452870","red","green","animation","80","173875","0.0-5.0-2.37","","","","","","188","","","","","","[{""stimulus"":""img/green_wl/1.jpg"",""time"":60},{""stimulus"":""img/green_wl/2.jpg"",""time"":122},{""stimulus"":""img/green_wl/3.jpg"",""time"":175},{""stimulus"":""img/green_wl/4.jpg"",""time"":244},{""stimulus"":""img/green_wl/5.jpg"",""time"":306},{""stimulus"":""img/green_wl/6.jpg"",""time"":360},{""stimulus"":""img/green_wl/7.jpg"",""time"":423},{""stimulus"":""img/green_wl/8.jpg"",""time"":476},{""stimulus"":""img/green_wl/9.jpg"",""time"":545},{""stimulus"":""img/green_wl/10.jpg"",""time"":607},{""stimulus"":""img/green_wl/11.jpg"",""time"":661}]","[]"
"","","","choice","631b428359f449b8159625f8","bdp_lott","Mon Mar 27 2023 10:13:46 GMT-0400 (Eastern Daylight Time)","452870","red","green","image-keyboard-response","81","174736","0.0-5.0-1.38","","860","","img/green_wl/choose11.jpg","1","187","green","0.5","0.5","0.5","w","",""
"","","","","631b428359f449b8159625f8","bdp_lott","Mon Mar 27 2023 10:13:46 GMT-0400 (Eastern Daylight Time)","452870","red","green","animation","82","175465","0.0-5.0-2.38","","","","","","187","","","","","","[{""stimulus"":""img/green_wl/1.jpg"",""time"":63},{""stimulus"":""img/green_wl/2.jpg"",""time"":126},{""stimulus"":""img/green_wl/3.jpg"",""time"":179},{""stimulus"":""img/green_wl/4.jpg"",""time"":242},{""stimulus"":""img/green_wl/5.jpg"",""time"":295},{""stimulus"":""img/green_wl/6.jpg"",""time"":365},{""stimulus"":""img/green_wl/7.jpg"",""time"":427},{""stimulus"":""img/green_wl/8.jpg"",""time"":481},{""stimulus"":""img/green_wl/9.jpg"",""time"":544},{""stimulus"":""img/green_wl/10.jpg"",""time"":597},{""stimulus"":""img/green_wl/11.jpg"",""time"":666}]","[]"
"","","","choice","631b428359f449b8159625f8","bdp_lott","Mon Mar 27 2023 10:13:46 GMT-0400 (Eastern Daylight Time)","452870","red","green","image-keyboard-response","83","176432","0.0-5.0-1.39","","966","","img/green_wl/choose11.jpg","1","186","green","0.5","0.5","0.5","w","",""
"","","","","631b428359f449b8159625f8","bdp_lott","Mon Mar 27 2023 10:13:46 GMT-0400 (Eastern Daylight Time)","452870","red","green","animation","84","177139","0.0-5.0-2.39","","","","","","186","","","","","","[{""stimulus"":""img/green_wl/1.jpg"",""time"":53},{""stimulus"":""img/green_wl/2.jpg"",""time"":106},{""stimulus"":""img/green_wl/3.jpg"",""time"":176},{""stimulus"":""img/green_wl/4.jpg"",""time"":238},{""stimulus"":""img/green_wl/5.jpg"",""time"":292},{""stimulus"":""img/green_wl/6.jpg"",""time"":354},{""stimulus"":""img/green_wl/7.jpg"",""time"":407},{""stimulus"":""img/green_wl/8.jpg"",""time"":476},{""stimulus"":""img/green_wl/9.jpg"",""time"":539},{""stimulus"":""img/green_wl/10.jpg"",""time"":592},{""stimulus"":""img/green_wl/11.jpg"",""time"":654}]","[]"
"","","","choice","631b428359f449b8159625f8","bdp_lott","Mon Mar 27 2023 10:13:46 GMT-0400 (Eastern Daylight Time)","452870","red","green","image-keyboard-response","85","178145","0.0-5.0-1.40","","1004","","img/green_wl/choose11.jpg","1","185","green","0.5","0.5","0.5","l","",""
"","","","","631b428359f449b8159625f8","bdp_lott","Mon Mar 27 2023 10:13:46 GMT-0400 (Eastern Daylight Time)","452870","red","green","animation","86","178876","0.0-5.0-2.40","","","","","","185","","","","","","[{""stimulus"":""img/green_ll/1.jpg"",""time"":67},{""stimulus"":""img/green_ll/2.jpg"",""time"":129},{""stimulus"":""img/green_ll/3.jpg"",""time"":182},{""stimulus"":""img/green_ll/4.jpg"",""time"":245},{""stimulus"":""img/green_ll/5.jpg"",""time"":298},{""stimulus"":""img/green_ll/6.jpg"",""time"":367},{""stimulus"":""img/green_ll/7.jpg"",""time"":430},{""stimulus"":""img/green_ll/8.jpg"",""time"":483},{""stimulus"":""img/green_ll/9.jpg"",""time"":545},{""stimulus"":""img/green_ll/10.jpg"",""time"":599},{""stimulus"":""img/green_ll/11.jpg"",""time"":668}]","[]"
"","","","choice","631b428359f449b8159625f8","bdp_lott","Mon Mar 27 2023 10:13:46 GMT-0400 (Eastern Daylight Time)","452870","red","green","image-keyboard-response","87","179785","0.0-5.0-1.41","","908","","img/green_ll/choose11.jpg","1","184","green","0.5","0.5","0.5","l","",""
"","","","","631b428359f449b8159625f8","bdp_lott","Mon Mar 27 2023 10:13:46 GMT-0400 (Eastern Daylight Time)","452870","red","green","animation","88","180520","0.0-5.0-2.41","","","","","","184","","","","","","[{""stimulus"":""img/green_ll/1.jpg"",""time"":64},{""stimulus"":""img/green_ll/2.jpg"",""time"":133},{""stimulus"":""img/green_ll/3.jpg"",""time"":196},{""stimulus"":""img/green_ll/4.jpg"",""time"":249},{""stimulus"":""img/green_ll/5.jpg"",""time"":311},{""stimulus"":""img/green_ll/6.jpg"",""time"":365},{""stimulus"":""img/green_ll/7.jpg"",""time"":434},{""stimulus"":""img/green_ll/8.jpg"",""time"":496},{""stimulus"":""img/green_ll/9.jpg"",""time"":549},{""stimulus"":""img/green_ll/10.jpg"",""time"":612},{""stimulus"":""img/green_ll/11.jpg"",""time"":665}]","[]"
"","","","choice","631b428359f449b8159625f8","bdp_lott","Mon Mar 27 2023 10:13:46 GMT-0400 (Eastern Daylight Time)","452870","red","green","image-keyboard-response","89","181445","0.0-5.0-1.42","","924","","img/green_ll/choose11.jpg","1","183","green","0.5","0.5","0.5","w","",""
"","","","","631b428359f449b8159625f8","bdp_lott","Mon Mar 27 2023 10:13:46 GMT-0400 (Eastern Daylight Time)","452870","red","green","animation","90","182157","0.0-5.0-2.42","","","","","","183","","","","","","[{""stimulus"":""img/green_wl/1.jpg"",""time"":56},{""stimulus"":""img/green_wl/2.jpg"",""time"":110},{""stimulus"":""img/green_wl/3.jpg"",""time"":179},{""stimulus"":""img/green_wl/4.jpg"",""time"":242},{""stimulus"":""img/green_wl/5.jpg"",""time"":295},{""stimulus"":""img/green_wl/6.jpg"",""time"":357},{""stimulus"":""img/green_wl/7.jpg"",""time"":411},{""stimulus"":""img/green_wl/8.jpg"",""time"":480},{""stimulus"":""img/green_wl/9.jpg"",""time"":543},{""stimulus"":""img/green_wl/10.jpg"",""time"":596},{""stimulus"":""img/green_wl/11.jpg"",""time"":659}]","[]"
"","","","choice","631b428359f449b8159625f8","bdp_lott","Mon Mar 27 2023 10:13:46 GMT-0400 (Eastern Daylight Time)","452870","red","green","image-keyboard-response","91","183134","0.0-5.0-1.43","","976","","img/green_wl/choose11.jpg","1","182","green","0.5","0.5","0.5","l","",""
"","","","","631b428359f449b8159625f8","bdp_lott","Mon Mar 27 2023 10:13:46 GMT-0400 (Eastern Daylight Time)","452870","red","green","animation","92","183846","0.0-5.0-2.43","","","","","","182","","","","","","[{""stimulus"":""img/green_ll/1.jpg"",""time"":58},{""stimulus"":""img/green_ll/2.jpg"",""time"":110},{""stimulus"":""img/green_ll/3.jpg"",""time"":173},{""stimulus"":""img/green_ll/4.jpg"",""time"":226},{""stimulus"":""img/green_ll/5.jpg"",""time"":296},{""stimulus"":""img/green_ll/6.jpg"",""time"":358},{""stimulus"":""img/green_ll/7.jpg"",""time"":411},{""stimulus"":""img/green_ll/8.jpg"",""time"":473},{""stimulus"":""img/green_ll/9.jpg"",""time"":527},{""stimulus"":""img/green_ll/10.jpg"",""time"":596},{""stimulus"":""img/green_ll/11.jpg"",""time"":658}]","[]"
"","","","choice","631b428359f449b8159625f8","bdp_lott","Mon Mar 27 2023 10:13:46 GMT-0400 (Eastern Daylight Time)","452870","red","green","image-keyboard-response","93","184723","0.0-5.0-1.44","","876","","img/green_ll/choose11.jpg","1","181","green","0.5","0.5","0.5","w","",""
"","","","","631b428359f449b8159625f8","bdp_lott","Mon Mar 27 2023 10:13:46 GMT-0400 (Eastern Daylight Time)","452870","red","green","animation","94","185437","0.0-5.0-2.44","","","","","","181","","","","","","[{""stimulus"":""img/green_wl/1.jpg"",""time"":58},{""stimulus"":""img/green_wl/2.jpg"",""time"":111},{""stimulus"":""img/green_wl/3.jpg"",""time"":174},{""stimulus"":""img/green_wl/4.jpg"",""time"":227},{""stimulus"":""img/green_wl/5.jpg"",""time"":290},{""stimulus"":""img/green_wl/6.jpg"",""time"":343},{""stimulus"":""img/green_wl/7.jpg"",""time"":412},{""stimulus"":""img/green_wl/8.jpg"",""time"":475},{""stimulus"":""img/green_wl/9.jpg"",""time"":528},{""stimulus"":""img/green_wl/10.jpg"",""time"":591},{""stimulus"":""img/green_wl/11.jpg"",""time"":644}]","[]"
"","","","choice","631b428359f449b8159625f8","bdp_lott","Mon Mar 27 2023 10:13:46 GMT-0400 (Eastern Daylight Time)","452870","red","green","image-keyboard-response","95","186574","0.0-5.0-1.45","","1135","","img/green_wl/choose11.jpg","1","180","green","0.5","0.5","0.5","w","",""
"","","","","631b428359f449b8159625f8","bdp_lott","Mon Mar 27 2023 10:13:46 GMT-0400 (Eastern Daylight Time)","452870","red","green","animation","96","187306","0.0-5.0-2.45","","","","","","180","","","","","","[{""stimulus"":""img/green_wl/1.jpg"",""time"":66},{""stimulus"":""img/green_wl/2.jpg"",""time"":129},{""stimulus"":""img/green_wl/3.jpg"",""time"":182},{""stimulus"":""img/green_wl/4.jpg"",""time"":245},{""stimulus"":""img/green_wl/5.jpg"",""time"":298},{""stimulus"":""img/green_wl/6.jpg"",""time"":367},{""stimulus"":""img/green_wl/7.jpg"",""time"":429},{""stimulus"":""img/green_wl/8.jpg"",""time"":483},{""stimulus"":""img/green_wl/9.jpg"",""time"":545},{""stimulus"":""img/green_wl/10.jpg"",""time"":599},{""stimulus"":""img/green_wl/11.jpg"",""time"":668}]","[]"
"","","","choice","631b428359f449b8159625f8","bdp_lott","Mon Mar 27 2023 10:13:46 GMT-0400 (Eastern Daylight Time)","452870","red","green","image-keyboard-response","97","188248","0.0-5.0-1.46","","940","","img/green_wl/choose11.jpg","1","179","green","0.5","0.5","0.5","l","",""
"","","","","631b428359f449b8159625f8","bdp_lott","Mon Mar 27 2023 10:13:46 GMT-0400 (Eastern Daylight Time)","452870","red","green","animation","98","188964","0.0-5.0-2.46","","","","","","179","","","","","","[{""stimulus"":""img/green_ll/1.jpg"",""time"":61},{""stimulus"":""img/green_ll/2.jpg"",""time"":114},{""stimulus"":""img/green_ll/3.jpg"",""time"":176},{""stimulus"":""img/green_ll/4.jpg"",""time"":230},{""stimulus"":""img/green_ll/5.jpg"",""time"":298},{""stimulus"":""img/green_ll/6.jpg"",""time"":361},{""stimulus"":""img/green_ll/7.jpg"",""time"":415},{""stimulus"":""img/green_ll/8.jpg"",""time"":477},{""stimulus"":""img/green_ll/9.jpg"",""time"":531},{""stimulus"":""img/green_ll/10.jpg"",""time"":599},{""stimulus"":""img/green_ll/11.jpg"",""time"":662}]","[]"
"","","","choice","631b428359f449b8159625f8","bdp_lott","Mon Mar 27 2023 10:13:46 GMT-0400 (Eastern Daylight Time)","452870","red","green","image-keyboard-response","99","189743","0.0-5.0-1.47","","777","","img/green_ll/choose11.jpg","1","178","green","0.5","0.5","0.5","l","",""
"","","","","631b428359f449b8159625f8","bdp_lott","Mon Mar 27 2023 10:13:46 GMT-0400 (Eastern Daylight Time)","452870","red","green","animation","100","190455","0.0-5.0-2.47","","","","","","178","","","","","","[{""stimulus"":""img/green_ll/1.jpg"",""time"":55},{""stimulus"":""img/green_ll/2.jpg"",""time"":109},{""stimulus"":""img/green_ll/3.jpg"",""time"":172},{""stimulus"":""img/green_ll/4.jpg"",""time"":225},{""stimulus"":""img/green_ll/5.jpg"",""time"":288},{""stimulus"":""img/green_ll/6.jpg"",""time"":341},{""stimulus"":""img/green_ll/7.jpg"",""time"":410},{""stimulus"":""img/green_ll/8.jpg"",""time"":473},{""stimulus"":""img/green_ll/9.jpg"",""time"":526},{""stimulus"":""img/green_ll/10.jpg"",""time"":588},{""stimulus"":""img/green_ll/11.jpg"",""time"":642}]","[]"
"","","","choice","631b428359f449b8159625f8","bdp_lott","Mon Mar 27 2023 10:13:46 GMT-0400 (Eastern Daylight Time)","452870","red","green","image-keyboard-response","101","191300","0.0-5.0-1.48","","844","","img/green_ll/choose11.jpg","1","177","green","0.5","0.5","0.5","l","",""
"","","","","631b428359f449b8159625f8","bdp_lott","Mon Mar 27 2023 10:13:46 GMT-0400 (Eastern Daylight Time)","452870","red","green","animation","102","192022","0.0-5.0-2.48","","","","","","177","","","","","","[{""stimulus"":""img/green_ll/1.jpg"",""time"":57},{""stimulus"":""img/green_ll/2.jpg"",""time"":120},{""stimulus"":""img/green_ll/3.jpg"",""time"":173},{""stimulus"":""img/green_ll/4.jpg"",""time"":236},{""stimulus"":""img/green_ll/5.jpg"",""time"":289},{""stimulus"":""img/green_ll/6.jpg"",""time"":359},{""stimulus"":""img/green_ll/7.jpg"",""time"":421},{""stimulus"":""img/green_ll/8.jpg"",""time"":474},{""stimulus"":""img/green_ll/9.jpg"",""time"":537},{""stimulus"":""img/green_ll/10.jpg"",""time"":591},{""stimulus"":""img/green_ll/11.jpg"",""time"":659}]","[]"
"","","","choice","631b428359f449b8159625f8","bdp_lott","Mon Mar 27 2023 10:13:46 GMT-0400 (Eastern Daylight Time)","452870","red","green","image-keyboard-response","103","192878","0.0-5.0-1.49","","855","","img/green_ll/choose11.jpg","1","176","green","0.5","0.5","0.5","w","",""
"","","","","631b428359f449b8159625f8","bdp_lott","Mon Mar 27 2023 10:13:46 GMT-0400 (Eastern Daylight Time)","452870","red","green","animation","104","193597","0.0-5.0-2.49","","","","","","176","","","","","","[{""stimulus"":""img/green_wl/1.jpg"",""time"":63},{""stimulus"":""img/green_wl/2.jpg"",""time"":116},{""stimulus"":""img/green_wl/3.jpg"",""time"":186},{""stimulus"":""img/green_wl/4.jpg"",""time"":248},{""stimulus"":""img/green_wl/5.jpg"",""time"":301},{""stimulus"":""img/green_wl/6.jpg"",""time"":364},{""stimulus"":""img/green_wl/7.jpg"",""time"":417},{""stimulus"":""img/green_wl/8.jpg"",""time"":486},{""stimulus"":""img/green_wl/9.jpg"",""time"":548},{""stimulus"":""img/green_wl/10.jpg"",""time"":603},{""stimulus"":""img/green_wl/11.jpg"",""time"":665}]","[]"
"","","","choice","631b428359f449b8159625f8","bdp_lott","Mon Mar 27 2023 10:13:46 GMT-0400 (Eastern Daylight Time)","452870","red","green","image-keyboard-response","105","194589","0.0-5.0-1.50","","989","","img/green_wl/choose11.jpg","1","175","green","0.5","0.5","0.5","w","",""
"","","","","631b428359f449b8159625f8","bdp_lott","Mon Mar 27 2023 10:13:46 GMT-0400 (Eastern Daylight Time)","452870","red","green","animation","106","195302","0.0-5.0-2.50","","","","","","175","","","","","","[{""stimulus"":""img/green_wl/1.jpg"",""time"":59},{""stimulus"":""img/green_wl/2.jpg"",""time"":112},{""stimulus"":""img/green_wl/3.jpg"",""time"":182},{""stimulus"":""img/green_wl/4.jpg"",""time"":243},{""stimulus"":""img/green_wl/5.jpg"",""time"":297},{""stimulus"":""img/green_wl/6.jpg"",""time"":359},{""stimulus"":""img/green_wl/7.jpg"",""time"":413},{""stimulus"":""img/green_wl/8.jpg"",""time"":483},{""stimulus"":""img/green_wl/9.jpg"",""time"":545},{""stimulus"":""img/green_wl/10.jpg"",""time"":598},{""stimulus"":""img/green_wl/11.jpg"",""time"":660}]","[]"
"","","","choice","631b428359f449b8159625f8","bdp_lott","Mon Mar 27 2023 10:13:46 GMT-0400 (Eastern Daylight Time)","452870","red","green","image-keyboard-response","107","196307","0.0-5.0-1.51","","1003","","img/green_wl/choose11.jpg","1","174","green","0.5","0.5","0.5","l","",""
"","","","","631b428359f449b8159625f8","bdp_lott","Mon Mar 27 2023 10:13:46 GMT-0400 (Eastern Daylight Time)","452870","red","green","animation","108","197040","0.0-5.0-2.51","","","","","","174","","","","","","[{""stimulus"":""img/green_ll/1.jpg"",""time"":67},{""stimulus"":""img/green_ll/2.jpg"",""time"":129},{""stimulus"":""img/green_ll/3.jpg"",""time"":183},{""stimulus"":""img/green_ll/4.jpg"",""time"":246},{""stimulus"":""img/green_ll/5.jpg"",""time"":299},{""stimulus"":""img/green_ll/6.jpg"",""time"":369},{""stimulus"":""img/green_ll/7.jpg"",""time"":431},{""stimulus"":""img/green_ll/8.jpg"",""time"":485},{""stimulus"":""img/green_ll/9.jpg"",""time"":546},{""stimulus"":""img/green_ll/10.jpg"",""time"":601},{""stimulus"":""img/green_ll/11.jpg"",""time"":670}]","[]"
"","","","choice","631b428359f449b8159625f8","bdp_lott","Mon Mar 27 2023 10:13:46 GMT-0400 (Eastern Daylight Time)","452870","red","green","image-keyboard-response","109","197990","0.0-5.0-1.52","","949","","img/green_ll/choose11.jpg","1","173","green","0.5","0.5","0.5","l","",""
"","","","","631b428359f449b8159625f8","bdp_lott","Mon Mar 27 2023 10:13:46 GMT-0400 (Eastern Daylight Time)","452870","red","green","animation","110","198699","0.0-5.0-2.52","","","","","","173","","","","","","[{""stimulus"":""img/green_ll/1.jpg"",""time"":52},{""stimulus"":""img/green_ll/2.jpg"",""time"":105},{""stimulus"":""img/green_ll/3.jpg"",""time"":167},{""stimulus"":""img/green_ll/4.jpg"",""time"":222},{""stimulus"":""img/green_ll/5.jpg"",""time"":291},{""stimulus"":""img/green_ll/6.jpg"",""time"":353},{""stimulus"":""img/green_ll/7.jpg"",""time"":407},{""stimulus"":""img/green_ll/8.jpg"",""time"":469},{""stimulus"":""img/green_ll/9.jpg"",""time"":523},{""stimulus"":""img/green_ll/10.jpg"",""time"":591},{""stimulus"":""img/green_ll/11.jpg"",""time"":654}]","[]"
"","","","choice","631b428359f449b8159625f8","bdp_lott","Mon Mar 27 2023 10:13:46 GMT-0400 (Eastern Daylight Time)","452870","red","green","image-keyboard-response","111","199586","0.0-5.0-1.53","","887","","img/green_ll/choose11.jpg","1","172","green","0.5","0.5","0.5","w","",""
"","","","","631b428359f449b8159625f8","bdp_lott","Mon Mar 27 2023 10:13:46 GMT-0400 (Eastern Daylight Time)","452870","red","green","animation","112","200302","0.0-5.0-2.53","","","","","","172","","","","","","[{""stimulus"":""img/green_wl/1.jpg"",""time"":62},{""stimulus"":""img/green_wl/2.jpg"",""time"":115},{""stimulus"":""img/green_wl/3.jpg"",""time"":178},{""stimulus"":""img/green_wl/4.jpg"",""time"":231},{""stimulus"":""img/green_wl/5.jpg"",""time"":300},{""stimulus"":""img/green_wl/6.jpg"",""time"":363},{""stimulus"":""img/green_wl/7.jpg"",""time"":416},{""stimulus"":""img/green_wl/8.jpg"",""time"":479},{""stimulus"":""img/green_wl/9.jpg"",""time"":532},{""stimulus"":""img/green_wl/10.jpg"",""time"":601},{""stimulus"":""img/green_wl/11.jpg"",""time"":663}]","[]"
"","","","choice","631b428359f449b8159625f8","bdp_lott","Mon Mar 27 2023 10:13:46 GMT-0400 (Eastern Daylight Time)","452870","red","green","image-keyboard-response","113","202116","0.0-5.0-1.54","","1812","","img/green_wl/choose11.jpg","1","171","green","0.5","0.5","0.5","l","",""
"","","","","631b428359f449b8159625f8","bdp_lott","Mon Mar 27 2023 10:13:46 GMT-0400 (Eastern Daylight Time)","452870","red","green","animation","114","202828","0.0-5.0-2.54","","","","","","171","","","","","","[{""stimulus"":""img/green_ll/1.jpg"",""time"":57},{""stimulus"":""img/green_ll/2.jpg"",""time"":110},{""stimulus"":""img/green_ll/3.jpg"",""time"":179},{""stimulus"":""img/green_ll/4.jpg"",""time"":242},{""stimulus"":""img/green_ll/5.jpg"",""time"":295},{""stimulus"":""img/green_ll/6.jpg"",""time"":358},{""stimulus"":""img/green_ll/7.jpg"",""time"":411},{""stimulus"":""img/green_ll/8.jpg"",""time"":480},{""stimulus"":""img/green_ll/9.jpg"",""time"":542},{""stimulus"":""img/green_ll/10.jpg"",""time"":596},{""stimulus"":""img/green_ll/11.jpg"",""time"":658}]","[]"
"","","","choice","631b428359f449b8159625f8","bdp_lott","Mon Mar 27 2023 10:13:46 GMT-0400 (Eastern Daylight Time)","452870","red","green","image-keyboard-response","115","203803","0.0-5.0-1.55","","974","","img/green_ll/choose11.jpg","1","170","green","0.5","0.5","0.5","w","",""
"","","","","631b428359f449b8159625f8","bdp_lott","Mon Mar 27 2023 10:13:46 GMT-0400 (Eastern Daylight Time)","452870","red","green","animation","116","204519","0.0-5.0-2.55","","","","","","170","","","","","","[{""stimulus"":""img/green_wl/1.jpg"",""time"":61},{""stimulus"":""img/green_wl/2.jpg"",""time"":114},{""stimulus"":""img/green_wl/3.jpg"",""time"":176},{""stimulus"":""img/green_wl/4.jpg"",""time"":230},{""stimulus"":""img/green_wl/5.jpg"",""time"":299},{""stimulus"":""img/green_wl/6.jpg"",""time"":361},{""stimulus"":""img/green_wl/7.jpg"",""time"":415},{""stimulus"":""img/green_wl/8.jpg"",""time"":477},{""stimulus"":""img/green_wl/9.jpg"",""time"":531},{""stimulus"":""img/green_wl/10.jpg"",""time"":600},{""stimulus"":""img/green_wl/11.jpg"",""time"":662}]","[]"
"","","","choice","631b428359f449b8159625f8","bdp_lott","Mon Mar 27 2023 10:13:46 GMT-0400 (Eastern Daylight Time)","452870","red","green","image-keyboard-response","117","205390","0.0-5.0-1.56","","871","","img/green_wl/choose11.jpg","1","169","green","0.5","0.5","0.5","l","",""
"","","","","631b428359f449b8159625f8","bdp_lott","Mon Mar 27 2023 10:13:46 GMT-0400 (Eastern Daylight Time)","452870","red","green","animation","118","206109","0.0-5.0-2.56","","","","","","169","","","","","","[{""stimulus"":""img/green_ll/1.jpg"",""time"":64},{""stimulus"":""img/green_ll/2.jpg"",""time"":116},{""stimulus"":""img/green_ll/3.jpg"",""time"":179},{""stimulus"":""img/green_ll/4.jpg"",""time"":232},{""stimulus"":""img/green_ll/5.jpg"",""time"":295},{""stimulus"":""img/green_ll/6.jpg"",""time"":348},{""stimulus"":""img/green_ll/7.jpg"",""time"":417},{""stimulus"":""img/green_ll/8.jpg"",""time"":479},{""stimulus"":""img/green_ll/9.jpg"",""time"":533},{""stimulus"":""img/green_ll/10.jpg"",""time"":596},{""stimulus"":""img/green_ll/11.jpg"",""time"":649}]","[]"
"","","","choice","631b428359f449b8159625f8","bdp_lott","Mon Mar 27 2023 10:13:46 GMT-0400 (Eastern Daylight Time)","452870","red","green","image-keyboard-response","119","206963","0.0-5.0-1.57","","853","","img/green_ll/choose11.jpg","1","168","green","0.5","0.5","0.5","w","",""
"","","","","631b428359f449b8159625f8","bdp_lott","Mon Mar 27 2023 10:13:46 GMT-0400 (Eastern Daylight Time)","452870","red","green","animation","120","207693","0.0-5.0-2.57","","","","","","168","","","","","","[{""stimulus"":""img/green_wl/1.jpg"",""time"":65},{""stimulus"":""img/green_wl/2.jpg"",""time"":127},{""stimulus"":""img/green_wl/3.jpg"",""time"":181},{""stimulus"":""img/green_wl/4.jpg"",""time"":249},{""stimulus"":""img/green_wl/5.jpg"",""time"":312},{""stimulus"":""img/green_wl/6.jpg"",""time"":365},{""stimulus"":""img/green_wl/7.jpg"",""time"":428},{""stimulus"":""img/green_wl/8.jpg"",""time"":481},{""stimulus"":""img/green_wl/9.jpg"",""time"":550},{""stimulus"":""img/green_wl/10.jpg"",""time"":613},{""stimulus"":""img/green_wl/11.jpg"",""time"":667}]","[]"
"","","","choice","631b428359f449b8159625f8","bdp_lott","Mon Mar 27 2023 10:13:46 GMT-0400 (Eastern Daylight Time)","452870","red","green","image-keyboard-response","121","208658","0.0-5.0-1.58","","964","","img/green_wl/choose11.jpg","1","167","green","0.5","0.5","0.5","l","",""
"","","","","631b428359f449b8159625f8","bdp_lott","Mon Mar 27 2023 10:13:46 GMT-0400 (Eastern Daylight Time)","452870","red","green","animation","122","209383","0.0-5.0-2.58","","","","","","167","","","","","","[{""stimulus"":""img/green_ll/1.jpg"",""time"":61},{""stimulus"":""img/green_ll/2.jpg"",""time"":122},{""stimulus"":""img/green_ll/3.jpg"",""time"":175},{""stimulus"":""img/green_ll/4.jpg"",""time"":238},{""stimulus"":""img/green_ll/5.jpg"",""time"":291},{""stimulus"":""img/green_ll/6.jpg"",""time"":361},{""stimulus"":""img/green_ll/7.jpg"",""time"":424},{""stimulus"":""img/green_ll/8.jpg"",""time"":476},{""stimulus"":""img/green_ll/9.jpg"",""time"":539},{""stimulus"":""img/green_ll/10.jpg"",""time"":593},{""stimulus"":""img/green_ll/11.jpg"",""time"":662}]","[]"
"","","","choice","631b428359f449b8159625f8","bdp_lott","Mon Mar 27 2023 10:13:46 GMT-0400 (Eastern Daylight Time)","452870","red","green","image-keyboard-response","123","210269","0.0-5.0-1.59","","885","","img/green_ll/choose11.jpg","1","166","green","0.5","0.5","0.5","w","",""
"","","","","631b428359f449b8159625f8","bdp_lott","Mon Mar 27 2023 10:13:46 GMT-0400 (Eastern Daylight Time)","452870","red","green","animation","124","210989","0.0-5.0-2.59","","","","","","166","","","","","","[{""stimulus"":""img/green_wl/1.jpg"",""time"":55},{""stimulus"":""img/green_wl/2.jpg"",""time"":117},{""stimulus"":""img/green_wl/3.jpg"",""time"":171},{""stimulus"":""img/green_wl/4.jpg"",""time"":233},{""stimulus"":""img/green_wl/5.jpg"",""time"":286},{""stimulus"":""img/green_wl/6.jpg"",""time"":355},{""stimulus"":""img/green_wl/7.jpg"",""time"":418},{""stimulus"":""img/green_wl/8.jpg"",""time"":472},{""stimulus"":""img/green_wl/9.jpg"",""time"":534},{""stimulus"":""img/green_wl/10.jpg"",""time"":588},{""stimulus"":""img/green_wl/11.jpg"",""time"":657}]","[]"
"","","","choice","631b428359f449b8159625f8","bdp_lott","Mon Mar 27 2023 10:13:46 GMT-0400 (Eastern Daylight Time)","452870","red","green","image-keyboard-response","125","212408","0.0-5.0-1.60","","1418","","img/green_wl/choose11.jpg","1","165","green","0.5","0.5","0.5","l","",""
"","","","","631b428359f449b8159625f8","bdp_lott","Mon Mar 27 2023 10:13:46 GMT-0400 (Eastern Daylight Time)","452870","red","green","animation","126","213134","0.0-5.0-2.60","","","","","","165","","","","","","[{""stimulus"":""img/green_ll/1.jpg"",""time"":55},{""stimulus"":""img/green_ll/2.jpg"",""time"":124},{""stimulus"":""img/green_ll/3.jpg"",""time"":187},{""stimulus"":""img/green_ll/4.jpg"",""time"":241},{""stimulus"":""img/green_ll/5.jpg"",""time"":308},{""stimulus"":""img/green_ll/6.jpg"",""time"":372},{""stimulus"":""img/green_ll/7.jpg"",""time"":425},{""stimulus"":""img/green_ll/8.jpg"",""time"":488},{""stimulus"":""img/green_ll/9.jpg"",""time"":541},{""stimulus"":""img/green_ll/10.jpg"",""time"":604},{""stimulus"":""img/green_ll/11.jpg"",""time"":657}]","[]"
"","","","choice","631b428359f449b8159625f8","bdp_lott","Mon Mar 27 2023 10:13:46 GMT-0400 (Eastern Daylight Time)","452870","red","green","image-keyboard-response","127","213973","0.0-5.0-1.61","","836","","img/green_ll/choose11.jpg","1","164","green","0.5","0.5","0.5","w","",""
"","","","","631b428359f449b8159625f8","bdp_lott","Mon Mar 27 2023 10:13:46 GMT-0400 (Eastern Daylight Time)","452870","red","green","animation","128","214703","0.0-5.0-2.61","","","","","","164","","","","","","[{""stimulus"":""img/green_wl/1.jpg"",""time"":65},{""stimulus"":""img/green_wl/2.jpg"",""time"":127},{""stimulus"":""img/green_wl/3.jpg"",""time"":181},{""stimulus"":""img/green_wl/4.jpg"",""time"":243},{""stimulus"":""img/green_wl/5.jpg"",""time"":297},{""stimulus"":""img/green_wl/6.jpg"",""time"":366},{""stimulus"":""img/green_wl/7.jpg"",""time"":429},{""stimulus"":""img/green_wl/8.jpg"",""time"":483},{""stimulus"":""img/green_wl/9.jpg"",""time"":545},{""stimulus"":""img/green_wl/10.jpg"",""time"":599},{""stimulus"":""img/green_wl/11.jpg"",""time"":667}]","[]"
"","","","choice","631b428359f449b8159625f8","bdp_lott","Mon Mar 27 2023 10:13:46 GMT-0400 (Eastern Daylight Time)","452870","red","green","image-keyboard-response","129","215690","0.0-5.0-1.62","","986","","img/green_wl/choose11.jpg","1","163","green","0.5","0.5","0.5","w","",""
"","","","","631b428359f449b8159625f8","bdp_lott","Mon Mar 27 2023 10:13:46 GMT-0400 (Eastern Daylight Time)","452870","red","green","animation","130","216408","0.0-5.0-2.62","","","","","","163","","","","","","[{""stimulus"":""img/green_wl/1.jpg"",""time"":54},{""stimulus"":""img/green_wl/2.jpg"",""time"":116},{""stimulus"":""img/green_wl/3.jpg"",""time"":170},{""stimulus"":""img/green_wl/4.jpg"",""time"":232},{""stimulus"":""img/green_wl/5.jpg"",""time"":286},{""stimulus"":""img/green_wl/6.jpg"",""time"":355},{""stimulus"":""img/green_wl/7.jpg"",""time"":417},{""stimulus"":""img/green_wl/8.jpg"",""time"":470},{""stimulus"":""img/green_wl/9.jpg"",""time"":533},{""stimulus"":""img/green_wl/10.jpg"",""time"":586},{""stimulus"":""img/green_wl/11.jpg"",""time"":655}]","[]"
"","","","choice","631b428359f449b8159625f8","bdp_lott","Mon Mar 27 2023 10:13:46 GMT-0400 (Eastern Daylight Time)","452870","red","green","image-keyboard-response","131","217594","0.0-5.0-1.63","","1184","","img/green_wl/choose11.jpg","1","162","green","0.5","0.5","0.5","l","",""
"","","","","631b428359f449b8159625f8","bdp_lott","Mon Mar 27 2023 10:13:46 GMT-0400 (Eastern Daylight Time)","452870","red","green","animation","132","218314","0.0-5.0-2.63","","","","","","162","","","","","","[{""stimulus"":""img/green_ll/1.jpg"",""time"":56},{""stimulus"":""img/green_ll/2.jpg"",""time"":119},{""stimulus"":""img/green_ll/3.jpg"",""time"":172},{""stimulus"":""img/green_ll/4.jpg"",""time"":234},{""stimulus"":""img/green_ll/5.jpg"",""time"":288},{""stimulus"":""img/green_ll/6.jpg"",""time"":357},{""stimulus"":""img/green_ll/7.jpg"",""time"":419},{""stimulus"":""img/green_ll/8.jpg"",""time"":473},{""stimulus"":""img/green_ll/9.jpg"",""time"":535},{""stimulus"":""img/green_ll/10.jpg"",""time"":589},{""stimulus"":""img/green_ll/11.jpg"",""time"":658}]","[]"
"","","","choice","631b428359f449b8159625f8","bdp_lott","Mon Mar 27 2023 10:13:46 GMT-0400 (Eastern Daylight Time)","452870","red","green","image-keyboard-response","133","219270","0.0-5.0-1.64","","955","","img/green_ll/choose11.jpg","1","161","green","0.5","0.5","0.5","l","",""
"","","","","631b428359f449b8159625f8","bdp_lott","Mon Mar 27 2023 10:13:46 GMT-0400 (Eastern Daylight Time)","452870","red","green","animation","134","220005","0.0-5.0-2.64","","","","","","161","","","","","","[{""stimulus"":""img/green_ll/1.jpg"",""time"":62},{""stimulus"":""img/green_ll/2.jpg"",""time"":115},{""stimulus"":""img/green_ll/3.jpg"",""time"":184},{""stimulus"":""img/green_ll/4.jpg"",""time"":247},{""stimulus"":""img/green_ll/5.jpg"",""time"":300},{""stimulus"":""img/green_ll/6.jpg"",""time"":363},{""stimulus"":""img/green_ll/7.jpg"",""time"":417},{""stimulus"":""img/green_ll/8.jpg"",""time"":486},{""stimulus"":""img/green_ll/9.jpg"",""time"":548},{""stimulus"":""img/green_ll/10.jpg"",""time"":602},{""stimulus"":""img/green_ll/11.jpg"",""time"":665}]","[]"
"","","","choice","631b428359f449b8159625f8","bdp_lott","Mon Mar 27 2023 10:13:46 GMT-0400 (Eastern Daylight Time)","452870","red","green","image-keyboard-response","135","220944","0.0-5.0-1.65","","937","","img/green_ll/choose11.jpg","1","160","green","0.5","0.5","0.5","w","",""
"","","","","631b428359f449b8159625f8","bdp_lott","Mon Mar 27 2023 10:13:46 GMT-0400 (Eastern Daylight Time)","452870","red","green","animation","136","221663","0.0-5.0-2.65","","","","","","160","","","","","","[{""stimulus"":""img/green_wl/1.jpg"",""time"":64},{""stimulus"":""img/green_wl/2.jpg"",""time"":118},{""stimulus"":""img/green_wl/3.jpg"",""time"":180},{""stimulus"":""img/green_wl/4.jpg"",""time"":233},{""stimulus"":""img/green_wl/5.jpg"",""time"":295},{""stimulus"":""img/green_wl/6.jpg"",""time"":350},{""stimulus"":""img/green_wl/7.jpg"",""time"":419},{""stimulus"":""img/green_wl/8.jpg"",""time"":481},{""stimulus"":""img/green_wl/9.jpg"",""time"":535},{""stimulus"":""img/green_wl/10.jpg"",""time"":597},{""stimulus"":""img/green_wl/11.jpg"",""time"":651}]","[]"
"","","","choice","631b428359f449b8159625f8","bdp_lott","Mon Mar 27 2023 10:13:46 GMT-0400 (Eastern Daylight Time)","452870","red","green","image-keyboard-response","137","222637","0.0-5.0-1.66","","973","","img/green_wl/choose11.jpg","1","159","green","0.5","0.5","0.5","l","",""
"","","","","631b428359f449b8159625f8","bdp_lott","Mon Mar 27 2023 10:13:46 GMT-0400 (Eastern Daylight Time)","452870","red","green","animation","138","223372","0.0-5.0-2.66","","","","","","159","","","","","","[{""stimulus"":""img/green_ll/1.jpg"",""time"":61},{""stimulus"":""img/green_ll/2.jpg"",""time"":129},{""stimulus"":""img/green_ll/3.jpg"",""time"":192},{""stimulus"":""img/green_ll/4.jpg"",""time"":245},{""stimulus"":""img/green_ll/5.jpg"",""time"":308},{""stimulus"":""img/green_ll/6.jpg"",""time"":361},{""stimulus"":""img/green_ll/7.jpg"",""time"":431},{""stimulus"":""img/green_ll/8.jpg"",""time"":493},{""stimulus"":""img/green_ll/9.jpg"",""time"":547},{""stimulus"":""img/green_ll/10.jpg"",""time"":610},{""stimulus"":""img/green_ll/11.jpg"",""time"":663}]","[]"
"","","","choice","631b428359f449b8159625f8","bdp_lott","Mon Mar 27 2023 10:13:46 GMT-0400 (Eastern Daylight Time)","452870","red","green","image-keyboard-response","139","224212","0.0-5.0-1.67","","839","","img/green_ll/choose11.jpg","1","158","green","0.5","0.5","0.5","w","",""
"","","","","631b428359f449b8159625f8","bdp_lott","Mon Mar 27 2023 10:13:46 GMT-0400 (Eastern Daylight Time)","452870","red","green","animation","140","224937","0.0-5.0-2.67","","","","","","158","","","","","","[{""stimulus"":""img/green_wl/1.jpg"",""time"":61},{""stimulus"":""img/green_wl/2.jpg"",""time"":114},{""stimulus"":""img/green_wl/3.jpg"",""time"":177},{""stimulus"":""img/green_wl/4.jpg"",""time"":239},{""stimulus"":""img/green_wl/5.jpg"",""time"":293},{""stimulus"":""img/green_wl/6.jpg"",""time"":361},{""stimulus"":""img/green_wl/7.jpg"",""time"":424},{""stimulus"":""img/green_wl/8.jpg"",""time"":477},{""stimulus"":""img/green_wl/9.jpg"",""time"":540},{""stimulus"":""img/green_wl/10.jpg"",""time"":593},{""stimulus"":""img/green_wl/11.jpg"",""time"":663}]","[]"
"","","","choice","631b428359f449b8159625f8","bdp_lott","Mon Mar 27 2023 10:13:46 GMT-0400 (Eastern Daylight Time)","452870","red","green","image-keyboard-response","141","225841","0.0-5.0-1.68","","903","","img/green_wl/choose11.jpg","1","157","green","0.5","0.5","0.5","l","",""
"","","","","631b428359f449b8159625f8","bdp_lott","Mon Mar 27 2023 10:13:46 GMT-0400 (Eastern Daylight Time)","452870","red","green","animation","142","226558","0.0-5.0-2.68","","","","","","157","","","","","","[{""stimulus"":""img/green_ll/1.jpg"",""time"":53},{""stimulus"":""img/green_ll/2.jpg"",""time"":115},{""stimulus"":""img/green_ll/3.jpg"",""time"":168},{""stimulus"":""img/green_ll/4.jpg"",""time"":238},{""stimulus"":""img/green_ll/5.jpg"",""time"":300},{""stimulus"":""img/green_ll/6.jpg"",""time"":354},{""stimulus"":""img/green_ll/7.jpg"",""time"":416},{""stimulus"":""img/green_ll/8.jpg"",""time"":469},{""stimulus"":""img/green_ll/9.jpg"",""time"":539},{""stimulus"":""img/green_ll/10.jpg"",""time"":601},{""stimulus"":""img/green_ll/11.jpg"",""time"":655}]","[]"
"","","","choice","631b428359f449b8159625f8","bdp_lott","Mon Mar 27 2023 10:13:46 GMT-0400 (Eastern Daylight Time)","452870","red","green","image-keyboard-response","143","227434","0.0-5.0-1.69","","875","","img/green_ll/choose11.jpg","1","156","green","0.5","0.5","0.5","w","",""
"","","","","631b428359f449b8159625f8","bdp_lott","Mon Mar 27 2023 10:13:46 GMT-0400 (Eastern Daylight Time)","452870","red","green","animation","144","228164","0.0-5.0-2.69","","","","","","156","","","","","","[{""stimulus"":""img/green_wl/1.jpg"",""time"":65},{""stimulus"":""img/green_wl/2.jpg"",""time"":128},{""stimulus"":""img/green_wl/3.jpg"",""time"":182},{""stimulus"":""img/green_wl/4.jpg"",""time"":251},{""stimulus"":""img/green_wl/5.jpg"",""time"":313},{""stimulus"":""img/green_wl/6.jpg"",""time"":367},{""stimulus"":""img/green_wl/7.jpg"",""time"":429},{""stimulus"":""img/green_wl/8.jpg"",""time"":483},{""stimulus"":""img/green_wl/9.jpg"",""time"":552},{""stimulus"":""img/green_wl/10.jpg"",""time"":614},{""stimulus"":""img/green_wl/11.jpg"",""time"":668}]","[]"
"","","","choice","631b428359f449b8159625f8","bdp_lott","Mon Mar 27 2023 10:13:46 GMT-0400 (Eastern Daylight Time)","452870","red","green","image-keyboard-response","145","228898","0.0-5.0-1.70","","732","","img/green_wl/choose11.jpg","1","155","green","0.5","0.5","0.5","l","",""
"","","","","631b428359f449b8159625f8","bdp_lott","Mon Mar 27 2023 10:13:46 GMT-0400 (Eastern Daylight Time)","452870","red","green","animation","146","229606","0.0-5.0-2.70","","","","","","155","","","","","","[{""stimulus"":""img/green_ll/1.jpg"",""time"":54},{""stimulus"":""img/green_ll/2.jpg"",""time"":107},{""stimulus"":""img/green_ll/3.jpg"",""time"":170},{""stimulus"":""img/green_ll/4.jpg"",""time"":224},{""stimulus"":""img/green_ll/5.jpg"",""time"":292},{""stimulus"":""img/green_ll/6.jpg"",""time"":355},{""stimulus"":""img/green_ll/7.jpg"",""time"":408},{""stimulus"":""img/green_ll/8.jpg"",""time"":471},{""stimulus"":""img/green_ll/9.jpg"",""time"":524},{""stimulus"":""img/green_ll/10.jpg"",""time"":594},{""stimulus"":""img/green_ll/11.jpg"",""time"":656}]","[]"
"","","","choice","631b428359f449b8159625f8","bdp_lott","Mon Mar 27 2023 10:13:46 GMT-0400 (Eastern Daylight Time)","452870","red","green","image-keyboard-response","147","230331","0.0-5.0-1.71","","723","","img/green_ll/choose11.jpg","1","154","green","0.5","0.5","0.5","w","",""
"","","","","631b428359f449b8159625f8","bdp_lott","Mon Mar 27 2023 10:13:46 GMT-0400 (Eastern Daylight Time)","452870","red","green","animation","148","231059","0.0-5.0-2.71","","","","","","154","","","","","","[{""stimulus"":""img/green_wl/1.jpg"",""time"":63},{""stimulus"":""img/green_wl/2.jpg"",""time"":126},{""stimulus"":""img/green_wl/3.jpg"",""time"":179},{""stimulus"":""img/green_wl/4.jpg"",""time"":243},{""stimulus"":""img/green_wl/5.jpg"",""time"":295},{""stimulus"":""img/green_wl/6.jpg"",""time"":364},{""stimulus"":""img/green_wl/7.jpg"",""time"":426},{""stimulus"":""img/green_wl/8.jpg"",""time"":480},{""stimulus"":""img/green_wl/9.jpg"",""time"":542},{""stimulus"":""img/green_wl/10.jpg"",""time"":595},{""stimulus"":""img/green_wl/11.jpg"",""time"":665}]","[]"
"","","","choice","631b428359f449b8159625f8","bdp_lott","Mon Mar 27 2023 10:13:46 GMT-0400 (Eastern Daylight Time)","452870","red","green","image-keyboard-response","149","231978","0.0-5.0-1.72","","918","","img/green_wl/choose11.jpg","1","153","green","0.5","0.5","0.5","l","",""
"","","","","631b428359f449b8159625f8","bdp_lott","Mon Mar 27 2023 10:13:46 GMT-0400 (Eastern Daylight Time)","452870","red","green","animation","150","232702","0.0-5.0-2.72","","","","","","153","","","","","","[{""stimulus"":""img/green_ll/1.jpg"",""time"":54},{""stimulus"":""img/green_ll/2.jpg"",""time"":123},{""stimulus"":""img/green_ll/3.jpg"",""time"":185},{""stimulus"":""img/green_ll/4.jpg"",""time"":239},{""stimulus"":""img/green_ll/5.jpg"",""time"":302},{""stimulus"":""img/green_ll/6.jpg"",""time"":355},{""stimulus"":""img/green_ll/7.jpg"",""time"":424},{""stimulus"":""img/green_ll/8.jpg"",""time"":486},{""stimulus"":""img/green_ll/9.jpg"",""time"":540},{""stimulus"":""img/green_ll/10.jpg"",""time"":602},{""stimulus"":""img/green_ll/11.jpg"",""time"":655}]","[]"
"","","","choice","631b428359f449b8159625f8","bdp_lott","Mon Mar 27 2023 10:13:46 GMT-0400 (Eastern Daylight Time)","452870","red","green","image-keyboard-response","151","233288","0.0-5.0-1.73","","585","","img/green_ll/choose11.jpg","1","152","green","0.5","0.5","0.5","w","",""
"","","","","631b428359f449b8159625f8","bdp_lott","Mon Mar 27 2023 10:13:46 GMT-0400 (Eastern Daylight Time)","452870","red","green","animation","152","234006","0.0-5.0-2.73","","","","","","152","","","","","","[{""stimulus"":""img/green_wl/1.jpg"",""time"":64},{""stimulus"":""img/green_wl/2.jpg"",""time"":117},{""stimulus"":""img/green_wl/3.jpg"",""time"":179},{""stimulus"":""img/green_wl/4.jpg"",""time"":233},{""stimulus"":""img/green_wl/5.jpg"",""time"":296},{""stimulus"":""img/green_wl/6.jpg"",""time"":350},{""stimulus"":""img/green_wl/7.jpg"",""time"":418},{""stimulus"":""img/green_wl/8.jpg"",""time"":481},{""stimulus"":""img/green_wl/9.jpg"",""time"":534},{""stimulus"":""img/green_wl/10.jpg"",""time"":597},{""stimulus"":""img/green_wl/11.jpg"",""time"":650}]","[]"
"","","","choice","631b428359f449b8159625f8","bdp_lott","Mon Mar 27 2023 10:13:46 GMT-0400 (Eastern Daylight Time)","452870","red","green","image-keyboard-response","153","234783","0.0-5.0-1.74","","774","","img/green_wl/choose11.jpg","1","151","green","0.5","0.5","0.5","l","",""
"","","","","631b428359f449b8159625f8","bdp_lott","Mon Mar 27 2023 10:13:46 GMT-0400 (Eastern Daylight Time)","452870","red","green","animation","154","235511","0.0-5.0-2.74","","","","","","151","","","","","","[{""stimulus"":""img/green_ll/1.jpg"",""time"":58},{""stimulus"":""img/green_ll/2.jpg"",""time"":127},{""stimulus"":""img/green_ll/3.jpg"",""time"":189},{""stimulus"":""img/green_ll/4.jpg"",""time"":243},{""stimulus"":""img/green_ll/5.jpg"",""time"":305},{""stimulus"":""img/green_ll/6.jpg"",""time"":358},{""stimulus"":""img/green_ll/7.jpg"",""time"":428},{""stimulus"":""img/green_ll/8.jpg"",""time"":490},{""stimulus"":""img/green_ll/9.jpg"",""time"":543},{""stimulus"":""img/green_ll/10.jpg"",""time"":606},{""stimulus"":""img/green_ll/11.jpg"",""time"":659}]","[]"
"","","","choice","631b428359f449b8159625f8","bdp_lott","Mon Mar 27 2023 10:13:46 GMT-0400 (Eastern Daylight Time)","452870","red","green","image-keyboard-response","155","236220","0.0-5.0-1.75","","708","","img/green_ll/choose11.jpg","1","150","green","0.5","0.5","0.5","l","",""
"","","","","631b428359f449b8159625f8","bdp_lott","Mon Mar 27 2023 10:13:46 GMT-0400 (Eastern Daylight Time)","452870","red","green","animation","156","236931","0.0-5.0-2.75","","","","","","150","","","","","","[{""stimulus"":""img/green_ll/1.jpg"",""time"":56},{""stimulus"":""img/green_ll/2.jpg"",""time"":109},{""stimulus"":""img/green_ll/3.jpg"",""time"":172},{""stimulus"":""img/green_ll/4.jpg"",""time"":225},{""stimulus"":""img/green_ll/5.jpg"",""time"":295},{""stimulus"":""img/green_ll/6.jpg"",""time"":356},{""stimulus"":""img/green_ll/7.jpg"",""time"":411},{""stimulus"":""img/green_ll/8.jpg"",""time"":473},{""stimulus"":""img/green_ll/9.jpg"",""time"":527},{""stimulus"":""img/green_ll/10.jpg"",""time"":596},{""stimulus"":""img/green_ll/11.jpg"",""time"":658}]","[]"
"","","","choice","631b428359f449b8159625f8","bdp_lott","Mon Mar 27 2023 10:13:46 GMT-0400 (Eastern Daylight Time)","452870","red","green","image-keyboard-response","157","237661","0.0-5.0-1.76","","729","","img/green_ll/choose11.jpg","1","149","green","0.5","0.1","0.1","l","",""
"","","","","631b428359f449b8159625f8","bdp_lott","Mon Mar 27 2023 10:13:46 GMT-0400 (Eastern Daylight Time)","452870","red","green","animation","158","238383","0.0-5.0-2.76","","","","","","149","","","","","","[{""stimulus"":""img/green_ll/1.jpg"",""time"":56},{""stimulus"":""img/green_ll/2.jpg"",""time"":119},{""stimulus"":""img/green_ll/3.jpg"",""time"":173},{""stimulus"":""img/green_ll/4.jpg"",""time"":235},{""stimulus"":""img/green_ll/5.jpg"",""time"":289},{""stimulus"":""img/green_ll/6.jpg"",""time"":357},{""stimulus"":""img/green_ll/7.jpg"",""time"":420},{""stimulus"":""img/green_ll/8.jpg"",""time"":474},{""stimulus"":""img/green_ll/9.jpg"",""time"":536},{""stimulus"":""img/green_ll/10.jpg"",""time"":589},{""stimulus"":""img/green_ll/11.jpg"",""time"":659}]","[]"
"","","","choice","631b428359f449b8159625f8","bdp_lott","Mon Mar 27 2023 10:13:46 GMT-0400 (Eastern Daylight Time)","452870","red","green","image-keyboard-response","159","239087","0.0-5.0-1.77","","703","","img/green_ll/choose11.jpg","1","148","green","0.5","0.1","0.1","l","",""
"","","","","631b428359f449b8159625f8","bdp_lott","Mon Mar 27 2023 10:13:46 GMT-0400 (Eastern Daylight Time)","452870","red","green","animation","160","239804","0.0-5.0-2.77","","","","","","148","","","","","","[{""stimulus"":""img/green_ll/1.jpg"",""time"":52},{""stimulus"":""img/green_ll/2.jpg"",""time"":115},{""stimulus"":""img/green_ll/3.jpg"",""time"":169},{""stimulus"":""img/green_ll/4.jpg"",""time"":238},{""stimulus"":""img/green_ll/5.jpg"",""time"":300},{""stimulus"":""img/green_ll/6.jpg"",""time"":354},{""stimulus"":""img/green_ll/7.jpg"",""time"":416},{""stimulus"":""img/green_ll/8.jpg"",""time"":470},{""stimulus"":""img/green_ll/9.jpg"",""time"":539},{""stimulus"":""img/green_ll/10.jpg"",""time"":602},{""stimulus"":""img/green_ll/11.jpg"",""time"":655}]","[]"
"","","","choice","631b428359f449b8159625f8","bdp_lott","Mon Mar 27 2023 10:13:46 GMT-0400 (Eastern Daylight Time)","452870","red","green","image-keyboard-response","161","240599","0.0-5.0-1.78","","794","","img/green_ll/choose11.jpg","1","147","green","0.5","0.1","0.1","l","",""
"","","","","631b428359f449b8159625f8","bdp_lott","Mon Mar 27 2023 10:13:46 GMT-0400 (Eastern Daylight Time)","452870","red","green","animation","162","241332","0.0-5.0-2.78","","","","","","147","","","","","","[{""stimulus"":""img/green_ll/1.jpg"",""time"":62},{""stimulus"":""img/green_ll/2.jpg"",""time"":131},{""stimulus"":""img/green_ll/3.jpg"",""time"":193},{""stimulus"":""img/green_ll/4.jpg"",""time"":246},{""stimulus"":""img/green_ll/5.jpg"",""time"":309},{""stimulus"":""img/green_ll/6.jpg"",""time"":363},{""stimulus"":""img/green_ll/7.jpg"",""time"":431},{""stimulus"":""img/green_ll/8.jpg"",""time"":494},{""stimulus"":""img/green_ll/9.jpg"",""time"":548},{""stimulus"":""img/green_ll/10.jpg"",""time"":610},{""stimulus"":""img/green_ll/11.jpg"",""time"":664}]","[]"
"","","","choice","631b428359f449b8159625f8","bdp_lott","Mon Mar 27 2023 10:13:46 GMT-0400 (Eastern Daylight Time)","452870","red","green","image-keyboard-response","163","242116","0.0-5.0-1.79","","783","","img/green_ll/choose11.jpg","2","146","red","0.5","0.1","0.5","w","",""
"","","","","631b428359f449b8159625f8","bdp_lott","Mon Mar 27 2023 10:13:46 GMT-0400 (Eastern Daylight Time)","452870","red","green","animation","164","242837","0.0-5.0-2.79","","","","","","146","","","","","","[{""stimulus"":""img/red_lw/1.jpg"",""time"":66},{""stimulus"":""img/red_lw/2.jpg"",""time"":120},{""stimulus"":""img/red_lw/3.jpg"",""time"":182},{""stimulus"":""img/red_lw/4.jpg"",""time"":235},{""stimulus"":""img/red_lw/5.jpg"",""time"":298},{""stimulus"":""img/red_lw/6.jpg"",""time"":351},{""stimulus"":""img/red_lw/7.jpg"",""time"":420},{""stimulus"":""img/red_lw/8.jpg"",""time"":482},{""stimulus"":""img/red_lw/9.jpg"",""time"":535},{""stimulus"":""img/red_lw/10.jpg"",""time"":599},{""stimulus"":""img/red_lw/11.jpg"",""time"":652}]","[]"
"","","","choice","631b428359f449b8159625f8","bdp_lott","Mon Mar 27 2023 10:13:46 GMT-0400 (Eastern Daylight Time)","452870","red","green","image-keyboard-response","165","243687","0.0-5.0-1.80","","849","","img/red_lw/choose11.jpg","2","145","red","0.5","0.1","0.5","w","",""
"","","","","631b428359f449b8159625f8","bdp_lott","Mon Mar 27 2023 10:13:46 GMT-0400 (Eastern Daylight Time)","452870","red","green","animation","166","244404","0.0-5.0-2.80","","","","","","145","","","","","","[{""stimulus"":""img/red_lw/1.jpg"",""time"":52},{""stimulus"":""img/red_lw/2.jpg"",""time"":114},{""stimulus"":""img/red_lw/3.jpg"",""time"":168},{""stimulus"":""img/red_lw/4.jpg"",""time"":230},{""stimulus"":""img/red_lw/5.jpg"",""time"":284},{""stimulus"":""img/red_lw/6.jpg"",""time"":353},{""stimulus"":""img/red_lw/7.jpg"",""time"":416},{""stimulus"":""img/red_lw/8.jpg"",""time"":469},{""stimulus"":""img/red_lw/9.jpg"",""time"":531},{""stimulus"":""img/red_lw/10.jpg"",""time"":585},{""stimulus"":""img/red_lw/11.jpg"",""time"":654}]","[]"
"","","","choice","631b428359f449b8159625f8","bdp_lott","Mon Mar 27 2023 10:13:46 GMT-0400 (Eastern Daylight Time)","452870","red","green","image-keyboard-response","167","245172","0.0-5.0-1.81","","767","","img/red_lw/choose11.jpg","2","144","red","0.5","0.1","0.5","w","",""
"","","","","631b428359f449b8159625f8","bdp_lott","Mon Mar 27 2023 10:13:46 GMT-0400 (Eastern Daylight Time)","452870","red","green","animation","168","245909","0.0-5.0-2.81","","","","","","144","","","","","","[{""stimulus"":""img/red_lw/1.jpg"",""time"":73},{""stimulus"":""img/red_lw/2.jpg"",""time"":135},{""stimulus"":""img/red_lw/3.jpg"",""time"":196},{""stimulus"":""img/red_lw/4.jpg"",""time"":253},{""stimulus"":""img/red_lw/5.jpg"",""time"":304},{""stimulus"":""img/red_lw/6.jpg"",""time"":374},{""stimulus"":""img/red_lw/7.jpg"",""time"":436},{""stimulus"":""img/red_lw/8.jpg"",""time"":489},{""stimulus"":""img/red_lw/9.jpg"",""time"":552},{""stimulus"":""img/red_lw/10.jpg"",""time"":606},{""stimulus"":""img/red_lw/11.jpg"",""time"":674}]","[]"
"","","","choice","631b428359f449b8159625f8","bdp_lott","Mon Mar 27 2023 10:13:46 GMT-0400 (Eastern Daylight Time)","452870","red","green","image-keyboard-response","169","246672","0.0-5.0-1.82","","762","","img/red_lw/choose11.jpg","2","143","red","0.5","0.1","0.5","l","",""
"","","","","631b428359f449b8159625f8","bdp_lott","Mon Mar 27 2023 10:13:46 GMT-0400 (Eastern Daylight Time)","452870","red","green","animation","170","247384","0.0-5.0-2.82","","","","","","143","","","","","","[{""stimulus"":""img/red_ll/1.jpg"",""time"":57},{""stimulus"":""img/red_ll/2.jpg"",""time"":110},{""stimulus"":""img/red_ll/3.jpg"",""time"":179},{""stimulus"":""img/red_ll/4.jpg"",""time"":241},{""stimulus"":""img/red_ll/5.jpg"",""time"":296},{""stimulus"":""img/red_ll/6.jpg"",""time"":357},{""stimulus"":""img/red_ll/7.jpg"",""time"":412},{""stimulus"":""img/red_ll/8.jpg"",""time"":480},{""stimulus"":""img/red_ll/9.jpg"",""time"":543},{""stimulus"":""img/red_ll/10.jpg"",""time"":595},{""stimulus"":""img/red_ll/11.jpg"",""time"":658}]","[]"
"","","","choice","631b428359f449b8159625f8","bdp_lott","Mon Mar 27 2023 10:13:46 GMT-0400 (Eastern Daylight Time)","452870","red","green","image-keyboard-response","171","248200","0.0-5.0-1.83","","812","","img/red_ll/choose11.jpg","2","142","red","0.5","0.1","0.5","w","",""
"","","","","631b428359f449b8159625f8","bdp_lott","Mon Mar 27 2023 10:13:46 GMT-0400 (Eastern Daylight Time)","452870","red","green","animation","172","248920","0.0-5.0-2.83","","","","","","142","","","","","","[{""stimulus"":""img/red_lw/1.jpg"",""time"":57},{""stimulus"":""img/red_lw/2.jpg"",""time"":118},{""stimulus"":""img/red_lw/3.jpg"",""time"":172},{""stimulus"":""img/red_lw/4.jpg"",""time"":235},{""stimulus"":""img/red_lw/5.jpg"",""time"":288},{""stimulus"":""img/red_lw/6.jpg"",""time"":357},{""stimulus"":""img/red_lw/7.jpg"",""time"":419},{""stimulus"":""img/red_lw/8.jpg"",""time"":473},{""stimulus"":""img/red_lw/9.jpg"",""time"":535},{""stimulus"":""img/red_lw/10.jpg"",""time"":589},{""stimulus"":""img/red_lw/11.jpg"",""time"":658}]","[]"
"","","","choice","631b428359f449b8159625f8","bdp_lott","Mon Mar 27 2023 10:13:46 GMT-0400 (Eastern Daylight Time)","452870","red","green","image-keyboard-response","173","249581","0.0-5.0-1.84","","660","","img/red_lw/choose11.jpg","2","141","red","0.5","0.1","0.5","w","",""
"","","","","631b428359f449b8159625f8","bdp_lott","Mon Mar 27 2023 10:13:46 GMT-0400 (Eastern Daylight Time)","452870","red","green","animation","174","250294","0.0-5.0-2.84","","","","","","141","","","","","","[{""stimulus"":""img/red_lw/1.jpg"",""time"":56},{""stimulus"":""img/red_lw/2.jpg"",""time"":110},{""stimulus"":""img/red_lw/3.jpg"",""time"":180},{""stimulus"":""img/red_lw/4.jpg"",""time"":242},{""stimulus"":""img/red_lw/5.jpg"",""time"":296},{""stimulus"":""img/red_lw/6.jpg"",""time"":358},{""stimulus"":""img/red_lw/7.jpg"",""time"":412},{""stimulus"":""img/red_lw/8.jpg"",""time"":481},{""stimulus"":""img/red_lw/9.jpg"",""time"":542},{""stimulus"":""img/red_lw/10.jpg"",""time"":596},{""stimulus"":""img/red_lw/11.jpg"",""time"":658}]","[]"
"","","","choice","631b428359f449b8159625f8","bdp_lott","Mon Mar 27 2023 10:13:46 GMT-0400 (Eastern Daylight Time)","452870","red","green","image-keyboard-response","175","250858","0.0-5.0-1.85","","563","","img/red_lw/choose11.jpg","2","140","red","0.5","0.1","0.5","l","",""
"","","","","631b428359f449b8159625f8","bdp_lott","Mon Mar 27 2023 10:13:46 GMT-0400 (Eastern Daylight Time)","452870","red","green","animation","176","251568","0.0-5.0-2.85","","","","","","140","","","","","","[{""stimulus"":""img/red_ll/1.jpg"",""time"":54},{""stimulus"":""img/red_ll/2.jpg"",""time"":107},{""stimulus"":""img/red_ll/3.jpg"",""time"":169},{""stimulus"":""img/red_ll/4.jpg"",""time"":224},{""stimulus"":""img/red_ll/5.jpg"",""time"":285},{""stimulus"":""img/red_ll/6.jpg"",""time"":339},{""stimulus"":""img/red_ll/7.jpg"",""time"":408},{""stimulus"":""img/red_ll/8.jpg"",""time"":471},{""stimulus"":""img/red_ll/9.jpg"",""time"":524},{""stimulus"":""img/red_ll/10.jpg"",""time"":586},{""stimulus"":""img/red_ll/11.jpg"",""time"":640}]","[]"
"","","","choice","631b428359f449b8159625f8","bdp_lott","Mon Mar 27 2023 10:13:46 GMT-0400 (Eastern Daylight Time)","452870","red","green","image-keyboard-response","177","252440","0.0-5.0-1.86","","871","","img/red_ll/choose11.jpg","2","139","red","0.5","0.1","0.5","w","",""
"","","","","631b428359f449b8159625f8","bdp_lott","Mon Mar 27 2023 10:13:46 GMT-0400 (Eastern Daylight Time)","452870","red","green","animation","178","253174","0.0-5.0-2.86","","","","","","139","","","","","","[{""stimulus"":""img/red_lw/1.jpg"",""time"":62},{""stimulus"":""img/red_lw/2.jpg"",""time"":131},{""stimulus"":""img/red_lw/3.jpg"",""time"":193},{""stimulus"":""img/red_lw/4.jpg"",""time"":247},{""stimulus"":""img/red_lw/5.jpg"",""time"":310},{""stimulus"":""img/red_lw/6.jpg"",""time"":363},{""stimulus"":""img/red_lw/7.jpg"",""time"":433},{""stimulus"":""img/red_lw/8.jpg"",""time"":495},{""stimulus"":""img/red_lw/9.jpg"",""time"":549},{""stimulus"":""img/red_lw/10.jpg"",""time"":611},{""stimulus"":""img/red_lw/11.jpg"",""time"":665}]","[]"
"","","","choice","631b428359f449b8159625f8","bdp_lott","Mon Mar 27 2023 10:13:46 GMT-0400 (Eastern Daylight Time)","452870","red","green","image-keyboard-response","179","253866","0.0-5.0-1.87","","691","","img/red_lw/choose11.jpg","2","138","red","0.5","0.1","0.5","l","",""
"","","","","631b428359f449b8159625f8","bdp_lott","Mon Mar 27 2023 10:13:46 GMT-0400 (Eastern Daylight Time)","452870","red","green","animation","180","254579","0.0-5.0-2.87","","","","","","138","","","","","","[{""stimulus"":""img/red_ll/1.jpg"",""time"":58},{""stimulus"":""img/red_ll/2.jpg"",""time"":111},{""stimulus"":""img/red_ll/3.jpg"",""time"":174},{""stimulus"":""img/red_ll/4.jpg"",""time"":227},{""stimulus"":""img/red_ll/5.jpg"",""time"":290},{""stimulus"":""img/red_ll/6.jpg"",""time"":343},{""stimulus"":""img/red_ll/7.jpg"",""time"":413},{""stimulus"":""img/red_ll/8.jpg"",""time"":475},{""stimulus"":""img/red_ll/9.jpg"",""time"":529},{""stimulus"":""img/red_ll/10.jpg"",""time"":591},{""stimulus"":""img/red_ll/11.jpg"",""time"":645}]","[]"
"","","","choice","631b428359f449b8159625f8","bdp_lott","Mon Mar 27 2023 10:13:46 GMT-0400 (Eastern Daylight Time)","452870","red","green","image-keyboard-response","181","255289","0.0-5.0-1.88","","709","","img/red_ll/choose11.jpg","2","137","red","0.5","0.1","0.5","l","",""
"","","","","631b428359f449b8159625f8","bdp_lott","Mon Mar 27 2023 10:13:46 GMT-0400 (Eastern Daylight Time)","452870","red","green","animation","182","256000","0.0-5.0-2.88","","","","","","137","","","","","","[{""stimulus"":""img/red_ll/1.jpg"",""time"":56},{""stimulus"":""img/red_ll/2.jpg"",""time"":109},{""stimulus"":""img/red_ll/3.jpg"",""time"":172},{""stimulus"":""img/red_ll/4.jpg"",""time"":226},{""stimulus"":""img/red_ll/5.jpg"",""time"":295},{""stimulus"":""img/red_ll/6.jpg"",""time"":356},{""stimulus"":""img/red_ll/7.jpg"",""time"":411},{""stimulus"":""img/red_ll/8.jpg"",""time"":472},{""stimulus"":""img/red_ll/9.jpg"",""time"":526},{""stimulus"":""img/red_ll/10.jpg"",""time"":595},{""stimulus"":""img/red_ll/11.jpg"",""time"":657}]","[]"
"","","","choice","631b428359f449b8159625f8","bdp_lott","Mon Mar 27 2023 10:13:46 GMT-0400 (Eastern Daylight Time)","452870","red","green","image-keyboard-response","183","256792","0.0-5.0-1.89","","791","","img/red_ll/choose11.jpg","2","136","red","0.5","0.1","0.5","w","",""
"","","","","631b428359f449b8159625f8","bdp_lott","Mon Mar 27 2023 10:13:46 GMT-0400 (Eastern Daylight Time)","452870","red","green","animation","184","257505","0.0-5.0-2.89","","","","","","136","","","","","","[{""stimulus"":""img/red_lw/1.jpg"",""time"":57},{""stimulus"":""img/red_lw/2.jpg"",""time"":111},{""stimulus"":""img/red_lw/3.jpg"",""time"":173},{""stimulus"":""img/red_lw/4.jpg"",""time"":226},{""stimulus"":""img/red_lw/5.jpg"",""time"":296},{""stimulus"":""img/red_lw/6.jpg"",""time"":358},{""stimulus"":""img/red_lw/7.jpg"",""time"":411},{""stimulus"":""img/red_lw/8.jpg"",""time"":474},{""stimulus"":""img/red_lw/9.jpg"",""time"":527},{""stimulus"":""img/red_lw/10.jpg"",""time"":597},{""stimulus"":""img/red_lw/11.jpg"",""time"":660}]","[]"
"","","","choice","631b428359f449b8159625f8","bdp_lott","Mon Mar 27 2023 10:13:46 GMT-0400 (Eastern Daylight Time)","452870","red","green","image-keyboard-response","185","258281","0.0-5.0-1.90","","774","","img/red_lw/choose11.jpg","2","135","red","0.5","0.1","0.5","w","",""
"","","","","631b428359f449b8159625f8","bdp_lott","Mon Mar 27 2023 10:13:46 GMT-0400 (Eastern Daylight Time)","452870","red","green","animation","186","258995","0.0-5.0-2.90","","","","","","135","","","","","","[{""stimulus"":""img/red_lw/1.jpg"",""time"":58},{""stimulus"":""img/red_lw/2.jpg"",""time"":112},{""stimulus"":""img/red_lw/3.jpg"",""time"":175},{""stimulus"":""img/red_lw/4.jpg"",""time"":229},{""stimulus"":""img/red_lw/5.jpg"",""time"":291},{""stimulus"":""img/red_lw/6.jpg"",""time"":344},{""stimulus"":""img/red_lw/7.jpg"",""time"":414},{""stimulus"":""img/red_lw/8.jpg"",""time"":476},{""stimulus"":""img/red_lw/9.jpg"",""time"":529},{""stimulus"":""img/red_lw/10.jpg"",""time"":592},{""stimulus"":""img/red_lw/11.jpg"",""time"":645}]","[]"
"","","","choice","631b428359f449b8159625f8","bdp_lott","Mon Mar 27 2023 10:13:46 GMT-0400 (Eastern Daylight Time)","452870","red","green","image-keyboard-response","187","259598","0.0-5.0-1.91","","602","","img/red_lw/choose11.jpg","2","134","red","0.5","0.1","0.5","l","",""
"","","","","631b428359f449b8159625f8","bdp_lott","Mon Mar 27 2023 10:13:46 GMT-0400 (Eastern Daylight Time)","452870","red","green","animation","188","260317","0.0-5.0-2.91","","","","","","134","","","","","","[{""stimulus"":""img/red_ll/1.jpg"",""time"":53},{""stimulus"":""img/red_ll/2.jpg"",""time"":116},{""stimulus"":""img/red_ll/3.jpg"",""time"":179},{""stimulus"":""img/red_ll/4.jpg"",""time"":233},{""stimulus"":""img/red_ll/5.jpg"",""time"":302},{""stimulus"":""img/red_ll/6.jpg"",""time"":364},{""stimulus"":""img/red_ll/7.jpg"",""time"":418},{""stimulus"":""img/red_ll/8.jpg"",""time"":480},{""stimulus"":""img/red_ll/9.jpg"",""time"":536},{""stimulus"":""img/red_ll/10.jpg"",""time"":603},{""stimulus"":""img/red_ll/11.jpg"",""time"":666}]","[]"
"","","","choice","631b428359f449b8159625f8","bdp_lott","Mon Mar 27 2023 10:13:46 GMT-0400 (Eastern Daylight Time)","452870","red","green","image-keyboard-response","189","261122","0.0-5.0-1.92","","804","","img/red_ll/choose11.jpg","2","133","red","0.5","0.1","0.5","l","",""
