"trial_type","trial_index","time_elapsed","internal_node_id","subject_id","task","startTime","totalTime","fairMachine","unfairMachine","view_history","rt","event","trial","time","trialtype","success","stimulus","key_press","roundsLeft","chosen","pFairMachWin","pUnfairMachWin","pTrialWin","outcome","animation_sequence","responses"
"pavlovia","0","1","0.0-0.0","5bfb5784a66aa500019dabef","bdp_lott","Sun Apr 09 2023 18:39:02 GMT-0500 (Central Daylight Time)","265581","red","green","","","","","","","","","","","","","","","","",""
"instructions","1","3100","0.0-1.0","5bfb5784a66aa500019dabef","bdp_lott","Sun Apr 09 2023 18:39:02 GMT-0500 (Central Daylight Time)","265581","red","green","[{""page_index"":0,""viewing_time"":3097}]","3098","","","","","","","","","","","","","","",""
"","","","","5bfb5784a66aa500019dabef","bdp_lott","Sun Apr 09 2023 18:39:02 GMT-0500 (Central Daylight Time)","265581","red","green","","","fullscreenenter","2","6321","fullscreenenter","","","","","","","","","","",""
"fullscreen","2","7321","0.0-2.0","5bfb5784a66aa500019dabef","bdp_lott","Sun Apr 09 2023 18:39:02 GMT-0500 (Central Daylight Time)","265581","red","green","","","","","","","true","","","","","","","","","",""
"instructions","3","40755","0.0-4.0","5bfb5784a66aa500019dabef","bdp_lott","Sun Apr 09 2023 18:39:02 GMT-0500 (Central Daylight Time)","265581","red","green","[{""page_index"":0,""viewing_time"":33433}]","33433","","","","","","","","","","","","","","",""
"image-keyboard-response","4","42083","0.0-5.0-1.0","5bfb5784a66aa500019dabef","bdp_lott","Sun Apr 09 2023 18:39:02 GMT-0500 (Central Daylight Time)","265581","red","green","","1327","","","","choice","","img/red_ll/initchoose11.jpg","2","225","red","0.5","0.5","0.5","w","",""
"animation","5","42684","0.0-5.0-2.0","5bfb5784a66aa500019dabef","bdp_lott","Sun Apr 09 2023 18:39:02 GMT-0500 (Central Daylight Time)","265581","red","green","","","","","","","","","","225","","","","","","[{""stimulus"":""img/red_lw/1.jpg"",""time"":51},{""stimulus"":""img/red_lw/2.jpg"",""time"":104},{""stimulus"":""img/red_lw/3.jpg"",""time"":150},{""stimulus"":""img/red_lw/4.jpg"",""time"":201},{""stimulus"":""img/red_lw/5.jpg"",""time"":251},{""stimulus"":""img/red_lw/6.jpg"",""time"":301},{""stimulus"":""img/red_lw/7.jpg"",""time"":351},{""stimulus"":""img/red_lw/8.jpg"",""time"":409},{""stimulus"":""img/red_lw/9.jpg"",""time"":451},{""stimulus"":""img/red_lw/10.jpg"",""time"":500},{""stimulus"":""img/red_lw/11.jpg"",""time"":550}]","[]"
"image-keyboard-response","6","47475","0.0-5.0-1.1","5bfb5784a66aa500019dabef","bdp_lott","Sun Apr 09 2023 18:39:02 GMT-0500 (Central Daylight Time)","265581","red","green","","4791","","","","choice","","img/red_lw/choose11.jpg","2","224","red","0.5","0.5","0.5","l","",""
"animation","7","48077","0.0-5.0-2.1","5bfb5784a66aa500019dabef","bdp_lott","Sun Apr 09 2023 18:39:02 GMT-0500 (Central Daylight Time)","265581","red","green","","","","","","","","","","224","","","","","","[{""stimulus"":""img/red_ll/1.jpg"",""time"":51},{""stimulus"":""img/red_ll/2.jpg"",""time"":102},{""stimulus"":""img/red_ll/3.jpg"",""time"":151},{""stimulus"":""img/red_ll/4.jpg"",""time"":201},{""stimulus"":""img/red_ll/5.jpg"",""time"":251},{""stimulus"":""img/red_ll/6.jpg"",""time"":301},{""stimulus"":""img/red_ll/7.jpg"",""time"":351},{""stimulus"":""img/red_ll/8.jpg"",""time"":401},{""stimulus"":""img/red_ll/9.jpg"",""time"":451},{""stimulus"":""img/red_ll/10.jpg"",""time"":502},{""stimulus"":""img/red_ll/11.jpg"",""time"":551}]","[]"
"image-keyboard-response","8","49035","0.0-5.0-1.2","5bfb5784a66aa500019dabef","bdp_lott","Sun Apr 09 2023 18:39:02 GMT-0500 (Central Daylight Time)","265581","red","green","","958","","","","choice","","img/red_ll/choose11.jpg","1","223","green","0.5","0.5","0.5","l","",""
"animation","9","49635","0.0-5.0-2.2","5bfb5784a66aa500019dabef","bdp_lott","Sun Apr 09 2023 18:39:02 GMT-0500 (Central Daylight Time)","265581","red","green","","","","","","","","","","223","","","","","","[{""stimulus"":""img/green_ll/1.jpg"",""time"":50},{""stimulus"":""img/green_ll/2.jpg"",""time"":100},{""stimulus"":""img/green_ll/3.jpg"",""time"":150},{""stimulus"":""img/green_ll/4.jpg"",""time"":200},{""stimulus"":""img/green_ll/5.jpg"",""time"":251},{""stimulus"":""img/green_ll/6.jpg"",""time"":300},{""stimulus"":""img/green_ll/7.jpg"",""time"":350},{""stimulus"":""img/green_ll/8.jpg"",""time"":402},{""stimulus"":""img/green_ll/9.jpg"",""time"":450},{""stimulus"":""img/green_ll/10.jpg"",""time"":502},{""stimulus"":""img/green_ll/11.jpg"",""time"":550}]","[]"
"image-keyboard-response","10","50747","0.0-5.0-1.3","5bfb5784a66aa500019dabef","bdp_lott","Sun Apr 09 2023 18:39:02 GMT-0500 (Central Daylight Time)","265581","red","green","","1112","","","","choice","","img/green_ll/choose11.jpg","1","222","green","0.5","0.5","0.5","w","",""
"animation","11","51348","0.0-5.0-2.3","5bfb5784a66aa500019dabef","bdp_lott","Sun Apr 09 2023 18:39:02 GMT-0500 (Central Daylight Time)","265581","red","green","","","","","","","","","","222","","","","","","[{""stimulus"":""img/green_wl/1.jpg"",""time"":51},{""stimulus"":""img/green_wl/2.jpg"",""time"":101},{""stimulus"":""img/green_wl/3.jpg"",""time"":151},{""stimulus"":""img/green_wl/4.jpg"",""time"":201},{""stimulus"":""img/green_wl/5.jpg"",""time"":250},{""stimulus"":""img/green_wl/6.jpg"",""time"":300},{""stimulus"":""img/green_wl/7.jpg"",""time"":351},{""stimulus"":""img/green_wl/8.jpg"",""time"":401},{""stimulus"":""img/green_wl/9.jpg"",""time"":450},{""stimulus"":""img/green_wl/10.jpg"",""time"":500},{""stimulus"":""img/green_wl/11.jpg"",""time"":550}]","[]"
"image-keyboard-response","12","54395","0.0-5.0-1.4","5bfb5784a66aa500019dabef","bdp_lott","Sun Apr 09 2023 18:39:02 GMT-0500 (Central Daylight Time)","265581","red","green","","3047","","","","choice","","img/green_wl/choose11.jpg","1","221","green","0.5","0.5","0.5","l","",""
"animation","13","54996","0.0-5.0-2.4","5bfb5784a66aa500019dabef","bdp_lott","Sun Apr 09 2023 18:39:02 GMT-0500 (Central Daylight Time)","265581","red","green","","","","","","","","","","221","","","","","","[{""stimulus"":""img/green_ll/1.jpg"",""time"":51},{""stimulus"":""img/green_ll/2.jpg"",""time"":101},{""stimulus"":""img/green_ll/3.jpg"",""time"":152},{""stimulus"":""img/green_ll/4.jpg"",""time"":200},{""stimulus"":""img/green_ll/5.jpg"",""time"":251},{""stimulus"":""img/green_ll/6.jpg"",""time"":301},{""stimulus"":""img/green_ll/7.jpg"",""time"":351},{""stimulus"":""img/green_ll/8.jpg"",""time"":401},{""stimulus"":""img/green_ll/9.jpg"",""time"":451},{""stimulus"":""img/green_ll/10.jpg"",""time"":500},{""stimulus"":""img/green_ll/11.jpg"",""time"":550}]","[]"
"image-keyboard-response","14","56187","0.0-5.0-1.5","5bfb5784a66aa500019dabef","bdp_lott","Sun Apr 09 2023 18:39:02 GMT-0500 (Central Daylight Time)","265581","red","green","","1191","","","","choice","","img/green_ll/choose11.jpg","1","220","green","0.5","0.5","0.5","l","",""
"animation","15","56788","0.0-5.0-2.5","5bfb5784a66aa500019dabef","bdp_lott","Sun Apr 09 2023 18:39:02 GMT-0500 (Central Daylight Time)","265581","red","green","","","","","","","","","","220","","","","","","[{""stimulus"":""img/green_ll/1.jpg"",""time"":51},{""stimulus"":""img/green_ll/2.jpg"",""time"":101},{""stimulus"":""img/green_ll/3.jpg"",""time"":151},{""stimulus"":""img/green_ll/4.jpg"",""time"":200},{""stimulus"":""img/green_ll/5.jpg"",""time"":251},{""stimulus"":""img/green_ll/6.jpg"",""time"":301},{""stimulus"":""img/green_ll/7.jpg"",""time"":351},{""stimulus"":""img/green_ll/8.jpg"",""time"":400},{""stimulus"":""img/green_ll/9.jpg"",""time"":451},{""stimulus"":""img/green_ll/10.jpg"",""time"":501},{""stimulus"":""img/green_ll/11.jpg"",""time"":551}]","[]"
"image-keyboard-response","16","57699","0.0-5.0-1.6","5bfb5784a66aa500019dabef","bdp_lott","Sun Apr 09 2023 18:39:02 GMT-0500 (Central Daylight Time)","265581","red","green","","911","","","","choice","","img/green_ll/choose11.jpg","1","219","green","0.5","0.5","0.5","l","",""
"animation","17","58300","0.0-5.0-2.6","5bfb5784a66aa500019dabef","bdp_lott","Sun Apr 09 2023 18:39:02 GMT-0500 (Central Daylight Time)","265581","red","green","","","","","","","","","","219","","","","","","[{""stimulus"":""img/green_ll/1.jpg"",""time"":51},{""stimulus"":""img/green_ll/2.jpg"",""time"":101},{""stimulus"":""img/green_ll/3.jpg"",""time"":151},{""stimulus"":""img/green_ll/4.jpg"",""time"":200},{""stimulus"":""img/green_ll/5.jpg"",""time"":250},{""stimulus"":""img/green_ll/6.jpg"",""time"":301},{""stimulus"":""img/green_ll/7.jpg"",""time"":351},{""stimulus"":""img/green_ll/8.jpg"",""time"":400},{""stimulus"":""img/green_ll/9.jpg"",""time"":451},{""stimulus"":""img/green_ll/10.jpg"",""time"":501},{""stimulus"":""img/green_ll/11.jpg"",""time"":551}]","[]"
"image-keyboard-response","18","59011","0.0-5.0-1.7","5bfb5784a66aa500019dabef","bdp_lott","Sun Apr 09 2023 18:39:02 GMT-0500 (Central Daylight Time)","265581","red","green","","711","","","","choice","","img/green_ll/choose11.jpg","1","218","green","0.5","0.5","0.5","l","",""
"animation","19","59611","0.0-5.0-2.7","5bfb5784a66aa500019dabef","bdp_lott","Sun Apr 09 2023 18:39:02 GMT-0500 (Central Daylight Time)","265581","red","green","","","","","","","","","","218","","","","","","[{""stimulus"":""img/green_ll/1.jpg"",""time"":50},{""stimulus"":""img/green_ll/2.jpg"",""time"":101},{""stimulus"":""img/green_ll/3.jpg"",""time"":150},{""stimulus"":""img/green_ll/4.jpg"",""time"":201},{""stimulus"":""img/green_ll/5.jpg"",""time"":250},{""stimulus"":""img/green_ll/6.jpg"",""time"":301},{""stimulus"":""img/green_ll/7.jpg"",""time"":351},{""stimulus"":""img/green_ll/8.jpg"",""time"":400},{""stimulus"":""img/green_ll/9.jpg"",""time"":451},{""stimulus"":""img/green_ll/10.jpg"",""time"":501},{""stimulus"":""img/green_ll/11.jpg"",""time"":551}]","[]"
"image-keyboard-response","20","60387","0.0-5.0-1.8","5bfb5784a66aa500019dabef","bdp_lott","Sun Apr 09 2023 18:39:02 GMT-0500 (Central Daylight Time)","265581","red","green","","776","","","","choice","","img/green_ll/choose11.jpg","1","217","green","0.5","0.5","0.5","l","",""
"animation","21","60988","0.0-5.0-2.8","5bfb5784a66aa500019dabef","bdp_lott","Sun Apr 09 2023 18:39:02 GMT-0500 (Central Daylight Time)","265581","red","green","","","","","","","","","","217","","","","","","[{""stimulus"":""img/green_ll/1.jpg"",""time"":51},{""stimulus"":""img/green_ll/2.jpg"",""time"":101},{""stimulus"":""img/green_ll/3.jpg"",""time"":153},{""stimulus"":""img/green_ll/4.jpg"",""time"":201},{""stimulus"":""img/green_ll/5.jpg"",""time"":251},{""stimulus"":""img/green_ll/6.jpg"",""time"":300},{""stimulus"":""img/green_ll/7.jpg"",""time"":351},{""stimulus"":""img/green_ll/8.jpg"",""time"":401},{""stimulus"":""img/green_ll/9.jpg"",""time"":452},{""stimulus"":""img/green_ll/10.jpg"",""time"":501},{""stimulus"":""img/green_ll/11.jpg"",""time"":551}]","[]"
"image-keyboard-response","22","61579","0.0-5.0-1.9","5bfb5784a66aa500019dabef","bdp_lott","Sun Apr 09 2023 18:39:02 GMT-0500 (Central Daylight Time)","265581","red","green","","591","","","","choice","","img/green_ll/choose11.jpg","1","216","green","0.5","0.5","0.5","l","",""
"animation","23","62179","0.0-5.0-2.9","5bfb5784a66aa500019dabef","bdp_lott","Sun Apr 09 2023 18:39:02 GMT-0500 (Central Daylight Time)","265581","red","green","","","","","","","","","","216","","","","","","[{""stimulus"":""img/green_ll/1.jpg"",""time"":50},{""stimulus"":""img/green_ll/2.jpg"",""time"":101},{""stimulus"":""img/green_ll/3.jpg"",""time"":151},{""stimulus"":""img/green_ll/4.jpg"",""time"":200},{""stimulus"":""img/green_ll/5.jpg"",""time"":251},{""stimulus"":""img/green_ll/6.jpg"",""time"":300},{""stimulus"":""img/green_ll/7.jpg"",""time"":350},{""stimulus"":""img/green_ll/8.jpg"",""time"":401},{""stimulus"":""img/green_ll/9.jpg"",""time"":450},{""stimulus"":""img/green_ll/10.jpg"",""time"":500},{""stimulus"":""img/green_ll/11.jpg"",""time"":551}]","[]"
"image-keyboard-response","24","62779","0.0-5.0-1.10","5bfb5784a66aa500019dabef","bdp_lott","Sun Apr 09 2023 18:39:02 GMT-0500 (Central Daylight Time)","265581","red","green","","600","","","","choice","","img/green_ll/choose11.jpg","1","215","green","0.5","0.5","0.5","l","",""
"animation","25","63380","0.0-5.0-2.10","5bfb5784a66aa500019dabef","bdp_lott","Sun Apr 09 2023 18:39:02 GMT-0500 (Central Daylight Time)","265581","red","green","","","","","","","","","","215","","","","","","[{""stimulus"":""img/green_ll/1.jpg"",""time"":51},{""stimulus"":""img/green_ll/2.jpg"",""time"":100},{""stimulus"":""img/green_ll/3.jpg"",""time"":151},{""stimulus"":""img/green_ll/4.jpg"",""time"":201},{""stimulus"":""img/green_ll/5.jpg"",""time"":251},{""stimulus"":""img/green_ll/6.jpg"",""time"":300},{""stimulus"":""img/green_ll/7.jpg"",""time"":351},{""stimulus"":""img/green_ll/8.jpg"",""time"":400},{""stimulus"":""img/green_ll/9.jpg"",""time"":451},{""stimulus"":""img/green_ll/10.jpg"",""time"":501},{""stimulus"":""img/green_ll/11.jpg"",""time"":550}]","[]"
"image-keyboard-response","26","63907","0.0-5.0-1.11","5bfb5784a66aa500019dabef","bdp_lott","Sun Apr 09 2023 18:39:02 GMT-0500 (Central Daylight Time)","265581","red","green","","527","","","","choice","","img/green_ll/choose11.jpg","1","214","green","0.5","0.5","0.5","l","",""
"animation","27","64507","0.0-5.0-2.11","5bfb5784a66aa500019dabef","bdp_lott","Sun Apr 09 2023 18:39:02 GMT-0500 (Central Daylight Time)","265581","red","green","","","","","","","","","","214","","","","","","[{""stimulus"":""img/green_ll/1.jpg"",""time"":51},{""stimulus"":""img/green_ll/2.jpg"",""time"":101},{""stimulus"":""img/green_ll/3.jpg"",""time"":150},{""stimulus"":""img/green_ll/4.jpg"",""time"":201},{""stimulus"":""img/green_ll/5.jpg"",""time"":251},{""stimulus"":""img/green_ll/6.jpg"",""time"":301},{""stimulus"":""img/green_ll/7.jpg"",""time"":351},{""stimulus"":""img/green_ll/8.jpg"",""time"":402},{""stimulus"":""img/green_ll/9.jpg"",""time"":450},{""stimulus"":""img/green_ll/10.jpg"",""time"":501},{""stimulus"":""img/green_ll/11.jpg"",""time"":551}]","[]"
"image-keyboard-response","28","65163","0.0-5.0-1.12","5bfb5784a66aa500019dabef","bdp_lott","Sun Apr 09 2023 18:39:02 GMT-0500 (Central Daylight Time)","265581","red","green","","655","","","","choice","","img/green_ll/choose11.jpg","2","213","red","0.5","0.5","0.5","w","",""
"animation","29","65764","0.0-5.0-2.12","5bfb5784a66aa500019dabef","bdp_lott","Sun Apr 09 2023 18:39:02 GMT-0500 (Central Daylight Time)","265581","red","green","","","","","","","","","","213","","","","","","[{""stimulus"":""img/red_lw/1.jpg"",""time"":51},{""stimulus"":""img/red_lw/2.jpg"",""time"":101},{""stimulus"":""img/red_lw/3.jpg"",""time"":151},{""stimulus"":""img/red_lw/4.jpg"",""time"":201},{""stimulus"":""img/red_lw/5.jpg"",""time"":251},{""stimulus"":""img/red_lw/6.jpg"",""time"":301},{""stimulus"":""img/red_lw/7.jpg"",""time"":351},{""stimulus"":""img/red_lw/8.jpg"",""time"":402},{""stimulus"":""img/red_lw/9.jpg"",""time"":451},{""stimulus"":""img/red_lw/10.jpg"",""time"":501},{""stimulus"":""img/red_lw/11.jpg"",""time"":551}]","[]"
"image-keyboard-response","30","66803","0.0-5.0-1.13","5bfb5784a66aa500019dabef","bdp_lott","Sun Apr 09 2023 18:39:02 GMT-0500 (Central Daylight Time)","265581","red","green","","1039","","","","choice","","img/red_lw/choose11.jpg","2","212","red","0.5","0.5","0.5","l","",""
"animation","31","67404","0.0-5.0-2.13","5bfb5784a66aa500019dabef","bdp_lott","Sun Apr 09 2023 18:39:02 GMT-0500 (Central Daylight Time)","265581","red","green","","","","","","","","","","212","","","","","","[{""stimulus"":""img/red_ll/1.jpg"",""time"":51},{""stimulus"":""img/red_ll/2.jpg"",""time"":101},{""stimulus"":""img/red_ll/3.jpg"",""time"":152},{""stimulus"":""img/red_ll/4.jpg"",""time"":201},{""stimulus"":""img/red_ll/5.jpg"",""time"":252},{""stimulus"":""img/red_ll/6.jpg"",""time"":301},{""stimulus"":""img/red_ll/7.jpg"",""time"":351},{""stimulus"":""img/red_ll/8.jpg"",""time"":401},{""stimulus"":""img/red_ll/9.jpg"",""time"":451},{""stimulus"":""img/red_ll/10.jpg"",""time"":501},{""stimulus"":""img/red_ll/11.jpg"",""time"":552}]","[]"
"image-keyboard-response","32","68171","0.0-5.0-1.14","5bfb5784a66aa500019dabef","bdp_lott","Sun Apr 09 2023 18:39:02 GMT-0500 (Central Daylight Time)","265581","red","green","","767","","","","choice","","img/red_ll/choose11.jpg","2","211","red","0.5","0.5","0.5","w","",""
"animation","33","68772","0.0-5.0-2.14","5bfb5784a66aa500019dabef","bdp_lott","Sun Apr 09 2023 18:39:02 GMT-0500 (Central Daylight Time)","265581","red","green","","","","","","","","","","211","","","","","","[{""stimulus"":""img/red_lw/1.jpg"",""time"":51},{""stimulus"":""img/red_lw/2.jpg"",""time"":101},{""stimulus"":""img/red_lw/3.jpg"",""time"":150},{""stimulus"":""img/red_lw/4.jpg"",""time"":200},{""stimulus"":""img/red_lw/5.jpg"",""time"":251},{""stimulus"":""img/red_lw/6.jpg"",""time"":301},{""stimulus"":""img/red_lw/7.jpg"",""time"":351},{""stimulus"":""img/red_lw/8.jpg"",""time"":400},{""stimulus"":""img/red_lw/9.jpg"",""time"":451},{""stimulus"":""img/red_lw/10.jpg"",""time"":501},{""stimulus"":""img/red_lw/11.jpg"",""time"":550}]","[]"
"image-keyboard-response","34","69867","0.0-5.0-1.15","5bfb5784a66aa500019dabef","bdp_lott","Sun Apr 09 2023 18:39:02 GMT-0500 (Central Daylight Time)","265581","red","green","","1095","","","","choice","","img/red_lw/choose11.jpg","2","210","red","0.5","0.5","0.5","l","",""
"animation","35","70468","0.0-5.0-2.15","5bfb5784a66aa500019dabef","bdp_lott","Sun Apr 09 2023 18:39:02 GMT-0500 (Central Daylight Time)","265581","red","green","","","","","","","","","","210","","","","","","[{""stimulus"":""img/red_ll/1.jpg"",""time"":51},{""stimulus"":""img/red_ll/2.jpg"",""time"":102},{""stimulus"":""img/red_ll/3.jpg"",""time"":150},{""stimulus"":""img/red_ll/4.jpg"",""time"":201},{""stimulus"":""img/red_ll/5.jpg"",""time"":251},{""stimulus"":""img/red_ll/6.jpg"",""time"":301},{""stimulus"":""img/red_ll/7.jpg"",""time"":351},{""stimulus"":""img/red_ll/8.jpg"",""time"":401},{""stimulus"":""img/red_ll/9.jpg"",""time"":451},{""stimulus"":""img/red_ll/10.jpg"",""time"":501},{""stimulus"":""img/red_ll/11.jpg"",""time"":550}]","[]"
"image-keyboard-response","36","71027","0.0-5.0-1.16","5bfb5784a66aa500019dabef","bdp_lott","Sun Apr 09 2023 18:39:02 GMT-0500 (Central Daylight Time)","265581","red","green","","559","","","","choice","","img/red_ll/choose11.jpg","2","209","red","0.5","0.5","0.5","w","",""
"animation","37","71628","0.0-5.0-2.16","5bfb5784a66aa500019dabef","bdp_lott","Sun Apr 09 2023 18:39:02 GMT-0500 (Central Daylight Time)","265581","red","green","","","","","","","","","","209","","","","","","[{""stimulus"":""img/red_lw/1.jpg"",""time"":52},{""stimulus"":""img/red_lw/2.jpg"",""time"":101},{""stimulus"":""img/red_lw/3.jpg"",""time"":151},{""stimulus"":""img/red_lw/4.jpg"",""time"":201},{""stimulus"":""img/red_lw/5.jpg"",""time"":250},{""stimulus"":""img/red_lw/6.jpg"",""time"":301},{""stimulus"":""img/red_lw/7.jpg"",""time"":351},{""stimulus"":""img/red_lw/8.jpg"",""time"":400},{""stimulus"":""img/red_lw/9.jpg"",""time"":450},{""stimulus"":""img/red_lw/10.jpg"",""time"":501},{""stimulus"":""img/red_lw/11.jpg"",""time"":551}]","[]"
"image-keyboard-response","38","72251","0.0-5.0-1.17","5bfb5784a66aa500019dabef","bdp_lott","Sun Apr 09 2023 18:39:02 GMT-0500 (Central Daylight Time)","265581","red","green","","623","","","","choice","","img/red_lw/choose11.jpg","2","208","red","0.5","0.5","0.5","w","",""
"animation","39","72853","0.0-5.0-2.17","5bfb5784a66aa500019dabef","bdp_lott","Sun Apr 09 2023 18:39:02 GMT-0500 (Central Daylight Time)","265581","red","green","","","","","","","","","","208","","","","","","[{""stimulus"":""img/red_lw/1.jpg"",""time"":51},{""stimulus"":""img/red_lw/2.jpg"",""time"":100},{""stimulus"":""img/red_lw/3.jpg"",""time"":151},{""stimulus"":""img/red_lw/4.jpg"",""time"":201},{""stimulus"":""img/red_lw/5.jpg"",""time"":250},{""stimulus"":""img/red_lw/6.jpg"",""time"":300},{""stimulus"":""img/red_lw/7.jpg"",""time"":350},{""stimulus"":""img/red_lw/8.jpg"",""time"":400},{""stimulus"":""img/red_lw/9.jpg"",""time"":450},{""stimulus"":""img/red_lw/10.jpg"",""time"":500},{""stimulus"":""img/red_lw/11.jpg"",""time"":550}]","[]"
"image-keyboard-response","40","73323","0.0-5.0-1.18","5bfb5784a66aa500019dabef","bdp_lott","Sun Apr 09 2023 18:39:02 GMT-0500 (Central Daylight Time)","265581","red","green","","470","","","","choice","","img/red_lw/choose11.jpg","2","207","red","0.5","0.5","0.5","w","",""
"animation","41","73923","0.0-5.0-2.18","5bfb5784a66aa500019dabef","bdp_lott","Sun Apr 09 2023 18:39:02 GMT-0500 (Central Daylight Time)","265581","red","green","","","","","","","","","","207","","","","","","[{""stimulus"":""img/red_lw/1.jpg"",""time"":51},{""stimulus"":""img/red_lw/2.jpg"",""time"":101},{""stimulus"":""img/red_lw/3.jpg"",""time"":151},{""stimulus"":""img/red_lw/4.jpg"",""time"":201},{""stimulus"":""img/red_lw/5.jpg"",""time"":252},{""stimulus"":""img/red_lw/6.jpg"",""time"":302},{""stimulus"":""img/red_lw/7.jpg"",""time"":351},{""stimulus"":""img/red_lw/8.jpg"",""time"":401},{""stimulus"":""img/red_lw/9.jpg"",""time"":451},{""stimulus"":""img/red_lw/10.jpg"",""time"":501},{""stimulus"":""img/red_lw/11.jpg"",""time"":552}]","[]"
"image-keyboard-response","42","74435","0.0-5.0-1.19","5bfb5784a66aa500019dabef","bdp_lott","Sun Apr 09 2023 18:39:02 GMT-0500 (Central Daylight Time)","265581","red","green","","511","","","","choice","","img/red_lw/choose11.jpg","2","206","red","0.5","0.5","0.5","w","",""
"animation","43","75036","0.0-5.0-2.19","5bfb5784a66aa500019dabef","bdp_lott","Sun Apr 09 2023 18:39:02 GMT-0500 (Central Daylight Time)","265581","red","green","","","","","","","","","","206","","","","","","[{""stimulus"":""img/red_lw/1.jpg"",""time"":51},{""stimulus"":""img/red_lw/2.jpg"",""time"":101},{""stimulus"":""img/red_lw/3.jpg"",""time"":151},{""stimulus"":""img/red_lw/4.jpg"",""time"":201},{""stimulus"":""img/red_lw/5.jpg"",""time"":251},{""stimulus"":""img/red_lw/6.jpg"",""time"":301},{""stimulus"":""img/red_lw/7.jpg"",""time"":351},{""stimulus"":""img/red_lw/8.jpg"",""time"":401},{""stimulus"":""img/red_lw/9.jpg"",""time"":451},{""stimulus"":""img/red_lw/10.jpg"",""time"":501},{""stimulus"":""img/red_lw/11.jpg"",""time"":551}]","[]"
"image-keyboard-response","44","75515","0.0-5.0-1.20","5bfb5784a66aa500019dabef","bdp_lott","Sun Apr 09 2023 18:39:02 GMT-0500 (Central Daylight Time)","265581","red","green","","479","","","","choice","","img/red_lw/choose11.jpg","2","205","red","0.5","0.5","0.5","w","",""
"animation","45","76116","0.0-5.0-2.20","5bfb5784a66aa500019dabef","bdp_lott","Sun Apr 09 2023 18:39:02 GMT-0500 (Central Daylight Time)","265581","red","green","","","","","","","","","","205","","","","","","[{""stimulus"":""img/red_lw/1.jpg"",""time"":52},{""stimulus"":""img/red_lw/2.jpg"",""time"":101},{""stimulus"":""img/red_lw/3.jpg"",""time"":151},{""stimulus"":""img/red_lw/4.jpg"",""time"":201},{""stimulus"":""img/red_lw/5.jpg"",""time"":251},{""stimulus"":""img/red_lw/6.jpg"",""time"":301},{""stimulus"":""img/red_lw/7.jpg"",""time"":351},{""stimulus"":""img/red_lw/8.jpg"",""time"":401},{""stimulus"":""img/red_lw/9.jpg"",""time"":451},{""stimulus"":""img/red_lw/10.jpg"",""time"":501},{""stimulus"":""img/red_lw/11.jpg"",""time"":551}]","[]"
"image-keyboard-response","46","76563","0.0-5.0-1.21","5bfb5784a66aa500019dabef","bdp_lott","Sun Apr 09 2023 18:39:02 GMT-0500 (Central Daylight Time)","265581","red","green","","447","","","","choice","","img/red_lw/choose11.jpg","2","204","red","0.5","0.5","0.5","l","",""
"animation","47","77165","0.0-5.0-2.21","5bfb5784a66aa500019dabef","bdp_lott","Sun Apr 09 2023 18:39:02 GMT-0500 (Central Daylight Time)","265581","red","green","","","","","","","","","","204","","","","","","[{""stimulus"":""img/red_ll/1.jpg"",""time"":51},{""stimulus"":""img/red_ll/2.jpg"",""time"":100},{""stimulus"":""img/red_ll/3.jpg"",""time"":151},{""stimulus"":""img/red_ll/4.jpg"",""time"":201},{""stimulus"":""img/red_ll/5.jpg"",""time"":251},{""stimulus"":""img/red_ll/6.jpg"",""time"":301},{""stimulus"":""img/red_ll/7.jpg"",""time"":352},{""stimulus"":""img/red_ll/8.jpg"",""time"":401},{""stimulus"":""img/red_ll/9.jpg"",""time"":451},{""stimulus"":""img/red_ll/10.jpg"",""time"":501},{""stimulus"":""img/red_ll/11.jpg"",""time"":551}]","[]"
"image-keyboard-response","48","77635","0.0-5.0-1.22","5bfb5784a66aa500019dabef","bdp_lott","Sun Apr 09 2023 18:39:02 GMT-0500 (Central Daylight Time)","265581","red","green","","470","","","","choice","","img/red_ll/choose11.jpg","2","203","red","0.5","0.5","0.5","l","",""
"animation","49","78236","0.0-5.0-2.22","5bfb5784a66aa500019dabef","bdp_lott","Sun Apr 09 2023 18:39:02 GMT-0500 (Central Daylight Time)","265581","red","green","","","","","","","","","","203","","","","","","[{""stimulus"":""img/red_ll/1.jpg"",""time"":50},{""stimulus"":""img/red_ll/2.jpg"",""time"":101},{""stimulus"":""img/red_ll/3.jpg"",""time"":151},{""stimulus"":""img/red_ll/4.jpg"",""time"":201},{""stimulus"":""img/red_ll/5.jpg"",""time"":251},{""stimulus"":""img/red_ll/6.jpg"",""time"":301},{""stimulus"":""img/red_ll/7.jpg"",""time"":351},{""stimulus"":""img/red_ll/8.jpg"",""time"":401},{""stimulus"":""img/red_ll/9.jpg"",""time"":451},{""stimulus"":""img/red_ll/10.jpg"",""time"":502},{""stimulus"":""img/red_ll/11.jpg"",""time"":551}]","[]"
"image-keyboard-response","50","78683","0.0-5.0-1.23","5bfb5784a66aa500019dabef","bdp_lott","Sun Apr 09 2023 18:39:02 GMT-0500 (Central Daylight Time)","265581","red","green","","447","","","","choice","","img/red_ll/choose11.jpg","2","202","red","0.5","0.5","0.5","w","",""
"animation","51","79284","0.0-5.0-2.23","5bfb5784a66aa500019dabef","bdp_lott","Sun Apr 09 2023 18:39:02 GMT-0500 (Central Daylight Time)","265581","red","green","","","","","","","","","","202","","","","","","[{""stimulus"":""img/red_lw/1.jpg"",""time"":54},{""stimulus"":""img/red_lw/2.jpg"",""time"":100},{""stimulus"":""img/red_lw/3.jpg"",""time"":151},{""stimulus"":""img/red_lw/4.jpg"",""time"":201},{""stimulus"":""img/red_lw/5.jpg"",""time"":251},{""stimulus"":""img/red_lw/6.jpg"",""time"":301},{""stimulus"":""img/red_lw/7.jpg"",""time"":365},{""stimulus"":""img/red_lw/8.jpg"",""time"":401},{""stimulus"":""img/red_lw/9.jpg"",""time"":451},{""stimulus"":""img/red_lw/10.jpg"",""time"":501},{""stimulus"":""img/red_lw/11.jpg"",""time"":551}]","[]"
"image-keyboard-response","52","79763","0.0-5.0-1.24","5bfb5784a66aa500019dabef","bdp_lott","Sun Apr 09 2023 18:39:02 GMT-0500 (Central Daylight Time)","265581","red","green","","479","","","","choice","","img/red_lw/choose11.jpg","2","201","red","0.5","0.5","0.5","l","",""
"animation","53","80364","0.0-5.0-2.24","5bfb5784a66aa500019dabef","bdp_lott","Sun Apr 09 2023 18:39:02 GMT-0500 (Central Daylight Time)","265581","red","green","","","","","","","","","","201","","","","","","[{""stimulus"":""img/red_ll/1.jpg"",""time"":51},{""stimulus"":""img/red_ll/2.jpg"",""time"":100},{""stimulus"":""img/red_ll/3.jpg"",""time"":151},{""stimulus"":""img/red_ll/4.jpg"",""time"":200},{""stimulus"":""img/red_ll/5.jpg"",""time"":252},{""stimulus"":""img/red_ll/6.jpg"",""time"":301},{""stimulus"":""img/red_ll/7.jpg"",""time"":350},{""stimulus"":""img/red_ll/8.jpg"",""time"":400},{""stimulus"":""img/red_ll/9.jpg"",""time"":451},{""stimulus"":""img/red_ll/10.jpg"",""time"":500},{""stimulus"":""img/red_ll/11.jpg"",""time"":551}]","[]"
"image-keyboard-response","54","81163","0.0-5.0-1.25","5bfb5784a66aa500019dabef","bdp_lott","Sun Apr 09 2023 18:39:02 GMT-0500 (Central Daylight Time)","265581","red","green","","799","","","","choice","","img/red_ll/choose11.jpg","2","200","red","0.5","0.5","0.5","l","",""
"animation","55","81764","0.0-5.0-2.25","5bfb5784a66aa500019dabef","bdp_lott","Sun Apr 09 2023 18:39:02 GMT-0500 (Central Daylight Time)","265581","red","green","","","","","","","","","","200","","","","","","[{""stimulus"":""img/red_ll/1.jpg"",""time"":51},{""stimulus"":""img/red_ll/2.jpg"",""time"":100},{""stimulus"":""img/red_ll/3.jpg"",""time"":151},{""stimulus"":""img/red_ll/4.jpg"",""time"":201},{""stimulus"":""img/red_ll/5.jpg"",""time"":251},{""stimulus"":""img/red_ll/6.jpg"",""time"":301},{""stimulus"":""img/red_ll/7.jpg"",""time"":351},{""stimulus"":""img/red_ll/8.jpg"",""time"":402},{""stimulus"":""img/red_ll/9.jpg"",""time"":451},{""stimulus"":""img/red_ll/10.jpg"",""time"":501},{""stimulus"":""img/red_ll/11.jpg"",""time"":552}]","[]"
"image-keyboard-response","56","82363","0.0-5.0-1.26","5bfb5784a66aa500019dabef","bdp_lott","Sun Apr 09 2023 18:39:02 GMT-0500 (Central Daylight Time)","265581","red","green","","599","","","","choice","","img/red_ll/choose11.jpg","2","199","red","0.5","0.5","0.5","l","",""
"animation","57","82964","0.0-5.0-2.26","5bfb5784a66aa500019dabef","bdp_lott","Sun Apr 09 2023 18:39:02 GMT-0500 (Central Daylight Time)","265581","red","green","","","","","","","","","","199","","","","","","[{""stimulus"":""img/red_ll/1.jpg"",""time"":51},{""stimulus"":""img/red_ll/2.jpg"",""time"":101},{""stimulus"":""img/red_ll/3.jpg"",""time"":151},{""stimulus"":""img/red_ll/4.jpg"",""time"":200},{""stimulus"":""img/red_ll/5.jpg"",""time"":252},{""stimulus"":""img/red_ll/6.jpg"",""time"":302},{""stimulus"":""img/red_ll/7.jpg"",""time"":352},{""stimulus"":""img/red_ll/8.jpg"",""time"":401},{""stimulus"":""img/red_ll/9.jpg"",""time"":451},{""stimulus"":""img/red_ll/10.jpg"",""time"":500},{""stimulus"":""img/red_ll/11.jpg"",""time"":551}]","[]"
"image-keyboard-response","58","83323","0.0-5.0-1.27","5bfb5784a66aa500019dabef","bdp_lott","Sun Apr 09 2023 18:39:02 GMT-0500 (Central Daylight Time)","265581","red","green","","359","","","","choice","","img/red_ll/choose11.jpg","2","198","red","0.5","0.5","0.5","l","",""
"animation","59","83924","0.0-5.0-2.27","5bfb5784a66aa500019dabef","bdp_lott","Sun Apr 09 2023 18:39:02 GMT-0500 (Central Daylight Time)","265581","red","green","","","","","","","","","","198","","","","","","[{""stimulus"":""img/red_ll/1.jpg"",""time"":51},{""stimulus"":""img/red_ll/2.jpg"",""time"":101},{""stimulus"":""img/red_ll/3.jpg"",""time"":152},{""stimulus"":""img/red_ll/4.jpg"",""time"":201},{""stimulus"":""img/red_ll/5.jpg"",""time"":251},{""stimulus"":""img/red_ll/6.jpg"",""time"":301},{""stimulus"":""img/red_ll/7.jpg"",""time"":351},{""stimulus"":""img/red_ll/8.jpg"",""time"":402},{""stimulus"":""img/red_ll/9.jpg"",""time"":451},{""stimulus"":""img/red_ll/10.jpg"",""time"":501},{""stimulus"":""img/red_ll/11.jpg"",""time"":551}]","[]"
"image-keyboard-response","60","84331","0.0-5.0-1.28","5bfb5784a66aa500019dabef","bdp_lott","Sun Apr 09 2023 18:39:02 GMT-0500 (Central Daylight Time)","265581","red","green","","407","","","","choice","","img/red_ll/choose11.jpg","2","197","red","0.5","0.5","0.5","l","",""
"animation","61","84932","0.0-5.0-2.28","5bfb5784a66aa500019dabef","bdp_lott","Sun Apr 09 2023 18:39:02 GMT-0500 (Central Daylight Time)","265581","red","green","","","","","","","","","","197","","","","","","[{""stimulus"":""img/red_ll/1.jpg"",""time"":51},{""stimulus"":""img/red_ll/2.jpg"",""time"":102},{""stimulus"":""img/red_ll/3.jpg"",""time"":151},{""stimulus"":""img/red_ll/4.jpg"",""time"":200},{""stimulus"":""img/red_ll/5.jpg"",""time"":251},{""stimulus"":""img/red_ll/6.jpg"",""time"":301},{""stimulus"":""img/red_ll/7.jpg"",""time"":352},{""stimulus"":""img/red_ll/8.jpg"",""time"":401},{""stimulus"":""img/red_ll/9.jpg"",""time"":451},{""stimulus"":""img/red_ll/10.jpg"",""time"":501},{""stimulus"":""img/red_ll/11.jpg"",""time"":551}]","[]"
"image-keyboard-response","62","85347","0.0-5.0-1.29","5bfb5784a66aa500019dabef","bdp_lott","Sun Apr 09 2023 18:39:02 GMT-0500 (Central Daylight Time)","265581","red","green","","415","","","","choice","","img/red_ll/choose11.jpg","2","196","red","0.5","0.5","0.5","w","",""
"animation","63","85948","0.0-5.0-2.29","5bfb5784a66aa500019dabef","bdp_lott","Sun Apr 09 2023 18:39:02 GMT-0500 (Central Daylight Time)","265581","red","green","","","","","","","","","","196","","","","","","[{""stimulus"":""img/red_lw/1.jpg"",""time"":51},{""stimulus"":""img/red_lw/2.jpg"",""time"":101},{""stimulus"":""img/red_lw/3.jpg"",""time"":150},{""stimulus"":""img/red_lw/4.jpg"",""time"":201},{""stimulus"":""img/red_lw/5.jpg"",""time"":250},{""stimulus"":""img/red_lw/6.jpg"",""time"":301},{""stimulus"":""img/red_lw/7.jpg"",""time"":351},{""stimulus"":""img/red_lw/8.jpg"",""time"":401},{""stimulus"":""img/red_lw/9.jpg"",""time"":451},{""stimulus"":""img/red_lw/10.jpg"",""time"":501},{""stimulus"":""img/red_lw/11.jpg"",""time"":551}]","[]"
"image-keyboard-response","64","86355","0.0-5.0-1.30","5bfb5784a66aa500019dabef","bdp_lott","Sun Apr 09 2023 18:39:02 GMT-0500 (Central Daylight Time)","265581","red","green","","407","","","","choice","","img/red_lw/choose11.jpg","2","195","red","0.5","0.5","0.5","l","",""
"animation","65","86957","0.0-5.0-2.30","5bfb5784a66aa500019dabef","bdp_lott","Sun Apr 09 2023 18:39:02 GMT-0500 (Central Daylight Time)","265581","red","green","","","","","","","","","","195","","","","","","[{""stimulus"":""img/red_ll/1.jpg"",""time"":52},{""stimulus"":""img/red_ll/2.jpg"",""time"":102},{""stimulus"":""img/red_ll/3.jpg"",""time"":152},{""stimulus"":""img/red_ll/4.jpg"",""time"":202},{""stimulus"":""img/red_ll/5.jpg"",""time"":251},{""stimulus"":""img/red_ll/6.jpg"",""time"":300},{""stimulus"":""img/red_ll/7.jpg"",""time"":352},{""stimulus"":""img/red_ll/8.jpg"",""time"":402},{""stimulus"":""img/red_ll/9.jpg"",""time"":451},{""stimulus"":""img/red_ll/10.jpg"",""time"":502},{""stimulus"":""img/red_ll/11.jpg"",""time"":550}]","[]"
"image-keyboard-response","66","87275","0.0-5.0-1.31","5bfb5784a66aa500019dabef","bdp_lott","Sun Apr 09 2023 18:39:02 GMT-0500 (Central Daylight Time)","265581","red","green","","318","","","","choice","","img/red_ll/choose11.jpg","2","194","red","0.5","0.5","0.5","w","",""
"animation","67","87876","0.0-5.0-2.31","5bfb5784a66aa500019dabef","bdp_lott","Sun Apr 09 2023 18:39:02 GMT-0500 (Central Daylight Time)","265581","red","green","","","","","","","","","","194","","","","","","[{""stimulus"":""img/red_lw/1.jpg"",""time"":51},{""stimulus"":""img/red_lw/2.jpg"",""time"":101},{""stimulus"":""img/red_lw/3.jpg"",""time"":151},{""stimulus"":""img/red_lw/4.jpg"",""time"":200},{""stimulus"":""img/red_lw/5.jpg"",""time"":250},{""stimulus"":""img/red_lw/6.jpg"",""time"":301},{""stimulus"":""img/red_lw/7.jpg"",""time"":350},{""stimulus"":""img/red_lw/8.jpg"",""time"":400},{""stimulus"":""img/red_lw/9.jpg"",""time"":450},{""stimulus"":""img/red_lw/10.jpg"",""time"":500},{""stimulus"":""img/red_lw/11.jpg"",""time"":550}]","[]"
"image-keyboard-response","68","88235","0.0-5.0-1.32","5bfb5784a66aa500019dabef","bdp_lott","Sun Apr 09 2023 18:39:02 GMT-0500 (Central Daylight Time)","265581","red","green","","359","","","","choice","","img/red_lw/choose11.jpg","2","193","red","0.5","0.5","0.5","l","",""
"animation","69","88836","0.0-5.0-2.32","5bfb5784a66aa500019dabef","bdp_lott","Sun Apr 09 2023 18:39:02 GMT-0500 (Central Daylight Time)","265581","red","green","","","","","","","","","","193","","","","","","[{""stimulus"":""img/red_ll/1.jpg"",""time"":51},{""stimulus"":""img/red_ll/2.jpg"",""time"":101},{""stimulus"":""img/red_ll/3.jpg"",""time"":151},{""stimulus"":""img/red_ll/4.jpg"",""time"":201},{""stimulus"":""img/red_ll/5.jpg"",""time"":251},{""stimulus"":""img/red_ll/6.jpg"",""time"":301},{""stimulus"":""img/red_ll/7.jpg"",""time"":351},{""stimulus"":""img/red_ll/8.jpg"",""time"":401},{""stimulus"":""img/red_ll/9.jpg"",""time"":451},{""stimulus"":""img/red_ll/10.jpg"",""time"":501},{""stimulus"":""img/red_ll/11.jpg"",""time"":551}]","[]"
"image-keyboard-response","70","89123","0.0-5.0-1.33","5bfb5784a66aa500019dabef","bdp_lott","Sun Apr 09 2023 18:39:02 GMT-0500 (Central Daylight Time)","265581","red","green","","287","","","","choice","","img/red_ll/choose11.jpg","2","192","red","0.5","0.5","0.5","l","",""
"animation","71","89723","0.0-5.0-2.33","5bfb5784a66aa500019dabef","bdp_lott","Sun Apr 09 2023 18:39:02 GMT-0500 (Central Daylight Time)","265581","red","green","","","","","","","","","","192","","","","","","[{""stimulus"":""img/red_ll/1.jpg"",""time"":52},{""stimulus"":""img/red_ll/2.jpg"",""time"":101},{""stimulus"":""img/red_ll/3.jpg"",""time"":150},{""stimulus"":""img/red_ll/4.jpg"",""time"":200},{""stimulus"":""img/red_ll/5.jpg"",""time"":251},{""stimulus"":""img/red_ll/6.jpg"",""time"":300},{""stimulus"":""img/red_ll/7.jpg"",""time"":351},{""stimulus"":""img/red_ll/8.jpg"",""time"":401},{""stimulus"":""img/red_ll/9.jpg"",""time"":451},{""stimulus"":""img/red_ll/10.jpg"",""time"":501},{""stimulus"":""img/red_ll/11.jpg"",""time"":551}]","[]"
"image-keyboard-response","72","90035","0.0-5.0-1.34","5bfb5784a66aa500019dabef","bdp_lott","Sun Apr 09 2023 18:39:02 GMT-0500 (Central Daylight Time)","265581","red","green","","312","","","","choice","","img/red_ll/choose11.jpg","2","191","red","0.5","0.5","0.5","l","",""
"animation","73","90636","0.0-5.0-2.34","5bfb5784a66aa500019dabef","bdp_lott","Sun Apr 09 2023 18:39:02 GMT-0500 (Central Daylight Time)","265581","red","green","","","","","","","","","","191","","","","","","[{""stimulus"":""img/red_ll/1.jpg"",""time"":51},{""stimulus"":""img/red_ll/2.jpg"",""time"":101},{""stimulus"":""img/red_ll/3.jpg"",""time"":151},{""stimulus"":""img/red_ll/4.jpg"",""time"":201},{""stimulus"":""img/red_ll/5.jpg"",""time"":251},{""stimulus"":""img/red_ll/6.jpg"",""time"":301},{""stimulus"":""img/red_ll/7.jpg"",""time"":351},{""stimulus"":""img/red_ll/8.jpg"",""time"":401},{""stimulus"":""img/red_ll/9.jpg"",""time"":451},{""stimulus"":""img/red_ll/10.jpg"",""time"":501},{""stimulus"":""img/red_ll/11.jpg"",""time"":551}]","[]"
"image-keyboard-response","74","90891","0.0-5.0-1.35","5bfb5784a66aa500019dabef","bdp_lott","Sun Apr 09 2023 18:39:02 GMT-0500 (Central Daylight Time)","265581","red","green","","255","","","","choice","","img/red_ll/choose11.jpg","2","190","red","0.5","0.5","0.5","w","",""
"animation","75","91492","0.0-5.0-2.35","5bfb5784a66aa500019dabef","bdp_lott","Sun Apr 09 2023 18:39:02 GMT-0500 (Central Daylight Time)","265581","red","green","","","","","","","","","","190","","","","","","[{""stimulus"":""img/red_lw/1.jpg"",""time"":52},{""stimulus"":""img/red_lw/2.jpg"",""time"":102},{""stimulus"":""img/red_lw/3.jpg"",""time"":151},{""stimulus"":""img/red_lw/4.jpg"",""time"":200},{""stimulus"":""img/red_lw/5.jpg"",""time"":251},{""stimulus"":""img/red_lw/6.jpg"",""time"":301},{""stimulus"":""img/red_lw/7.jpg"",""time"":351},{""stimulus"":""img/red_lw/8.jpg"",""time"":400},{""stimulus"":""img/red_lw/9.jpg"",""time"":451},{""stimulus"":""img/red_lw/10.jpg"",""time"":501},{""stimulus"":""img/red_lw/11.jpg"",""time"":550}]","[]"
"image-keyboard-response","76","91835","0.0-5.0-1.36","5bfb5784a66aa500019dabef","bdp_lott","Sun Apr 09 2023 18:39:02 GMT-0500 (Central Daylight Time)","265581","red","green","","343","","","","choice","","img/red_lw/choose11.jpg","2","189","red","0.5","0.5","0.5","w","",""
"animation","77","92436","0.0-5.0-2.36","5bfb5784a66aa500019dabef","bdp_lott","Sun Apr 09 2023 18:39:02 GMT-0500 (Central Daylight Time)","265581","red","green","","","","","","","","","","189","","","","","","[{""stimulus"":""img/red_lw/1.jpg"",""time"":50},{""stimulus"":""img/red_lw/2.jpg"",""time"":101},{""stimulus"":""img/red_lw/3.jpg"",""time"":151},{""stimulus"":""img/red_lw/4.jpg"",""time"":201},{""stimulus"":""img/red_lw/5.jpg"",""time"":252},{""stimulus"":""img/red_lw/6.jpg"",""time"":301},{""stimulus"":""img/red_lw/7.jpg"",""time"":351},{""stimulus"":""img/red_lw/8.jpg"",""time"":401},{""stimulus"":""img/red_lw/9.jpg"",""time"":451},{""stimulus"":""img/red_lw/10.jpg"",""time"":501},{""stimulus"":""img/red_lw/11.jpg"",""time"":551}]","[]"
"image-keyboard-response","78","92755","0.0-5.0-1.37","5bfb5784a66aa500019dabef","bdp_lott","Sun Apr 09 2023 18:39:02 GMT-0500 (Central Daylight Time)","265581","red","green","","319","","","","choice","","img/red_lw/choose11.jpg","2","188","red","0.5","0.5","0.5","l","",""
"animation","79","93356","0.0-5.0-2.37","5bfb5784a66aa500019dabef","bdp_lott","Sun Apr 09 2023 18:39:02 GMT-0500 (Central Daylight Time)","265581","red","green","","","","","","","","","","188","","","","","","[{""stimulus"":""img/red_ll/1.jpg"",""time"":50},{""stimulus"":""img/red_ll/2.jpg"",""time"":101},{""stimulus"":""img/red_ll/3.jpg"",""time"":151},{""stimulus"":""img/red_ll/4.jpg"",""time"":201},{""stimulus"":""img/red_ll/5.jpg"",""time"":251},{""stimulus"":""img/red_ll/6.jpg"",""time"":301},{""stimulus"":""img/red_ll/7.jpg"",""time"":351},{""stimulus"":""img/red_ll/8.jpg"",""time"":400},{""stimulus"":""img/red_ll/9.jpg"",""time"":451},{""stimulus"":""img/red_ll/10.jpg"",""time"":501},{""stimulus"":""img/red_ll/11.jpg"",""time"":551}]","[]"
"image-keyboard-response","80","93659","0.0-5.0-1.38","5bfb5784a66aa500019dabef","bdp_lott","Sun Apr 09 2023 18:39:02 GMT-0500 (Central Daylight Time)","265581","red","green","","303","","","","choice","","img/red_ll/choose11.jpg","2","187","red","0.5","0.5","0.5","w","",""
"animation","81","94260","0.0-5.0-2.38","5bfb5784a66aa500019dabef","bdp_lott","Sun Apr 09 2023 18:39:02 GMT-0500 (Central Daylight Time)","265581","red","green","","","","","","","","","","187","","","","","","[{""stimulus"":""img/red_lw/1.jpg"",""time"":51},{""stimulus"":""img/red_lw/2.jpg"",""time"":101},{""stimulus"":""img/red_lw/3.jpg"",""time"":151},{""stimulus"":""img/red_lw/4.jpg"",""time"":201},{""stimulus"":""img/red_lw/5.jpg"",""time"":251},{""stimulus"":""img/red_lw/6.jpg"",""time"":301},{""stimulus"":""img/red_lw/7.jpg"",""time"":351},{""stimulus"":""img/red_lw/8.jpg"",""time"":401},{""stimulus"":""img/red_lw/9.jpg"",""time"":451},{""stimulus"":""img/red_lw/10.jpg"",""time"":501},{""stimulus"":""img/red_lw/11.jpg"",""time"":551}]","[]"
"image-keyboard-response","82","94467","0.0-5.0-1.39","5bfb5784a66aa500019dabef","bdp_lott","Sun Apr 09 2023 18:39:02 GMT-0500 (Central Daylight Time)","265581","red","green","","207","","","","choice","","img/red_lw/choose11.jpg","2","186","red","0.5","0.5","0.5","w","",""
"animation","83","95068","0.0-5.0-2.39","5bfb5784a66aa500019dabef","bdp_lott","Sun Apr 09 2023 18:39:02 GMT-0500 (Central Daylight Time)","265581","red","green","","","","","","","","","","186","","","","","","[{""stimulus"":""img/red_lw/1.jpg"",""time"":51},{""stimulus"":""img/red_lw/2.jpg"",""time"":101},{""stimulus"":""img/red_lw/3.jpg"",""time"":151},{""stimulus"":""img/red_lw/4.jpg"",""time"":201},{""stimulus"":""img/red_lw/5.jpg"",""time"":251},{""stimulus"":""img/red_lw/6.jpg"",""time"":300},{""stimulus"":""img/red_lw/7.jpg"",""time"":351},{""stimulus"":""img/red_lw/8.jpg"",""time"":401},{""stimulus"":""img/red_lw/9.jpg"",""time"":451},{""stimulus"":""img/red_lw/10.jpg"",""time"":500},{""stimulus"":""img/red_lw/11.jpg"",""time"":550}]","[]"
"image-keyboard-response","84","95307","0.0-5.0-1.40","5bfb5784a66aa500019dabef","bdp_lott","Sun Apr 09 2023 18:39:02 GMT-0500 (Central Daylight Time)","265581","red","green","","238","","","","choice","","img/red_lw/choose11.jpg","2","185","red","0.5","0.5","0.5","l","",""
"animation","85","95908","0.0-5.0-2.40","5bfb5784a66aa500019dabef","bdp_lott","Sun Apr 09 2023 18:39:02 GMT-0500 (Central Daylight Time)","265581","red","green","","","","","","","","","","185","","","","","","[{""stimulus"":""img/red_ll/1.jpg"",""time"":50},{""stimulus"":""img/red_ll/2.jpg"",""time"":101},{""stimulus"":""img/red_ll/3.jpg"",""time"":150},{""stimulus"":""img/red_ll/4.jpg"",""time"":201},{""stimulus"":""img/red_ll/5.jpg"",""time"":251},{""stimulus"":""img/red_ll/6.jpg"",""time"":302},{""stimulus"":""img/red_ll/7.jpg"",""time"":351},{""stimulus"":""img/red_ll/8.jpg"",""time"":401},{""stimulus"":""img/red_ll/9.jpg"",""time"":450},{""stimulus"":""img/red_ll/10.jpg"",""time"":501},{""stimulus"":""img/red_ll/11.jpg"",""time"":551}]","[]"
"image-keyboard-response","86","96227","0.0-5.0-1.41","5bfb5784a66aa500019dabef","bdp_lott","Sun Apr 09 2023 18:39:02 GMT-0500 (Central Daylight Time)","265581","red","green","","319","","","","choice","","img/red_ll/choose11.jpg","2","184","red","0.5","0.5","0.5","l","",""
"animation","87","96828","0.0-5.0-2.41","5bfb5784a66aa500019dabef","bdp_lott","Sun Apr 09 2023 18:39:02 GMT-0500 (Central Daylight Time)","265581","red","green","","","","","","","","","","184","","","","","","[{""stimulus"":""img/red_ll/1.jpg"",""time"":51},{""stimulus"":""img/red_ll/2.jpg"",""time"":100},{""stimulus"":""img/red_ll/3.jpg"",""time"":151},{""stimulus"":""img/red_ll/4.jpg"",""time"":200},{""stimulus"":""img/red_ll/5.jpg"",""time"":251},{""stimulus"":""img/red_ll/6.jpg"",""time"":301},{""stimulus"":""img/red_ll/7.jpg"",""time"":350},{""stimulus"":""img/red_ll/8.jpg"",""time"":401},{""stimulus"":""img/red_ll/9.jpg"",""time"":450},{""stimulus"":""img/red_ll/10.jpg"",""time"":500},{""stimulus"":""img/red_ll/11.jpg"",""time"":551}]","[]"
"image-keyboard-response","88","97107","0.0-5.0-1.42","5bfb5784a66aa500019dabef","bdp_lott","Sun Apr 09 2023 18:39:02 GMT-0500 (Central Daylight Time)","265581","red","green","","279","","","","choice","","img/red_ll/choose11.jpg","2","183","red","0.5","0.5","0.5","w","",""
"animation","89","97708","0.0-5.0-2.42","5bfb5784a66aa500019dabef","bdp_lott","Sun Apr 09 2023 18:39:02 GMT-0500 (Central Daylight Time)","265581","red","green","","","","","","","","","","183","","","","","","[{""stimulus"":""img/red_lw/1.jpg"",""time"":51},{""stimulus"":""img/red_lw/2.jpg"",""time"":101},{""stimulus"":""img/red_lw/3.jpg"",""time"":150},{""stimulus"":""img/red_lw/4.jpg"",""time"":200},{""stimulus"":""img/red_lw/5.jpg"",""time"":250},{""stimulus"":""img/red_lw/6.jpg"",""time"":300},{""stimulus"":""img/red_lw/7.jpg"",""time"":350},{""stimulus"":""img/red_lw/8.jpg"",""time"":400},{""stimulus"":""img/red_lw/9.jpg"",""time"":450},{""stimulus"":""img/red_lw/10.jpg"",""time"":500},{""stimulus"":""img/red_lw/11.jpg"",""time"":550}]","[]"
"image-keyboard-response","90","97947","0.0-5.0-1.43","5bfb5784a66aa500019dabef","bdp_lott","Sun Apr 09 2023 18:39:02 GMT-0500 (Central Daylight Time)","265581","red","green","","239","","","","choice","","img/red_lw/choose11.jpg","2","182","red","0.5","0.5","0.5","l","",""
"animation","91","98548","0.0-5.0-2.43","5bfb5784a66aa500019dabef","bdp_lott","Sun Apr 09 2023 18:39:02 GMT-0500 (Central Daylight Time)","265581","red","green","","","","","","","","","","182","","","","","","[{""stimulus"":""img/red_ll/1.jpg"",""time"":51},{""stimulus"":""img/red_ll/2.jpg"",""time"":102},{""stimulus"":""img/red_ll/3.jpg"",""time"":151},{""stimulus"":""img/red_ll/4.jpg"",""time"":201},{""stimulus"":""img/red_ll/5.jpg"",""time"":250},{""stimulus"":""img/red_ll/6.jpg"",""time"":301},{""stimulus"":""img/red_ll/7.jpg"",""time"":351},{""stimulus"":""img/red_ll/8.jpg"",""time"":401},{""stimulus"":""img/red_ll/9.jpg"",""time"":451},{""stimulus"":""img/red_ll/10.jpg"",""time"":501},{""stimulus"":""img/red_ll/11.jpg"",""time"":551}]","[]"
"image-keyboard-response","92","98851","0.0-5.0-1.44","5bfb5784a66aa500019dabef","bdp_lott","Sun Apr 09 2023 18:39:02 GMT-0500 (Central Daylight Time)","265581","red","green","","303","","","","choice","","img/red_ll/choose11.jpg","2","181","red","0.5","0.5","0.5","l","",""
"animation","93","99451","0.0-5.0-2.44","5bfb5784a66aa500019dabef","bdp_lott","Sun Apr 09 2023 18:39:02 GMT-0500 (Central Daylight Time)","265581","red","green","","","","","","","","","","181","","","","","","[{""stimulus"":""img/red_ll/1.jpg"",""time"":51},{""stimulus"":""img/red_ll/2.jpg"",""time"":100},{""stimulus"":""img/red_ll/3.jpg"",""time"":150},{""stimulus"":""img/red_ll/4.jpg"",""time"":200},{""stimulus"":""img/red_ll/5.jpg"",""time"":250},{""stimulus"":""img/red_ll/6.jpg"",""time"":300},{""stimulus"":""img/red_ll/7.jpg"",""time"":350},{""stimulus"":""img/red_ll/8.jpg"",""time"":401},{""stimulus"":""img/red_ll/9.jpg"",""time"":450},{""stimulus"":""img/red_ll/10.jpg"",""time"":501},{""stimulus"":""img/red_ll/11.jpg"",""time"":550}]","[]"
"image-keyboard-response","94","99787","0.0-5.0-1.45","5bfb5784a66aa500019dabef","bdp_lott","Sun Apr 09 2023 18:39:02 GMT-0500 (Central Daylight Time)","265581","red","green","","336","","","","choice","","img/red_ll/choose11.jpg","2","180","red","0.5","0.5","0.5","w","",""
"animation","95","100387","0.0-5.0-2.45","5bfb5784a66aa500019dabef","bdp_lott","Sun Apr 09 2023 18:39:02 GMT-0500 (Central Daylight Time)","265581","red","green","","","","","","","","","","180","","","","","","[{""stimulus"":""img/red_lw/1.jpg"",""time"":51},{""stimulus"":""img/red_lw/2.jpg"",""time"":100},{""stimulus"":""img/red_lw/3.jpg"",""time"":150},{""stimulus"":""img/red_lw/4.jpg"",""time"":201},{""stimulus"":""img/red_lw/5.jpg"",""time"":251},{""stimulus"":""img/red_lw/6.jpg"",""time"":300},{""stimulus"":""img/red_lw/7.jpg"",""time"":350},{""stimulus"":""img/red_lw/8.jpg"",""time"":401},{""stimulus"":""img/red_lw/9.jpg"",""time"":450},{""stimulus"":""img/red_lw/10.jpg"",""time"":500},{""stimulus"":""img/red_lw/11.jpg"",""time"":550}]","[]"
"image-keyboard-response","96","100715","0.0-5.0-1.46","5bfb5784a66aa500019dabef","bdp_lott","Sun Apr 09 2023 18:39:02 GMT-0500 (Central Daylight Time)","265581","red","green","","328","","","","choice","","img/red_lw/choose11.jpg","2","179","red","0.5","0.5","0.5","w","",""
"animation","97","101316","0.0-5.0-2.46","5bfb5784a66aa500019dabef","bdp_lott","Sun Apr 09 2023 18:39:02 GMT-0500 (Central Daylight Time)","265581","red","green","","","","","","","","","","179","","","","","","[{""stimulus"":""img/red_lw/1.jpg"",""time"":52},{""stimulus"":""img/red_lw/2.jpg"",""time"":101},{""stimulus"":""img/red_lw/3.jpg"",""time"":152},{""stimulus"":""img/red_lw/4.jpg"",""time"":201},{""stimulus"":""img/red_lw/5.jpg"",""time"":251},{""stimulus"":""img/red_lw/6.jpg"",""time"":302},{""stimulus"":""img/red_lw/7.jpg"",""time"":351},{""stimulus"":""img/red_lw/8.jpg"",""time"":401},{""stimulus"":""img/red_lw/9.jpg"",""time"":451},{""stimulus"":""img/red_lw/10.jpg"",""time"":501},{""stimulus"":""img/red_lw/11.jpg"",""time"":551}]","[]"
"image-keyboard-response","98","101627","0.0-5.0-1.47","5bfb5784a66aa500019dabef","bdp_lott","Sun Apr 09 2023 18:39:02 GMT-0500 (Central Daylight Time)","265581","red","green","","311","","","","choice","","img/red_lw/choose11.jpg","2","178","red","0.5","0.5","0.5","w","",""
"animation","99","102228","0.0-5.0-2.47","5bfb5784a66aa500019dabef","bdp_lott","Sun Apr 09 2023 18:39:02 GMT-0500 (Central Daylight Time)","265581","red","green","","","","","","","","","","178","","","","","","[{""stimulus"":""img/red_lw/1.jpg"",""time"":50},{""stimulus"":""img/red_lw/2.jpg"",""time"":100},{""stimulus"":""img/red_lw/3.jpg"",""time"":150},{""stimulus"":""img/red_lw/4.jpg"",""time"":200},{""stimulus"":""img/red_lw/5.jpg"",""time"":250},{""stimulus"":""img/red_lw/6.jpg"",""time"":300},{""stimulus"":""img/red_lw/7.jpg"",""time"":350},{""stimulus"":""img/red_lw/8.jpg"",""time"":400},{""stimulus"":""img/red_lw/9.jpg"",""time"":450},{""stimulus"":""img/red_lw/10.jpg"",""time"":500},{""stimulus"":""img/red_lw/11.jpg"",""time"":550}]","[]"
"image-keyboard-response","100","102531","0.0-5.0-1.48","5bfb5784a66aa500019dabef","bdp_lott","Sun Apr 09 2023 18:39:02 GMT-0500 (Central Daylight Time)","265581","red","green","","303","","","","choice","","img/red_lw/choose11.jpg","2","177","red","0.5","0.5","0.5","w","",""
"animation","101","103132","0.0-5.0-2.48","5bfb5784a66aa500019dabef","bdp_lott","Sun Apr 09 2023 18:39:02 GMT-0500 (Central Daylight Time)","265581","red","green","","","","","","","","","","177","","","","","","[{""stimulus"":""img/red_lw/1.jpg"",""time"":51},{""stimulus"":""img/red_lw/2.jpg"",""time"":101},{""stimulus"":""img/red_lw/3.jpg"",""time"":151},{""stimulus"":""img/red_lw/4.jpg"",""time"":202},{""stimulus"":""img/red_lw/5.jpg"",""time"":251},{""stimulus"":""img/red_lw/6.jpg"",""time"":301},{""stimulus"":""img/red_lw/7.jpg"",""time"":351},{""stimulus"":""img/red_lw/8.jpg"",""time"":402},{""stimulus"":""img/red_lw/9.jpg"",""time"":451},{""stimulus"":""img/red_lw/10.jpg"",""time"":501},{""stimulus"":""img/red_lw/11.jpg"",""time"":552}]","[]"
"image-keyboard-response","102","103460","0.0-5.0-1.49","5bfb5784a66aa500019dabef","bdp_lott","Sun Apr 09 2023 18:39:02 GMT-0500 (Central Daylight Time)","265581","red","green","","327","","","","choice","","img/red_lw/choose11.jpg","2","176","red","0.5","0.5","0.5","w","",""
"animation","103","104060","0.0-5.0-2.49","5bfb5784a66aa500019dabef","bdp_lott","Sun Apr 09 2023 18:39:02 GMT-0500 (Central Daylight Time)","265581","red","green","","","","","","","","","","176","","","","","","[{""stimulus"":""img/red_lw/1.jpg"",""time"":51},{""stimulus"":""img/red_lw/2.jpg"",""time"":100},{""stimulus"":""img/red_lw/3.jpg"",""time"":150},{""stimulus"":""img/red_lw/4.jpg"",""time"":200},{""stimulus"":""img/red_lw/5.jpg"",""time"":250},{""stimulus"":""img/red_lw/6.jpg"",""time"":300},{""stimulus"":""img/red_lw/7.jpg"",""time"":350},{""stimulus"":""img/red_lw/8.jpg"",""time"":401},{""stimulus"":""img/red_lw/9.jpg"",""time"":450},{""stimulus"":""img/red_lw/10.jpg"",""time"":500},{""stimulus"":""img/red_lw/11.jpg"",""time"":550}]","[]"
"image-keyboard-response","104","104315","0.0-5.0-1.50","5bfb5784a66aa500019dabef","bdp_lott","Sun Apr 09 2023 18:39:02 GMT-0500 (Central Daylight Time)","265581","red","green","","255","","","","choice","","img/red_lw/choose11.jpg","2","175","red","0.5","0.5","0.5","w","",""
"animation","105","104916","0.0-5.0-2.50","5bfb5784a66aa500019dabef","bdp_lott","Sun Apr 09 2023 18:39:02 GMT-0500 (Central Daylight Time)","265581","red","green","","","","","","","","","","175","","","","","","[{""stimulus"":""img/red_lw/1.jpg"",""time"":51},{""stimulus"":""img/red_lw/2.jpg"",""time"":101},{""stimulus"":""img/red_lw/3.jpg"",""time"":150},{""stimulus"":""img/red_lw/4.jpg"",""time"":202},{""stimulus"":""img/red_lw/5.jpg"",""time"":251},{""stimulus"":""img/red_lw/6.jpg"",""time"":301},{""stimulus"":""img/red_lw/7.jpg"",""time"":352},{""stimulus"":""img/red_lw/8.jpg"",""time"":401},{""stimulus"":""img/red_lw/9.jpg"",""time"":452},{""stimulus"":""img/red_lw/10.jpg"",""time"":501},{""stimulus"":""img/red_lw/11.jpg"",""time"":551}]","[]"
"image-keyboard-response","106","105187","0.0-5.0-1.51","5bfb5784a66aa500019dabef","bdp_lott","Sun Apr 09 2023 18:39:02 GMT-0500 (Central Daylight Time)","265581","red","green","","271","","","","choice","","img/red_lw/choose11.jpg","2","174","red","0.5","0.5","0.5","l","",""
"animation","107","105789","0.0-5.0-2.51","5bfb5784a66aa500019dabef","bdp_lott","Sun Apr 09 2023 18:39:02 GMT-0500 (Central Daylight Time)","265581","red","green","","","","","","","","","","174","","","","","","[{""stimulus"":""img/red_ll/1.jpg"",""time"":50},{""stimulus"":""img/red_ll/2.jpg"",""time"":100},{""stimulus"":""img/red_ll/3.jpg"",""time"":150},{""stimulus"":""img/red_ll/4.jpg"",""time"":200},{""stimulus"":""img/red_ll/5.jpg"",""time"":250},{""stimulus"":""img/red_ll/6.jpg"",""time"":300},{""stimulus"":""img/red_ll/7.jpg"",""time"":350},{""stimulus"":""img/red_ll/8.jpg"",""time"":400},{""stimulus"":""img/red_ll/9.jpg"",""time"":450},{""stimulus"":""img/red_ll/10.jpg"",""time"":500},{""stimulus"":""img/red_ll/11.jpg"",""time"":550}]","[]"
"image-keyboard-response","108","106019","0.0-5.0-1.52","5bfb5784a66aa500019dabef","bdp_lott","Sun Apr 09 2023 18:39:02 GMT-0500 (Central Daylight Time)","265581","red","green","","230","","","","choice","","img/red_ll/choose11.jpg","2","173","red","0.5","0.5","0.5","w","",""
"animation","109","106620","0.0-5.0-2.52","5bfb5784a66aa500019dabef","bdp_lott","Sun Apr 09 2023 18:39:02 GMT-0500 (Central Daylight Time)","265581","red","green","","","","","","","","","","173","","","","","","[{""stimulus"":""img/red_lw/1.jpg"",""time"":52},{""stimulus"":""img/red_lw/2.jpg"",""time"":102},{""stimulus"":""img/red_lw/3.jpg"",""time"":151},{""stimulus"":""img/red_lw/4.jpg"",""time"":201},{""stimulus"":""img/red_lw/5.jpg"",""time"":264},{""stimulus"":""img/red_lw/6.jpg"",""time"":301},{""stimulus"":""img/red_lw/7.jpg"",""time"":351},{""stimulus"":""img/red_lw/8.jpg"",""time"":401},{""stimulus"":""img/red_lw/9.jpg"",""time"":451},{""stimulus"":""img/red_lw/10.jpg"",""time"":502},{""stimulus"":""img/red_lw/11.jpg"",""time"":551}]","[]"
"image-keyboard-response","110","107067","0.0-5.0-1.53","5bfb5784a66aa500019dabef","bdp_lott","Sun Apr 09 2023 18:39:02 GMT-0500 (Central Daylight Time)","265581","red","green","","447","","","","choice","","img/red_lw/choose11.jpg","2","172","red","0.5","0.5","0.5","w","",""
"animation","111","107668","0.0-5.0-2.53","5bfb5784a66aa500019dabef","bdp_lott","Sun Apr 09 2023 18:39:02 GMT-0500 (Central Daylight Time)","265581","red","green","","","","","","","","","","172","","","","","","[{""stimulus"":""img/red_lw/1.jpg"",""time"":51},{""stimulus"":""img/red_lw/2.jpg"",""time"":101},{""stimulus"":""img/red_lw/3.jpg"",""time"":152},{""stimulus"":""img/red_lw/4.jpg"",""time"":201},{""stimulus"":""img/red_lw/5.jpg"",""time"":251},{""stimulus"":""img/red_lw/6.jpg"",""time"":300},{""stimulus"":""img/red_lw/7.jpg"",""time"":351},{""stimulus"":""img/red_lw/8.jpg"",""time"":401},{""stimulus"":""img/red_lw/9.jpg"",""time"":451},{""stimulus"":""img/red_lw/10.jpg"",""time"":501},{""stimulus"":""img/red_lw/11.jpg"",""time"":551}]","[]"
"image-keyboard-response","112","107956","0.0-5.0-1.54","5bfb5784a66aa500019dabef","bdp_lott","Sun Apr 09 2023 18:39:02 GMT-0500 (Central Daylight Time)","265581","red","green","","288","","","","choice","","img/red_lw/choose11.jpg","2","171","red","0.5","0.5","0.5","l","",""
"animation","113","108557","0.0-5.0-2.54","5bfb5784a66aa500019dabef","bdp_lott","Sun Apr 09 2023 18:39:02 GMT-0500 (Central Daylight Time)","265581","red","green","","","","","","","","","","171","","","","","","[{""stimulus"":""img/red_ll/1.jpg"",""time"":51},{""stimulus"":""img/red_ll/2.jpg"",""time"":101},{""stimulus"":""img/red_ll/3.jpg"",""time"":151},{""stimulus"":""img/red_ll/4.jpg"",""time"":200},{""stimulus"":""img/red_ll/5.jpg"",""time"":250},{""stimulus"":""img/red_ll/6.jpg"",""time"":301},{""stimulus"":""img/red_ll/7.jpg"",""time"":351},{""stimulus"":""img/red_ll/8.jpg"",""time"":402},{""stimulus"":""img/red_ll/9.jpg"",""time"":451},{""stimulus"":""img/red_ll/10.jpg"",""time"":501},{""stimulus"":""img/red_ll/11.jpg"",""time"":551}]","[]"
"image-keyboard-response","114","108916","0.0-5.0-1.55","5bfb5784a66aa500019dabef","bdp_lott","Sun Apr 09 2023 18:39:02 GMT-0500 (Central Daylight Time)","265581","red","green","","359","","","","choice","","img/red_ll/choose11.jpg","2","170","red","0.5","0.5","0.5","w","",""
"animation","115","109516","0.0-5.0-2.55","5bfb5784a66aa500019dabef","bdp_lott","Sun Apr 09 2023 18:39:02 GMT-0500 (Central Daylight Time)","265581","red","green","","","","","","","","","","170","","","","","","[{""stimulus"":""img/red_lw/1.jpg"",""time"":51},{""stimulus"":""img/red_lw/2.jpg"",""time"":101},{""stimulus"":""img/red_lw/3.jpg"",""time"":150},{""stimulus"":""img/red_lw/4.jpg"",""time"":200},{""stimulus"":""img/red_lw/5.jpg"",""time"":250},{""stimulus"":""img/red_lw/6.jpg"",""time"":301},{""stimulus"":""img/red_lw/7.jpg"",""time"":350},{""stimulus"":""img/red_lw/8.jpg"",""time"":400},{""stimulus"":""img/red_lw/9.jpg"",""time"":451},{""stimulus"":""img/red_lw/10.jpg"",""time"":500},{""stimulus"":""img/red_lw/11.jpg"",""time"":552}]","[]"
"image-keyboard-response","116","109803","0.0-5.0-1.56","5bfb5784a66aa500019dabef","bdp_lott","Sun Apr 09 2023 18:39:02 GMT-0500 (Central Daylight Time)","265581","red","green","","286","","","","choice","","img/red_lw/choose11.jpg","2","169","red","0.5","0.5","0.5","l","",""
"animation","117","110404","0.0-5.0-2.56","5bfb5784a66aa500019dabef","bdp_lott","Sun Apr 09 2023 18:39:02 GMT-0500 (Central Daylight Time)","265581","red","green","","","","","","","","","","169","","","","","","[{""stimulus"":""img/red_ll/1.jpg"",""time"":50},{""stimulus"":""img/red_ll/2.jpg"",""time"":100},{""stimulus"":""img/red_ll/3.jpg"",""time"":150},{""stimulus"":""img/red_ll/4.jpg"",""time"":200},{""stimulus"":""img/red_ll/5.jpg"",""time"":251},{""stimulus"":""img/red_ll/6.jpg"",""time"":300},{""stimulus"":""img/red_ll/7.jpg"",""time"":350},{""stimulus"":""img/red_ll/8.jpg"",""time"":400},{""stimulus"":""img/red_ll/9.jpg"",""time"":450},{""stimulus"":""img/red_ll/10.jpg"",""time"":500},{""stimulus"":""img/red_ll/11.jpg"",""time"":551}]","[]"
"image-keyboard-response","118","110731","0.0-5.0-1.57","5bfb5784a66aa500019dabef","bdp_lott","Sun Apr 09 2023 18:39:02 GMT-0500 (Central Daylight Time)","265581","red","green","","327","","","","choice","","img/red_ll/choose11.jpg","2","168","red","0.5","0.5","0.5","w","",""
"animation","119","111332","0.0-5.0-2.57","5bfb5784a66aa500019dabef","bdp_lott","Sun Apr 09 2023 18:39:02 GMT-0500 (Central Daylight Time)","265581","red","green","","","","","","","","","","168","","","","","","[{""stimulus"":""img/red_lw/1.jpg"",""time"":52},{""stimulus"":""img/red_lw/2.jpg"",""time"":101},{""stimulus"":""img/red_lw/3.jpg"",""time"":151},{""stimulus"":""img/red_lw/4.jpg"",""time"":201},{""stimulus"":""img/red_lw/5.jpg"",""time"":251},{""stimulus"":""img/red_lw/6.jpg"",""time"":302},{""stimulus"":""img/red_lw/7.jpg"",""time"":352},{""stimulus"":""img/red_lw/8.jpg"",""time"":401},{""stimulus"":""img/red_lw/9.jpg"",""time"":451},{""stimulus"":""img/red_lw/10.jpg"",""time"":501},{""stimulus"":""img/red_lw/11.jpg"",""time"":551}]","[]"
"image-keyboard-response","120","111756","0.0-5.0-1.58","5bfb5784a66aa500019dabef","bdp_lott","Sun Apr 09 2023 18:39:02 GMT-0500 (Central Daylight Time)","265581","red","green","","424","","","","choice","","img/red_lw/choose11.jpg","2","167","red","0.5","0.5","0.5","l","",""
"animation","121","112357","0.0-5.0-2.58","5bfb5784a66aa500019dabef","bdp_lott","Sun Apr 09 2023 18:39:02 GMT-0500 (Central Daylight Time)","265581","red","green","","","","","","","","","","167","","","","","","[{""stimulus"":""img/red_ll/1.jpg"",""time"":51},{""stimulus"":""img/red_ll/2.jpg"",""time"":100},{""stimulus"":""img/red_ll/3.jpg"",""time"":151},{""stimulus"":""img/red_ll/4.jpg"",""time"":200},{""stimulus"":""img/red_ll/5.jpg"",""time"":251},{""stimulus"":""img/red_ll/6.jpg"",""time"":301},{""stimulus"":""img/red_ll/7.jpg"",""time"":351},{""stimulus"":""img/red_ll/8.jpg"",""time"":400},{""stimulus"":""img/red_ll/9.jpg"",""time"":451},{""stimulus"":""img/red_ll/10.jpg"",""time"":500},{""stimulus"":""img/red_ll/11.jpg"",""time"":551}]","[]"
"image-keyboard-response","122","112668","0.0-5.0-1.59","5bfb5784a66aa500019dabef","bdp_lott","Sun Apr 09 2023 18:39:02 GMT-0500 (Central Daylight Time)","265581","red","green","","310","","","","choice","","img/red_ll/choose11.jpg","2","166","red","0.5","0.5","0.5","l","",""
"animation","123","113269","0.0-5.0-2.59","5bfb5784a66aa500019dabef","bdp_lott","Sun Apr 09 2023 18:39:02 GMT-0500 (Central Daylight Time)","265581","red","green","","","","","","","","","","166","","","","","","[{""stimulus"":""img/red_ll/1.jpg"",""time"":51},{""stimulus"":""img/red_ll/2.jpg"",""time"":101},{""stimulus"":""img/red_ll/3.jpg"",""time"":150},{""stimulus"":""img/red_ll/4.jpg"",""time"":200},{""stimulus"":""img/red_ll/5.jpg"",""time"":251},{""stimulus"":""img/red_ll/6.jpg"",""time"":301},{""stimulus"":""img/red_ll/7.jpg"",""time"":350},{""stimulus"":""img/red_ll/8.jpg"",""time"":401},{""stimulus"":""img/red_ll/9.jpg"",""time"":450},{""stimulus"":""img/red_ll/10.jpg"",""time"":502},{""stimulus"":""img/red_ll/11.jpg"",""time"":551}]","[]"
"image-keyboard-response","124","113483","0.0-5.0-1.60","5bfb5784a66aa500019dabef","bdp_lott","Sun Apr 09 2023 18:39:02 GMT-0500 (Central Daylight Time)","265581","red","green","","214","","","","choice","","img/red_ll/choose11.jpg","2","165","red","0.5","0.5","0.5","w","",""
"animation","125","114084","0.0-5.0-2.60","5bfb5784a66aa500019dabef","bdp_lott","Sun Apr 09 2023 18:39:02 GMT-0500 (Central Daylight Time)","265581","red","green","","","","","","","","","","165","","","","","","[{""stimulus"":""img/red_lw/1.jpg"",""time"":52},{""stimulus"":""img/red_lw/2.jpg"",""time"":101},{""stimulus"":""img/red_lw/3.jpg"",""time"":151},{""stimulus"":""img/red_lw/4.jpg"",""time"":201},{""stimulus"":""img/red_lw/5.jpg"",""time"":251},{""stimulus"":""img/red_lw/6.jpg"",""time"":301},{""stimulus"":""img/red_lw/7.jpg"",""time"":351},{""stimulus"":""img/red_lw/8.jpg"",""time"":401},{""stimulus"":""img/red_lw/9.jpg"",""time"":452},{""stimulus"":""img/red_lw/10.jpg"",""time"":501},{""stimulus"":""img/red_lw/11.jpg"",""time"":551}]","[]"
"image-keyboard-response","126","114411","0.0-5.0-1.61","5bfb5784a66aa500019dabef","bdp_lott","Sun Apr 09 2023 18:39:02 GMT-0500 (Central Daylight Time)","265581","red","green","","327","","","","choice","","img/red_lw/choose11.jpg","2","164","red","0.5","0.5","0.5","w","",""
"animation","127","115012","0.0-5.0-2.61","5bfb5784a66aa500019dabef","bdp_lott","Sun Apr 09 2023 18:39:02 GMT-0500 (Central Daylight Time)","265581","red","green","","","","","","","","","","164","","","","","","[{""stimulus"":""img/red_lw/1.jpg"",""time"":51},{""stimulus"":""img/red_lw/2.jpg"",""time"":100},{""stimulus"":""img/red_lw/3.jpg"",""time"":150},{""stimulus"":""img/red_lw/4.jpg"",""time"":200},{""stimulus"":""img/red_lw/5.jpg"",""time"":250},{""stimulus"":""img/red_lw/6.jpg"",""time"":300},{""stimulus"":""img/red_lw/7.jpg"",""time"":351},{""stimulus"":""img/red_lw/8.jpg"",""time"":400},{""stimulus"":""img/red_lw/9.jpg"",""time"":450},{""stimulus"":""img/red_lw/10.jpg"",""time"":500},{""stimulus"":""img/red_lw/11.jpg"",""time"":550}]","[]"
"image-keyboard-response","128","115355","0.0-5.0-1.62","5bfb5784a66aa500019dabef","bdp_lott","Sun Apr 09 2023 18:39:02 GMT-0500 (Central Daylight Time)","265581","red","green","","343","","","","choice","","img/red_lw/choose11.jpg","2","163","red","0.5","0.5","0.5","w","",""
"animation","129","115956","0.0-5.0-2.62","5bfb5784a66aa500019dabef","bdp_lott","Sun Apr 09 2023 18:39:02 GMT-0500 (Central Daylight Time)","265581","red","green","","","","","","","","","","163","","","","","","[{""stimulus"":""img/red_lw/1.jpg"",""time"":50},{""stimulus"":""img/red_lw/2.jpg"",""time"":100},{""stimulus"":""img/red_lw/3.jpg"",""time"":150},{""stimulus"":""img/red_lw/4.jpg"",""time"":200},{""stimulus"":""img/red_lw/5.jpg"",""time"":250},{""stimulus"":""img/red_lw/6.jpg"",""time"":301},{""stimulus"":""img/red_lw/7.jpg"",""time"":350},{""stimulus"":""img/red_lw/8.jpg"",""time"":400},{""stimulus"":""img/red_lw/9.jpg"",""time"":450},{""stimulus"":""img/red_lw/10.jpg"",""time"":500},{""stimulus"":""img/red_lw/11.jpg"",""time"":550}]","[]"
"image-keyboard-response","130","116227","0.0-5.0-1.63","5bfb5784a66aa500019dabef","bdp_lott","Sun Apr 09 2023 18:39:02 GMT-0500 (Central Daylight Time)","265581","red","green","","271","","","","choice","","img/red_lw/choose11.jpg","2","162","red","0.5","0.5","0.5","l","",""
"animation","131","116828","0.0-5.0-2.63","5bfb5784a66aa500019dabef","bdp_lott","Sun Apr 09 2023 18:39:02 GMT-0500 (Central Daylight Time)","265581","red","green","","","","","","","","","","162","","","","","","[{""stimulus"":""img/red_ll/1.jpg"",""time"":51},{""stimulus"":""img/red_ll/2.jpg"",""time"":101},{""stimulus"":""img/red_ll/3.jpg"",""time"":151},{""stimulus"":""img/red_ll/4.jpg"",""time"":201},{""stimulus"":""img/red_ll/5.jpg"",""time"":251},{""stimulus"":""img/red_ll/6.jpg"",""time"":300},{""stimulus"":""img/red_ll/7.jpg"",""time"":352},{""stimulus"":""img/red_ll/8.jpg"",""time"":401},{""stimulus"":""img/red_ll/9.jpg"",""time"":451},{""stimulus"":""img/red_ll/10.jpg"",""time"":501},{""stimulus"":""img/red_ll/11.jpg"",""time"":551}]","[]"
"image-keyboard-response","132","117083","0.0-5.0-1.64","5bfb5784a66aa500019dabef","bdp_lott","Sun Apr 09 2023 18:39:02 GMT-0500 (Central Daylight Time)","265581","red","green","","254","","","","choice","","img/red_ll/choose11.jpg","2","161","red","0.5","0.5","0.5","l","",""
"animation","133","117684","0.0-5.0-2.64","5bfb5784a66aa500019dabef","bdp_lott","Sun Apr 09 2023 18:39:02 GMT-0500 (Central Daylight Time)","265581","red","green","","","","","","","","","","161","","","","","","[{""stimulus"":""img/red_ll/1.jpg"",""time"":51},{""stimulus"":""img/red_ll/2.jpg"",""time"":101},{""stimulus"":""img/red_ll/3.jpg"",""time"":151},{""stimulus"":""img/red_ll/4.jpg"",""time"":201},{""stimulus"":""img/red_ll/5.jpg"",""time"":251},{""stimulus"":""img/red_ll/6.jpg"",""time"":301},{""stimulus"":""img/red_ll/7.jpg"",""time"":363},{""stimulus"":""img/red_ll/8.jpg"",""time"":402},{""stimulus"":""img/red_ll/9.jpg"",""time"":451},{""stimulus"":""img/red_ll/10.jpg"",""time"":501},{""stimulus"":""img/red_ll/11.jpg"",""time"":552}]","[]"
"image-keyboard-response","134","118003","0.0-5.0-1.65","5bfb5784a66aa500019dabef","bdp_lott","Sun Apr 09 2023 18:39:02 GMT-0500 (Central Daylight Time)","265581","red","green","","319","","","","choice","","img/red_ll/choose11.jpg","2","160","red","0.5","0.5","0.5","w","",""
"animation","135","118604","0.0-5.0-2.65","5bfb5784a66aa500019dabef","bdp_lott","Sun Apr 09 2023 18:39:02 GMT-0500 (Central Daylight Time)","265581","red","green","","","","","","","","","","160","","","","","","[{""stimulus"":""img/red_lw/1.jpg"",""time"":50},{""stimulus"":""img/red_lw/2.jpg"",""time"":100},{""stimulus"":""img/red_lw/3.jpg"",""time"":151},{""stimulus"":""img/red_lw/4.jpg"",""time"":200},{""stimulus"":""img/red_lw/5.jpg"",""time"":250},{""stimulus"":""img/red_lw/6.jpg"",""time"":301},{""stimulus"":""img/red_lw/7.jpg"",""time"":350},{""stimulus"":""img/red_lw/8.jpg"",""time"":400},{""stimulus"":""img/red_lw/9.jpg"",""time"":450},{""stimulus"":""img/red_lw/10.jpg"",""time"":500},{""stimulus"":""img/red_lw/11.jpg"",""time"":551}]","[]"
"image-keyboard-response","136","118948","0.0-5.0-1.66","5bfb5784a66aa500019dabef","bdp_lott","Sun Apr 09 2023 18:39:02 GMT-0500 (Central Daylight Time)","265581","red","green","","344","","","","choice","","img/red_lw/choose11.jpg","2","159","red","0.5","0.5","0.5","w","",""
"animation","137","119548","0.0-5.0-2.66","5bfb5784a66aa500019dabef","bdp_lott","Sun Apr 09 2023 18:39:02 GMT-0500 (Central Daylight Time)","265581","red","green","","","","","","","","","","159","","","","","","[{""stimulus"":""img/red_lw/1.jpg"",""time"":51},{""stimulus"":""img/red_lw/2.jpg"",""time"":101},{""stimulus"":""img/red_lw/3.jpg"",""time"":150},{""stimulus"":""img/red_lw/4.jpg"",""time"":200},{""stimulus"":""img/red_lw/5.jpg"",""time"":250},{""stimulus"":""img/red_lw/6.jpg"",""time"":301},{""stimulus"":""img/red_lw/7.jpg"",""time"":351},{""stimulus"":""img/red_lw/8.jpg"",""time"":400},{""stimulus"":""img/red_lw/9.jpg"",""time"":450},{""stimulus"":""img/red_lw/10.jpg"",""time"":500},{""stimulus"":""img/red_lw/11.jpg"",""time"":550}]","[]"
"image-keyboard-response","138","119804","0.0-5.0-1.67","5bfb5784a66aa500019dabef","bdp_lott","Sun Apr 09 2023 18:39:02 GMT-0500 (Central Daylight Time)","265581","red","green","","256","","","","choice","","img/red_lw/choose11.jpg","2","158","red","0.5","0.5","0.5","w","",""
"animation","139","120405","0.0-5.0-2.67","5bfb5784a66aa500019dabef","bdp_lott","Sun Apr 09 2023 18:39:02 GMT-0500 (Central Daylight Time)","265581","red","green","","","","","","","","","","158","","","","","","[{""stimulus"":""img/red_lw/1.jpg"",""time"":50},{""stimulus"":""img/red_lw/2.jpg"",""time"":101},{""stimulus"":""img/red_lw/3.jpg"",""time"":151},{""stimulus"":""img/red_lw/4.jpg"",""time"":200},{""stimulus"":""img/red_lw/5.jpg"",""time"":250},{""stimulus"":""img/red_lw/6.jpg"",""time"":302},{""stimulus"":""img/red_lw/7.jpg"",""time"":351},{""stimulus"":""img/red_lw/8.jpg"",""time"":400},{""stimulus"":""img/red_lw/9.jpg"",""time"":452},{""stimulus"":""img/red_lw/10.jpg"",""time"":501},{""stimulus"":""img/red_lw/11.jpg"",""time"":550}]","[]"
"image-keyboard-response","140","120675","0.0-5.0-1.68","5bfb5784a66aa500019dabef","bdp_lott","Sun Apr 09 2023 18:39:02 GMT-0500 (Central Daylight Time)","265581","red","green","","270","","","","choice","","img/red_lw/choose11.jpg","2","157","red","0.5","0.5","0.5","w","",""
"animation","141","121277","0.0-5.0-2.68","5bfb5784a66aa500019dabef","bdp_lott","Sun Apr 09 2023 18:39:02 GMT-0500 (Central Daylight Time)","265581","red","green","","","","","","","","","","157","","","","","","[{""stimulus"":""img/red_lw/1.jpg"",""time"":51},{""stimulus"":""img/red_lw/2.jpg"",""time"":101},{""stimulus"":""img/red_lw/3.jpg"",""time"":151},{""stimulus"":""img/red_lw/4.jpg"",""time"":201},{""stimulus"":""img/red_lw/5.jpg"",""time"":251},{""stimulus"":""img/red_lw/6.jpg"",""time"":301},{""stimulus"":""img/red_lw/7.jpg"",""time"":351},{""stimulus"":""img/red_lw/8.jpg"",""time"":401},{""stimulus"":""img/red_lw/9.jpg"",""time"":452},{""stimulus"":""img/red_lw/10.jpg"",""time"":501},{""stimulus"":""img/red_lw/11.jpg"",""time"":551}]","[]"
"image-keyboard-response","142","121587","0.0-5.0-1.69","5bfb5784a66aa500019dabef","bdp_lott","Sun Apr 09 2023 18:39:02 GMT-0500 (Central Daylight Time)","265581","red","green","","310","","","","choice","","img/red_lw/choose11.jpg","2","156","red","0.5","0.5","0.5","w","",""
"animation","143","122187","0.0-5.0-2.69","5bfb5784a66aa500019dabef","bdp_lott","Sun Apr 09 2023 18:39:02 GMT-0500 (Central Daylight Time)","265581","red","green","","","","","","","","","","156","","","","","","[{""stimulus"":""img/red_lw/1.jpg"",""time"":51},{""stimulus"":""img/red_lw/2.jpg"",""time"":101},{""stimulus"":""img/red_lw/3.jpg"",""time"":152},{""stimulus"":""img/red_lw/4.jpg"",""time"":201},{""stimulus"":""img/red_lw/5.jpg"",""time"":252},{""stimulus"":""img/red_lw/6.jpg"",""time"":301},{""stimulus"":""img/red_lw/7.jpg"",""time"":351},{""stimulus"":""img/red_lw/8.jpg"",""time"":402},{""stimulus"":""img/red_lw/9.jpg"",""time"":451},{""stimulus"":""img/red_lw/10.jpg"",""time"":501},{""stimulus"":""img/red_lw/11.jpg"",""time"":551}]","[]"
"image-keyboard-response","144","122491","0.0-5.0-1.70","5bfb5784a66aa500019dabef","bdp_lott","Sun Apr 09 2023 18:39:02 GMT-0500 (Central Daylight Time)","265581","red","green","","303","","","","choice","","img/red_lw/choose11.jpg","2","155","red","0.5","0.5","0.5","l","",""
"animation","145","123092","0.0-5.0-2.70","5bfb5784a66aa500019dabef","bdp_lott","Sun Apr 09 2023 18:39:02 GMT-0500 (Central Daylight Time)","265581","red","green","","","","","","","","","","155","","","","","","[{""stimulus"":""img/red_ll/1.jpg"",""time"":51},{""stimulus"":""img/red_ll/2.jpg"",""time"":101},{""stimulus"":""img/red_ll/3.jpg"",""time"":151},{""stimulus"":""img/red_ll/4.jpg"",""time"":201},{""stimulus"":""img/red_ll/5.jpg"",""time"":252},{""stimulus"":""img/red_ll/6.jpg"",""time"":302},{""stimulus"":""img/red_ll/7.jpg"",""time"":352},{""stimulus"":""img/red_ll/8.jpg"",""time"":401},{""stimulus"":""img/red_ll/9.jpg"",""time"":452},{""stimulus"":""img/red_ll/10.jpg"",""time"":501},{""stimulus"":""img/red_ll/11.jpg"",""time"":552}]","[]"
"image-keyboard-response","146","123540","0.0-5.0-1.71","5bfb5784a66aa500019dabef","bdp_lott","Sun Apr 09 2023 18:39:02 GMT-0500 (Central Daylight Time)","265581","red","green","","447","","","","choice","","img/red_ll/choose11.jpg","2","154","red","0.5","0.5","0.5","w","",""
"animation","147","124140","0.0-5.0-2.71","5bfb5784a66aa500019dabef","bdp_lott","Sun Apr 09 2023 18:39:02 GMT-0500 (Central Daylight Time)","265581","red","green","","","","","","","","","","154","","","","","","[{""stimulus"":""img/red_lw/1.jpg"",""time"":51},{""stimulus"":""img/red_lw/2.jpg"",""time"":100},{""stimulus"":""img/red_lw/3.jpg"",""time"":151},{""stimulus"":""img/red_lw/4.jpg"",""time"":200},{""stimulus"":""img/red_lw/5.jpg"",""time"":250},{""stimulus"":""img/red_lw/6.jpg"",""time"":301},{""stimulus"":""img/red_lw/7.jpg"",""time"":350},{""stimulus"":""img/red_lw/8.jpg"",""time"":401},{""stimulus"":""img/red_lw/9.jpg"",""time"":450},{""stimulus"":""img/red_lw/10.jpg"",""time"":500},{""stimulus"":""img/red_lw/11.jpg"",""time"":551}]","[]"
"image-keyboard-response","148","124564","0.0-5.0-1.72","5bfb5784a66aa500019dabef","bdp_lott","Sun Apr 09 2023 18:39:02 GMT-0500 (Central Daylight Time)","265581","red","green","","423","","","","choice","","img/red_lw/choose11.jpg","2","153","red","0.5","0.5","0.5","l","",""
"animation","149","125164","0.0-5.0-2.72","5bfb5784a66aa500019dabef","bdp_lott","Sun Apr 09 2023 18:39:02 GMT-0500 (Central Daylight Time)","265581","red","green","","","","","","","","","","153","","","","","","[{""stimulus"":""img/red_ll/1.jpg"",""time"":51},{""stimulus"":""img/red_ll/2.jpg"",""time"":101},{""stimulus"":""img/red_ll/3.jpg"",""time"":150},{""stimulus"":""img/red_ll/4.jpg"",""time"":201},{""stimulus"":""img/red_ll/5.jpg"",""time"":250},{""stimulus"":""img/red_ll/6.jpg"",""time"":301},{""stimulus"":""img/red_ll/7.jpg"",""time"":351},{""stimulus"":""img/red_ll/8.jpg"",""time"":401},{""stimulus"":""img/red_ll/9.jpg"",""time"":451},{""stimulus"":""img/red_ll/10.jpg"",""time"":500},{""stimulus"":""img/red_ll/11.jpg"",""time"":551}]","[]"
"image-keyboard-response","150","125523","0.0-5.0-1.73","5bfb5784a66aa500019dabef","bdp_lott","Sun Apr 09 2023 18:39:02 GMT-0500 (Central Daylight Time)","265581","red","green","","358","","","","choice","","img/red_ll/choose11.jpg","2","152","red","0.5","0.5","0.5","w","",""
"animation","151","126124","0.0-5.0-2.73","5bfb5784a66aa500019dabef","bdp_lott","Sun Apr 09 2023 18:39:02 GMT-0500 (Central Daylight Time)","265581","red","green","","","","","","","","","","152","","","","","","[{""stimulus"":""img/red_lw/1.jpg"",""time"":52},{""stimulus"":""img/red_lw/2.jpg"",""time"":100},{""stimulus"":""img/red_lw/3.jpg"",""time"":150},{""stimulus"":""img/red_lw/4.jpg"",""time"":200},{""stimulus"":""img/red_lw/5.jpg"",""time"":250},{""stimulus"":""img/red_lw/6.jpg"",""time"":300},{""stimulus"":""img/red_lw/7.jpg"",""time"":350},{""stimulus"":""img/red_lw/8.jpg"",""time"":400},{""stimulus"":""img/red_lw/9.jpg"",""time"":450},{""stimulus"":""img/red_lw/10.jpg"",""time"":501},{""stimulus"":""img/red_lw/11.jpg"",""time"":550}]","[]"
"image-keyboard-response","152","126484","0.0-5.0-1.74","5bfb5784a66aa500019dabef","bdp_lott","Sun Apr 09 2023 18:39:02 GMT-0500 (Central Daylight Time)","265581","red","green","","360","","","","choice","","img/red_lw/choose11.jpg","2","151","red","0.5","0.5","0.5","w","",""
"animation","153","127084","0.0-5.0-2.74","5bfb5784a66aa500019dabef","bdp_lott","Sun Apr 09 2023 18:39:02 GMT-0500 (Central Daylight Time)","265581","red","green","","","","","","","","","","151","","","","","","[{""stimulus"":""img/red_lw/1.jpg"",""time"":51},{""stimulus"":""img/red_lw/2.jpg"",""time"":100},{""stimulus"":""img/red_lw/3.jpg"",""time"":150},{""stimulus"":""img/red_lw/4.jpg"",""time"":201},{""stimulus"":""img/red_lw/5.jpg"",""time"":251},{""stimulus"":""img/red_lw/6.jpg"",""time"":301},{""stimulus"":""img/red_lw/7.jpg"",""time"":351},{""stimulus"":""img/red_lw/8.jpg"",""time"":400},{""stimulus"":""img/red_lw/9.jpg"",""time"":450},{""stimulus"":""img/red_lw/10.jpg"",""time"":500},{""stimulus"":""img/red_lw/11.jpg"",""time"":550}]","[]"
"image-keyboard-response","154","127403","0.0-5.0-1.75","5bfb5784a66aa500019dabef","bdp_lott","Sun Apr 09 2023 18:39:02 GMT-0500 (Central Daylight Time)","265581","red","green","","318","","","","choice","","img/red_lw/choose11.jpg","2","150","red","0.5","0.5","0.5","w","",""
"animation","155","128004","0.0-5.0-2.75","5bfb5784a66aa500019dabef","bdp_lott","Sun Apr 09 2023 18:39:02 GMT-0500 (Central Daylight Time)","265581","red","green","","","","","","","","","","150","","","","","","[{""stimulus"":""img/red_lw/1.jpg"",""time"":51},{""stimulus"":""img/red_lw/2.jpg"",""time"":101},{""stimulus"":""img/red_lw/3.jpg"",""time"":151},{""stimulus"":""img/red_lw/4.jpg"",""time"":201},{""stimulus"":""img/red_lw/5.jpg"",""time"":251},{""stimulus"":""img/red_lw/6.jpg"",""time"":301},{""stimulus"":""img/red_lw/7.jpg"",""time"":351},{""stimulus"":""img/red_lw/8.jpg"",""time"":401},{""stimulus"":""img/red_lw/9.jpg"",""time"":451},{""stimulus"":""img/red_lw/10.jpg"",""time"":502},{""stimulus"":""img/red_lw/11.jpg"",""time"":550}]","[]"
"image-keyboard-response","156","128292","0.0-5.0-1.76","5bfb5784a66aa500019dabef","bdp_lott","Sun Apr 09 2023 18:39:02 GMT-0500 (Central Daylight Time)","265581","red","green","","288","","","","choice","","img/red_lw/choose11.jpg","2","149","red","0.5","0.1","0.5","w","",""
"animation","157","128893","0.0-5.0-2.76","5bfb5784a66aa500019dabef","bdp_lott","Sun Apr 09 2023 18:39:02 GMT-0500 (Central Daylight Time)","265581","red","green","","","","","","","","","","149","","","","","","[{""stimulus"":""img/red_lw/1.jpg"",""time"":51},{""stimulus"":""img/red_lw/2.jpg"",""time"":101},{""stimulus"":""img/red_lw/3.jpg"",""time"":151},{""stimulus"":""img/red_lw/4.jpg"",""time"":201},{""stimulus"":""img/red_lw/5.jpg"",""time"":251},{""stimulus"":""img/red_lw/6.jpg"",""time"":300},{""stimulus"":""img/red_lw/7.jpg"",""time"":351},{""stimulus"":""img/red_lw/8.jpg"",""time"":401},{""stimulus"":""img/red_lw/9.jpg"",""time"":450},{""stimulus"":""img/red_lw/10.jpg"",""time"":501},{""stimulus"":""img/red_lw/11.jpg"",""time"":551}]","[]"
"image-keyboard-response","158","129291","0.0-5.0-1.77","5bfb5784a66aa500019dabef","bdp_lott","Sun Apr 09 2023 18:39:02 GMT-0500 (Central Daylight Time)","265581","red","green","","398","","","","choice","","img/red_lw/choose11.jpg","2","148","red","0.5","0.1","0.5","w","",""
"animation","159","129892","0.0-5.0-2.77","5bfb5784a66aa500019dabef","bdp_lott","Sun Apr 09 2023 18:39:02 GMT-0500 (Central Daylight Time)","265581","red","green","","","","","","","","","","148","","","","","","[{""stimulus"":""img/red_lw/1.jpg"",""time"":51},{""stimulus"":""img/red_lw/2.jpg"",""time"":101},{""stimulus"":""img/red_lw/3.jpg"",""time"":152},{""stimulus"":""img/red_lw/4.jpg"",""time"":201},{""stimulus"":""img/red_lw/5.jpg"",""time"":252},{""stimulus"":""img/red_lw/6.jpg"",""time"":301},{""stimulus"":""img/red_lw/7.jpg"",""time"":351},{""stimulus"":""img/red_lw/8.jpg"",""time"":400},{""stimulus"":""img/red_lw/9.jpg"",""time"":452},{""stimulus"":""img/red_lw/10.jpg"",""time"":502},{""stimulus"":""img/red_lw/11.jpg"",""time"":552}]","[]"
"image-keyboard-response","160","130124","0.0-5.0-1.78","5bfb5784a66aa500019dabef","bdp_lott","Sun Apr 09 2023 18:39:02 GMT-0500 (Central Daylight Time)","265581","red","green","","232","","","","choice","","img/red_lw/choose11.jpg","2","147","red","0.5","0.1","0.5","w","",""
"animation","161","130724","0.0-5.0-2.78","5bfb5784a66aa500019dabef","bdp_lott","Sun Apr 09 2023 18:39:02 GMT-0500 (Central Daylight Time)","265581","red","green","","","","","","","","","","147","","","","","","[{""stimulus"":""img/red_lw/1.jpg"",""time"":52},{""stimulus"":""img/red_lw/2.jpg"",""time"":102},{""stimulus"":""img/red_lw/3.jpg"",""time"":151},{""stimulus"":""img/red_lw/4.jpg"",""time"":201},{""stimulus"":""img/red_lw/5.jpg"",""time"":252},{""stimulus"":""img/red_lw/6.jpg"",""time"":300},{""stimulus"":""img/red_lw/7.jpg"",""time"":350},{""stimulus"":""img/red_lw/8.jpg"",""time"":401},{""stimulus"":""img/red_lw/9.jpg"",""time"":452},{""stimulus"":""img/red_lw/10.jpg"",""time"":501},{""stimulus"":""img/red_lw/11.jpg"",""time"":550}]","[]"
"image-keyboard-response","162","131067","0.0-5.0-1.79","5bfb5784a66aa500019dabef","bdp_lott","Sun Apr 09 2023 18:39:02 GMT-0500 (Central Daylight Time)","265581","red","green","","343","","","","choice","","img/red_lw/choose11.jpg","2","146","red","0.5","0.1","0.5","l","",""
"animation","163","131668","0.0-5.0-2.79","5bfb5784a66aa500019dabef","bdp_lott","Sun Apr 09 2023 18:39:02 GMT-0500 (Central Daylight Time)","265581","red","green","","","","","","","","","","146","","","","","","[{""stimulus"":""img/red_ll/1.jpg"",""time"":51},{""stimulus"":""img/red_ll/2.jpg"",""time"":101},{""stimulus"":""img/red_ll/3.jpg"",""time"":151},{""stimulus"":""img/red_ll/4.jpg"",""time"":201},{""stimulus"":""img/red_ll/5.jpg"",""time"":251},{""stimulus"":""img/red_ll/6.jpg"",""time"":301},{""stimulus"":""img/red_ll/7.jpg"",""time"":352},{""stimulus"":""img/red_ll/8.jpg"",""time"":401},{""stimulus"":""img/red_ll/9.jpg"",""time"":464},{""stimulus"":""img/red_ll/10.jpg"",""time"":501},{""stimulus"":""img/red_ll/11.jpg"",""time"":551}]","[]"
"image-keyboard-response","164","132059","0.0-5.0-1.80","5bfb5784a66aa500019dabef","bdp_lott","Sun Apr 09 2023 18:39:02 GMT-0500 (Central Daylight Time)","265581","red","green","","391","","","","choice","","img/red_ll/choose11.jpg","2","145","red","0.5","0.1","0.5","l","",""
"animation","165","132660","0.0-5.0-2.80","5bfb5784a66aa500019dabef","bdp_lott","Sun Apr 09 2023 18:39:02 GMT-0500 (Central Daylight Time)","265581","red","green","","","","","","","","","","145","","","","","","[{""stimulus"":""img/red_ll/1.jpg"",""time"":51},{""stimulus"":""img/red_ll/2.jpg"",""time"":101},{""stimulus"":""img/red_ll/3.jpg"",""time"":151},{""stimulus"":""img/red_ll/4.jpg"",""time"":201},{""stimulus"":""img/red_ll/5.jpg"",""time"":251},{""stimulus"":""img/red_ll/6.jpg"",""time"":301},{""stimulus"":""img/red_ll/7.jpg"",""time"":351},{""stimulus"":""img/red_ll/8.jpg"",""time"":401},{""stimulus"":""img/red_ll/9.jpg"",""time"":452},{""stimulus"":""img/red_ll/10.jpg"",""time"":501},{""stimulus"":""img/red_ll/11.jpg"",""time"":551}]","[]"
"image-keyboard-response","166","133035","0.0-5.0-1.81","5bfb5784a66aa500019dabef","bdp_lott","Sun Apr 09 2023 18:39:02 GMT-0500 (Central Daylight Time)","265581","red","green","","374","","","","choice","","img/red_ll/choose11.jpg","2","144","red","0.5","0.1","0.5","l","",""
"animation","167","133636","0.0-5.0-2.81","5bfb5784a66aa500019dabef","bdp_lott","Sun Apr 09 2023 18:39:02 GMT-0500 (Central Daylight Time)","265581","red","green","","","","","","","","","","144","","","","","","[{""stimulus"":""img/red_ll/1.jpg"",""time"":51},{""stimulus"":""img/red_ll/2.jpg"",""time"":100},{""stimulus"":""img/red_ll/3.jpg"",""time"":150},{""stimulus"":""img/red_ll/4.jpg"",""time"":200},{""stimulus"":""img/red_ll/5.jpg"",""time"":250},{""stimulus"":""img/red_ll/6.jpg"",""time"":301},{""stimulus"":""img/red_ll/7.jpg"",""time"":350},{""stimulus"":""img/red_ll/8.jpg"",""time"":400},{""stimulus"":""img/red_ll/9.jpg"",""time"":450},{""stimulus"":""img/red_ll/10.jpg"",""time"":500},{""stimulus"":""img/red_ll/11.jpg"",""time"":551}]","[]"
"image-keyboard-response","168","133931","0.0-5.0-1.82","5bfb5784a66aa500019dabef","bdp_lott","Sun Apr 09 2023 18:39:02 GMT-0500 (Central Daylight Time)","265581","red","green","","295","","","","choice","","img/red_ll/choose11.jpg","2","143","red","0.5","0.1","0.5","w","",""
"animation","169","134532","0.0-5.0-2.82","5bfb5784a66aa500019dabef","bdp_lott","Sun Apr 09 2023 18:39:02 GMT-0500 (Central Daylight Time)","265581","red","green","","","","","","","","","","143","","","","","","[{""stimulus"":""img/red_lw/1.jpg"",""time"":51},{""stimulus"":""img/red_lw/2.jpg"",""time"":102},{""stimulus"":""img/red_lw/3.jpg"",""time"":151},{""stimulus"":""img/red_lw/4.jpg"",""time"":201},{""stimulus"":""img/red_lw/5.jpg"",""time"":251},{""stimulus"":""img/red_lw/6.jpg"",""time"":301},{""stimulus"":""img/red_lw/7.jpg"",""time"":351},{""stimulus"":""img/red_lw/8.jpg"",""time"":401},{""stimulus"":""img/red_lw/9.jpg"",""time"":451},{""stimulus"":""img/red_lw/10.jpg"",""time"":502},{""stimulus"":""img/red_lw/11.jpg"",""time"":551}]","[]"
"image-keyboard-response","170","134908","0.0-5.0-1.83","5bfb5784a66aa500019dabef","bdp_lott","Sun Apr 09 2023 18:39:02 GMT-0500 (Central Daylight Time)","265581","red","green","","376","","","","choice","","img/red_lw/choose11.jpg","2","142","red","0.5","0.1","0.5","w","",""
"animation","171","135509","0.0-5.0-2.83","5bfb5784a66aa500019dabef","bdp_lott","Sun Apr 09 2023 18:39:02 GMT-0500 (Central Daylight Time)","265581","red","green","","","","","","","","","","142","","","","","","[{""stimulus"":""img/red_lw/1.jpg"",""time"":51},{""stimulus"":""img/red_lw/2.jpg"",""time"":101},{""stimulus"":""img/red_lw/3.jpg"",""time"":151},{""stimulus"":""img/red_lw/4.jpg"",""time"":200},{""stimulus"":""img/red_lw/5.jpg"",""time"":250},{""stimulus"":""img/red_lw/6.jpg"",""time"":300},{""stimulus"":""img/red_lw/7.jpg"",""time"":350},{""stimulus"":""img/red_lw/8.jpg"",""time"":400},{""stimulus"":""img/red_lw/9.jpg"",""time"":450},{""stimulus"":""img/red_lw/10.jpg"",""time"":502},{""stimulus"":""img/red_lw/11.jpg"",""time"":550}]","[]"
"image-keyboard-response","172","135811","0.0-5.0-1.84","5bfb5784a66aa500019dabef","bdp_lott","Sun Apr 09 2023 18:39:02 GMT-0500 (Central Daylight Time)","265581","red","green","","302","","","","choice","","img/red_lw/choose11.jpg","2","141","red","0.5","0.1","0.5","w","",""
"animation","173","136412","0.0-5.0-2.84","5bfb5784a66aa500019dabef","bdp_lott","Sun Apr 09 2023 18:39:02 GMT-0500 (Central Daylight Time)","265581","red","green","","","","","","","","","","141","","","","","","[{""stimulus"":""img/red_lw/1.jpg"",""time"":52},{""stimulus"":""img/red_lw/2.jpg"",""time"":102},{""stimulus"":""img/red_lw/3.jpg"",""time"":152},{""stimulus"":""img/red_lw/4.jpg"",""time"":201},{""stimulus"":""img/red_lw/5.jpg"",""time"":251},{""stimulus"":""img/red_lw/6.jpg"",""time"":301},{""stimulus"":""img/red_lw/7.jpg"",""time"":351},{""stimulus"":""img/red_lw/8.jpg"",""time"":401},{""stimulus"":""img/red_lw/9.jpg"",""time"":451},{""stimulus"":""img/red_lw/10.jpg"",""time"":501},{""stimulus"":""img/red_lw/11.jpg"",""time"":552}]","[]"
"image-keyboard-response","174","136851","0.0-5.0-1.85","5bfb5784a66aa500019dabef","bdp_lott","Sun Apr 09 2023 18:39:02 GMT-0500 (Central Daylight Time)","265581","red","green","","439","","","","choice","","img/red_lw/choose11.jpg","2","140","red","0.5","0.1","0.5","w","",""
"animation","175","137452","0.0-5.0-2.85","5bfb5784a66aa500019dabef","bdp_lott","Sun Apr 09 2023 18:39:02 GMT-0500 (Central Daylight Time)","265581","red","green","","","","","","","","","","140","","","","","","[{""stimulus"":""img/red_lw/1.jpg"",""time"":51},{""stimulus"":""img/red_lw/2.jpg"",""time"":101},{""stimulus"":""img/red_lw/3.jpg"",""time"":151},{""stimulus"":""img/red_lw/4.jpg"",""time"":201},{""stimulus"":""img/red_lw/5.jpg"",""time"":251},{""stimulus"":""img/red_lw/6.jpg"",""time"":301},{""stimulus"":""img/red_lw/7.jpg"",""time"":351},{""stimulus"":""img/red_lw/8.jpg"",""time"":401},{""stimulus"":""img/red_lw/9.jpg"",""time"":451},{""stimulus"":""img/red_lw/10.jpg"",""time"":501},{""stimulus"":""img/red_lw/11.jpg"",""time"":551}]","[]"
"image-keyboard-response","176","137843","0.0-5.0-1.86","5bfb5784a66aa500019dabef","bdp_lott","Sun Apr 09 2023 18:39:02 GMT-0500 (Central Daylight Time)","265581","red","green","","391","","","","choice","","img/red_lw/choose11.jpg","2","139","red","0.5","0.1","0.5","l","",""
"animation","177","138445","0.0-5.0-2.86","5bfb5784a66aa500019dabef","bdp_lott","Sun Apr 09 2023 18:39:02 GMT-0500 (Central Daylight Time)","265581","red","green","","","","","","","","","","139","","","","","","[{""stimulus"":""img/red_ll/1.jpg"",""time"":51},{""stimulus"":""img/red_ll/2.jpg"",""time"":101},{""stimulus"":""img/red_ll/3.jpg"",""time"":152},{""stimulus"":""img/red_ll/4.jpg"",""time"":201},{""stimulus"":""img/red_ll/5.jpg"",""time"":251},{""stimulus"":""img/red_ll/6.jpg"",""time"":301},{""stimulus"":""img/red_ll/7.jpg"",""time"":351},{""stimulus"":""img/red_ll/8.jpg"",""time"":402},{""stimulus"":""img/red_ll/9.jpg"",""time"":450},{""stimulus"":""img/red_ll/10.jpg"",""time"":501},{""stimulus"":""img/red_ll/11.jpg"",""time"":552}]","[]"
"image-keyboard-response","178","138948","0.0-5.0-1.87","5bfb5784a66aa500019dabef","bdp_lott","Sun Apr 09 2023 18:39:02 GMT-0500 (Central Daylight Time)","265581","red","green","","503","","","","choice","","img/red_ll/choose11.jpg","2","138","red","0.5","0.1","0.5","l","",""
"animation","179","139548","0.0-5.0-2.87","5bfb5784a66aa500019dabef","bdp_lott","Sun Apr 09 2023 18:39:02 GMT-0500 (Central Daylight Time)","265581","red","green","","","","","","","","","","138","","","","","","[{""stimulus"":""img/red_ll/1.jpg"",""time"":51},{""stimulus"":""img/red_ll/2.jpg"",""time"":100},{""stimulus"":""img/red_ll/3.jpg"",""time"":151},{""stimulus"":""img/red_ll/4.jpg"",""time"":200},{""stimulus"":""img/red_ll/5.jpg"",""time"":250},{""stimulus"":""img/red_ll/6.jpg"",""time"":301},{""stimulus"":""img/red_ll/7.jpg"",""time"":351},{""stimulus"":""img/red_ll/8.jpg"",""time"":401},{""stimulus"":""img/red_ll/9.jpg"",""time"":451},{""stimulus"":""img/red_ll/10.jpg"",""time"":500},{""stimulus"":""img/red_ll/11.jpg"",""time"":550}]","[]"
"image-keyboard-response","180","139956","0.0-5.0-1.88","5bfb5784a66aa500019dabef","bdp_lott","Sun Apr 09 2023 18:39:02 GMT-0500 (Central Daylight Time)","265581","red","green","","407","","","","choice","","img/red_ll/choose11.jpg","2","137","red","0.5","0.1","0.5","w","",""
"animation","181","140556","0.0-5.0-2.88","5bfb5784a66aa500019dabef","bdp_lott","Sun Apr 09 2023 18:39:02 GMT-0500 (Central Daylight Time)","265581","red","green","","","","","","","","","","137","","","","","","[{""stimulus"":""img/red_lw/1.jpg"",""time"":50},{""stimulus"":""img/red_lw/2.jpg"",""time"":100},{""stimulus"":""img/red_lw/3.jpg"",""time"":150},{""stimulus"":""img/red_lw/4.jpg"",""time"":201},{""stimulus"":""img/red_lw/5.jpg"",""time"":251},{""stimulus"":""img/red_lw/6.jpg"",""time"":300},{""stimulus"":""img/red_lw/7.jpg"",""time"":350},{""stimulus"":""img/red_lw/8.jpg"",""time"":401},{""stimulus"":""img/red_lw/9.jpg"",""time"":451},{""stimulus"":""img/red_lw/10.jpg"",""time"":501},{""stimulus"":""img/red_lw/11.jpg"",""time"":550}]","[]"
"image-keyboard-response","182","141172","0.0-5.0-1.89","5bfb5784a66aa500019dabef","bdp_lott","Sun Apr 09 2023 18:39:02 GMT-0500 (Central Daylight Time)","265581","red","green","","616","","","","choice","","img/red_lw/choose11.jpg","2","136","red","0.5","0.1","0.5","w","",""
"animation","183","141772","0.0-5.0-2.89","5bfb5784a66aa500019dabef","bdp_lott","Sun Apr 09 2023 18:39:02 GMT-0500 (Central Daylight Time)","265581","red","green","","","","","","","","","","136","","","","","","[{""stimulus"":""img/red_lw/1.jpg"",""time"":51},{""stimulus"":""img/red_lw/2.jpg"",""time"":100},{""stimulus"":""img/red_lw/3.jpg"",""time"":150},{""stimulus"":""img/red_lw/4.jpg"",""time"":200},{""stimulus"":""img/red_lw/5.jpg"",""time"":250},{""stimulus"":""img/red_lw/6.jpg"",""time"":300},{""stimulus"":""img/red_lw/7.jpg"",""time"":351},{""stimulus"":""img/red_lw/8.jpg"",""time"":402},{""stimulus"":""img/red_lw/9.jpg"",""time"":450},{""stimulus"":""img/red_lw/10.jpg"",""time"":500},{""stimulus"":""img/red_lw/11.jpg"",""time"":551}]","[]"
"image-keyboard-response","184","142243","0.0-5.0-1.90","5bfb5784a66aa500019dabef","bdp_lott","Sun Apr 09 2023 18:39:02 GMT-0500 (Central Daylight Time)","265581","red","green","","470","","","","choice","","img/red_lw/choose11.jpg","2","135","red","0.5","0.1","0.5","w","",""
"animation","185","142844","0.0-5.0-2.90","5bfb5784a66aa500019dabef","bdp_lott","Sun Apr 09 2023 18:39:02 GMT-0500 (Central Daylight Time)","265581","red","green","","","","","","","","","","135","","","","","","[{""stimulus"":""img/red_lw/1.jpg"",""time"":51},{""stimulus"":""img/red_lw/2.jpg"",""time"":101},{""stimulus"":""img/red_lw/3.jpg"",""time"":152},{""stimulus"":""img/red_lw/4.jpg"",""time"":201},{""stimulus"":""img/red_lw/5.jpg"",""time"":251},{""stimulus"":""img/red_lw/6.jpg"",""time"":301},{""stimulus"":""img/red_lw/7.jpg"",""time"":352},{""stimulus"":""img/red_lw/8.jpg"",""time"":402},{""stimulus"":""img/red_lw/9.jpg"",""time"":452},{""stimulus"":""img/red_lw/10.jpg"",""time"":502},{""stimulus"":""img/red_lw/11.jpg"",""time"":552}]","[]"
"image-keyboard-response","186","143340","0.0-5.0-1.91","5bfb5784a66aa500019dabef","bdp_lott","Sun Apr 09 2023 18:39:02 GMT-0500 (Central Daylight Time)","265581","red","green","","496","","","","choice","","img/red_lw/choose11.jpg","2","134","red","0.5","0.1","0.5","w","",""
"animation","187","143940","0.0-5.0-2.91","5bfb5784a66aa500019dabef","bdp_lott","Sun Apr 09 2023 18:39:02 GMT-0500 (Central Daylight Time)","265581","red","green","","","","","","","","","","134","","","","","","[{""stimulus"":""img/red_lw/1.jpg"",""time"":51},{""stimulus"":""img/red_lw/2.jpg"",""time"":101},{""stimulus"":""img/red_lw/3.jpg"",""time"":150},{""stimulus"":""img/red_lw/4.jpg"",""time"":200},{""stimulus"":""img/red_lw/5.jpg"",""time"":251},{""stimulus"":""img/red_lw/6.jpg"",""time"":302},{""stimulus"":""img/red_lw/7.jpg"",""time"":351},{""stimulus"":""img/red_lw/8.jpg"",""time"":400},{""stimulus"":""img/red_lw/9.jpg"",""time"":451},{""stimulus"":""img/red_lw/10.jpg"",""time"":501},{""stimulus"":""img/red_lw/11.jpg"",""time"":550}]","[]"
"image-keyboard-response","188","144388","0.0-5.0-1.92","5bfb5784a66aa500019dabef","bdp_lott","Sun Apr 09 2023 18:39:02 GMT-0500 (Central Daylight Time)","265581","red","green","","448","","","","choice","","img/red_lw/choose11.jpg","2","133","red","0.5","0.1","0.5","w","",""
"animation","189","144989","0.0-5.0-2.92","5bfb5784a66aa500019dabef","bdp_lott","Sun Apr 09 2023 18:39:02 GMT-0500 (Central Daylight Time)","265581","red","green","","","","","","","","","","133","","","","","","[{""stimulus"":""img/red_lw/1.jpg"",""time"":51},{""stimulus"":""img/red_lw/2.jpg"",""time"":101},{""stimulus"":""img/red_lw/3.jpg"",""time"":150},{""stimulus"":""img/red_lw/4.jpg"",""time"":200},{""stimulus"":""img/red_lw/5.jpg"",""time"":250},{""stimulus"":""img/red_lw/6.jpg"",""time"":301},{""stimulus"":""img/red_lw/7.jpg"",""time"":350},{""stimulus"":""img/red_lw/8.jpg"",""time"":400},{""stimulus"":""img/red_lw/9.jpg"",""time"":451},{""stimulus"":""img/red_lw/10.jpg"",""time"":500},{""stimulus"":""img/red_lw/11.jpg"",""time"":551}]","[]"
"image-keyboard-response","190","145259","0.0-5.0-1.93","5bfb5784a66aa500019dabef","bdp_lott","Sun Apr 09 2023 18:39:02 GMT-0500 (Central Daylight Time)","265581","red","green","","270","","","","choice","","img/red_lw/choose11.jpg","2","132","red","0.5","0.1","0.5","w","",""
"animation","191","145861","0.0-5.0-2.93","5bfb5784a66aa500019dabef","bdp_lott","Sun Apr 09 2023 18:39:02 GMT-0500 (Central Daylight Time)","265581","red","green","","","","","","","","","","132","","","","","","[{""stimulus"":""img/red_lw/1.jpg"",""time"":51},{""stimulus"":""img/red_lw/2.jpg"",""time"":102},{""stimulus"":""img/red_lw/3.jpg"",""time"":151},{""stimulus"":""img/red_lw/4.jpg"",""time"":201},{""stimulus"":""img/red_lw/5.jpg"",""time"":251},{""stimulus"":""img/red_lw/6.jpg"",""time"":301},{""stimulus"":""img/red_lw/7.jpg"",""time"":351},{""stimulus"":""img/red_lw/8.jpg"",""time"":401},{""stimulus"":""img/red_lw/9.jpg"",""time"":451},{""stimulus"":""img/red_lw/10.jpg"",""time"":501},{""stimulus"":""img/red_lw/11.jpg"",""time"":552}]","[]"
"image-keyboard-response","192","146131","0.0-5.0-1.94","5bfb5784a66aa500019dabef","bdp_lott","Sun Apr 09 2023 18:39:02 GMT-0500 (Central Daylight Time)","265581","red","green","","269","","","","choice","","img/red_lw/choose11.jpg","2","131","red","0.5","0.1","0.5","w","",""
